time,seconds_elapsed,z,y,x
1761478543804910000,0.08091015625,-0.96844482421875,-0.0036163330078125,-0.161865234375
1761478543814946000,0.090946044921875,-0.92572021484375,-0.025482177734375,-0.168121337890625
1761478543824982300,0.100982177734375,-0.908599853515625,-0.04351806640625,-0.2100982666015625
1761478543835017200,0.111017333984375,-0.9183197021484375,-0.053680419921875,-0.265350341796875
1761478543845053200,0.12105322265625,-0.9363555908203125,-0.0487060546875,-0.310272216796875
1761478543855089200,0.131089111328125,-0.9568023681640625,-0.0370941162109375,-0.321533203125
1761478543865125000,0.141125,-0.981109619140625,-0.0296630859375,-0.3032684326171875
1761478543875160300,0.151160400390625,-1.0138397216796875,-0.0189666748046875,-0.30474853515625
1761478543885196300,0.1611962890625,-1.034332275390625,-0.0052642822265625,-0.32196044921875
1761478543895232300,0.171232177734375,-1.03363037109375,-0.0081787109375,-0.30706787109375
1761478543905268200,0.181268310546875,-1.007720947265625,-0.0149688720703125,-0.285736083984375
1761478543915304200,0.19130419921875,-0.9727630615234375,-0.0197296142578125,-0.27447509765625
1761478543925340200,0.201340087890625,-0.9495849609375,-0.0269317626953125,-0.2705078125
1761478543935375000,0.211375,-0.9325103759765625,-0.0390625,-0.267120361328125
1761478543945411300,0.221411376953125,-0.9291229248046875,-0.040069580078125,-0.2681121826171875
1761478543955447300,0.231447265625,-0.9425048828125,-0.0357818603515625,-0.2627105712890625
1761478543965483300,0.241483154296875,-0.9634857177734375,-0.04180908203125,-0.25390625
1761478543975519200,0.251519287109375,-0.98095703125,-0.044525146484375,-0.2535400390625
1761478543985554200,0.26155419921875,-1.0011749267578125,-0.038299560546875,-0.2716522216796875
1761478543995590100,0.271590087890625,-1.0108795166015625,-0.0348663330078125,-0.288177490234375
1761478544005626000,0.281626220703125,-1.00244140625,-0.037841796875,-0.2821197509765625
1761478544015662000,0.291662109375,-0.9805908203125,-0.038604736328125,-0.27154541015625
1761478544025698300,0.3016982421875,-0.9580078125,-0.0445556640625,-0.2657928466796875
1761478544035733200,0.311733154296875,-0.944732666015625,-0.0544891357421875,-0.2717742919921875
1761478544045769200,0.321769287109375,-0.9356689453125,-0.059967041015625,-0.2809906005859375
1761478544055805200,0.33180517578125,-0.93115234375,-0.0600433349609375,-0.2962799072265625
1761478544065841200,0.341841064453125,-0.9274444580078125,-0.0587158203125,-0.308380126953125
1761478544075877000,0.351877197265625,-0.9324493408203125,-0.06011962890625,-0.31060791015625
1761478544085912300,0.361912353515625,-0.947662353515625,-0.05584716796875,-0.297576904296875
1761478544095948300,0.3719482421875,-0.9764404296875,-0.0475311279296875,-0.281768798828125
1761478544105984300,0.381984375,-1.00604248046875,-0.0429840087890625,-0.2760467529296875
1761478544116020200,0.392020263671875,-1.023895263671875,-0.0437164306640625,-0.270843505859375
1761478544126055200,0.40205517578125,-1.019256591796875,-0.042205810546875,-0.2693328857421875
1761478544136091100,0.412091064453125,-1.003570556640625,-0.0424346923828125,-0.2730712890625
1761478544146127000,0.422127197265625,-0.9837188720703125,-0.0471649169921875,-0.2751007080078125
1761478544156163300,0.432163330078125,-0.9665374755859375,-0.0558013916015625,-0.2707977294921875
1761478544166199300,0.44219921875,-0.958251953125,-0.0605621337890625,-0.2673187255859375
1761478544176235300,0.4522353515625,-0.957305908203125,-0.0617828369140625,-0.26385498046875
1761478544186270200,0.462270263671875,-0.9635009765625,-0.056884765625,-0.254150390625
1761478544196306200,0.47230615234375,-0.9711151123046875,-0.0508575439453125,-0.2489166259765625
1761478544206342100,0.482342041015625,-0.97857666015625,-0.047607421875,-0.253265380859375
1761478544216378000,0.492378173828125,-0.9817352294921875,-0.0462799072265625,-0.2687530517578125
1761478544226413300,0.502413330078125,-0.9814605712890625,-0.041168212890625,-0.28582763671875
1761478544236449300,0.51244921875,-0.978851318359375,-0.0356292724609375,-0.2825775146484375
1761478544246485200,0.5224853515625,-0.98114013671875,-0.03228759765625,-0.26812744140625
1761478544256521200,0.532521240234375,-0.986663818359375,-0.0276031494140625,-0.2591400146484375
1761478544266557200,0.54255712890625,-0.992706298828125,-0.0301361083984375,-0.253814697265625
1761478544276593200,0.55259326171875,-0.990325927734375,-0.031585693359375,-0.2507781982421875
1761478544286628400,0.56262841796875,-0.980621337890625,-0.0320281982421875,-0.2492828369140625
1761478544296664300,0.572664306640625,-0.967803955078125,-0.040557861328125,-0.2618408203125
1761478544306700300,0.5827001953125,-0.956573486328125,-0.044403076171875,-0.2908782958984375
1761478544316736300,0.592736328125,-0.950714111328125,-0.048553466796875,-0.307037353515625
1761478544326772200,0.602772216796875,-0.954345703125,-0.064117431640625,-0.3085784912109375
1761478544336807200,0.61280712890625,-0.969024658203125,-0.06787109375,-0.3181304931640625
1761478544346843100,0.622843017578125,-0.998382568359375,-0.05743408203125,-0.3338623046875
1761478544356879400,0.63287939453125,-1.0227813720703125,-0.05010986328125,-0.34222412109375
1761478544366915300,0.642915283203125,-1.0360870361328125,-0.04364013671875,-0.33135986328125
1761478544376951300,0.652951416015625,-1.039794921875,-0.0366973876953125,-0.3085174560546875
1761478544386986200,0.662986328125,-1.02947998046875,-0.024658203125,-0.287750244140625
1761478544397022200,0.673022216796875,-1.010528564453125,-0.03717041015625,-0.279266357421875
1761478544407058200,0.68305810546875,-0.9933013916015625,-0.0506591796875,-0.282623291015625
1761478544417094100,0.69309423828125,-0.972930908203125,-0.0666656494140625,-0.28631591796875
1761478544427130000,0.703130126953125,-0.956512451171875,-0.0914306640625,-0.2915191650390625
1761478544437165300,0.713165283203125,-0.946746826171875,-0.097381591796875,-0.301513671875
1761478544447201300,0.723201171875,-0.94171142578125,-0.0928955078125,-0.29937744140625
1761478544457237200,0.7332373046875,-0.9371490478515625,-0.0877532958984375,-0.290191650390625
1761478544467273200,0.743273193359375,-0.938507080078125,-0.066802978515625,-0.2738800048828125
1761478544477309200,0.75330908203125,-0.93414306640625,-0.041229248046875,-0.2471923828125
1761478544487344400,0.763344482421875,-0.933990478515625,-0.03546142578125,-0.2200469970703125
1761478544497380400,0.77338037109375,-0.944000244140625,-0.04541015625,-0.2222900390625
1761478544507416300,0.783416259765625,-0.953277587890625,-0.0472259521484375,-0.2584991455078125
1761478544517452300,0.793452392578125,-0.952972412109375,-0.0543975830078125,-0.287567138671875
1761478544527488300,0.80348828125,-0.9546966552734375,-0.0621337890625,-0.2953033447265625
1761478544537524200,0.813524169921875,-0.9595489501953125,-0.057769775390625,-0.29010009765625
1761478544547559200,0.82355908203125,-0.9682464599609375,-0.04473876953125,-0.270904541015625
1761478544557595100,0.83359521484375,-0.97955322265625,-0.0360565185546875,-0.24908447265625
1761478544567631400,0.84363134765625,-0.9878692626953125,-0.0284576416015625,-0.2454071044921875
1761478544577667300,0.853667236328125,-0.9907379150390625,-0.021942138671875,-0.254974365234375
1761478544587703300,0.863703369140625,-0.995849609375,-0.0253753662109375,-0.2635345458984375
1761478544597738200,0.87373828125,-0.9946746826171875,-0.0310211181640625,-0.2716522216796875
1761478544607774200,0.883774169921875,-0.9967041015625,-0.034332275390625,-0.2706298828125
1761478544617810200,0.89381005859375,-0.993743896484375,-0.0398101806640625,-0.269561767578125
1761478544627846100,0.90384619140625,-0.9851531982421875,-0.0460357666015625,-0.26947021484375
1761478544637882000,0.913882080078125,-0.9759979248046875,-0.049224853515625,-0.27679443359375
1761478544647917300,0.923917236328125,-0.96710205078125,-0.0545501708984375,-0.27960205078125
1761478544657953300,0.933953369140625,-0.965545654296875,-0.0633544921875,-0.2776336669921875
1761478544667989200,0.9439892578125,-0.97491455078125,-0.0652923583984375,-0.2749481201171875
1761478544678025200,0.954025146484375,-0.98211669921875,-0.057403564453125,-0.2652435302734375
1761478544688061200,0.964061279296875,-0.9853973388671875,-0.05682373046875,-0.2579498291015625
1761478544698097200,0.97409716796875,-0.985626220703125,-0.055694580078125,-0.265289306640625
1761478544708132400,0.98413232421875,-0.985107421875,-0.0539093017578125,-0.2786712646484375
1761478544718168300,0.994168212890625,-0.9826507568359375,-0.0542449951171875,-0.286865234375
1761478544728204300,1.004204345703125,-0.9782257080078125,-0.0544891357421875,-0.2810821533203125
1761478544738240300,1.014240234375,-0.971893310546875,-0.055511474609375,-0.2624053955078125
1761478544748276200,1.024276123046875,-0.9694976806640625,-0.049896240234375,-0.2461395263671875
1761478544758311200,1.034311279296875,-0.9732208251953125,-0.04736328125,-0.2359771728515625
1761478544768347100,1.04434716796875,-0.9714508056640625,-0.05548095703125,-0.2313995361328125
1761478544778383400,1.05438330078125,-0.9656982421875,-0.06500244140625,-0.2378082275390625
1761478544788419300,1.06441943359375,-0.9532623291015625,-0.075775146484375,-0.2553253173828125
1761478544798455300,1.074455322265625,-0.9468994140625,-0.086273193359375,-0.2713623046875
1761478544808491300,1.0844912109375,-0.94158935546875,-0.0960540771484375,-0.2735595703125
1761478544818526200,1.094526123046875,-0.935333251953125,-0.1017303466796875,-0.2569580078125
1761478544828562200,1.104562255859375,-0.9314117431640625,-0.1019744873046875,-0.2447509765625
1761478544838598100,1.11459814453125,-0.9363861083984375,-0.0904693603515625,-0.2500152587890625
1761478544848634400,1.12463427734375,-0.9488983154296875,-0.0844268798828125,-0.257965087890625
1761478544858670300,1.13467041015625,-0.9691925048828125,-0.0826873779296875,-0.2625579833984375
1761478544868705300,1.144705322265625,-0.9833221435546875,-0.079925537109375,-0.262451171875
1761478544878741200,1.1547412109375,-0.99359130859375,-0.0782928466796875,-0.25311279296875
1761478544888777200,1.164777099609375,-0.9956817626953125,-0.0799407958984375,-0.2444000244140625
1761478544898813200,1.174813232421875,-0.9922027587890625,-0.084716796875,-0.242767333984375
1761478544908849200,1.18484912109375,-0.9816131591796875,-0.087158203125,-0.244171142578125
1761478544918885000,1.194885009765625,-0.9721221923828125,-0.0912017822265625,-0.2392425537109375
1761478544928920300,1.20492041015625,-0.9686737060546875,-0.098114013671875,-0.23004150390625
1761478544938956300,1.214956298828125,-0.9676055908203125,-0.1077423095703125,-0.2317352294921875
1761478544948992300,1.2249921875,-0.9677886962890625,-0.1194915771484375,-0.2486114501953125
1761478544959028200,1.2350283203125,-0.9658050537109375,-0.123779296875,-0.2661590576171875
1761478544969064200,1.245064208984375,-0.96502685546875,-0.1214752197265625,-0.2631378173828125
1761478544979099400,1.255099365234375,-0.9679718017578125,-0.1185150146484375,-0.241241455078125
1761478544989135400,1.26513525390625,-0.972137451171875,-0.1175384521484375,-0.21820068359375
1761478544999171300,1.27517138671875,-0.9849853515625,-0.114044189453125,-0.20867919921875
1761478545009207300,1.285207275390625,-0.988922119140625,-0.1121673583984375,-0.2042236328125
1761478545019243300,1.2952431640625,-0.98541259765625,-0.111236572265625,-0.189208984375
1761478545029279200,1.305279296875,-0.98028564453125,-0.12030029296875,-0.1793670654296875
1761478545039314200,1.315314208984375,-0.973388671875,-0.125885009765625,-0.2056732177734375
1761478545049350100,1.32535009765625,-0.983856201171875,-0.1116790771484375,-0.2500457763671875
1761478545059386400,1.335386474609375,-0.9918060302734375,-0.1027069091796875,-0.2786407470703125
1761478545069422300,1.34542236328125,-0.998199462890625,-0.09881591796875,-0.2744140625
1761478545079458600,1.35545849609375,-0.997894287109375,-0.10101318359375,-0.2567901611328125
1761478545089494500,1.36549462890625,-1.001068115234375,-0.0980987548828125,-0.25482177734375
1761478545099529500,1.375529541015625,-0.9949493408203125,-0.10113525390625,-0.2654876708984375
1761478545109565400,1.3855654296875,-0.9940185546875,-0.1149749755859375,-0.2758026123046875
1761478545119601400,1.395601318359375,-0.977264404296875,-0.1221466064453125,-0.2894134521484375
1761478545129637400,1.405637451171875,-0.9642333984375,-0.1186676025390625,-0.30035400390625
1761478545139673300,1.41567333984375,-0.9611053466796875,-0.11712646484375,-0.2991485595703125
1761478545149709600,1.42570947265625,-0.95465087890625,-0.1186065673828125,-0.29437255859375
1761478545159744500,1.43574462890625,-0.954315185546875,-0.1128082275390625,-0.2935638427734375
1761478545169780500,1.445780517578125,-0.96099853515625,-0.1100616455078125,-0.29473876953125
1761478545179816400,1.45581640625,-0.9669952392578125,-0.1165771484375,-0.294708251953125
1761478545189852400,1.465852294921875,-0.96624755859375,-0.1279754638671875,-0.2826080322265625
1761478545199888400,1.475888427734375,-0.961822509765625,-0.147186279296875,-0.28033447265625
1761478545209924400,1.48592431640625,-0.9528656005859375,-0.1619415283203125,-0.2930908203125
1761478545219959600,1.49595947265625,-0.941192626953125,-0.16033935546875,-0.305084228515625
1761478545229995500,1.50599560546875,-0.9271087646484375,-0.1436004638671875,-0.301300048828125
1761478545240031500,1.516031494140625,-0.9129791259765625,-0.11065673828125,-0.2655487060546875
1761478545250067500,1.5260673828125,-0.9198455810546875,-0.0814208984375,-0.2030487060546875
1761478545260103400,1.536103515625,-0.952911376953125,-0.0544586181640625,-0.1558685302734375
1761478545270139400,1.546139404296875,-1.008636474609375,-0.02996826171875,-0.1641845703125
1761478545280174600,1.556174560546875,-1.0870208740234375,0.0021209716796875,-0.2090911865234375
1761478545290210600,1.56621044921875,-1.136383056640625,0.02880859375,-0.237152099609375
1761478545300246500,1.57624658203125,-1.1509857177734375,0.0170440673828125,-0.239288330078125
1761478545310282500,1.586282470703125,-1.1356658935546875,-0.011474609375,-0.2656402587890625
1761478545320318500,1.596318359375,-1.0995330810546875,-0.0216827392578125,-0.3033905029296875
1761478545330353400,1.606353515625,-1.0518798828125,-0.0330047607421875,-0.3142242431640625
1761478545340389400,1.616389404296875,-1.0169677734375,-0.0382080078125,-0.2947998046875
1761478545350425600,1.626425537109375,-0.9929962158203125,-0.0367431640625,-0.270355224609375
1761478545360461600,1.636461669921875,-0.97589111328125,-0.0211334228515625,-0.2606353759765625
1761478545370497500,1.64649755859375,-0.96685791015625,-0.0048675537109375,-0.253753662109375
1761478545380533500,1.656533447265625,-0.969482421875,0.0053253173828125,-0.2510986328125
1761478545390569500,1.666569580078125,-0.9651336669921875,0.0126800537109375,-0.2515106201171875
1761478545400604400,1.6766044921875,-0.9582061767578125,0.0160064697265625,-0.2452392578125
1761478545410640400,1.686640380859375,-0.952972412109375,0.0169677734375,-0.2431488037109375
1761478545420676400,1.69667626953125,-0.9534454345703125,0.0189056396484375,-0.2560272216796875
1761478545430712600,1.706712646484375,-0.95367431640625,0.01495361328125,-0.28045654296875
1761478545440748500,1.71674853515625,-0.94488525390625,0.004302978515625,-0.3015289306640625
1761478545450783500,1.726783447265625,-0.926513671875,-0.009796142578125,-0.304962158203125
1761478545460819500,1.7368193359375,-0.9063720703125,-0.021209716796875,-0.29376220703125
1761478545470855400,1.74685546875,-0.8897552490234375,-0.0338592529296875,-0.2769012451171875
1761478545480891400,1.756891357421875,-0.8855133056640625,-0.0431365966796875,-0.2685546875
1761478545490927400,1.76692724609375,-0.8882598876953125,-0.042205810546875,-0.275482177734375
1761478545500963300,1.77696337890625,-0.8963165283203125,-0.033477783203125,-0.2872161865234375
1761478545510998500,1.78699853515625,-0.918548583984375,-0.0298004150390625,-0.2939605712890625
1761478545521034500,1.797034423828125,-0.9423980712890625,-0.0202178955078125,-0.28802490234375
1761478545531070500,1.807070556640625,-0.952362060546875,-0.018646240234375,-0.2604522705078125
1761478545541106400,1.8171064453125,-0.9628448486328125,-0.01385498046875,-0.2293548583984375
1761478545551142400,1.827142333984375,-0.97406005859375,-0.0101318359375,-0.2042083740234375
1761478545561178400,1.837178466796875,-0.9991455078125,-0.01568603515625,-0.1981201171875
1761478545571213600,1.847213623046875,-1.023284912109375,-0.020263671875,-0.2198333740234375
1761478545581249500,1.85724951171875,-1.0335235595703125,-0.0112762451171875,-0.2408447265625
1761478545591285500,1.867285400390625,-1.04559326171875,-0.006378173828125,-0.244720458984375
1761478545601321500,1.877321533203125,-1.0583038330078125,0.0025634765625,-0.238067626953125
1761478545611357400,1.887357421875,-1.0652008056640625,0.0086822509765625,-0.227935791015625
1761478545621393400,1.897393310546875,-1.063446044921875,0.015167236328125,-0.2216033935546875
1761478545631428600,1.9074287109375,-1.0557403564453125,0.020263671875,-0.2261962890625
1761478545641464600,1.917464599609375,-1.0441131591796875,0.0172119140625,-0.2413177490234375
1761478545651500500,1.92750048828125,-1.03155517578125,0.017486572265625,-0.2537841796875
1761478545661536500,1.93753662109375,-1.013153076171875,0.0211181640625,-0.2536163330078125
1761478545671572500,1.947572509765625,-0.9901123046875,0.025909423828125,-0.245147705078125
1761478545681608400,1.9576083984375,-0.9716949462890625,0.035491943359375,-0.23040771484375
1761478545691644400,1.96764453125,-0.9434967041015625,0.037689208984375,-0.21112060546875
1761478545701679400,1.977679443359375,-0.9211578369140625,0.032501220703125,-0.2025146484375
1761478545711715600,1.987715576171875,-0.9115142822265625,0.03485107421875,-0.20379638671875
1761478545721751600,1.99775146484375,-0.9232330322265625,0.0310821533203125,-0.2198638916015625
1761478545731787500,2.00778759765625,-0.9404144287109375,0.0255584716796875,-0.23992919921875
1761478545741823500,2.017823486328125,-0.95159912109375,0.0245819091796875,-0.256103515625
1761478545751858400,2.0278583984375,-0.971343994140625,0.0221099853515625,-0.2658538818359375
1761478545761894400,2.037894287109375,-0.9887237548828125,0.02191162109375,-0.273040771484375
1761478545771930400,2.047930419921875,-0.9976806640625,0.021026611328125,-0.27099609375
1761478545781966300,2.05796630859375,-1.0003204345703125,0.018463134765625,-0.2590179443359375
1761478545792002600,2.06800244140625,-0.9983673095703125,0.0181427001953125,-0.242340087890625
1761478545802038500,2.07803857421875,-0.99884033203125,0.0167083740234375,-0.226409912109375
1761478545812073500,2.088073486328125,-1.0051727294921875,0.014373779296875,-0.212432861328125
1761478545822109400,2.098109375,-1.0015411376953125,0.0070037841796875,-0.2086181640625
1761478545832145400,2.1081455078125,-0.9898834228515625,-0.000579833984375,-0.216217041015625
1761478545842181400,2.118181396484375,-0.978790283203125,-0.0015716552734375,-0.2261505126953125
1761478545852217300,2.12821728515625,-0.9689178466796875,-0.0059814453125,-0.228851318359375
1761478545862253300,2.13825341796875,-0.9611358642578125,-0.00543212890625,-0.225372314453125
1761478545872289500,2.14828955078125,-0.9627685546875,0.00189208984375,-0.2114410400390625
1761478545882324500,2.158324462890625,-0.975677490234375,0.0084075927734375,-0.1970672607421875
1761478545892360400,2.1683603515625,-0.9825439453125,0.0112152099609375,-0.1900177001953125
1761478545902396400,2.178396484375,-0.9912261962890625,0.00341796875,-0.196868896484375
1761478545912432400,2.188432373046875,-0.989959716796875,-0.0062408447265625,-0.2230987548828125
1761478545922468400,2.19846826171875,-0.989288330078125,-0.013519287109375,-0.244476318359375
1761478545932504300,2.20850439453125,-0.991943359375,-0.0179443359375,-0.2433624267578125
1761478545942539500,2.21853955078125,-0.995697021484375,-0.0064239501953125,-0.2265777587890625
1761478545952575500,2.228575439453125,-1.001617431640625,0.003509521484375,-0.2059326171875
1761478545962611500,2.238611572265625,-1.0042877197265625,-0.0005035400390625,-0.1985015869140625
1761478545972647400,2.2486474609375,-1.00067138671875,0.00006103515625,-0.214752197265625
1761478545982683400,2.258683349609375,-0.99658203125,-0.0048370361328125,-0.2377471923828125
1761478545992719400,2.26871923828125,-0.991668701171875,-0.017669677734375,-0.2534942626953125
1761478546002754600,2.278754638671875,-0.9888458251953125,-0.0241241455078125,-0.264007568359375
1761478546012790500,2.28879052734375,-0.9976806640625,-0.02130126953125,-0.267242431640625
1761478546022826500,2.298826416015625,-1.0094757080078125,-0.0233306884765625,-0.252655029296875
1761478546032862500,2.308862548828125,-1.02099609375,-0.02294921875,-0.2319183349609375
1761478546042898400,2.3188984375,-1.0284576416015625,-0.021820068359375,-0.212890625
1761478546052934400,2.328934326171875,-1.0279541015625,-0.01898193359375,-0.195648193359375
1761478546062969300,2.33896923828125,-1.0184326171875,-0.024658203125,-0.188873291015625
1761478546073005300,2.34900537109375,-0.9987030029296875,-0.04364013671875,-0.199462890625
1761478546083041800,2.359041748046875,-0.9723052978515625,-0.054534912109375,-0.218963623046875
1761478546093078000,2.369078125,-0.9548492431640625,-0.053466796875,-0.2278594970703125
1761478546103114000,2.379114013671875,-0.944305419921875,-0.044677734375,-0.2148590087890625
1761478546113150000,2.38914990234375,-0.944366455078125,-0.0371551513671875,-0.1910247802734375
1761478546123185000,2.399184814453125,-0.9492950439453125,-0.033599853515625,-0.173736572265625
1761478546133220900,2.409220947265625,-0.965850830078125,-0.0262451171875,-0.1788787841796875
1761478546143256800,2.4192568359375,-0.9825897216796875,-0.013214111328125,-0.1966705322265625
1761478546153292800,2.429292724609375,-0.989990234375,-0.02069091796875,-0.21246337890625
1761478546163328800,2.439328857421875,-0.9887542724609375,-0.0335540771484375,-0.231353759765625
1761478546173365000,2.449364990234375,-0.983154296875,-0.041412353515625,-0.2489776611328125
1761478546183400000,2.45939990234375,-0.9758758544921875,-0.0491180419921875,-0.2516021728515625
1761478546193436000,2.469435791015625,-0.97357177734375,-0.055816650390625,-0.2454071044921875
1761478546203472000,2.479471923828125,-0.978515625,-0.05450439453125,-0.2460784912109375
1761478546213507800,2.4895078125,-0.991485595703125,-0.056365966796875,-0.2569580078125
1761478546223543800,2.499543701171875,-1.0085296630859375,-0.05645751953125,-0.2772674560546875
1761478546233579800,2.509579833984375,-1.0206756591796875,-0.0512237548828125,-0.2806854248046875
1761478546243615000,2.519614990234375,-1.0382843017578125,-0.044677734375,-0.2633209228515625
1761478546253651000,2.52965087890625,-1.0516357421875,-0.038238525390625,-0.2385101318359375
1761478546263687000,2.53968701171875,-1.0525360107421875,-0.0352630615234375,-0.2234344482421875
1761478546273723000,2.549722900390625,-1.0385894775390625,-0.0377044677734375,-0.215789794921875
1761478546283758800,2.5597587890625,-1.0206756591796875,-0.0529022216796875,-0.2098236083984375
1761478546293794800,2.569794921875,-1.0049896240234375,-0.0667266845703125,-0.207122802734375
1761478546303830000,2.579830078125,-0.9932861328125,-0.072967529296875,-0.197998046875
1761478546313866000,2.589865966796875,-0.9814910888671875,-0.0847320556640625,-0.1840057373046875
1761478546323902000,2.59990185546875,-0.9807586669921875,-0.09478759765625,-0.173919677734375
1761478546333938000,2.60993798828125,-0.9870147705078125,-0.0946044921875,-0.18084716796875
1761478546343974000,2.619973876953125,-0.99041748046875,-0.09259033203125,-0.1946563720703125
1761478546354009900,2.630009765625,-1.0022430419921875,-0.0940704345703125,-0.2096099853515625
1761478546364044800,2.640044921875,-1.0044097900390625,-0.0952606201171875,-0.218994140625
1761478546374081000,2.6500810546875,-0.9977874755859375,-0.0953369140625,-0.2152099609375
1761478546384117000,2.660116943359375,-0.9844818115234375,-0.09356689453125,-0.210479736328125
1761478546394153000,2.670153076171875,-0.9637298583984375,-0.089447021484375,-0.216094970703125
1761478546404189000,2.68018896484375,-0.9444580078125,-0.0926055908203125,-0.22802734375
1761478546414225000,2.690224853515625,-0.936492919921875,-0.105560302734375,-0.24407958984375
1761478546424259800,2.700259765625,-0.9341888427734375,-0.1111907958984375,-0.2533721923828125
1761478546434295800,2.7102958984375,-0.9436492919921875,-0.10699462890625,-0.2574005126953125
1761478546444331800,2.720331787109375,-0.965728759765625,-0.0968017578125,-0.259033203125
1761478546454368000,2.730367919921875,-0.98614501953125,-0.0821990966796875,-0.260833740234375
1761478546464404000,2.740404052734375,-0.998046875,-0.071533203125,-0.25836181640625
1761478546474440000,2.75043994140625,-1.0081024169921875,-0.0743865966796875,-0.2593231201171875
1761478546484475000,2.760474853515625,-1.0119476318359375,-0.0860595703125,-0.2709197998046875
1761478546494510800,2.7705107421875,-1.0109100341796875,-0.099639892578125,-0.2847747802734375
1761478546504546800,2.780546875,-1.0005950927734375,-0.114105224609375,-0.291961669921875
1761478546514582800,2.790582763671875,-0.9868316650390625,-0.1234588623046875,-0.29180908203125
1761478546524618800,2.80061865234375,-0.9717254638671875,-0.12030029296875,-0.2831878662109375
1761478546534655000,2.810655029296875,-0.9626007080078125,-0.1010894775390625,-0.2649078369140625
1761478546544690000,2.82068994140625,-0.96844482421875,-0.0858612060546875,-0.235015869140625
1761478546554726000,2.830725830078125,-0.9820098876953125,-0.06976318359375,-0.211639404296875
1761478546564761900,2.840761962890625,-0.9991455078125,-0.0479278564453125,-0.195404052734375
1761478546574797800,2.8507978515625,-1.0191497802734375,-0.041473388671875,-0.1761932373046875
1761478546584833800,2.860833740234375,-1.0390472412109375,-0.0476531982421875,-0.1729888916015625
1761478546594869800,2.870869873046875,-1.0679473876953125,-0.044647216796875,-0.1956939697265625
1761478546604905000,2.880905029296875,-1.098236083984375,-0.0350341796875,-0.2342987060546875
1761478546614941000,2.89094091796875,-1.1296539306640625,-0.027923583984375,-0.271453857421875
1761478546624977000,2.900976806640625,-1.1463623046875,-0.0259857177734375,-0.303558349609375
1761478546635012900,2.911012939453125,-1.131622314453125,-0.02801513671875,-0.3165435791015625
1761478546645048800,2.921048828125,-1.0926513671875,-0.0313720703125,-0.3114471435546875
1761478546655084800,2.931084716796875,-1.05377197265625,-0.041015625,-0.299102783203125
1761478546665120000,2.9411201171875,-1.017303466796875,-0.0487518310546875,-0.2906951904296875
1761478546675156000,2.951156005859375,-0.9953155517578125,-0.0500030517578125,-0.2903900146484375
1761478546685192000,2.96119189453125,-0.9903411865234375,-0.0423431396484375,-0.290252685546875
1761478546695228000,2.971227783203125,-0.9879913330078125,-0.037109375,-0.2872161865234375
1761478546705263900,2.981263916015625,-0.9805145263671875,-0.037200927734375,-0.283599853515625
1761478546715299800,2.9912998046875,-0.963623046875,-0.0424041748046875,-0.28515625
1761478546725335800,3.001335693359375,-0.9359283447265625,-0.0511932373046875,-0.286407470703125
1761478546735370800,3.011370849609375,-0.9021759033203125,-0.062347412109375,-0.288848876953125
1761478546745407000,3.021406982421875,-0.8741912841796875,-0.0667724609375,-0.2973480224609375
1761478546755443000,3.03144287109375,-0.8711090087890625,-0.0673675537109375,-0.3100433349609375
1761478546765479000,3.04147900390625,-0.8856964111328125,-0.0637664794921875,-0.3188323974609375
1761478546775515000,3.051514892578125,-0.9073638916015625,-0.054718017578125,-0.3204803466796875
1761478546785550800,3.06155078125,-0.92340087890625,-0.04095458984375,-0.31390380859375
1761478546795585800,3.071585693359375,-0.938995361328125,-0.0260772705078125,-0.305511474609375
1761478546805621800,3.081621826171875,-0.94757080078125,-0.0256500244140625,-0.29473876953125
1761478546815657700,3.09165771484375,-0.947113037109375,-0.0346221923828125,-0.2938995361328125
1761478546825694000,3.10169384765625,-0.9419403076171875,-0.0395050048828125,-0.318756103515625
1761478546835730000,3.11172998046875,-0.9314727783203125,-0.0386962890625,-0.359710693359375
1761478546845766000,3.121765869140625,-0.9154815673828125,-0.04302978515625,-0.374908447265625
1761478546855800800,3.13180078125,-0.8959197998046875,-0.05023193359375,-0.35150146484375
1761478546865836800,3.1418369140625,-0.888946533203125,-0.049896240234375,-0.3166351318359375
1761478546875872800,3.151872802734375,-0.897552490234375,-0.0391693115234375,-0.28790283203125
1761478546885908700,3.16190869140625,-0.9200897216796875,-0.025177001953125,-0.2790374755859375
1761478546895945000,3.171945068359375,-0.9498138427734375,-0.011322021484375,-0.2945098876953125
1761478546905981000,3.18198095703125,-0.979644775390625,-0.0030670166015625,-0.31707763671875
1761478546916015900,3.192015869140625,-1.005157470703125,0.004119873046875,-0.3359375
1761478546926051800,3.2020517578125,-1.0141448974609375,0.0071563720703125,-0.345428466796875
1761478546936087800,3.212087890625,-1.0043487548828125,0.00640869140625,-0.3488311767578125
1761478546946123800,3.222123779296875,-0.979034423828125,0.0049896240234375,-0.3585662841796875
1761478546956159700,3.23215966796875,-0.9417572021484375,-0.0005340576171875,-0.3669586181640625
1761478546966195700,3.24219580078125,-0.902008056640625,-0.01666259765625,-0.367279052734375
1761478546976231000,3.25223095703125,-0.878814697265625,-0.029754638671875,-0.367706298828125
1761478546986267000,3.262266845703125,-0.876220703125,-0.0307769775390625,-0.3690032958984375
1761478546996302800,3.272302734375,-0.88934326171875,-0.0287017822265625,-0.367584228515625
1761478547006338800,3.2823388671875,-0.912506103515625,-0.0238494873046875,-0.375274658203125
1761478547016374800,3.292374755859375,-0.935638427734375,-0.0102081298828125,-0.3964080810546875
1761478547026410800,3.30241064453125,-0.9464263916015625,-0.006256103515625,-0.4160614013671875
1761478547036446000,3.312446044921875,-0.945892333984375,-0.0124053955078125,-0.4251251220703125
1761478547046482000,3.32248193359375,-0.9416351318359375,-0.019317626953125,-0.430511474609375
1761478547056518000,3.332517822265625,-0.95355224609375,-0.026702880859375,-0.4274749755859375
1761478547066553900,3.342553955078125,-0.981719970703125,-0.03094482421875,-0.4132843017578125
1761478547076589800,3.35258984375,-1.00823974609375,-0.030487060546875,-0.3975677490234375
1761478547086626000,3.3626259765625,-1.0137786865234375,-0.0299835205078125,-0.3889312744140625
1761478547096661000,3.372660888671875,-1.0106658935546875,-0.0283966064453125,-0.3867340087890625
1761478547106697000,3.382697021484375,-1.00115966796875,-0.0239410400390625,-0.380157470703125
1761478547116733200,3.392733154296875,-0.982635498046875,-0.02349853515625,-0.369384765625
1761478547126769200,3.40276904296875,-0.963134765625,-0.02789306640625,-0.3519439697265625
1761478547136805000,3.41280517578125,-0.9517669677734375,-0.0292816162109375,-0.335418701171875
1761478547146841000,3.422841064453125,-0.9465179443359375,-0.02593994140625,-0.3271942138671875
1761478547156877000,3.432876953125,-0.945953369140625,-0.026031494140625,-0.3260040283203125
1761478547166912000,3.442912109375,-0.9512481689453125,-0.0290679931640625,-0.3285369873046875
1761478547176948000,3.452947998046875,-0.949127197265625,-0.02789306640625,-0.3331146240234375
1761478547186984000,3.46298388671875,-0.940216064453125,-0.0325927734375,-0.3345184326171875
1761478547197020200,3.473020263671875,-0.926910400390625,-0.041229248046875,-0.342681884765625
1761478547207056100,3.48305615234375,-0.9196929931640625,-0.0483245849609375,-0.352386474609375
1761478547217092000,3.493092041015625,-0.921356201171875,-0.0600433349609375,-0.3541259765625
1761478547227127000,3.503126953125,-0.9260101318359375,-0.074859619140625,-0.3533172607421875
1761478547237163000,3.5131630859375,-0.926971435546875,-0.0838165283203125,-0.3524627685546875
1761478547247199000,3.523198974609375,-0.921905517578125,-0.086334228515625,-0.352081298828125
1761478547257235000,3.53323486328125,-0.9229888916015625,-0.0794677734375,-0.345245361328125
1761478547267271200,3.543271240234375,-0.9317474365234375,-0.0661163330078125,-0.33306884765625
1761478547277307100,3.55330712890625,-0.9428863525390625,-0.05633544921875,-0.320709228515625
1761478547287342000,3.563342041015625,-0.959197998046875,-0.0511322021484375,-0.3213653564453125
1761478547297378000,3.5733779296875,-0.9737091064453125,-0.052276611328125,-0.33453369140625
1761478547307414000,3.5834140625,-0.972747802734375,-0.060394287109375,-0.3455963134765625
1761478547317450000,3.593449951171875,-0.9616546630859375,-0.0780487060546875,-0.3510589599609375
1761478547327486000,3.60348583984375,-0.9393310546875,-0.093414306640625,-0.3591461181640625
1761478547337522000,3.61352197265625,-0.9152374267578125,-0.10546875,-0.3660736083984375
1761478547347557000,3.62355712890625,-0.8980255126953125,-0.117950439453125,-0.363525390625
1761478547357593000,3.633593017578125,-0.8905792236328125,-0.12548828125,-0.356903076171875
1761478547367629000,3.643629150390625,-0.900634765625,-0.1304473876953125,-0.3468170166015625
1761478547377665000,3.6536650390625,-0.9127197265625,-0.128021240234375,-0.33697509765625
1761478547387701000,3.663700927734375,-0.9274749755859375,-0.129547119140625,-0.32623291015625
1761478547397737000,3.673737060546875,-0.9401702880859375,-0.1416168212890625,-0.3204498291015625
1761478547407773000,3.68377294921875,-0.9424896240234375,-0.1471405029296875,-0.31927490234375
1761478547417808100,3.69380810546875,-0.938232421875,-0.1549072265625,-0.3211212158203125
1761478547427844000,3.703843994140625,-0.9340362548828125,-0.1543426513671875,-0.323638916015625
1761478547437880000,3.713880126953125,-0.93524169921875,-0.1475372314453125,-0.3105010986328125
1761478547447916000,3.723916015625,-0.9426422119140625,-0.1496124267578125,-0.2822113037109375
1761478547457952000,3.733951904296875,-0.956787109375,-0.1491546630859375,-0.251068115234375
1761478547467988000,3.743988037109375,-0.9749755859375,-0.1461944580078125,-0.2326202392578125
1761478547478023200,3.754023193359375,-0.986358642578125,-0.1414794921875,-0.2379913330078125
1761478547488059100,3.76405908203125,-0.9892730712890625,-0.1359405517578125,-0.2559051513671875
1761478547498095000,3.77409521484375,-0.98455810546875,-0.1254730224609375,-0.2732696533203125
1761478547508131000,3.784131103515625,-0.97918701171875,-0.1103057861328125,-0.2799224853515625
1761478547518167000,3.7941669921875,-0.9624481201171875,-0.1075897216796875,-0.278106689453125
1761478547528203000,3.804203125,-0.9611968994140625,-0.1116790771484375,-0.2801666259765625
1761478547538238000,3.814238037109375,-0.9513702392578125,-0.127777099609375,-0.2960205078125
1761478547548274000,3.82427392578125,-0.9300079345703125,-0.146759033203125,-0.3262481689453125
1761478547558310100,3.83431005859375,-0.9089508056640625,-0.159576416015625,-0.355987548828125
1761478547568346000,3.84434619140625,-0.892120361328125,-0.170562744140625,-0.3665313720703125
1761478547578382000,3.854382080078125,-0.8805389404296875,-0.17822265625,-0.3512420654296875
1761478547588418000,3.86441796875,-0.8747711181640625,-0.17913818359375,-0.3299560546875
1761478547598453000,3.874452880859375,-0.8910064697265625,-0.177398681640625,-0.31671142578125
1761478547608489000,3.884489013671875,-0.9170684814453125,-0.16937255859375,-0.311676025390625
1761478547618525000,3.89452490234375,-0.9467620849609375,-0.15667724609375,-0.3054351806640625
1761478547628561000,3.904560791015625,-0.967437744140625,-0.154571533203125,-0.2924346923828125
1761478547638597000,3.91459716796875,-0.9757080078125,-0.1607818603515625,-0.2864532470703125
1761478547648633000,3.924633056640625,-0.9725799560546875,-0.1705169677734375,-0.288421630859375
1761478547658669000,3.9346689453125,-0.96392822265625,-0.1857757568359375,-0.29302978515625
1761478547668704000,3.9447041015625,-0.952972412109375,-0.202667236328125,-0.3016204833984375
1761478547678740000,3.954739990234375,-0.9501953125,-0.2133636474609375,-0.316802978515625
1761478547688776000,3.96477587890625,-0.9575347900390625,-0.215789794921875,-0.33514404296875
1761478547698812000,3.97481201171875,-0.9663238525390625,-0.2102203369140625,-0.3534698486328125
1761478547708847900,3.984847900390625,-0.9793701171875,-0.1990966796875,-0.369842529296875
1761478547718884000,3.994884033203125,-0.9790802001953125,-0.1728057861328125,-0.3654937744140625
1761478547728919000,4.0049189453125,-0.9746246337890625,-0.1324615478515625,-0.3306732177734375
1761478547738955000,4.014955078125,-0.9827728271484375,-0.087158203125,-0.2756500244140625
1761478547748991000,4.024990966796875,-1.0023651123046875,-0.058868408203125,-0.2266845703125
1761478547759027000,4.03502685546875,-1.036529541015625,-0.0489654541015625,-0.2213897705078125
1761478547769063000,4.04506298828125,-1.08038330078125,-0.0398101806640625,-0.2673797607421875
1761478547779099000,4.055098876953125,-1.1120147705078125,-0.03570556640625,-0.328094482421875
1761478547789134000,4.065134033203125,-1.1112823486328125,-0.0347747802734375,-0.3607177734375
1761478547799170000,4.075170166015625,-1.09625244140625,-0.045166015625,-0.3647308349609375
1761478547809206000,4.0852060546875,-1.0729522705078125,-0.06048583984375,-0.3679656982421875
1761478547819242000,4.095241943359375,-1.0384521484375,-0.0652313232421875,-0.3689727783203125
1761478547829278000,4.10527783203125,-1.0051727294921875,-0.0754547119140625,-0.3511199951171875
1761478547839314000,4.11531396484375,-0.976104736328125,-0.08319091796875,-0.32330322265625
1761478547849350000,4.125349853515625,-0.956146240234375,-0.0807647705078125,-0.2917327880859375
1761478547859385000,4.135385009765625,-0.952728271484375,-0.07977294921875,-0.27593994140625
1761478547869421000,4.145421142578125,-0.9622344970703125,-0.0752105712890625,-0.2884521484375
1761478547879457000,4.15545703125,-0.9737396240234375,-0.05804443359375,-0.3090362548828125
1761478547889493000,4.165492919921875,-0.9774169921875,-0.04547119140625,-0.3185577392578125
1761478547899529000,4.175529052734375,-0.9712066650390625,-0.0379486083984375,-0.314453125
1761478547909565000,4.18556494140625,-0.9550323486328125,-0.033233642578125,-0.3108367919921875
1761478547919600000,4.19560009765625,-0.9344940185546875,-0.0327606201171875,-0.3025665283203125
1761478547929636000,4.205635986328125,-0.9228668212890625,-0.036773681640625,-0.2919921875
1761478547939672000,4.215672119140625,-0.9226226806640625,-0.04351806640625,-0.2869415283203125
1761478547949708000,4.2257080078125,-0.9307861328125,-0.049957275390625,-0.2976226806640625
1761478547959744000,4.235743896484375,-0.9359588623046875,-0.0570068359375,-0.313568115234375
1761478547969780000,4.245780029296875,-0.927764892578125,-0.0571136474609375,-0.316558837890625
1761478547979815000,4.25581494140625,-0.91583251953125,-0.0500335693359375,-0.2940521240234375
1761478547989851000,4.265850830078125,-0.9066162109375,-0.0453338623046875,-0.259521484375
1761478547999887000,4.27588720703125,-0.9079132080078125,-0.0511016845703125,-0.2439422607421875
1761478548009923000,4.285923095703125,-0.9143524169921875,-0.052215576171875,-0.2515411376953125
1761478548019959000,4.295958984375,-0.927978515625,-0.0593109130859375,-0.26763916015625
1761478548029995000,4.3059951171875,-0.9429168701171875,-0.0639190673828125,-0.2806854248046875
1761478548040030000,4.316030029296875,-0.9596099853515625,-0.0555419921875,-0.2899932861328125
1761478548050066000,4.32606591796875,-0.968841552734375,-0.056488037109375,-0.302001953125
1761478548060102000,4.336101806640625,-0.958465576171875,-0.057373046875,-0.3156890869140625
1761478548070137900,4.346137939453125,-0.9428253173828125,-0.05035400390625,-0.316619873046875
1761478548080174000,4.356174072265625,-0.94561767578125,-0.0464630126953125,-0.303466796875
1761478548090209300,4.366209228515625,-0.959075927734375,-0.036346435546875,-0.2860107421875
1761478548100245200,4.376245361328125,-0.9771728515625,-0.031158447265625,-0.2803192138671875
1761478548110280200,4.3862802734375,-0.9951324462890625,-0.0224456787109375,-0.286773681640625
1761478548120316200,4.396316162109375,-1.0055389404296875,-0.020416259765625,-0.287933349609375
1761478548130352400,4.406352294921875,-1.01153564453125,-0.019256591796875,-0.2899322509765625
1761478548140388400,4.416388427734375,-1.0106201171875,-0.012420654296875,-0.28826904296875
1761478548150424300,4.42642431640625,-1.0050811767578125,-0.0096893310546875,-0.2766571044921875
1761478548160460300,4.436460205078125,-0.99212646484375,-0.0157623291015625,-0.258758544921875
1761478548170495200,4.4464951171875,-0.9773406982421875,-0.0181121826171875,-0.2566070556640625
1761478548180531200,4.45653125,-0.969390869140625,-0.0139923095703125,-0.2709197998046875
1761478548190567200,4.466567138671875,-0.9632568359375,-0.013946533203125,-0.2896881103515625
1761478548200603100,4.47660302734375,-0.9564056396484375,-0.013641357421875,-0.2941131591796875
1761478548210639400,4.486639404296875,-0.94476318359375,-0.0039215087890625,-0.2756805419921875
1761478548220675300,4.49667529296875,-0.924163818359375,0.0055084228515625,-0.2445526123046875
1761478548230710300,4.506710205078125,-0.914520263671875,0.012908935546875,-0.221527099609375
1761478548240746200,4.516746337890625,-0.9186553955078125,0.0086517333984375,-0.212371826171875
1761478548250782200,4.5267822265625,-0.943634033203125,-0.0054168701171875,-0.225921630859375
1761478548260818200,4.536818115234375,-0.9737548828125,-0.021636962890625,-0.2582855224609375
1761478548270854100,4.546854248046875,-0.995513916015625,-0.03570556640625,-0.2929534912109375
1761478548280890000,4.55689013671875,-1.0104522705078125,-0.0467987060546875,-0.3183135986328125
1761478548290926300,4.56692626953125,-1.0171356201171875,-0.0484161376953125,-0.3339691162109375
1761478548300961300,4.576961181640625,-1.014404296875,-0.0399932861328125,-0.3311309814453125
1761478548310997200,4.586997314453125,-1.005279541015625,-0.0356597900390625,-0.3118438720703125
1761478548321033200,4.597033203125,-0.999542236328125,-0.0361785888671875,-0.292449951171875
1761478548331069200,4.607069091796875,-0.993377685546875,-0.03778076171875,-0.2786407470703125
1761478548341105200,4.617105224609375,-0.982177734375,-0.0420684814453125,-0.268890380859375
1761478548351141000,4.62714111328125,-0.96160888671875,-0.0487823486328125,-0.26318359375
1761478548361176300,4.63717626953125,-0.939910888671875,-0.0589447021484375,-0.256103515625
1761478548371212300,4.64721240234375,-0.93060302734375,-0.0680999755859375,-0.247650146484375
1761478548381248300,4.657248291015625,-0.9329833984375,-0.069915771484375,-0.233154296875
1761478548391284200,4.6672841796875,-0.9488677978515625,-0.0729522705078125,-0.2141265869140625
1761478548401320200,4.6773203125,-0.96917724609375,-0.0765533447265625,-0.207183837890625
1761478548411356200,4.687356201171875,-0.9844970703125,-0.0791473388671875,-0.22412109375
1761478548421392100,4.69739208984375,-0.993438720703125,-0.075714111328125,-0.2473297119140625
1761478548431427300,4.70742724609375,-0.996124267578125,-0.071533203125,-0.254364013671875
1761478548441463300,4.71746337890625,-0.98858642578125,-0.069671630859375,-0.2425384521484375
1761478548451499300,4.727499267578125,-0.97088623046875,-0.064178466796875,-0.2241668701171875
1761478548461535200,4.73753515625,-0.953582763671875,-0.058929443359375,-0.20355224609375
1761478548471571200,4.7475712890625,-0.951324462890625,-0.05780029296875,-0.1917266845703125
1761478548481607200,4.757607177734375,-0.9498291015625,-0.060821533203125,-0.2014923095703125
1761478548491642000,4.76764208984375,-0.95245361328125,-0.065948486328125,-0.2271270751953125
1761478548501678300,4.77767822265625,-0.9660797119140625,-0.06829833984375,-0.250396728515625
1761478548511714300,4.78771435546875,-0.983245849609375,-0.070709228515625,-0.2621612548828125
1761478548521750300,4.797750244140625,-1.002716064453125,-0.0669708251953125,-0.2704925537109375
1761478548531786200,4.8077861328125,-1.0200042724609375,-0.06005859375,-0.2862548828125
1761478548541822500,4.817822509765625,-1.032989501953125,-0.0511322021484375,-0.308319091796875
1761478548551857200,4.827857177734375,-1.0366058349609375,-0.0384674072265625,-0.322998046875
1761478548561893000,4.83789306640625,-1.025360107421875,-0.0382232666015625,-0.319427490234375
1761478548571929300,4.847929443359375,-1.0061187744140625,-0.0480499267578125,-0.3058624267578125
1761478548581965300,4.85796533203125,-0.9814300537109375,-0.06805419921875,-0.2960052490234375
1761478548592001300,4.868001220703125,-0.967193603515625,-0.082427978515625,-0.30133056640625
1761478548602037500,4.87803759765625,-0.96295166015625,-0.0801544189453125,-0.317626953125
1761478548612072200,4.888072265625,-0.9636077880859375,-0.075653076171875,-0.3294525146484375
1761478548622108200,4.898108154296875,-0.97015380859375,-0.0793914794921875,-0.3216094970703125
1761478548632144100,4.90814404296875,-0.97601318359375,-0.0809326171875,-0.3023223876953125
1761478548642180000,4.91818017578125,-0.9736328125,-0.085601806640625,-0.278167724609375
1761478548652216300,4.92821630859375,-0.9661865234375,-0.0988311767578125,-0.25872802734375
1761478548662252500,4.93825244140625,-0.953582763671875,-0.10980224609375,-0.2556915283203125
1761478548672288500,4.94828857421875,-0.9442901611328125,-0.1071624755859375,-0.26788330078125
1761478548682323200,4.9583232421875,-0.9405059814453125,-0.1094970703125,-0.2674560546875
1761478548692359200,4.968359130859375,-0.947845458984375,-0.1102294921875,-0.2506866455078125
1761478548702395100,4.97839501953125,-0.9557037353515625,-0.10333251953125,-0.2223663330078125
1761478548712431400,4.988431396484375,-0.9568939208984375,-0.1032562255859375,-0.1988372802734375
1761478548722467300,4.99846728515625,-0.962738037109375,-0.106658935546875,-0.20074462890625
1761478548732503300,5.00850341796875,-0.972564697265625,-0.1068267822265625,-0.2326507568359375
1761478548742538200,5.018538330078125,-0.9875946044921875,-0.0996856689453125,-0.2668304443359375
1761478548752574200,5.02857421875,-1.003631591796875,-0.091766357421875,-0.2828369140625
1761478548762610200,5.038610107421875,-1.01336669921875,-0.087890625,-0.276153564453125
1761478548772646400,5.048646484375,-1.006011962890625,-0.0854339599609375,-0.259368896484375
1761478548782682400,5.058682373046875,-0.9843597412109375,-0.0857391357421875,-0.2482147216796875
1761478548792718300,5.06871826171875,-0.9696502685546875,-0.0868377685546875,-0.254302978515625
1761478548802753300,5.078753173828125,-0.9574127197265625,-0.0877227783203125,-0.267181396484375
1761478548812789200,5.088789306640625,-0.9559326171875,-0.0881195068359375,-0.274261474609375
1761478548822825500,5.098825439453125,-0.9593505859375,-0.092041015625,-0.2720794677734375
1761478548832861400,5.108861328125,-0.9589080810546875,-0.1009521484375,-0.273956298828125
1761478548842897400,5.1188974609375,-0.9684906005859375,-0.107818603515625,-0.2800445556640625
1761478548852933400,5.128933349609375,-0.9849395751953125,-0.1139984130859375,-0.284027099609375
1761478548862969300,5.13896923828125,-0.9969940185546875,-0.1180419921875,-0.27447509765625
1761478548873004300,5.14900439453125,-0.9983367919921875,-0.1179046630859375,-0.2501220703125
1761478548883040500,5.15904052734375,-0.9981842041015625,-0.11810302734375,-0.2259063720703125
1761478548893076500,5.169076416015625,-0.9964599609375,-0.12042236328125,-0.2100372314453125
1761478548903112400,5.179112548828125,-1.0050506591796875,-0.11273193359375,-0.21435546875
1761478548913148400,5.1891484375,-1.0180511474609375,-0.102203369140625,-0.2317352294921875
1761478548923184400,5.199184326171875,-1.0236358642578125,-0.1083526611328125,-0.2474212646484375
1761478548933219300,5.20921923828125,-1.0361328125,-0.1199493408203125,-0.262481689453125
1761478548943255600,5.219255615234375,-1.0299530029296875,-0.130859375,-0.2820892333984375
1761478548953291500,5.22929150390625,-1.02447509765625,-0.1364898681640625,-0.3089752197265625
1761478548963327500,5.239327392578125,-1.00439453125,-0.138671875,-0.32177734375
1761478548973363500,5.249363525390625,-0.9702911376953125,-0.130218505859375,-0.303436279296875
1761478548983399400,5.2593994140625,-0.92364501953125,-0.11407470703125,-0.2612152099609375
1761478548993435400,5.269435302734375,-0.898773193359375,-0.1046295166015625,-0.2069854736328125
1761478549003470300,5.27947021484375,-0.8963623046875,-0.1030426025390625,-0.170928955078125
1761478549013506300,5.28950634765625,-0.9252166748046875,-0.1052093505859375,-0.1691131591796875
1761478549023542500,5.29954248046875,-0.97930908203125,-0.099212646484375,-0.2057647705078125
1761478549033578500,5.30957861328125,-1.0430755615234375,-0.0801849365234375,-0.2523956298828125
1761478549043614500,5.319614501953125,-1.105072021484375,-0.0629119873046875,-0.28021240234375
1761478549053650400,5.329650390625,-1.148681640625,-0.04754638671875,-0.2967681884765625
1761478549063685400,5.339685302734375,-1.1642913818359375,-0.0381927490234375,-0.30426025390625
1761478549073721300,5.349721435546875,-1.142059326171875,-0.0353240966796875,-0.312713623046875
1761478549083757800,5.3597578125,-1.0938873291015625,-0.0337677001953125,-0.3307952880859375
1761478549093793800,5.369793701171875,-1.0457611083984375,-0.04217529296875,-0.3428497314453125
1761478549103829800,5.379829833984375,-1.0071258544921875,-0.0567474365234375,-0.3447265625
1761478549113865700,5.38986572265625,-0.98931884765625,-0.068450927734375,-0.3409271240234375
1761478549123901000,5.39990087890625,-0.987762451171875,-0.0637664794921875,-0.349609375
1761478549133937000,5.40993701171875,-0.98828125,-0.05078125,-0.3644561767578125
1761478549143972900,5.419972900390625,-0.9726715087890625,-0.045684814453125,-0.359710693359375
1761478549154008800,5.4300087890625,-0.940582275390625,-0.0528717041015625,-0.341552734375
1761478549164044800,5.440044921875,-0.9015960693359375,-0.0627899169921875,-0.3234405517578125
1761478549174080800,5.450080810546875,-0.8709869384765625,-0.0736083984375,-0.3119049072265625
1761478549184116700,5.46011669921875,-0.8405609130859375,-0.0917205810546875,-0.3072509765625
1761478549194152000,5.47015185546875,-0.8218536376953125,-0.1125335693359375,-0.3166656494140625
1761478549204188000,5.48018798828125,-0.822265625,-0.1157379150390625,-0.3391876220703125
1761478549214224000,5.490223876953125,-0.8441009521484375,-0.105255126953125,-0.35205078125
1761478549224259800,5.500259765625,-0.885498046875,-0.0938262939453125,-0.3480377197265625
1761478549234295800,5.5102958984375,-0.9344024658203125,-0.076690673828125,-0.3369293212890625
1761478549244331800,5.520331787109375,-0.979949951171875,-0.0584869384765625,-0.3245086669921875
1761478549254367000,5.530366943359375,-1.0185089111328125,-0.045867919921875,-0.3131561279296875
1761478549264403000,5.54040283203125,-1.0277557373046875,-0.0386505126953125,-0.3173675537109375
1761478549274439000,5.55043896484375,-1.0186767578125,-0.0350799560546875,-0.33087158203125
1761478549284475000,5.560474853515625,-0.9958953857421875,-0.0399017333984375,-0.3447265625
1761478549294510800,5.5705107421875,-0.96478271484375,-0.0491485595703125,-0.3417510986328125
1761478549304546800,5.580546875,-0.93878173828125,-0.058135986328125,-0.3288116455078125
1761478549314581800,5.590581787109375,-0.92236328125,-0.0581817626953125,-0.3198089599609375
1761478549324618000,5.600617919921875,-0.91046142578125,-0.05517578125,-0.3152008056640625
1761478549334654000,5.610654052734375,-0.9090576171875,-0.051177978515625,-0.3111572265625
1761478549344690000,5.62068994140625,-0.9095611572265625,-0.0482330322265625,-0.310821533203125
1761478549354726000,5.630725830078125,-0.9177093505859375,-0.0403900146484375,-0.320709228515625
1761478549364761900,5.640761962890625,-0.9336395263671875,-0.0351409912109375,-0.330352783203125
1761478549374796800,5.650796875,-0.94378662109375,-0.0297088623046875,-0.326385498046875
1761478549384832800,5.660832763671875,-0.948883056640625,-0.023590087890625,-0.3114013671875
1761478549394868700,5.67086865234375,-0.950592041015625,-0.021331787109375,-0.295318603515625
1761478549404905000,5.680905029296875,-0.9530029296875,-0.0138702392578125,-0.288726806640625
1761478549414941000,5.69094091796875,-0.96026611328125,-0.0057373046875,-0.2875823974609375
1761478549424977000,5.700976806640625,-0.9675445556640625,0.0018157958984375,-0.2881622314453125
1761478549435013000,5.71101318359375,-0.9751434326171875,0.003387451171875,-0.29193115234375
1761478549445047800,5.7210478515625,-0.974517822265625,-0.001800537109375,-0.303436279296875
1761478549455083800,5.731083740234375,-0.9670562744140625,-0.0046844482421875,-0.3280029296875
1761478549465119700,5.74111962890625,-0.9541473388671875,-0.01025390625,-0.353607177734375
1761478549475155700,5.75115576171875,-0.932891845703125,-0.016754150390625,-0.3727874755859375
1761478549485192000,5.76119189453125,-0.9172210693359375,-0.02337646484375,-0.3771209716796875
1761478549495228200,5.771228271484375,-0.9120941162109375,-0.02716064453125,-0.3716888427734375
1761478549505262800,5.781262939453125,-0.918792724609375,-0.026397705078125,-0.3660888671875
1761478549515298800,5.791298828125,-0.9308319091796875,-0.0242156982421875,-0.3690338134765625
1761478549525334800,5.801334716796875,-0.943634033203125,-0.0212554931640625,-0.382080078125
1761478549535370800,5.811370849609375,-0.9510498046875,-0.017486572265625,-0.3888702392578125
1761478549545407000,5.821406982421875,-0.9644012451171875,-0.024078369140625,-0.3806610107421875
1761478549555443000,5.83144287109375,-0.973663330078125,-0.038604736328125,-0.381591796875
1761478549565478000,5.841477783203125,-0.961517333984375,-0.045928955078125,-0.4008636474609375
1761478549575513900,5.851513916015625,-0.9404296875,-0.050567626953125,-0.42474365234375
1761478549585549800,5.8615498046875,-0.9216766357421875,-0.0657958984375,-0.4372711181640625
1761478549595585800,5.871585693359375,-0.9246063232421875,-0.07928466796875,-0.4326934814453125
1761478549605622000,5.8816220703125,-0.94049072265625,-0.066986083984375,-0.416656494140625
1761478549615658000,5.891657958984375,-0.9620819091796875,-0.05474853515625,-0.38580322265625
1761478549625693000,5.90169287109375,-1.0001983642578125,-0.051605224609375,-0.371490478515625
1761478549635729000,5.91172900390625,-1.042724609375,-0.0347442626953125,-0.385345458984375
1761478549645764900,5.921764892578125,-1.0587310791015625,-0.0223388671875,-0.3914337158203125
1761478549655801000,5.931801025390625,-1.03607177734375,-0.0220947265625,-0.3814544677734375
1761478549665837000,5.941837158203125,-0.989654541015625,-0.0254364013671875,-0.359588623046875
1761478549675873000,5.951873046875,-0.94140625,-0.04150390625,-0.34320068359375
1761478549685909000,5.961908935546875,-0.9103851318359375,-0.05804443359375,-0.341888427734375
1761478549695944000,5.97194384765625,-0.8946685791015625,-0.0745391845703125,-0.3524322509765625
1761478549705980000,5.98197998046875,-0.88165283203125,-0.089569091796875,-0.371826171875
1761478549716016000,5.99201611328125,-0.869873046875,-0.09381103515625,-0.387359619140625
1761478549726052000,6.002052001953125,-0.871063232421875,-0.0854339599609375,-0.3871612548828125
1761478549736088000,6.012088134765625,-0.878753662109375,-0.0731048583984375,-0.36328125
1761478549746124000,6.0221240234375,-0.8980865478515625,-0.0637359619140625,-0.3309326171875
1761478549756158700,6.03215869140625,-0.920379638671875,-0.060791015625,-0.3055267333984375
1761478549766195000,6.04219482421875,-0.9315185546875,-0.066375732421875,-0.292083740234375
1761478549776231200,6.052231201171875,-0.9388275146484375,-0.0742034912109375,-0.296051025390625
1761478549786267100,6.06226708984375,-0.942596435546875,-0.0854339599609375,-0.309051513671875
1761478549796303000,6.07230322265625,-0.94232177734375,-0.0966949462890625,-0.3183441162109375
1761478549806339000,6.082339111328125,-0.950836181640625,-0.103607177734375,-0.32855224609375
1761478549816373800,6.092373779296875,-0.9534912109375,-0.10223388671875,-0.3363800048828125
1761478549826410000,6.102409912109375,-0.9605255126953125,-0.095367431640625,-0.339263916015625
1761478549836446000,6.112446044921875,-0.9698486328125,-0.084564208984375,-0.331695556640625
1761478549846482000,6.12248193359375,-0.9836273193359375,-0.083221435546875,-0.3093109130859375
1761478549856518100,6.13251806640625,-1.0039520263671875,-0.0842132568359375,-0.289581298828125
1761478549866554000,6.14255419921875,-1.01953125,-0.0818939208984375,-0.287750244140625
1761478549876588800,6.1525888671875,-1.0298309326171875,-0.076873779296875,-0.31024169921875
1761478549886625000,6.162625,-1.024444580078125,-0.0731353759765625,-0.3416290283203125
1761478549896661000,6.172660888671875,-1.0042572021484375,-0.081390380859375,-0.349853515625
1761478549906697000,6.182697021484375,-0.9763336181640625,-0.0943603515625,-0.33587646484375
1761478549916733000,6.19273291015625,-0.953948974609375,-0.10546875,-0.31500244140625
1761478549926769000,6.202768798828125,-0.9461212158203125,-0.112274169921875,-0.2990875244140625
1761478549936805000,6.21280517578125,-0.9432525634765625,-0.1201934814453125,-0.294525146484375
1761478549946840000,6.222840087890625,-0.9451904296875,-0.121429443359375,-0.30255126953125
1761478549956876000,6.2328759765625,-0.941436767578125,-0.1224517822265625,-0.31072998046875
1761478549966912000,6.242912109375,-0.931488037109375,-0.1187591552734375,-0.3115386962890625
1761478549976948000,6.252947998046875,-0.921630859375,-0.116851806640625,-0.295318603515625
1761478549986984000,6.26298388671875,-0.9192657470703125,-0.119873046875,-0.2757720947265625
1761478549997020000,6.27302001953125,-0.926025390625,-0.1240692138671875,-0.26251220703125
1761478550007055000,6.28305517578125,-0.927154541015625,-0.1297607421875,-0.2682952880859375
1761478550017091000,6.293091064453125,-0.9172515869140625,-0.13232421875,-0.2973480224609375
1761478550027127000,6.303126953125,-0.8996734619140625,-0.1337432861328125,-0.3366851806640625
1761478550037163000,6.3131630859375,-0.8886260986328125,-0.137725830078125,-0.3657379150390625
1761478550047199000,6.323198974609375,-0.8928680419921875,-0.1477813720703125,-0.3812408447265625
1761478550057235000,6.33323486328125,-0.9100341796875,-0.1555633544921875,-0.38604736328125
1761478550067270100,6.343270263671875,-0.933441162109375,-0.151275634765625,-0.3790740966796875
1761478550077306000,6.35330615234375,-0.9518585205078125,-0.15106201171875,-0.3614654541015625
1761478550087341600,6.363341552734375,-0.964935302734375,-0.141448974609375,-0.340850830078125
1761478550097377500,6.37337744140625,-0.971771240234375,-0.1292724609375,-0.3175506591796875
1761478550107413500,6.38341357421875,-0.979217529296875,-0.13018798828125,-0.301666259765625
1761478550117449500,6.393449462890625,-0.9863739013671875,-0.1309967041015625,-0.296722412109375
1761478550127484700,6.403484619140625,-0.9842681884765625,-0.1380615234375,-0.3028564453125
1761478550137520600,6.413520751953125,-0.97674560546875,-0.14617919921875,-0.31121826171875
1761478550147556600,6.423556640625,-0.9608612060546875,-0.156890869140625,-0.3179931640625
1761478550157592600,6.433592529296875,-0.94146728515625,-0.1673431396484375,-0.318878173828125
1761478550167628500,6.443628662109375,-0.9204254150390625,-0.1724090576171875,-0.313232421875
1761478550177664500,6.45366455078125,-0.9012298583984375,-0.174530029296875,-0.2955322265625
1761478550187699500,6.463699462890625,-0.90045166015625,-0.1719970703125,-0.26971435546875
1761478550197735400,6.4737353515625,-0.9138336181640625,-0.15869140625,-0.2540130615234375
1761478550207771600,6.483771728515625,-0.9358673095703125,-0.14453125,-0.269989013671875
1761478550217807600,6.4938076171875,-0.958160400390625,-0.134552001953125,-0.323394775390625
1761478550227843600,6.503843505859375,-0.9673309326171875,-0.1321563720703125,-0.3806610107421875
1761478550237879600,6.513879638671875,-0.9616851806640625,-0.136566162109375,-0.40496826171875
1761478550247915500,6.52391552734375,-0.941986083984375,-0.1336669921875,-0.3964996337890625
1761478550257950500,6.533950439453125,-0.92156982421875,-0.114990234375,-0.3642425537109375
1761478550267986400,6.543986328125,-0.9150238037109375,-0.0833587646484375,-0.3266754150390625
1761478550278022400,6.5540224609375,-0.9325714111328125,-0.0571746826171875,-0.311737060546875
1761478550288058600,6.56405859375,-0.9771728515625,-0.0438690185546875,-0.327789306640625
1761478550298094600,6.574094482421875,-1.0399627685546875,-0.0310516357421875,-0.359954833984375
1761478550308130600,6.584130615234375,-1.1123809814453125,-0.024200439453125,-0.404022216796875
1761478550318165500,6.59416552734375,-1.1687469482421875,-0.030120849609375,-0.4463653564453125
1761478550328201500,6.604201416015625,-1.204193115234375,-0.0371856689453125,-0.4840850830078125
1761478550338237400,6.614237548828125,-1.2099456787109375,-0.0455474853515625,-0.495025634765625
1761478550348273400,6.6242734375,-1.19610595703125,-0.0534820556640625,-0.4645843505859375
1761478550358309600,6.6343095703125,-1.16473388671875,-0.06378173828125,-0.39691162109375
1761478550368345600,6.644345703125,-1.1171112060546875,-0.073211669921875,-0.3198699951171875
1761478550378380500,6.654380615234375,-1.0616607666015625,-0.0742340087890625,-0.2509307861328125
1761478550388416500,6.66441650390625,-1.004608154296875,-0.084228515625,-0.19573974609375
1761478550398452500,6.674452392578125,-0.951324462890625,-0.0958709716796875,-0.1737060546875
1761478550408488400,6.684488525390625,-0.8972625732421875,-0.0864410400390625,-0.1664581298828125
1761478550418524400,6.6945244140625,-0.8474578857421875,-0.084442138671875,-0.16607666015625
1761478550428560400,6.704560302734375,-0.8288726806640625,-0.0768585205078125,-0.1799163818359375
1761478550438595600,6.714595703125,-0.8285980224609375,-0.0737152099609375,-0.2076568603515625
1761478550448631600,6.724631591796875,-0.84368896484375,-0.0670166015625,-0.228759765625
1761478550458667500,6.73466748046875,-0.8570556640625,-0.046112060546875,-0.2324371337890625
1761478550468703500,6.744703369140625,-0.874542236328125,-0.050445556640625,-0.241455078125
1761478550478739500,6.754739501953125,-0.88995361328125,-0.0603790283203125,-0.2801055908203125
1761478550488775400,6.764775390625,-0.90570068359375,-0.066009521484375,-0.3282012939453125
1761478550498810600,6.774810546875,-0.921875,-0.0593109130859375,-0.3587493896484375
1761478550508846600,6.7848466796875,-0.9203948974609375,-0.0506134033203125,-0.36602783203125
1761478550518882600,6.794882568359375,-0.91558837890625,-0.0565948486328125,-0.361419677734375
1761478550528918500,6.80491845703125,-0.91015625,-0.0539093017578125,-0.3543243408203125
1761478550538954500,6.81495458984375,-0.922088623046875,-0.028717041015625,-0.3402252197265625
1761478550548990500,6.824990478515625,-0.9437408447265625,-0.007781982421875,-0.3243255615234375
1761478550559025400,6.835025390625,-0.9639892578125,0.006927490234375,-0.313446044921875
1761478550569061600,6.8450615234375,-0.9681396484375,0.01025390625,-0.302978515625
1761478550579097600,6.85509765625,-0.9757080078125,0.00146484375,-0.3014373779296875
1761478550589133600,6.865133544921875,-1.0008087158203125,0.0149078369140625,-0.3111114501953125
1761478550599169500,6.87516943359375,-1.0154266357421875,0.0330352783203125,-0.30780029296875
1761478550609205500,6.88520556640625,-1.0178375244140625,0.03875732421875,-0.2921142578125
1761478550619241500,6.895241455078125,-1.01129150390625,0.050994873046875,-0.275848388671875
1761478550629276400,6.9052763671875,-0.9841156005859375,0.060760498046875,-0.259613037109375
1761478550639312400,6.9153125,-0.939117431640625,0.04156494140625,-0.2372894287109375
1761478550649348600,6.9253486328125,-0.90045166015625,0.01470947265625,-0.2276611328125
1761478550659384600,6.935384521484375,-0.8889007568359375,0.0072784423828125,-0.2177886962890625
1761478550669420500,6.945420654296875,-0.9183807373046875,0.011260986328125,-0.224700927734375
1761478550679456500,6.95545654296875,-0.97186279296875,0.031829833984375,-0.2707366943359375
1761478550689491500,6.965491455078125,-1.0095672607421875,0.0418701171875,-0.3232879638671875
1761478550699527400,6.97552734375,-1.0026702880859375,0.0299224853515625,-0.341949462890625
1761478550709563400,6.9855634765625,-0.975982666015625,0.0218048095703125,-0.333282470703125
1761478550719599400,6.995599365234375,-0.955596923828125,0.01806640625,-0.3031463623046875
1761478550729635600,7.005635498046875,-0.9539337158203125,0.003173828125,-0.2624359130859375
1761478550739671600,7.015671630859375,-0.96331787109375,-0.0084381103515625,-0.244110107421875
1761478550749706500,7.02570654296875,-0.98077392578125,-0.002166748046875,-0.265380859375
1761478550759742500,7.035742431640625,-0.9974212646484375,0.0018768310546875,-0.29510498046875
1761478550769778400,7.0457783203125,-1.010711669921875,-0.0019073486328125,-0.3009490966796875
1761478550779814400,7.055814453125,-1.0168609619140625,-0.004608154296875,-0.29345703125
1761478550789850400,7.065850341796875,-1.0182037353515625,-0.00238037109375,-0.2783203125
1761478550799886600,7.075886474609375,-1.0274658203125,-0.01104736328125,-0.2618255615234375
1761478550809921500,7.085921630859375,-1.031524658203125,-0.015655517578125,-0.25469970703125
1761478550819957500,7.09595751953125,-1.0251922607421875,-0.0120849609375,-0.254974365234375
1761478550829993500,7.105993408203125,-0.999847412109375,-0.013336181640625,-0.24993896484375
1761478550840029400,7.116029541015625,-0.972137451171875,-0.0154571533203125,-0.2453460693359375
1761478550850065400,7.1260654296875,-0.9668731689453125,-0.0078582763671875,-0.2504119873046875
1761478550860101400,7.136101318359375,-0.9809112548828125,-0.00811767578125,-0.259979248046875
1761478550870136600,7.146136474609375,-0.9858245849609375,-0.010894775390625,-0.2773895263671875
1761478550880172500,7.156172607421875,-0.9730682373046875,-0.0172882080078125,-0.293701171875
1761478550890208500,7.16620849609375,-0.9499359130859375,-0.0321502685546875,-0.2948455810546875
1761478550900244500,7.176244384765625,-0.9260406494140625,-0.035736083984375,-0.2809295654296875
1761478550910280400,7.186280517578125,-0.9113311767578125,-0.0324554443359375,-0.268707275390625
1761478550920316400,7.19631640625,-0.9184112548828125,-0.034332275390625,-0.2771453857421875
1761478550930351600,7.2063515625,-0.9415283203125,-0.028564453125,-0.311004638671875
1761478550940387600,7.2163876953125,-0.97052001953125,-0.024658203125,-0.3368072509765625
1761478550950423600,7.226423583984375,-0.9729461669921875,-0.042816162109375,-0.339691162109375
1761478550960459500,7.23645947265625,-0.9507904052734375,-0.0509796142578125,-0.3368988037109375
1761478550970495500,7.24649560546875,-0.916778564453125,-0.0628662109375,-0.3199310302734375
1761478550980531500,7.256531494140625,-0.8822174072265625,-0.079681396484375,-0.2967376708984375
1761478550990566400,7.26656640625,-0.8658294677734375,-0.0908355712890625,-0.289031982421875
1761478551000602400,7.276602294921875,-0.8583526611328125,-0.092498779296875,-0.3002166748046875
1761478551010638600,7.286638671875,-0.8700103759765625,-0.0841064453125,-0.32135009765625
1761478551020674600,7.296674560546875,-0.905670166015625,-0.082061767578125,-0.3280181884765625
1761478551030710500,7.30671044921875,-0.949676513671875,-0.0905914306640625,-0.324310302734375
1761478551040746500,7.31674658203125,-0.985321044921875,-0.1040191650390625,-0.313995361328125
1761478551050781400,7.326781494140625,-1.01116943359375,-0.1203155517578125,-0.30859375
1761478551060817400,7.3368173828125,-1.0229644775390625,-0.128753662109375,-0.314208984375
1761478551070853400,7.346853271484375,-1.0346221923828125,-0.1299591064453125,-0.3045196533203125
1761478551080889300,7.356889404296875,-1.0504608154296875,-0.1274871826171875,-0.2800140380859375
1761478551090924800,7.3669248046875,-1.06280517578125,-0.11663818359375,-0.2551116943359375
1761478551100960800,7.376960693359375,-1.0603485107421875,-0.1153564453125,-0.2371368408203125
1761478551110995700,7.38699560546875,-1.0424652099609375,-0.1238861083984375,-0.2374267578125
1761478551121031700,7.39703173828125,-1.0191650390625,-0.13739013671875,-0.2524566650390625
1761478551131067600,7.407067626953125,-0.9899139404296875,-0.1445159912109375,-0.2694091796875
1761478551141103900,7.417103759765625,-0.958648681640625,-0.137908935546875,-0.2783966064453125
1761478551151139800,7.427139892578125,-0.9304046630859375,-0.12164306640625,-0.258697509765625
1761478551161175800,7.43717578125,-0.9063720703125,-0.097503662109375,-0.2200775146484375
1761478551171210800,7.447210693359375,-0.8914947509765625,-0.0819854736328125,-0.1849365234375
1761478551181246700,7.457246826171875,-0.885589599609375,-0.0923309326171875,-0.1761474609375
1761478551191282700,7.46728271484375,-0.8922576904296875,-0.1058197021484375,-0.208099365234375
1761478551201318700,7.477318603515625,-0.913360595703125,-0.1097869873046875,-0.2764739990234375
1761478551211354600,7.487354736328125,-0.954376220703125,-0.11126708984375,-0.3431243896484375
1761478551221390800,7.497390869140625,-1.01031494140625,-0.092742919921875,-0.3886566162109375
1761478551231425800,7.50742578125,-1.0286102294921875,-0.1050872802734375,-0.389312744140625
1761478551241461800,7.517461669921875,-0.9967803955078125,-0.0967864990234375,-0.3023681640625
1761478551251497700,7.527497802734375,-1.02001953125,-0.062469482421875,-0.26068115234375
1761478551261533700,7.53753369140625,-1.0200347900390625,-0.0850067138671875,-0.2418670654296875
1761478551271569700,7.547569580078125,-1.021697998046875,-0.0792694091796875,-0.2841796875
1761478551281605600,7.557605712890625,-0.999053955078125,-0.0952301025390625,-0.3770904541015625
1761478551291640800,7.567640869140625,-0.9433135986328125,-0.1211700439453125,-0.434722900390625
1761478551301676800,7.5776767578125,-0.9143218994140625,-0.116058349609375,-0.4474334716796875
1761478551311712800,7.587712646484375,-0.9009552001953125,-0.107391357421875,-0.4053955078125
1761478551321748700,7.597748779296875,-0.907440185546875,-0.0987091064453125,-0.334381103515625
1761478551331784700,7.60778466796875,-0.9307098388671875,-0.09088134765625,-0.28326416015625
1761478551341820700,7.617820556640625,-0.9521484375,-0.0832366943359375,-0.26654052734375
1761478551351855900,7.62785595703125,-0.96722412109375,-0.0945587158203125,-0.2744598388671875
1761478551361891800,7.637891845703125,-0.9745635986328125,-0.110565185546875,-0.287841796875
1761478551371927800,7.647927734375,-0.9753265380859375,-0.12542724609375,-0.2938079833984375
1761478551381963800,7.6579638671875,-0.968780517578125,-0.1330413818359375,-0.281982421875
1761478551391999700,7.667999755859375,-0.970794677734375,-0.1386871337890625,-0.264312744140625
1761478551402035700,7.67803564453125,-0.97955322265625,-0.149200439453125,-0.2555084228515625
1761478551412070700,7.688070556640625,-1.0020904541015625,-0.156036376953125,-0.2603302001953125
1761478551422106600,7.698106689453125,-1.0322113037109375,-0.1506500244140625,-0.2757110595703125
1761478551432142800,7.708142822265625,-1.039276123046875,-0.1208038330078125,-0.2757110595703125
1761478551442178800,7.7181787109375,-1.020538330078125,-0.08319091796875,-0.24591064453125
1761478551452214800,7.72821484375,-0.990020751953125,-0.0631866455078125,-0.211669921875
1761478551462250800,7.738250732421875,-0.975830078125,-0.0467376708984375,-0.1922454833984375
1761478551472285700,7.74828564453125,-1.00518798828125,-0.0461273193359375,-0.1906585693359375
1761478551482321700,7.75832177734375,-1.0572357177734375,-0.052337646484375,-0.220428466796875
1761478551492357600,7.768357666015625,-1.11602783203125,-0.054931640625,-0.27752685546875
1761478551502393600,7.7783935546875,-1.1509857177734375,-0.0671234130859375,-0.3471221923828125
1761478551512429800,7.788429931640625,-1.143890380859375,-0.0782012939453125,-0.4214324951171875
1761478551522465800,7.7984658203125,-1.108978271484375,-0.0837249755859375,-0.4618377685546875
1761478551532500700,7.808500732421875,-1.0629119873046875,-0.0886383056640625,-0.4531402587890625
1761478551542536700,7.81853662109375,-1.0093841552734375,-0.0848388671875,-0.407806396484375
1761478551552572700,7.82857275390625,-0.972412109375,-0.0746612548828125,-0.3484954833984375
1761478551562608600,7.838608642578125,-0.9561614990234375,-0.0644073486328125,-0.3062286376953125
1761478551572644600,7.84864453125,-0.9606475830078125,-0.0460205078125,-0.2852783203125
1761478551582680600,7.8586806640625,-0.976959228515625,-0.037261962890625,-0.2739410400390625
1761478551592715800,7.8687158203125,-0.98858642578125,-0.0420379638671875,-0.27471923828125
1761478551602751700,7.878751708984375,-0.97369384765625,-0.0460052490234375,-0.2931976318359375
1761478551612787700,7.88878759765625,-0.9473419189453125,-0.0491485595703125,-0.3140716552734375
1761478551622823700,7.89882373046875,-0.907806396484375,-0.04998779296875,-0.33502197265625
1761478551632859600,7.908859619140625,-0.869903564453125,-0.0607452392578125,-0.334228515625
1761478551642895600,7.9188955078125,-0.8389129638671875,-0.0747833251953125,-0.3184814453125
1761478551652930800,7.928930908203125,-0.81781005859375,-0.0726318359375,-0.2944183349609375
1761478551662966800,7.938966796875,-0.81536865234375,-0.0680999755859375,-0.2626953125
1761478551673002800,7.949002685546875,-0.8402862548828125,-0.0562591552734375,-0.2428131103515625
1761478551683038700,7.959038818359375,-0.8962554931640625,-0.0307464599609375,-0.255462646484375
1761478551693074700,7.96907470703125,-0.973724365234375,0.0110626220703125,-0.2723388671875
1761478551703110700,7.979110595703125,-1.048126220703125,0.04144287109375,-0.2760772705078125
1761478551713145900,7.989145751953125,-1.0813751220703125,0.0554046630859375,-0.2874298095703125
1761478551723181800,7.999181884765625,-1.0772857666015625,0.066192626953125,-0.2905120849609375
1761478551733217800,8.0092177734375,-1.0460662841796875,0.0772857666015625,-0.2869415283203125
1761478551743253800,8.019253662109374,-0.991241455078125,0.0793609619140625,-0.2889251708984375
1761478551753289700,8.029289794921874,-0.940948486328125,0.064697265625,-0.294097900390625
1761478551763325700,8.03932568359375,-0.9186553955078125,0.042755126953125,-0.323394775390625
1761478551773360600,8.049360595703124,-0.9052581787109375,0.023162841796875,-0.38079833984375
1761478551783396600,8.059396728515624,-0.8948211669921875,0.0011749267578125,-0.44232177734375
1761478551793432800,8.069432861328124,-0.879669189453125,-0.0200958251953125,-0.498748779296875
1761478551803468800,8.07946875,-0.8513031005859375,-0.0366973876953125,-0.528656005859375
1761478551813504800,8.0895048828125,-0.826751708984375,-0.0380401611328125,-0.5193939208984375
1761478551823540700,8.099540771484374,-0.837982177734375,-0.0344390869140625,-0.4851226806640625
1761478551833575700,8.10957568359375,-0.8776092529296875,-0.0181884765625,-0.4391632080078125
1761478551843611600,8.119611572265624,-0.92694091796875,0.013671875,-0.3974456787109375
1761478551853647600,8.129647705078124,-0.9684906005859375,0.0311737060546875,-0.36181640625
1761478551863683600,8.13968359375,-0.99078369140625,0.016387939453125,-0.3421783447265625
1761478551873719800,8.1497197265625,-1.0010833740234375,0.0012054443359375,-0.3412017822265625
1761478551883755800,8.159755859375,-1.001953125,-0.0035858154296875,-0.341217041015625
1761478551893790700,8.169790771484376,-0.9884490966796875,-0.0157318115234375,-0.3322296142578125
1761478551903826700,8.17982666015625,-0.9869842529296875,-0.028533935546875,-0.324127197265625
1761478551913862700,8.189862548828126,-0.9856109619140625,-0.0303192138671875,-0.33209228515625
1761478551923898600,8.199898681640626,-0.9849853515625,-0.030670166015625,-0.3567962646484375
1761478551933934600,8.2099345703125,-0.9710845947265625,-0.043609619140625,-0.3768768310546875
1761478551943970600,8.219970458984376,-0.938751220703125,-0.0560150146484375,-0.3815460205078125
1761478551954005800,8.230005859375,-0.9024810791015625,-0.0639801025390625,-0.3678131103515625
1761478551964041700,8.240041748046876,-0.871490478515625,-0.0660552978515625,-0.34429931640625
1761478551974077700,8.25007763671875,-0.85382080078125,-0.064788818359375,-0.3278045654296875
1761478551984113700,8.26011376953125,-0.8607025146484375,-0.0529632568359375,-0.3292083740234375
1761478551994149600,8.270149658203126,-0.8928070068359375,-0.040618896484375,-0.337005615234375
1761478552004185600,8.280185546875,-0.9278106689453125,-0.0269012451171875,-0.3305206298828125
1761478552014220800,8.290220703125,-0.94793701171875,-0.0207977294921875,-0.3053436279296875
1761478552024256800,8.3002568359375,-0.9698944091796875,-0.026214599609375,-0.279632568359375
1761478552034292700,8.310292724609376,-0.967041015625,-0.031707763671875,-0.270294189453125
1761478552044328700,8.32032861328125,-0.962982177734375,-0.044281005859375,-0.2933349609375
1761478552054364700,8.33036474609375,-0.962432861328125,-0.057403564453125,-0.32916259765625
1761478552064400600,8.340400634765626,-0.96551513671875,-0.0676727294921875,-0.3600006103515625
1761478552074435600,8.350435546875,-0.9901885986328125,-0.0702972412109375,-0.3673858642578125
1761478552084471800,8.360471923828126,-1.01165771484375,-0.069488525390625,-0.3518218994140625
1761478552094509000,8.370509033203126,-1.00701904296875,-0.058441162109375,-0.3099822998046875
1761478552104545000,8.380544921875,-0.9780426025390625,-0.0523223876953125,-0.247894287109375
1761478552114581000,8.3905810546875,-0.9324951171875,-0.068634033203125,-0.2120361328125
1761478552124617200,8.4006171875,-0.9103851318359375,-0.0963592529296875,-0.2294464111328125
1761478552134652200,8.410652099609376,-0.936431884765625,-0.0981903076171875,-0.278045654296875
1761478552144688000,8.420688232421876,-0.9722900390625,-0.06256103515625,-0.3165283203125
1761478552154724000,8.43072412109375,-0.933685302734375,0.0232391357421875,-0.29449462890625
1761478552164760000,8.440760009765626,-0.9430999755859375,-0.1384735107421875,-0.1671600341796875
1761478552174796000,8.450796142578126,-0.9629974365234375,-0.2138824462890625,-0.160980224609375
1761478552184832000,8.46083203125,-1.033172607421875,-0.1246490478515625,-0.272552490234375
1761478552194867200,8.4708671875,-1.0632171630859375,-0.115631103515625,-0.3488006591796875
1761478552204903200,8.480903076171876,-1.062103271484375,-0.1333465576171875,-0.3752593994140625
1761478552214939100,8.490939208984376,-1.0512542724609375,-0.1097412109375,-0.3593597412109375
1761478552224975000,8.50097509765625,-1.0040283203125,-0.059844970703125,-0.336883544921875
