time,seconds_elapsed,z,y,x
1761478543818708200,0.094708251953125,0.45442835983037944,0.017333156388439238,0.860789731106162
1761478543828744200,0.104744140625,0.5233107573986053,-0.1412745568230748,0.37277503575533627
1761478543838779100,0.114779052734375,0.3650894496887922,-0.19632409774139523,-0.15913929933756588
1761478543848815000,0.124815185546875,0.18864041137099266,-0.11460490535590798,-0.4855144029676914
1761478543858851000,0.13485107421875,-0.02870119382739067,-0.021595197747088967,-0.4663561135113239
1761478543868887300,0.14488720703125,-0.29827567508816716,0.040095425153523684,-0.2791200159803033
1761478543878922200,0.154922119140625,-0.6052601418107748,0.17310241303732618,-0.42372810114026066
1761478543888958200,0.164958251953125,-0.7282365331381558,0.26584351457152516,-0.4851964230597019
1761478543898994200,0.174994140625,-0.6345499491810799,0.21027590459585188,-0.2718485636726022
1761478543909030100,0.185030029296875,-0.31106384499073025,0.17601148715075104,-0.09832418062984943
1761478543919066000,0.195066162109375,-0.0067477206945419305,0.13711736407838762,-0.023963936172425745
1761478543929102000,0.20510205078125,0.19495266325771807,0.0530160988619551,0.01786561929732561
1761478543939137300,0.21513720703125,0.3230091343283653,-0.04240012189932167,0.02879822446107864
1761478543949173200,0.22517333984375,0.28727848025560376,-0.011440408555418252,0.03960457289665937
1761478543959209200,0.235209228515625,0.11586743610501289,-0.0066571198016405105,0.1137342234686017
1761478543969245200,0.2452451171875,-0.08501286363601684,-0.08484696901720017,0.19835224256813525
1761478543979281200,0.25528125,-0.2610843008130789,-0.07595514896605163,0.13659925848841667
1761478543989316400,0.26531640625,-0.4528934053480625,-0.0015330913187935947,-0.0734860919713974
1761478543999352300,0.275352294921875,-0.47089434146285053,0.0028249942928552626,-0.1469134394928813
1761478544009388300,0.28538818359375,-0.334641704455018,-0.004044453085213899,-0.05384703326076269
1761478544019424300,0.29542431640625,-0.09551613747179508,-0.006252374925650656,0.043598610968887806
1761478544029460200,0.305460205078125,0.08653378959298133,-0.08048533974159508,0.05381050064265728
1761478544039495200,0.3154951171875,0.2029161894828081,-0.15395459017604587,-0.026042203751206396
1761478544049531100,0.32553125,0.2696083835303783,-0.1916178562792018,-0.14034779736697672
1761478544059567000,0.335567138671875,0.3188081755071878,-0.16626706885825843,-0.29289836596399543
1761478544069603300,0.345603271484375,0.3228746942937374,-0.18189280027430504,-0.392262995557487
1761478544079639300,0.355639404296875,0.2475187167972326,-0.18428082792200148,-0.35607115371376274
1761478544089674200,0.36567431640625,0.04657821130156517,-0.13383264331929384,-0.19969372030496596
1761478544099710200,0.375710205078125,-0.2587245859444141,-0.0641144890466705,-0.08579203131496906
1761478544109746200,0.38574609375,-0.5140039998710155,-0.050916605832055206,-0.042815643897652626
1761478544119782100,0.3957822265625,-0.6148866328120232,-0.05378752162586897,-0.00810322695672512
1761478544129817300,0.4058173828125,-0.49773441759347914,-0.025204693481139837,-0.014239830015599727
1761478544139853300,0.415853271484375,-0.3380611575096845,-0.03985902258176356,-0.05518529612720012
1761478544149889300,0.42588916015625,-0.14056640855371952,-0.08926558917704969,-0.046859074069559574
1761478544159925200,0.43592529296875,-0.0004699555993080139,-0.16111655422728507,0.0035699674412608146
1761478544169961200,0.445961181640625,0.04755027120411396,-0.18955708782449363,0.03259469413459301
1761478544179997200,0.4559970703125,0.025984336084127424,-0.1738920838439837,0.09489391392022371
1761478544190032100,0.4660322265625,-0.045669279763102526,-0.11656451499108224,0.18656798901110885
1761478544200068400,0.476068359375,-0.12002514030635356,-0.06626896366681903,0.208811677262187
1761478544210104300,0.486104248046875,-0.18397125051617622,-0.044503487386740745,0.11911562424600124
1761478544220140300,0.496140380859375,-0.19689269140958784,-0.0249540066557005,-0.056439095580577844
1761478544230175200,0.50617529296875,-0.1831301235169172,0.040819866970553995,-0.16698036822676657
1761478544240211200,0.516211181640625,-0.16764438509345053,0.08511263421606272,-0.06810673702061176
1761478544250247200,0.5262470703125,-0.20549276197254657,0.1252559170993045,0.06022884325236082
1761478544260283100,0.536283203125,-0.2690285378158092,0.1578297511089593,0.13284487439095974
1761478544270319000,0.546319091796875,-0.3040501668363809,0.12101488199606537,0.16257921065837144
1761478544280355300,0.556355224609375,-0.24886428618729112,0.1317967901101336,0.193365686327219
1761478544290390300,0.566390380859375,-0.12897475495934485,0.09403751628659665,0.15969313382804393
1761478544300426200,0.57642626953125,-0.015203998872637748,0.016858816874958573,-0.040887013922631735
1761478544310462200,0.586462158203125,0.09805179342925548,-0.0012053937343880533,-0.32313597557842727
1761478544320498200,0.596498291015625,0.11557809776961803,-0.10321483874823897,-0.41424481800198554
1761478544330534100,0.6065341796875,0.05167173504829407,-0.2517216483797878,-0.447621894685924
1761478544340569300,0.6165693359375,-0.15693886668384074,-0.2286917781870812,-0.5813099419027566
1761478544350605300,0.626605224609375,-0.44027650035917754,-0.145911751637049,-0.7317801970943808
1761478544360641300,0.636641357421875,-0.6402800172656774,-0.08145239467546343,-0.7522980844661593
1761478544370677200,0.64667724609375,-0.7347299868106841,-0.03092007545325905,-0.5850462058216334
1761478544380713200,0.656713134765625,-0.7243225745648145,0.07782119856625795,-0.3676142919912934
1761478544390748200,0.666748046875,-0.5698205796390772,0.13055899194348602,-0.19772154344916343
1761478544400784100,0.6767841796875,-0.3926315366089344,-0.024484087589010595,-0.18185557353645562
1761478544410820400,0.6868203125,-0.20199615202844143,-0.13076386686582117,-0.23795681546479464
1761478544420856300,0.696856201171875,-0.015387538745999336,-0.3334396717214957,-0.27304946389496326
1761478544430892300,0.706892333984375,0.1267892276138067,-0.5149586702473461,-0.35816052720844743
1761478544440927200,0.71692724609375,0.1958276925265789,-0.5037508283387869,-0.419799821780622
1761478544450963200,0.726963134765625,0.24321371307969092,-0.45822161463350053,-0.3598597323417663
1761478544460999200,0.736999267578125,0.26906711626052854,-0.3596337780987844,-0.25396599324047564
1761478544471035100,0.74703515625,0.26475509828031063,-0.10578140130061656,-0.0522390135422349
1761478544481071400,0.7570712890625,0.31490707641541954,0.08910206917840986,0.22871640117168426
1761478544491106300,0.767106201171875,0.2735620895922184,0.055245648012310265,0.4189616173908114
1761478544501142300,0.777142333984375,0.16730419335365296,-0.02417608108576387,0.23451398153454064
1761478544511178200,0.78717822265625,0.10419453396797179,-0.050344651162996884,-0.14425474167764185
1761478544521214200,0.797214111328125,0.13772738573551177,-0.1468276243729517,-0.3587441723152995
1761478544531250200,0.807250244140625,0.08744739730656147,-0.18859036168418825,-0.3896984057664871
1761478544541286100,0.8172861328125,0.04221943157017231,-0.10470511383861303,-0.2970855885207653
1761478544551321300,0.8273212890625,-0.06353168419003487,0.008995243893004953,-0.07402852828502654
1761478544561357300,0.837357421875,-0.15960077936947345,0.07309234341345727,0.07701894227266311
1761478544571393300,0.847393310546875,-0.2221826154887676,0.14185812886469065,0.037681203618645666
1761478544581429200,0.85742919921875,-0.25184827043414115,0.17645057268776,-0.05466477938443422
1761478544591465200,0.86746533203125,-0.2860428009808063,0.11233560871705413,-0.14765636681467295
1761478544601500200,0.877500244140625,-0.276787481379509,0.07198164222519844,-0.18730711694061755
1761478544611536400,0.887536376953125,-0.29428163701593874,0.03747610950060189,-0.17102321387678385
1761478544621572400,0.897572265625,-0.2386708089530468,-0.031113990590162573,-0.1539358854755759
1761478544631608300,0.9076083984375,-0.14824118096530436,-0.0700978377725929,-0.1900429716452956
1761478544641644300,0.917644287109375,-0.05357201571166515,-0.11170111020579933,-0.26491730310469863
1761478544651679200,0.92767919921875,0.023459786042571068,-0.1815050795983523,-0.27054683342427016
1761478544661715200,0.937715087890625,-0.01368891813457012,-0.27239505510684103,-0.257885504771769
1761478544671751200,0.947751220703125,-0.10719137769639492,-0.24097678434047848,-0.2058791309416294
1761478544681787100,0.957787109375,-0.16016601203680036,-0.1903137148780748,-0.09992752417325973
1761478544691823400,0.9678232421875,-0.18123861068189143,-0.20166114792041478,-0.0790954562857747
1761478544701859300,0.977859375,-0.18209201264083386,-0.17750260249134153,-0.1789458235695958
1761478544711894300,0.987894287109375,-0.1715367163568735,-0.17178904715012758,-0.29775924999862907
1761478544721930200,0.99793017578125,-0.14242811077237127,-0.17404753013402222,-0.3299734203830361
1761478544731966200,1.00796630859375,-0.08905015632808208,-0.1824111250599846,-0.2087380275040865
1761478544742002200,1.018002197265625,-0.03477905243635177,-0.16933902364950626,-0.016096563798189162
1761478544752038100,1.0280380859375,-0.04080488859713077,-0.10405245861615985,0.12018822191357612
1761478544762073300,1.0380732421875,-0.06969196038544177,-0.11595781780220568,0.20335867255330084
1761478544772109300,1.048109375,-0.03747545191347599,-0.20763068731669335,0.22295798377543685
1761478544782145300,1.058145263671875,0.05073182384967804,-0.29437822925820945,0.1131955865472555
1761478544792181200,1.06818115234375,0.15514379996061325,-0.39772878668271,-0.0657914458155632
1761478544802217200,1.07821728515625,0.20493980426490305,-0.49282395879607643,-0.18154051623791456
1761478544812253200,1.088253173828125,0.2568903562545776,-0.5765281875189393,-0.12129939802587032
1761478544822288400,1.098288330078125,0.32100305520296096,-0.6136747728042304,0.0613210224032402
1761478544832324400,1.108324462890625,0.3295411664456129,-0.5791175464250147,0.1050263086169958
1761478544842360300,1.1183603515625,0.256714415165782,-0.46920668063685295,0.019024433943629265
1761478544852396300,1.128396240234375,0.09509002101421356,-0.4520051512714475,-0.048285892002284524
1761478544862432300,1.138432373046875,-0.08202069608271122,-0.4305569607796147,-0.08708557825684547
1761478544872467200,1.14846728515625,-0.2115688670158386,-0.4135569453356787,-0.057277884492278094
1761478544882503200,1.158503173828125,-0.2817401353508234,-0.3997573333682492,0.045514381462335586
1761478544892539100,1.1685390625,-0.27768939865529535,-0.4370323308061808,0.10228460869342088
1761478544902575400,1.178575439453125,-0.22257424515485763,-0.4636193820238113,0.09477233336716889
1761478544912611300,1.188611328125,-0.09542436753511428,-0.4878239220190793,0.09077624946832656
1761478544922647300,1.198647216796875,-0.042464930763840676,-0.530161682739295,0.1635766972631216
1761478544932682200,1.20868212890625,-0.005074819046258926,-0.6066948873216286,0.23333178601264953
1761478544942718200,1.21871826171875,-0.013593641066551207,-0.710467871409282,0.1478369840785861
1761478544952754200,1.228754150390625,-0.0007756605476140976,-0.8072915843483061,-0.040464112335443496
1761478544962790100,1.2387900390625,0.017851298511028287,-0.8119438671335577,-0.16457476838976143
1761478544972826400,1.248826416015625,0.011899696630239485,-0.7781867050908505,-0.05099719678759575
1761478544982861300,1.258861328125,-0.016788637715578078,-0.7529552332006394,0.1815671119838953
1761478544992897300,1.268897216796875,-0.08783084366619587,-0.7348714411079883,0.3687538174152374
1761478545002933200,1.278933349609375,-0.20601824715137482,-0.6987092637501656,0.4095344483539462
1761478545012969200,1.28896923828125,-0.19224691143035888,-0.6794387460909783,0.47909766779318447
1761478545023005200,1.299005126953125,-0.1591717403024435,-0.6923849560994655,0.6391209103584289
1761478545033041200,1.309041259765625,-0.09251461756825446,-0.7998698368497192,0.6142310915127396
1761478545043076400,1.319076416015625,-0.06698737760186195,-0.7692454198747873,0.24714696087539195
1761478545053112300,1.3291123046875,-0.20512451318204403,-0.6196599846936762,-0.16036723369732497
1761478545063148300,1.339148193359375,-0.2639455354630947,-0.5453870531935244,-0.323163594237715
1761478545073184300,1.349184326171875,-0.29253450108766554,-0.5309045735284685,-0.18957213926315306
1761478545083220500,1.359220458984375,-0.31500293800532814,-0.5186566845150664,-0.04837327802479267
1761478545093256400,1.36925634765625,-0.3094815442353487,-0.47772166673224414,-0.09953589450716972
1761478545103291400,1.37929150390625,-0.2733966698974371,-0.5265487529391423,-0.19373890355378387
1761478545113327600,1.38932763671875,-0.21957214072942732,-0.640697512025386,-0.30906755660697816
1761478545123363600,1.399363525390625,-0.03903554083704948,-0.6337408247552812,-0.43981268223971126
1761478545133399600,1.409399658203125,0.03370060954988002,-0.5672632963716984,-0.4970809221208095
1761478545143435500,1.419435546875,0.07055939086973667,-0.5570158604605123,-0.4506424115508795
1761478545153471500,1.429471435546875,0.11372983955442904,-0.5241606522262096,-0.4048746398493647
1761478545163506400,1.43950634765625,0.09430208550691604,-0.4483234670840204,-0.3914671690046787
1761478545173542400,1.44954248046875,-0.0007177928805351257,-0.4334057378068566,-0.40080841332376
1761478545183578400,1.459578369140625,-0.03060439710021019,-0.5051490777641534,-0.3401052305579185
1761478545193614600,1.469614501953125,-0.009532967498898506,-0.6254797038231045,-0.21375439436137675
1761478545203650600,1.479650634765625,0.03934124578535556,-0.8064177241232245,-0.25890695677399633
1761478545213686500,1.4896865234375,0.14987141251564026,-0.8787963663093745,-0.4009665264949202
1761478545223721500,1.499721435546875,0.2575532040774822,-0.804215757099539,-0.4871352821677923
1761478545233757400,1.50975732421875,0.4304606242656708,-0.5674173178896308,-0.3628136137112975
1761478545243793400,1.51979345703125,0.5127238969326019,-0.258812921814993,0.08851502653807401
1761478545253829400,1.529829345703125,0.35606384719014167,-0.016142010375112294,0.6749322284519672
1761478545263865300,1.539865234375,-0.039541152271628376,0.19750563567616045,0.9339422072090208
1761478545273901600,1.549901611328125,-0.6807751092612743,0.41691425640694796,0.6440742949821054
1761478545283936500,1.5599365234375,-1.4005220464736223,0.7136290388539434,0.1881945672996342
1761478545293972500,1.569972412109375,-1.7340537438601253,0.8429113253924995,0.04551657341942191
1761478545304008400,1.580008544921875,-1.762863074237108,0.5923174024010077,-0.0324859730631113
1761478545314044400,1.59004443359375,-1.5271932006657123,0.39157636500019577,-0.3887118789471686
1761478545324080400,1.600080322265625,-1.104081770119071,0.3148215535564348,-0.6914782895833254
1761478545334115600,1.610115478515625,-0.6707622492909431,0.2301167329562828,-0.6806175806120037
1761478545344151600,1.620151611328125,-0.3724427350610494,0.23052717692069707,-0.42698301128298044
1761478545354187500,1.6301875,-0.17747370519042013,0.3021544892828911,-0.24330635979920623
1761478545364223500,1.640223388671875,-0.021741876208782193,0.5014893862128258,-0.16589973338320851
1761478545374259500,1.650259521484375,0.002044073048233986,0.6444578874722123,-0.09852072611525654
1761478545384295400,1.66029541015625,-0.00888181011378765,0.7487639189906418,-0.09225085206553339
1761478545394331400,1.670331298828125,0.049718847414851185,0.8191326826591044,-0.06810965963006019
1761478545404366600,1.68036669921875,0.11357786386311054,0.8474334059268236,0.017666881854832173
1761478545414402600,1.690402587890625,0.13930617935955525,0.8647897605277597,-0.010088555555045604
1761478545424438500,1.7004384765625,0.12483517093658447,0.8783834015943109,-0.17196370959728954
1761478545434474500,1.710474609375,0.13740589869618414,0.8147286755464971,-0.41301016164049503
1761478545444510500,1.720510498046875,0.27294775708615776,0.6998282578427344,-0.5590285519897937
1761478545454545400,1.73054541015625,0.45933483657240864,0.575739959750697,-0.5308746167816222
1761478545464581400,1.740581298828125,0.6550736817717552,0.46938035670332606,-0.3800776138536632
1761478545474617600,1.75061767578125,0.7737783871293068,0.34219686907492575,-0.22813903967514632
1761478545484653600,1.760653564453125,0.7796259441137313,0.2742018488004804,-0.19368147427812218
1761478545494689500,1.770689453125,0.7335977679103612,0.3116438368357718,-0.29083325012773276
1761478545504725500,1.7807255859375,0.6220639770954847,0.3714268360167742,-0.3830114753484726
1761478545514760400,1.790760498046875,0.3494213404357433,0.3986891561474651,-0.4212628800705075
1761478545524796400,1.80079638671875,0.19007775069773197,0.4599399628587067,-0.26976298957020045
1761478545534832400,1.810832275390625,0.08813128791749476,0.4492829597659409,0.026810850036144255
1761478545544868400,1.820868408203125,0.002496492990851402,0.47670726552531123,0.31177023969441653
1761478545554904600,1.830904541015625,-0.15148469293117522,0.46579208642039444,0.5017505213670432
1761478545564940500,1.8409404296875,-0.42171909940540786,0.35505795808322727,0.4462900615602731
1761478545574975500,1.8509755859375,-0.595231499749422,0.3498953146230429,0.18613588120415805
1761478545585011500,1.861011474609375,-0.6862246068388224,0.41069753731656816,0.03528992456793785
1761478545595047400,1.87104736328125,-0.8126052536517381,0.4488226853104308,0.04230974020212888
1761478545605083400,1.88108349609375,-0.9156646461099386,0.5240534655246883,0.10738003213629126
1761478545615119400,1.891119384765625,-0.9549830955415963,0.5709477935707197,0.19972689192220566
1761478545625155300,1.9011552734375,-0.9063064506560563,0.6399464013971388,0.21763664262220261
1761478545635190500,1.9111904296875,-0.8136351812213659,0.6608052842263132,0.11999109190627932
1761478545645226500,1.9212265625,-0.696126407650113,0.6409766212277114,-0.045798020709306
1761478545655262500,1.931262451171875,-0.553481439256668,0.6769948600701987,-0.11963365677073597
1761478545665298400,1.94129833984375,-0.3505944758683443,0.7313655518788844,-0.07741977815851568
1761478545675334400,1.95133447265625,-0.14584171860814094,0.8189251043230295,0.028116671937704084
1761478545685370400,1.961370361328125,0.0602840805709362,0.9234316999148577,0.20655863763839005
1761478545695406300,1.97140625,0.3327800022363663,0.9176990745469927,0.37007410623356696
1761478545705441500,1.981441650390625,0.5148328519105911,0.8964763268414885,0.42247488620877266
1761478545715477500,1.9914775390625,0.5287526561915874,0.9139093268752098,0.361123907058686
1761478545725513500,2.001513427734375,0.3677677289873361,0.8558307935245335,0.17785510572344063
1761478545735549400,2.011549560546875,0.223358673530817,0.8083280877891927,-0.005387538257241249
1761478545745585400,2.02158544921875,0.09662029932141303,0.7880327571269125,-0.13909765117540954
1761478545755620400,2.031620361328125,-0.116751233202219,0.7570740666963159,-0.21807401112616062
1761478545765656600,2.041656494140625,-0.2450228083282709,0.7526068581543862,-0.2624097041979432
1761478545775692500,2.051692626953125,-0.3160024704366922,0.7223821810867637,-0.1935560943327844
1761478545785728500,2.061728515625,-0.3186924401730299,0.6975028836350887,-0.04951806414574384
1761478545795764500,2.071764404296875,-0.29825404777824877,0.6851433874733746,0.11527926095351576
1761478545805800400,2.081800537109375,-0.33067572343349455,0.661323682077229,0.2703488266341388
1761478545815835400,2.09183544921875,-0.37635084841549393,0.614864420980215,0.3748794606886804
1761478545825871400,2.101871337890625,-0.28942016845941543,0.5240348338894546,0.36591421007513997
1761478545835907600,2.111907470703125,-0.1792436374723911,0.46985549993440506,0.25817367406338454
1761478545845943600,2.121943603515625,-0.06593406915664672,0.4470203485962003,0.186887576354295
1761478545855979500,2.1319794921875,0.025776830813288687,0.3954137877386063,0.1723711213544011
1761478545866015500,2.142015380859375,0.07853519205451011,0.42068135385550554,0.24092326405495404
1761478545876051500,2.152051513671875,0.012529226705431938,0.47384858815856273,0.3881085062265396
1761478545886086400,2.16208642578125,-0.1006646062761545,0.5100765607615932,0.49321547886431216
1761478545896122400,2.172122314453125,-0.16005378383398056,0.4858370225181803,0.5162446184046566
1761478545906158300,2.182158447265625,-0.21905191624760625,0.3654544836089015,0.34747269058600067
1761478545916194600,2.192194580078125,-0.18711422471702097,0.27046200468502934,0.06295125395357608
1761478545926230500,2.20223046875,-0.1902326489984989,0.17675452407039702,-0.08892536090463399
1761478545936266500,2.2122666015625,-0.21545359949469564,0.17045776201374827,-0.0064200961753726
1761478545946301400,2.222301513671875,-0.2638958511024713,0.29539157101921737,0.16727788986861705
1761478545956337400,2.23233740234375,-0.31322423789501186,0.3127472680330276,0.349270826049149
1761478545966373400,2.242373291015625,-0.3109522013098001,0.26465244162343443,0.3153840462774038
1761478545976409300,2.252409423828125,-0.26226152789890766,0.2556153678826988,0.09957666490897536
1761478545986445300,2.2624453125,-0.2317372102975845,0.15805647253692148,-0.10661226263418792
1761478545996481500,2.2724814453125,-0.16969664144814015,0.026174378763511776,-0.23340032120421528
1761478546006516500,2.2825166015625,-0.18983809672296045,0.0016715864740312098,-0.32141514313519
1761478546016552400,2.292552490234375,-0.29678689783513545,0.010268222970888018,-0.28125191344246264
1761478546026588400,2.30258837890625,-0.411530298346281,-0.01903648970760405,-0.10759469780027865
1761478546036624400,2.312624267578125,-0.5139490548133849,-0.007303071288671344,0.09382818438485264
1761478546046660400,2.322660400390625,-0.5651981805354357,-0.0008116086438298225,0.27040844786688684
1761478546056696300,2.3326962890625,-0.5181815778166056,0.028354535814188418,0.41018034504204987
1761478546066731500,2.3427314453125,-0.39674657071232794,-0.09656584745412691,0.4158806025102734
1761478546076767500,2.352767578125,-0.15847148307859896,-0.25733083003107454,0.2601569568350911
1761478546086804000,2.362803955078125,0.07349369075596332,-0.3136239778023213,0.0837738233603537
1761478546096840000,2.37283984375,0.21720891872942447,-0.2646727172264829,0.07462590965628624
1761478546106876000,2.3828759765625,0.28515315866470337,-0.16527478815158828,0.26140666463524104
1761478546116911900,2.392911865234375,0.2657669056713581,-0.11530929076559841,0.4842183718077838
1761478546126946800,2.40294677734375,0.17613924171626566,-0.07914112205840647,0.5771897932328284
1761478546136983000,2.412983154296875,-0.001305237379670143,0.023916626431979237,0.44767917783111333
1761478546147019000,2.42301904296875,-0.13618015629351138,0.09429592976076528,0.27483371696323156
1761478546157055000,2.433054931640625,-0.1691799240976572,-0.030221918854955582,0.10780980185568333
1761478546167091000,2.443091064453125,-0.1395470023781061,-0.14242507856506853,-0.08952844136431813
1761478546177127000,2.453126953125,-0.06978723745346069,-0.20797771065607665,-0.22069047723487017
1761478546187161900,2.463161865234375,-0.010651742395758628,-0.2963715219672769,-0.19889058722853659
1761478546197197800,2.47319775390625,-0.011081950506567954,-0.3330647374618798,-0.161352883733809
1761478546207233800,2.48323388671875,-0.0858165812343359,-0.32716406205072995,-0.21102774587646125
1761478546217270000,2.49327001953125,-0.23880174185633657,-0.3608869199650362,-0.3670283087968826
1761478546227306000,2.503305908203125,-0.3875672389566898,-0.34163773735482245,-0.5375671001575887
1761478546237342000,2.513342041015625,-0.5253419709652662,-0.29049842868279663,-0.4715541205458343
1761478546247377000,2.523376953125,-0.6945259867161512,-0.2191284520825371,-0.2516425187289715
1761478546257412900,2.533412841796875,-0.7921504946440457,-0.16526260452345012,-0.01886091394498944
1761478546267448800,2.54344873046875,-0.7456406724035739,-0.13791351942475885,0.10084873067140579
1761478546277484800,2.55348486328125,-0.5782365258067846,-0.19503162851175293,0.18516425969302652
1761478546287520800,2.563520751953125,-0.41718028693199155,-0.3496684470646083,0.24246917832270262
1761478546297557000,2.573556884765625,-0.2777875983327627,-0.4276310268629342,0.29619346198663116
1761478546307592000,2.583592041015625,-0.17610592396855354,-0.4904993152407929,0.43325083950608967
1761478546317628000,2.5936279296875,-0.08130056511461735,-0.6083961748141795,0.5831506013333797
1761478546327663900,2.603663818359375,-0.12582944267094134,-0.6642318976741284,0.6418915441155433
1761478546337699800,2.613699951171875,-0.18381635221540926,-0.6305465587586164,0.5479413407862186
1761478546347735800,2.62373583984375,-0.24131693954765795,-0.6224341986473649,0.42584246294572947
1761478546357771800,2.633771728515625,-0.35283553279340263,-0.6271462487958371,0.3006028028614819
1761478546367807000,2.643806884765625,-0.3358972574740648,-0.6161379480473697,0.2796266503281891
1761478546377843000,2.653843017578125,-0.2500765845865011,-0.5976290258778258,0.3608369068108499
1761478546387879000,2.66387890625,-0.1039063646763563,-0.54696657746993,0.3861676012918353
1761478546397915000,2.673914794921875,0.10803776539266109,-0.4961456140320748,0.318940277454257
1761478546407950800,2.683950927734375,0.2619061385899782,-0.5587740657720714,0.19275690677911042
1761478546417986800,2.69398681640625,0.29868659397661684,-0.6567730330355465,0.05734978068470955
1761478546428022000,2.70402197265625,0.29482699593901635,-0.6612813042402267,0.009542319849133491
1761478546438058000,2.71405810546875,0.13863748631775377,-0.5780488942801952,0.0003805237501859665
1761478546448094000,2.724093994140625,-0.09820844529569149,-0.45246385482437906,0.0010313888743519782
1761478546458130000,2.7341298828125,-0.269099849486351,-0.29939466918073593,0.020543606334924698
1761478546468166000,2.744165771484375,-0.38694180053472516,-0.22942338039726018,0.07832154930382966
1761478546478201900,2.754201904296875,-0.46276305745542046,-0.29106373441535976,0.04001344595849514
1761478546488236800,2.76423681640625,-0.5023445417374373,-0.4015206532463431,-0.0728691291168332
1761478546498272800,2.774272705078125,-0.452713372606039,-0.5222806106332689,-0.17329641950577496
1761478546508309000,2.78430908203125,-0.3470768231362104,-0.633301337359473,-0.1995306386977434
1761478546518345000,2.794344970703125,-0.2038221984118223,-0.6720277391821146,-0.14630144507437945
1761478546528381000,2.804380859375,-0.08259878823161125,-0.5550010500393807,-0.009770283386111259
1761478546538417000,2.8144169921875,-0.037840193572640415,-0.34718324265275147,0.23502163879573343
1761478546548451800,2.824451904296875,-0.1495206993818283,-0.20875581888910383,0.5383388151824474
1761478546558487800,2.83448779296875,-0.28680209491550923,-0.0125755500651896,0.7243202364772557
1761478546568523800,2.844523681640625,-0.48207741425633427,0.16062091619744895,0.9002028730839491
1761478546578560000,2.85456005859375,-0.6600327654838561,0.13742847585417328,1.0514350525587797
1761478546588596000,2.864595947265625,-0.890693286460638,0.07759436754044145,0.9950187533318996
1761478546598632000,2.8746318359375,-1.1858633967489003,0.12141053025014698,0.6955886475116014
1761478546608667000,2.8846669921875,-1.490628433856368,0.19581052219606934,0.3192839763253927
1761478546618702800,2.894702880859375,-1.7725971172660588,0.2300278856290504,-0.028438158977031707
1761478546628738800,2.90473876953125,-1.8305355114936828,0.22962087573073803,-0.28538287576735016
1761478546638774800,2.91477490234375,-1.5771026022166013,0.22516327526737004,-0.33551351885348557
1761478546648810800,2.924810791015625,-1.1705366482794284,0.18197401228435336,-0.2451207157447934
1761478546658847000,2.934846923828125,-0.8061971401751041,0.10821524085141718,-0.12304331908375024
1761478546668882000,2.9448818359375,-0.4843284080535173,0.07135649606417864,-0.056144204287230964
1761478546678918000,2.95491796875,-0.3565542610555887,0.1132568882804364,-0.04568389281034469
1761478546688953900,2.964953857421875,-0.3376964158505201,0.2236995228577405,0.005908931782841682
1761478546698989800,2.97498974609375,-0.3179150260597467,0.26971951575465497,0.07215104397535324
1761478546709025800,2.98502587890625,-0.22186405105888843,0.2791729152113199,0.13002601757794618
1761478546719061800,2.995061767578125,-0.03119944038391113,0.24865385830700396,0.13442454479783772
1761478546729097700,3.00509765625,0.25951778214871885,0.17101532283127308,0.15737141288220882
1761478546739133000,3.0151328125,0.5846341178894042,0.10983641231246292,0.13608926313966513
1761478546749169000,3.0251689453125,0.767515235081315,0.10497677038684487,0.050605859382450574
1761478546759204900,3.035204833984375,0.7138759993523359,0.12337846932224929,-0.04658201069384813
1761478546769240800,3.04524072265625,0.5187275212615728,0.18735636290982363,-0.0962102572157979
1761478546779276800,3.05527685546875,0.32157179500162597,0.2957819585762918,-0.06478197651207447
1761478546789312800,3.065312744140625,0.16591712290942667,0.4532379079367965,0.022680326102674005
1761478546799348000,3.075347900390625,0.027606968849897384,0.5638445009041577,0.12098287942260504
1761478546809384000,3.085384033203125,-0.02808335418999195,0.5187207261946052,0.21527473579645157
1761478546819420000,3.095419921875,0.005178279420733452,0.45043373723626134,0.14024609055817128
1761478546829456000,3.105455810546875,0.06830781255066394,0.43458340328410267,-0.19708529137223957
1761478546839491800,3.115491943359375,0.1899579237103462,0.45136130040995776,-0.5617801887854933
1761478546849527800,3.12552783203125,0.37724808951616284,0.3938432504862547,-0.5614028799057007
1761478546859562800,3.135562744140625,0.5386106178611516,0.34899778126142916,-0.2696282572746277
1761478546869599000,3.145598876953125,0.5507300947219133,0.39239853157065807,0.05616086316108703
1761478546879635000,3.155635009765625,0.41579497005343435,0.506384464778006,0.27274843512177466
1761478546889671000,3.1656708984375,0.16081424681246279,0.6440642119795084,0.25565116984844205
1761478546899707000,3.175706787109375,-0.13162439268529413,0.7428823866713792,0.046072892127931114
1761478546909742800,3.185742919921875,-0.41771629350483414,0.8136179378256201,-0.16744710895568132
1761478546919777800,3.19577783203125,-0.6163403387516737,0.8738491191655396,-0.32590222542136904
1761478546929813800,3.205813720703125,-0.6387777960091829,0.8955800355888902,-0.3785770000323653
1761478546939849700,3.215849609375,-0.4778770399570465,0.8949487519480287,-0.42847734149396416
1761478546949886000,3.225885986328125,-0.1886556089401245,0.8961935643773525,-0.5345622192531824
1761478546959922000,3.235921875,0.2050380039423704,0.8114021614722907,-0.5755421721562742
1761478546969958000,3.2459580078125,0.5519488228619098,0.656437006014213,-0.5735892845228314
1761478546979992800,3.255992919921875,0.6973878058880567,0.5729953372176736,-0.5785486604958773
1761478546990028800,3.26602880859375,0.656778732123971,0.5912395075038075,-0.5737886064872145
1761478547000064800,3.276064697265625,0.47977848966419695,0.6001718056958169,-0.5590072169408202
1761478547010100700,3.286100830078125,0.2366442715615034,0.676187781471014,-0.6871566269919276
1761478547020137000,3.296136962890625,0.04147767329216003,0.790667927936092,-0.8971139671579003
1761478547030173000,3.3061728515625,-0.01632452733516693,0.7643678039010614,-1.0499538740903138
1761478547040208000,3.316207763671875,0.019445874226093292,0.6903286811567843,-1.1216326243788004
1761478547050243800,3.326243896484375,0.02747252881526947,0.5947721386093646,-1.1621624954268335
1761478547060279800,3.33627978515625,-0.16222469813227652,0.5178301340304314,-1.0930126790940762
1761478547070315800,3.346315673828125,-0.45318157463967795,0.4747618305459618,-0.9289373846590518
1761478547080351700,3.356351806640625,-0.6481003356277942,0.4719015457440167,-0.8011436561778187
1761478547090388000,3.366387939453125,-0.6466764403045178,0.4650965419042855,-0.7421648129865527
1761478547100423200,3.376423095703125,-0.6013607962846755,0.4867302815634757,-0.7166898877292871
1761478547110459100,3.386459228515625,-0.4720528638482094,0.5200129579622298,-0.6352516677096486
1761478547120495000,3.3964951171875,-0.26862814032137394,0.5013101571884006,-0.5060530408665538
1761478547130531000,3.406531005859375,-0.10931494572162627,0.4589423301234841,-0.31742431993335485
1761478547140567000,3.416567138671875,-0.026531448572874067,0.46418600293062623,-0.1761380726724863
1761478547150603000,3.42660302734375,0.010596212816238402,0.49518232195787126,-0.11795447151213884
1761478547160639000,3.436638916015625,-0.017846622335910795,0.47109943558089434,-0.11051613820493221
1761478547170674200,3.446674072265625,-0.05758183587491512,0.45424416236989196,-0.1388239488005638
1761478547180710100,3.456710205078125,-0.011942951250076293,0.45864824254773556,-0.16119272473603485
1761478547190746000,3.46674609375,0.09359539854228496,0.3842154443107545,-0.17878946396410464
1761478547200782000,3.476781982421875,0.21152561239600182,0.30498437894657254,-0.2789741777688265
1761478547210818000,3.486818115234375,0.2459463529139757,0.22674100944548845,-0.32415713531970974
1761478547220854000,3.49685400390625,0.21113982794880864,0.08168737247511744,-0.3285954100281
1761478547230889000,3.506888916015625,0.16430559605956077,-0.0543095362059772,-0.30805647986829277
1761478547240925200,3.51692529296875,0.18070728028416633,-0.12860153773277996,-0.29973434946388006
1761478547250961200,3.526961181640625,0.22543547980487344,-0.1296392832826823,-0.26673604296445846
1761478547260997000,3.5369970703125,0.17286358104646204,-0.05069653334058821,-0.17160861254930496
1761478547271033000,3.547033203125,0.07948445560336112,0.06676219054386019,-0.0292792859762907
1761478547281069000,3.557069091796875,-0.05596271024048328,0.1227554420530796,0.06641074675768613
1761478547291104000,3.56710400390625,-0.22238661362826823,0.1487402165286243,0.0135395727917552
1761478547301140000,3.577139892578125,-0.3250187205851078,0.10776165186502039,-0.11637626240998505
1761478547311176000,3.587176025390625,-0.26202245844602584,0.0005935819789767265,-0.1853282180830836
1761478547321212200,3.597212158203125,-0.1283937402009964,-0.18015096157565713,-0.24516426262557506
1761478547331248000,3.607248046875,0.12429098105728625,-0.29994010116904973,-0.32661709569245573
1761478547341284000,3.6172841796875,0.32861879090368745,-0.41955125384703273,-0.36261750661730763
1761478547351319000,3.627319091796875,0.4744213465452194,-0.5272892325755208,-0.3166092041581869
1761478547361355000,3.63735498046875,0.48363165796101093,-0.5952445053614676,-0.2393433013871312
1761478547371391000,3.647390869140625,0.3538870876729488,-0.6310092078343034,-0.13633797720372676
1761478547381427000,3.657427001953125,0.24301322207152842,-0.6057056936211883,-0.04111263937205076
1761478547391463200,3.667463134765625,0.08518997376859187,-0.6823443313393741,0.05269581739902496
1761478547401499100,3.6774990234375,0.002021276694536209,-0.7887215431086718,0.0812070416122675
1761478547411535000,3.68753515625,0.014822306078672408,-0.8498324298925697,0.07534282575398683
1761478547421570000,3.697570068359375,0.0676566551655531,-0.9194303553190082,0.03495703935176134
1761478547431606000,3.70760595703125,0.09788052851557731,-0.8714378933053463,0.03567804710268974
1761478547441642000,3.71764208984375,0.061868134891986844,-0.8420912411812692,0.2219704340428114
1761478547451678000,3.727677978515625,-0.02272504202723503,-0.8699689167313277,0.519782875533402
1761478547461714000,3.7377138671875,-0.187418176099658,-0.8520811586674303,0.7909718062534928
1761478547471750100,3.747750244140625,-0.35019817002713677,-0.8228918890621513,0.8837053272694348
1761478547481785000,3.75778515625,-0.4324813164383173,-0.7646914828974753,0.7621922864928841
1761478547491821000,3.767821044921875,-0.4192202683269977,-0.6989445338107645,0.5730313583791256
1761478547501857000,3.77785693359375,-0.37919396288692947,-0.541034995463863,0.4282414869114756
1761478547511893000,3.78789306640625,-0.2707692440032959,-0.421607894115895,0.4013537722468376
1761478547521929000,3.797928955078125,-0.15027531714141368,-0.39990006630718705,0.4090679998859763
1761478547531965000,3.80796484375,-0.1380611477345228,-0.4618544181779027,0.3369800842747092
1761478547542000000,3.818000244140625,0.012546177840232849,-0.6224918471187353,0.11262830805331468
1761478547552036000,3.8280361328125,0.23619711231589316,-0.7638841851025819,-0.21531711363345382
1761478547562072000,3.838072021484375,0.4316261609137058,-0.857242560018599,-0.4698457091927528
1761478547572108000,3.84810791015625,0.5783277112215757,-0.9505129643902182,-0.47741497540324923
1761478547582144000,3.85814404296875,0.6837386352419853,-0.9920029126420616,-0.29054975701123475
1761478547592180000,3.868179931640625,0.6702846949070692,-0.9818005214489995,-0.11373977642655372
1761478547602215200,3.878215087890625,0.45388066281974315,-0.954819064086303,-0.030070436353981492
1761478547612251100,3.888251220703125,0.19418050984144208,-0.8412866468001157,0.0014162965387105942
1761478547622287000,3.898287109375,-0.08527297587692736,-0.7443418647646903,0.07952186500430107
1761478547632323000,3.908322998046875,-0.2334416761279106,-0.7630377243410795,0.1947138860657811
1761478547642359000,3.918359130859375,-0.2684457694917917,-0.822007361312583,0.19741934563219546
1761478547652395000,3.92839501953125,-0.21074761376082896,-0.9319273602552711,0.15963234355151654
1761478547662431000,3.938430908203125,-0.10823358022570609,-1.083359957673028,0.0905564692378044
1761478547672466000,3.9484658203125,-0.012311784562468528,-1.2193079857110976,-0.02009118639230728
1761478547682502100,3.958502197265625,-0.04192307897210121,-1.2833496652498841,-0.19093787465840578
1761478547692538000,3.9685380859375,-0.10838614043891429,-1.2668890904448926,-0.3735536189123988
1761478547702574000,3.978573974609375,-0.2255284187853336,-1.1795385045763105,-0.5622305629014969
1761478547712610000,3.988610107421875,-0.3150625592380762,-1.0178809388075023,-0.6768447840750217
1761478547722646000,3.99864599609375,-0.2597796479552984,-0.6947698054093867,-0.5433367696002125
1761478547732681000,4.008680908203125,-0.2510398766607046,-0.2629706990815699,-0.14321516949683427
1761478547742717000,4.018717041015625,-0.35510523129105565,0.13405834183394907,0.37437370312362905
1761478547752753000,4.0287529296875,-0.5836456913739443,0.30621640495955943,0.6827253665462136
1761478547762789000,4.0387890625,-0.9537631983578204,0.370834496146813,0.4844587564349174
1761478547772825000,4.0488251953125,-1.361857092514634,0.424845560862869,-0.10930880824178457
1761478547782861000,4.058861083984375,-1.5415063881784676,0.4334221044197678,-0.6608122254237532
1761478547792896000,4.06889599609375,-1.4586480722278357,0.4347242730595171,-0.8530921623408794
1761478547802932000,4.078931884765625,-1.285637776187062,0.27855755979195235,-0.8858636743471026
1761478547812968000,4.088968017578125,-1.0092138674229383,0.2107432298466563,-0.930074864256382
1761478547823004000,4.09900390625,-0.6585299597054719,0.17614852100126444,-0.8910095128029585
1761478547833040000,4.109039794921875,-0.3537912260830402,0.10071648259386419,-0.6641513067185878
1761478547843076000,4.119076171875,-0.09809270996153355,0.09027911360114813,-0.3655199500605464
1761478547853112000,4.129112060546875,0.040519057393074036,0.15400186338387428,-0.07329027713835239
1761478547863147000,4.13914697265625,0.007027122157812118,0.16734350245073437,-0.011438216598331927
1761478547873183000,4.149182861328125,-0.11461831282675265,0.28933351308926936,-0.17867752802222966
1761478547883219000,4.159218994140625,-0.20687807885110376,0.47196313973814247,-0.3458817681327462
1761478547893255000,4.1692548828125,-0.21741817756593226,0.5949415768921374,-0.3640443245500326
1761478547903291000,4.179290771484375,-0.12139876674711704,0.6683036040924489,-0.3099427320063114
1761478547913327000,4.1893271484375,0.06063830083608627,0.7360016141816973,-0.25062165124863384
1761478547923362000,4.199362060546875,0.2385340308308601,0.7219402094729245,-0.15122984138727188
1761478547933398000,4.20939794921875,0.30171909354031085,0.6950805518589913,-0.037948330122232435
1761478547943434000,4.21943408203125,0.26892800005078316,0.6218732768289744,-0.03766775961518287
1761478547953470000,4.229469970703125,0.16920213592946529,0.5737146644681692,-0.17501900551468133
1761478547963506000,4.239505859375,0.17511223675608634,0.520368931793049,-0.2964525513142347
1761478547973542000,4.2495419921875,0.26961656683683394,0.5591069509882479,-0.23665128582417963
1761478547983577000,4.2595771484375,0.39186522841155524,0.6401284799657762,0.06355477280467749
1761478547993613000,4.269613037109375,0.4406003254860639,0.6403461413044482,0.3606947218611836
1761478548003649000,4.27964892578125,0.40942368145585056,0.5780898838777094,0.4211886457905173
1761478548013685000,4.28968505859375,0.31708851210772987,0.5443574909500778,0.301519187054038
1761478548023721000,4.299720947265625,0.17803543072640896,0.44389761346578593,0.1435021697446704
1761478548033757000,4.3097568359375,0.020569325298070908,0.4481245835110545,0.04111556198149919
1761478548043792100,4.319792236328125,-0.1285498075455427,0.5025505857035517,-0.05303747044354677
1761478548053828000,4.329828125,-0.1509066007822752,0.4635192826502025,-0.18610621671825647
1761478548063864000,4.339864013671875,-0.00047229368686676023,0.4841741673398763,-0.2872922165200114
1761478548073900000,4.349900146484375,0.10356500389277934,0.53505146407485,-0.23667700478732584
1761478548083936000,4.35993603515625,0.016062077006697654,0.5806562272343784,-0.08804536319971085
1761478548093971200,4.36997119140625,-0.1198269873857498,0.651936479724571,0.054251522408425804
1761478548104007200,4.380007080078125,-0.3117027274161577,0.690215283910185,0.03553250115215778
1761478548114042400,4.39004248046875,-0.4513163652896881,0.7515030616309494,-0.022305939832329747
1761478548124078300,4.400078369140625,-0.5363754061549901,0.7323279671702534,-0.039130817905068394
1761478548134114300,4.4101142578125,-0.5651537568718195,0.7585434085965156,-0.06153641871958971
1761478548144150300,4.420150390625,-0.5379927782237529,0.8209072180509567,-0.017257716532051562
1761478548154186200,4.430186279296875,-0.457886975851655,0.8046063638523221,0.1333747434839606
1761478548164222200,4.44022216796875,-0.3117512427330017,0.7370211664877832,0.27624183019548654
1761478548174257200,4.450257080078125,-0.18567220921516417,0.7429726953033358,0.22311785051226615
1761478548184293400,4.46029345703125,-0.12237959447801113,0.779437655000016,0.04959697460085153
1761478548194329300,4.470329345703125,-0.06399111839532852,0.7582925756406038,-0.10239186846017836
1761478548204365300,4.480365234375,0.01137538049519062,0.8005467131979763,-0.06316518896520137
1761478548214401300,4.4904013671875,0.17522329591512678,0.8940469077374785,0.18506401418894527
1761478548224437200,4.500437255859375,0.35080081209540365,0.9722612703397869,0.4744821368217468
1761478548234472200,4.51047216796875,0.4044336180835962,0.9980477457642555,0.6457002887487411
1761478548244508200,4.520508056640625,0.291882759180665,0.8856487894874066,0.6593856997519731
1761478548254544400,4.53054443359375,0.007176759761571884,0.7066844804130494,0.43435383231192826
1761478548264580400,4.540580322265625,-0.2641659002155065,0.5247373561356217,0.08765197996795177
1761478548274616300,4.5506162109375,-0.44499593009650706,0.37309623053371904,-0.21992957586497067
1761478548284652300,4.56065234375,-0.5627490338176488,0.27017398152388633,-0.4347250037118792
1761478548294688300,4.570688232421875,-0.5935737956702709,0.2840620024271309,-0.5237979563936591
1761478548304723200,4.58072314453125,-0.5376385579586028,0.3543966446302831,-0.42326808241307734
1761478548314759200,4.59075927734375,-0.45272389400005336,0.3700906189769506,-0.20335253507345913
1761478548324795100,4.600795166015625,-0.4068617220133543,0.34918110193908214,-0.037732641544938085
1761478548334831400,4.610831298828125,-0.3322480873167515,0.32210005665943026,0.09085603670626878
1761478548344867300,4.620867431640625,-0.18798866946399212,0.2710069252166897,0.16934972770661114
1761478548354903300,4.6309033203125,0.03273147225677967,0.189867395882681,0.22680939850658177
1761478548364938200,4.640938232421875,0.20871172401905058,0.07621931632757187,0.3036684740424156
1761478548374974200,4.65097412109375,0.25565350793600083,0.011103066359832882,0.40104485242813825
1761478548385010200,4.66101025390625,0.18371347636282442,-0.0149430829141289,0.5770043536633253
1761478548395046100,4.671046142578125,-0.006053893211483955,-0.0706905429687351,0.7428656547322869
1761478548405082000,4.68108203125,-0.1889116295278072,-0.11039828397892415,0.725035983531177
1761478548415118300,4.691118408203125,-0.31539106054008004,-0.1356894501671195,0.5057537656590342
1761478548425154300,4.701154296875,-0.3789788588315248,-0.0933979032088071,0.3085495240822434
1761478548435189200,4.711189208984375,-0.37218496090769765,-0.07785298194400966,0.31521219684183593
1761478548445225200,4.72122509765625,-0.2512625795006752,-0.050103243622556325,0.45531741762459277
1761478548455261200,4.73126123046875,-0.054608957543969154,0.0007264876436442136,0.6380407139062881
1761478548465297200,4.741297119140625,0.06362520769238472,0.03501066923514008,0.8134136474251746
1761478548475333000,4.7513330078125,0.07292027478218079,0.014290537289530038,0.8406324937403201
1761478548485369000,4.761369140625,0.09485153608322143,-0.04376037740185856,0.6572521948546171
1761478548495404300,4.771404296875,0.0254886615216732,-0.10459120513536035,0.37593233074247834
1761478548505440300,4.781440185546875,-0.11613865426182746,-0.1452034937698394,0.1770750612616539
1761478548515476200,4.791476318359375,-0.2920271360874176,-0.18218853181786834,0.07990297327637672
1761478548525512200,4.80151220703125,-0.47777299506068227,-0.13425247616656125,-0.032607553616166116
1761478548535548200,4.811548095703125,-0.6265601194709539,-0.09543174712397158,-0.23562281955927608
1761478548545584000,4.821584228515625,-0.7298568278163671,0.01670877741239965,-0.44620355232059955
1761478548555619300,4.831619384765625,-0.7038859357357025,0.08594393394105136,-0.5387205079764127
1761478548565655300,4.8416552734375,-0.5580056386828423,0.05503288204446435,-0.4501312471583485
1761478548575691300,4.851691162109375,-0.3374450714379549,-0.08998173808977007,-0.32013299437016246
1761478548585727200,4.861727294921875,-0.12007073301374911,-0.2838947926340625,-0.2640396434873342
1761478548595763200,4.87176318359375,-0.029509587600827215,-0.3756444171791896,-0.36380028666108843
1761478548605799200,4.881799072265625,-0.0070113400667905805,-0.31467896674796936,-0.5226560928821563
1761478548615834000,4.891834228515625,-0.04163490968048572,-0.32192053537406023,-0.5668588072240353
1761478548625870300,4.901870361328125,-0.1114139638274908,-0.3495421538038179,-0.4203232611328363
1761478548635906300,4.91190625,-0.1491115340590477,-0.3651197717618197,-0.20441841073930261
1761478548645942300,4.9219423828125,-0.10108195490539074,-0.44185814352743324,0.036979192829132077
1761478548655978200,4.931978271484375,-0.013718728750944136,-0.582654415314272,0.1892936145827174
1761478548666014500,4.942014404296875,0.10858253979384898,-0.62988239576146,0.14799451272785663
1761478548676050400,4.952050537109375,0.1791220569193363,-0.6066624098241329,0.05007978968173265
1761478548686085000,4.962085205078125,0.18103168993294239,-0.6488128678113222,0.12747194918096064
1761478548696121000,4.97212109375,0.08341711887717247,-0.6175372934512794,0.33950317301154137
1761478548706157300,4.9821572265625,0.03751052322685718,-0.5680275587424636,0.6223503928214311
1761478548716193300,4.992193359375,0.023356910189986226,-0.5910843169420957,0.7878931294605136
1761478548726229500,5.0022294921875,-0.06040566112399101,-0.6301693229440599,0.6337684434145688
1761478548736265500,5.012265380859375,-0.16889058576226235,-0.604728555684723,0.2861345709174871
1761478548746300200,5.022300048828125,-0.33129356307089325,-0.5190579222597181,0.004352642251551151
1761478548756336000,5.032336181640625,-0.47248424100279807,-0.45835400884151456,-0.059843351066112514
1761478548766372000,5.0423720703125,-0.5238064319610596,-0.41910299862287936,0.06403203492760658
1761478548776408300,5.052408203125,-0.3762871355295181,-0.3879466667283326,0.2236731463074684
1761478548786444500,5.062444580078125,-0.17685294294357298,-0.38772600971497595,0.26967326546013354
1761478548796480500,5.07248046875,-0.04624678739011288,-0.3777802966967225,0.15490969894379378
1761478548806515200,5.08251513671875,0.05040799872279167,-0.37400026670135555,0.037785833036899565
1761478548816551200,5.09255126953125,0.026224574580788612,-0.37264340873230245,0.0029331308424472807
1761478548826587100,5.102587158203125,0.005330255112051963,-0.4261942355254665,0.03743395085930824
1761478548836623400,5.112623291015625,-0.01229424890577793,-0.5063732857968658,0.0013017302483320236
1761478548846659300,5.122659423828125,-0.14784545964598655,-0.565558757476136,-0.04316694155335426
1761478548856695300,5.1326953125,-0.31302374688684936,-0.6113762866035104,-0.04039221614301204
1761478548866731500,5.1427314453125,-0.3839426187187433,-0.6240238059263676,0.1264481590911746
1761478548876766200,5.15276611328125,-0.39871640948057174,-0.6037543403577059,0.397643519552052
1761478548886802200,5.16280224609375,-0.38652094477415083,-0.602351780083403,0.6191489664316177
1761478548896838400,5.17283837890625,-0.40112756227552887,-0.6030076867088675,0.7303674076870084
1761478548906874400,5.182874267578125,-0.5307371080070734,-0.467641915538162,0.6343640712201595
1761478548916910300,5.192910400390625,-0.6291881298869848,-0.4133904296623543,0.4829772857055068
1761478548926946300,5.2029462890625,-0.7197983751386403,-0.4950806151490658,0.36183716989457604
1761478548936981200,5.212981201171875,-0.7994371445208788,-0.5827449431419373,0.23072335707992314
1761478548947017500,5.223017578125,-0.730811936584115,-0.6555361847169697,0.04095540298372507
1761478548957053400,5.233053466796875,-0.6733984430134295,-0.6571236731041222,-0.18653087187111378
1761478548967089400,5.24308935546875,-0.41127661584615705,-0.6281682853199542,-0.16965134100168944
1761478548977125400,5.25312548828125,-0.02294599130153656,-0.45115145705156023,0.13197072190493345
1761478548987161300,5.263161376953125,0.37207623983621596,-0.29533494546115396,0.620793518768251
1761478548997197300,5.273197265625,0.5263748211443424,-0.20959486352913081,1.1276263118356467
1761478549007232500,5.283232421875,0.44951720691323277,-0.2302357196934521,1.3633107984542845
1761478549017268500,5.2932685546875,0.05395020137429237,-0.24513255231305955,1.2373340562671422
1761478549027304400,5.303304443359375,-0.5211059408307075,-0.1732905742868781,0.7857096479415893
1761478549037340400,5.31334033203125,-1.156746023336053,-0.0031050533432513475,0.387650825586915
1761478549047376400,5.32337646484375,-1.70875563647449,0.1207341653585434,0.16842676764279602
1761478549057412400,5.333412353515625,-2.0380477965950963,0.23480375826135277,0.03407207321077585
1761478549067447300,5.343447265625,-2.0645722309052945,0.28993805485367774,-0.021412790384888646
1761478549077483500,5.3534833984375,-1.7161241194158792,0.31004626544602215,-0.15141133543401955
1761478549087520000,5.36352001953125,-1.217386077737808,0.3077209643036127,-0.3304918912991881
1761478549097556000,5.373555908203125,-0.775001206922531,0.2051987474620342,-0.41918607379645106
1761478549107592000,5.383592041015625,-0.46383097894787784,0.07120104977414012,-0.3928501477956772
1761478549117628000,5.3936279296875,-0.3673030340850353,0.014354907762631774,-0.3751362119287252
1761478549127662800,5.403662841796875,-0.3838502642601728,0.13285926824249325,-0.4909431500181555
1761478549137698800,5.41369873046875,-0.35388474958539007,0.2609715611536056,-0.5714496421456337
1761478549147734800,5.42373486328125,-0.1385708508223295,0.29174861140698194,-0.43547640660107134
1761478549157770800,5.433770751953125,0.20544950735270975,0.22838271223790943,-0.2346764786198735
1761478549167807000,5.443806884765625,0.5668640679210424,0.15601955988183616,-0.07286123807132244
1761478549177843000,5.453843017578125,0.8499141168266534,0.06011288872249424,0.027902736926078794
1761478549187879000,5.46387890625,1.1244359913617372,-0.13597995754629372,0.03532002744525671
1761478549197913900,5.473913818359375,1.240478784033656,-0.28545637939497825,-0.12085194651931523
1761478549207949800,5.48394970703125,1.1556857006281613,-0.2505741588450968,-0.33094168089330195
1761478549217985800,5.49398583984375,0.8674363295137881,-0.15126754304915666,-0.3872714708805084
1761478549228021800,5.504021728515625,0.41272213847935196,-0.04675912082642317,-0.30828911958038807
1761478549238057700,5.5140576171875,-0.052146951344609255,0.12506839517056942,-0.20224077443927524
1761478549248094000,5.524093994140625,-0.48613516521453853,0.2706592808227986,-0.06516250026226043
1761478549258129000,5.53412890625,-0.77933017603755,0.3627729894399643,-0.010801379999518393
1761478549268164900,5.544164794921875,-0.7684311808824539,0.4325807582248002,-0.09389438148885965
1761478549278200800,5.554200927734375,-0.6428332088798284,0.44190534367002543,-0.24874065980762242
1761478549288236800,5.56423681640625,-0.3687316055834293,0.3925714769847691,-0.330081849193573
1761478549298272800,5.574272705078125,-0.07261749244332313,0.3084336426176131,-0.2495972766369581
1761478549308308700,5.584308837890625,0.13712708175480365,0.2644305425010621,-0.12353665555864572
1761478549318344000,5.594343994140625,0.2884475240349769,0.296875818227604,-0.054795420026779174
1761478549328380000,5.6043798828125,0.36210663448572156,0.34239794460497797,-0.018357786728441714
1761478549338415900,5.614415771484375,0.3623194004535675,0.3806793791390955,0.01772708760946989
1761478549348451800,5.624451904296875,0.3385948259949684,0.4272735917273909,-0.012686170832812786
1761478549358487800,5.63448779296875,0.21821195829212664,0.5096558876641094,-0.13192220658808945
1761478549368523800,5.644523681640625,0.07730009730160235,0.5503849345460534,-0.18395605294704437
1761478549378559000,5.65455908203125,-0.005194061511754989,0.6165320619314909,-0.10388765997588634
1761478549388595000,5.664594970703125,-0.03231704623699188,0.6613355917107313,0.058466802015900605
1761478549398631000,5.674630859375,-0.04857844520807266,0.6952479443151504,0.18236410758048294
1761478549408667000,5.6846669921875,-0.08936404458284378,0.7823245355479419,0.21897885101139544
1761478549418702800,5.694702880859375,-0.16298282302320002,0.857208950009942,0.2224620169520378
1761478549428738800,5.70473876953125,-0.24122458508908748,0.9226392343629151,0.21705606625527143
1761478549438774800,5.71477490234375,-0.2983756283313036,0.9048290715798735,0.17045125920772553
1761478549448810000,5.72481005859375,-0.26348434769213197,0.858515867890045,0.01863280427753925
1761478549458846000,5.734845947265625,-0.1827823329925537,0.8337395924214274,-0.23187048128843307
1761478549468882000,5.7448818359375,-0.017174422162771225,0.7751447070464491,-0.4536860170304775
1761478549478918000,5.75491796875,0.17507365831136704,0.7149076804876328,-0.5881263439193367
1761478549488953900,5.764953857421875,0.2936088523209095,0.659453942682594,-0.5673316854327917
1761478549498990000,5.774989990234375,0.2908990088403225,0.6401872244156896,-0.4903150812476873
1761478549509024800,5.785024658203125,0.1951923172324896,0.6425434321530162,-0.4447533535122871
1761478549519060700,5.795060791015625,0.06514730269312859,0.671540978578478,-0.509206244200468
1761478549529097000,5.805096923828125,-0.04092763819396496,0.693691727849096,-0.6295873583376407
1761478549539133000,5.8151328125,-0.1299918230473995,0.7101782408129423,-0.6181377435624599
1761478549549169000,5.8251689453125,-0.2744429640799761,0.5961467148981988,-0.5356432924881577
1761478549559205000,5.835205078125,-0.29383272420465945,0.4610652405615896,-0.6082537706688046
1761478549569239800,5.84523974609375,-0.12243629310131073,0.4200773966129869,-0.8282403374180197
1761478549579275800,5.85527587890625,0.0924608415544033,0.3262548382513225,-1.0404568546876312
1761478549589311700,5.865311767578125,0.2132733328461647,0.13537249317243694,-1.0988657890364526
1761478549599347700,5.87534765625,0.11756371862888336,0.06765621677413583,-1.0261293463885783
1761478549609384000,5.885384033203125,-0.037827918612957,0.20786628617085515,-0.8141331938713788
1761478549619420200,5.895420166015625,-0.31174890464544297,0.23674948550164698,-0.5293921231389045
1761478549629454800,5.905454833984375,-0.7156734041631221,0.28918416774645445,-0.5257645802915096
1761478549639490800,5.91549072265625,-1.0757114156812428,0.45150662716478107,-0.6685556791573762
1761478549649526800,5.92552685546875,-1.08241237462461,0.5243354242712259,-0.6691738110557198
1761478549659562800,5.935562744140625,-0.7479343362987041,0.5219562009844929,-0.5153586293503641
1761478549669599000,5.945598876953125,-0.26285890927016736,0.46013343960419295,-0.29958792673051354
1761478549679635000,5.955635009765625,0.15736439861953258,0.29126703843511637,-0.18608721975684164
1761478549689671000,5.9656708984375,0.39167935045063496,0.14647102948762475,-0.21761340787708758
1761478549699705900,5.975705810546875,0.5175619846135378,-0.01552110199779272,-0.3512649224758148
1761478549709741800,5.985741943359375,0.6537737050890922,-0.14291750172451137,-0.5394757102578878
1761478549719777800,5.99577783203125,0.7226993572771548,-0.13485336466915904,-0.6396884811133146
1761478549729814000,6.00581396484375,0.6806131966978312,-0.04497077610492706,-0.5485232323274016
1761478549739850000,6.01585009765625,0.5740671311676502,0.05834441774524748,-0.2566045250505209
1761478549749886000,6.025885986328125,0.3511141158282757,0.10877250940799713,0.033004443979263304
1761478549759921000,6.0359208984375,0.17592238409519195,0.078728887995705,0.2437622868731618
1761478549769956900,6.045956787109375,0.09721125095188617,-0.013833002780377864,0.30061259360313414
1761478549779993000,6.0559931640625,0.03364274188280105,-0.1295346538644284,0.20172025769650934
1761478549790029000,6.066029052734375,0.03064180650115013,-0.2674495615286752,0.06989537400305271
1761478549800065000,6.07606494140625,0.016973931154608726,-0.40705940000992263,-0.026965456075966357
1761478549810101000,6.08610107421875,-0.06941255892217159,-0.4622676751539111,-0.13372662566155194
1761478549820136000,6.096135986328125,-0.07517126857936382,-0.4606068292696029,-0.21038170305788514
1761478549830172000,6.106171875,-0.16984920166134834,-0.3976908292924985,-0.21685849785655736
1761478549840208100,6.1162080078125,-0.24966040500104425,-0.3491298466758802,-0.09646978493481874
1761478549850244000,6.126244140625,-0.4218962095379829,-0.38672508904412384,0.13173311375677585
1761478549860280000,6.136280029296875,-0.6058931790173053,-0.40387708017937834,0.26697686598300935
1761478549870316000,6.14631591796875,-0.7436123814463615,-0.3918412995466962,0.19916998869180677
1761478549880350700,6.156350830078125,-0.7973527394622564,-0.338115371914953,-0.0903127236098051
1761478549890387000,6.166386962890625,-0.68179042378366,-0.34124548663422466,-0.33685002815425397
1761478549900423200,6.176423095703125,-0.4505138167351484,-0.44662572325542566,-0.3093272304564714
1761478549910459100,6.186459228515625,-0.18084055127501486,-0.5606262329773977,-0.12316197702735662
1761478549920495000,6.1964951171875,-0.020685645154118536,-0.6391293859258294,0.08520107968449592
1761478549930531000,6.206531005859375,0.022875848674774168,-0.703913481329754,0.21785978385359048
1761478549940567000,6.216567138671875,0.030853987947106358,-0.7530582551836967,0.21074673697799443
1761478549950602000,6.22660205078125,0.017298925325274467,-0.7460743876457214,0.1292538641616702
1761478549960638000,6.236637939453125,0.08026128519475459,-0.7353229842677712,0.07132394550144672
1761478549970674000,6.246673828125,0.18165595931112766,-0.6748457922775298,0.12974690837562083
1761478549980710100,6.256710205078125,0.2564823599755764,-0.6691082715388387,0.33618922615796326
1761478549990746000,6.26674609375,0.23265841679573057,-0.6865924903031438,0.5217421929076314
1761478550000782000,6.276781982421875,0.1625344947338104,-0.7314885937366634,0.6109595224961638
1761478550010817000,6.286817138671875,0.1940191817998886,-0.7607374115094542,0.46445933997929095
1761478550020853000,6.29685302734375,0.32750936835706235,-0.7681804940570145,0.12704261785298585
1761478550030889000,6.306888916015625,0.4913870943933725,-0.7751799244903027,-0.2398664484784007
1761478550040925000,6.316925048828125,0.5434224020570516,-0.8341772531863302,-0.4633534245640039
1761478550050961000,6.3269609375,0.45100364607870574,-0.9380285997398197,-0.5837438910514116
1761478550060997000,6.3369970703125,0.24533786562681198,-0.9655750705741345,-0.5826785999074577
1761478550071032000,6.347031982421875,0.02918576247394085,-0.9320814548384397,-0.4732441194593906
1761478550081068000,6.357068115234375,-0.13095511512160302,-0.9149781251505017,-0.2829971496745944
1761478550091103500,6.367103515625,-0.2360205867052078,-0.7837537646334618,-0.07880641021132469
1761478550101139500,6.377139404296875,-0.28621348137259484,-0.709873485712707,0.13316957630068063
1761478550111175400,6.387175537109375,-0.37316929576992985,-0.7293393067482858,0.23785452413409947
1761478550121211600,6.397211669921875,-0.41193069584071634,-0.7378535987239331,0.23984306760281324
1761478550131246600,6.40724658203125,-0.361160293546319,-0.8042076468583196,0.15376725091040133
1761478550141282600,6.417282470703125,-0.26753274630010127,-0.867184985101223,0.07131576219499111
1761478550151318500,6.427318603515625,-0.08347147941291332,-0.9548156300202012,0.021871347807347775
1761478550161354500,6.4373544921875,0.10442366654872894,-1.0114495905857532,0.028314532597362992
1761478550171390500,6.447390380859375,0.3240302940696478,-1.0223208209510892,0.11857201888859271
1761478550181426400,6.457426513671875,0.4544301133960485,-1.0175929887115955,0.3255748931631446
1761478550191461600,6.467461669921875,0.40207448773682114,-0.9355361984021962,0.5645920313358307
1761478550201497600,6.47749755859375,0.23081191214621066,-0.7830481736473739,0.6183958099767566
1761478550211533600,6.487533447265625,0.0022936638951301575,-0.6454320662666112,0.3108347124099731
1761478550221569500,6.497569580078125,-0.1808177549213171,-0.5563418701890855,-0.29040041166841984
1761478550231605500,6.50760546875,-0.21245032602548597,-0.5452141808446497,-0.7619862425267696
1761478550241641500,6.517641357421875,-0.09232815508544444,-0.5693622414123266,-0.884784939199686
1761478550251677400,6.527677490234375,0.12625555912852288,-0.4789480301894247,-0.7250421210110187
1761478550261712600,6.537712646484375,0.3037210810124874,-0.2425568566061556,-0.3913254224464297
1761478550271748600,6.54774853515625,0.3073842796951532,0.04397029382549226,-0.12407003178298473
1761478550281784600,6.55778466796875,0.04757365207970142,0.20341127952337265,-0.15173808317035437
1761478550291820500,6.567820556640625,-0.44768005461394783,0.2722256533566862,-0.4249170186638832
1761478550301856500,6.5778564453125,-1.1010305658549069,0.3412986050609499,-0.8386629472330213
1761478550311892500,6.587892578125,-1.777255756726861,0.31353450942058114,-1.3058204402551055
1761478550321927400,6.597927490234375,-2.2228736181139945,0.19940072870776057,-1.7389193040698765
1761478550331963600,6.607963623046875,-2.4752146405011413,0.12124182261973619,-2.06381527505815
1761478550341999600,6.61799951171875,-2.425863457354903,0.03161861564405262,-2.046217074525356
1761478550352035600,6.62803564453125,-2.2403297798275945,-0.02167487538717687,-1.601311160799861
1761478550362071600,6.638071533203125,-1.85633396961689,-0.09963548242412507,-0.8683984525442123
1761478550372107500,6.648107421875,-1.3581763581752777,-0.1150837383814156,-0.1417538647726178
1761478550382142500,6.658142578125,-0.8143857073277234,-0.07873115301802754,0.5106812851890922
1761478550392178400,6.668178466796875,-0.25342004979550836,-0.17529541130326687,0.9418348601549863
1761478550402214400,6.67821435546875,0.23621055631935595,-0.14707169879451393,1.0814812312543391
1761478550412250600,6.688250732421875,0.7885024935305118,-0.019003829547017813,1.140956333529949
1761478550422286600,6.69828662109375,1.161529165959358,0.03322144773080945,1.1072662453740834
1761478550432322600,6.708322509765625,1.2551222264140844,0.14341902150586247,0.9132368344411254
1761478550442357500,6.718357421875,1.1923334695458412,0.16325082630962132,0.6416650418832898
1761478550452393500,6.7283935546875,1.0324322459250688,0.3177563283666968,0.5119476518630981
1761478550462429400,6.738429443359375,0.9003735534757376,0.4647136070013046,0.499901824760437
1761478550472465400,6.74846533203125,0.7190723989516496,0.3494740935362875,0.3041168023318052
1761478550482501600,6.758501708984375,0.5813496893912553,0.28045126458406444,-0.1421641991391778
1761478550492537600,6.76853759765625,0.41225978166460986,0.2422056320156902,-0.5790519338428973
1761478550502572500,6.778572509765625,0.31026714165508745,0.3565292727448046,-0.7942568192735314
1761478550512608500,6.7886083984375,0.3602344108730554,0.38050256126746534,-0.8108227541491388
1761478550522644500,6.79864453125,0.41201720508038997,0.3138919810887426,-0.7575608272999524
1761478550532680400,6.808680419921875,0.4261497753292322,0.4346328684490174,-0.6730421769216657
1761478550542716400,6.81871630859375,0.24394027378857133,0.683306015978381,-0.5091518836647272
1761478550552752400,6.82875244140625,0.0398275679975748,0.8453891867481171,-0.37465105876028537
1761478550562787600,6.83878759765625,-0.12503975359797476,0.9586984628029167,-0.27629093003422023
1761478550572823600,6.848823486328125,-0.12123626966178416,0.9093532710060477,-0.17766601289212702
1761478550582859500,6.858859619140625,-0.2871843722313642,0.8627714064426719,-0.2291696978971362
1761478550592895500,6.8688955078125,-0.5157014514386654,1.0528557330116628,-0.2913070051193237
1761478550602931500,6.878931396484375,-0.6023585751503706,1.1734935253236443,-0.20763971087336539
1761478550612967400,6.888967529296875,-0.5919441486418247,1.2229993145097047,-0.05175736750513315
1761478550623003400,6.89900341796875,-0.4734796817809343,1.375576113526523,0.08748802157789468
1761478550633038600,6.90903857421875,-0.0999637645304203,1.378338563977182,0.263887083274126
1761478550643074600,6.919074462890625,0.3278969063699245,1.107823733126372,0.4524366014912724
1761478550653110500,6.929110595703125,0.6481780770391226,0.8983077069871127,0.5244809702217579
1761478550663146500,6.939146484375,0.5925894608080386,0.8575382550295442,0.6255465585142373
1761478550673182500,6.949182373046875,0.19901918204426763,0.9301871655244379,0.41450493024289603
1761478550683218400,6.959218505859375,-0.3373784359425306,1.1210780592359602,-0.11297054561972618
1761478550693253600,6.969253662109375,-0.5299596938937902,1.1034639304816722,-0.5315934325754642
1761478550703289600,6.97928955078125,-0.35955402739346026,0.9628482759587467,-0.597739975439012
1761478550713325600,6.98932568359375,-0.0768845022380352,0.9124676036342978,-0.4478796688392758
1761478550723361500,6.999361572265625,0.039055999103188514,0.8210969684693962,-0.09227876298576593
1761478550733397500,7.0093974609375,0.020210428857803345,0.6403538862194865,0.26555180161595343
1761478550743433500,7.01943359375,-0.113679570671916,0.5731902752678841,0.29420418786555524
1761478550753468400,7.029468505859375,-0.2835030533701181,0.6330445130541921,0.008572305773198605
1761478550763504400,7.03950439453125,-0.4498848711818456,0.6138631349831819,-0.19635405448824167
1761478550773540600,7.04954052734375,-0.54402212151587,0.5483743619086221,-0.176735454043746
1761478550783576600,7.05957666015625,-0.5834294182747602,0.5316395367395133,-0.06624824967235327
1761478550793612500,7.069612548828125,-0.6213438461273908,0.5172977076541632,0.10336480514556169
1761478550803648500,7.0796484375,-0.7130763734072446,0.40067799187712366,0.2510723176255822
1761478550813683500,7.089683349609375,-0.7238543725311756,0.39828115986846385,0.2911094367206096
1761478550823719400,7.099719482421875,-0.6004606325745582,0.42221586994640525,0.3147749744683504
1761478550833755400,7.10975537109375,-0.31167993106245995,0.39021581723671406,0.40348815392702814
1761478550843791400,7.119791259765625,-0.11446283000409603,0.4095520936084911,0.42648587541580196
1761478550853827600,7.12982763671875,-0.15651041213870048,0.4742591417208314,0.3743731186017394
1761478550863863600,7.139863525390625,-0.2978969049036503,0.44191243099793787,0.2619634217351675
1761478550873898500,7.1498984375,-0.2755798591554165,0.42571123778149483,0.07451134336590766
1761478550883934500,7.1599345703125,-0.10289397276341915,0.324825755296275,-0.04203326134830713
1761478550893970400,7.169970458984375,0.14198387413620947,0.20837726790029554,0.014674714301526545
1761478550904006400,7.18000634765625,0.3492635195255279,0.2256660006251186,0.16450082637071609
1761478550914042400,7.19004248046875,0.4277835140109062,0.23510661366544663,0.23910949263125655
1761478550924078600,7.20007861328125,0.2806207759320736,0.2254864793397486,0.04660393026471138
1761478550934113500,7.210113525390625,0.009127893829345703,0.3076095398183912,-0.2938379849016666
1761478550944149500,7.2201494140625,-0.2040320417702198,0.2642790052011609,-0.46403877647966146
1761478550954185500,7.230185546875,-0.11653729819059372,0.08698511355705559,-0.44287002398371694
1761478550964221400,7.240221435546875,0.14309972642362118,0.04201316840834916,-0.38762978279888627
1761478550974257400,7.25025732421875,0.506994413369894,-0.11580240804478525,-0.15477847377955914
1761478550984293400,7.26029345703125,0.773091573908925,-0.25635391129031776,0.03328501448631287
1761478550994328600,7.27032861328125,0.8984335253238678,-0.3520380257401615,0.060334057192504405
1761478551004364500,7.280364501953125,0.9180319597631692,-0.3370623557306826,-0.11035597920715808
1761478551014400500,7.290400390625,0.7053869879484176,-0.28313071292638775,-0.2744362420782447
1761478551024436500,7.3004365234375,0.30167876152992246,-0.3369043886899948,-0.28763153147697446
1761478551034472400,7.310472412109375,-0.10651742395758629,-0.4717587032072246,-0.22266484604775905
1761478551044508400,7.32050830078125,-0.4141594778060913,-0.6534792521871626,-0.1336176123291254
1761478551054543600,7.330543701171875,-0.6188420924395323,-0.8239836298216133,-0.14103256476074455
1761478551064579600,7.34057958984375,-0.699235479581356,-0.8937197216097265,-0.1854299248918891
1761478551074615600,7.350615478515625,-0.8378343874543904,-0.9231529560387134,-0.02354424945563078
1761478551084651500,7.360651611328125,-0.9864356339037418,-0.8736581266380846,0.22665450020581482
1761478551094686700,7.370686767578125,-1.0648229419201611,-0.7882098672594875,0.45364802310764785
1761478551104722700,7.38072265625,-0.9826052619606256,-0.8166013375505805,0.5817910034179687
1761478551114758000,7.3907578125,-0.774059542158246,-0.9168886349469423,0.518169595117867
1761478551124793900,7.4007939453125,-0.5378630143642426,-1.0275474695581943,0.374668594416976
1761478551134829800,7.410829833984375,-0.24044483288824556,-1.0266055855982006,0.22713322363346813
1761478551144865800,7.42086572265625,0.05693535466492176,-0.9081278208643198,0.24830080708563326
1761478551154901800,7.43090185546875,0.3121037094324827,-0.6967662399236112,0.5431558600753545
1761478551164937700,7.440937744140625,0.5192816480129957,-0.4523883784353733,0.938433819539845
1761478551174972700,7.45097265625,0.6311807650089264,-0.40545236667208373,1.2169421333625912
1761478551185008600,7.461008544921875,0.6491670880764723,-0.5534252155574039,1.1553887635082005
1761478551195044900,7.471044921875,0.5343476997196674,-0.6768949798922985,0.6841770266592502
1761478551205080800,7.481080810546875,0.2669108150094747,-0.7201270225711166,-0.04606120169013738
1761478551215116800,7.49111669921875,-0.2049737065345049,-0.7270382632642984,-0.595677197690308
1761478551225152800,7.50115283203125,-0.7402057878732681,-0.5400941344171762,-1.051369001585245
1761478551235187700,7.511187744140625,-0.5646031372517347,-0.7857776716765016,-0.5593751734703779
1761478551245223700,7.5212236328125,-0.48643970111906526,-0.4567298782384023,0.16158201631456612
1761478551255259600,7.531259765625,-0.698599519765377,-0.34906580499634143,0.47712300671935076
1761478551265295600,7.541295654296875,-0.629665099748969,-0.5487753804575651,0.5478560005903244
1761478551275331800,7.551331787109375,-0.682124185782671,-0.42921646942347286,-0.15761282042264937
1761478551285367800,7.561367919921875,-0.25051906765699383,-0.7242416913483292,-0.9586676292732358
1761478551295402800,7.57140283203125,0.20840835715830325,-0.8092292013473809,-1.347353058604896
1761478551305438700,7.581438720703125,0.41328678662478924,-0.7141850653015077,-1.2607973494410514
1761478551315474700,7.591474609375,0.48010991357564925,-0.6063066186564042,-0.6667278792083263
1761478551325510700,7.6015107421875,0.3251975842833519,-0.5305861552290618,0.01673719978928566
1761478551335546600,7.611546630859375,0.09152093035578727,-0.4332234035098925,0.4080038777858019
1761478551345582800,7.621582763671875,-0.11449790131747722,-0.42264951212331653,0.47859366379380225
1761478551355617800,7.63161767578125,-0.22402327491939067,-0.5691786284737289,0.38322804070860145
1761478551365653800,7.64165380859375,-0.2936082677990198,-0.7200741233401,0.2772352251470089
1761478551375689700,7.651689697265625,-0.26281507012844085,-0.8419683454539626,0.29659459013342854
1761478551385725700,7.6617255859375,-0.22603929091691968,-0.8919143526881933,0.46471389926224943
1761478551395761700,7.67176171875,-0.2738543505370617,-0.9648181147269904,0.6267132642060518
1761478551405797600,7.681797607421875,-0.4036848455429077,-1.0626042429573834,0.6760109635993838
1761478551415832800,7.691832763671875,-0.6817354787260294,-1.0947419140394776,0.5857970241889358
1761478551425868800,7.701868896484375,-0.9295558088183402,-0.9500332180492579,0.4814315175682306
1761478551435904800,7.71190478515625,-0.9016045565754175,-0.5756088076516985,0.6112073597773909
1761478551445940700,7.721940673828125,-0.6560369738459587,-0.2577094906177372,0.9652864628911018
1761478551455976700,7.731976806640625,-0.3701929103076458,-0.08986797551698983,1.2483484944954513
1761478551466012700,7.7420126953125,-0.37871114780604836,0.02882482020705938,1.3688912289351225
1761478551476048000,7.7520478515625,-0.7834124769151211,-0.054530923871695995,1.2769623023003338
1761478551486083800,7.762083740234375,-1.3280050917953252,-0.11551701523214578,0.864967309051752
1761478551496119800,7.772119873046875,-1.866686436805129,-0.2018515559259802,0.25602438707500697
1761478551506155800,7.78215576171875,-2.050557734078169,-0.35669637294001877,-0.45846828287094826
1761478551516191700,7.792191650390625,-1.8593045098602772,-0.4453113161886111,-1.11468587398082
1761478551526227700,7.802227783203125,-1.4584610252231358,-0.5002759918350727,-1.321783733062446
1761478551536262700,7.8122626953125,-0.9692056821614503,-0.5165105027992278,-1.1003913911685348
1761478551546298600,7.822298583984375,-0.47159109155535694,-0.43597325020730493,-0.5762757471278309
1761478551556334800,7.8323349609375,-0.196290049341321,-0.32828042579479516,-0.03348901262581348
1761478551566370800,7.842370849609375,-0.10222995589673518,-0.19520371540933845,0.29212562802582975
1761478551576406800,7.85240673828125,-0.21558102526664732,-0.01848893882744014,0.4602864382088184
1761478551586442800,7.86244287109375,-0.3862339445263147,0.012066760292835533,0.5539549019873142
1761478551596477700,7.872477783203125,-0.4199865765243768,-0.025009901561401784,0.4844020578116178
1761478551606513700,7.882513671875,-0.21372867539823054,-0.034380335442349315,0.29841537581980226
1761478551616549600,7.892549560546875,0.07266425419449805,-0.034717641105316575,0.09370733448415994
1761478551626585600,7.902585693359375,0.49376376039683817,-0.02749649421274662,-0.05681114376336336
1761478551636621800,7.912621826171875,0.8173392964363098,-0.1638265073057264,0.02334551201313734
1761478551646657800,7.92265771484375,1.1145458809882403,-0.2280146095778793,0.19678192451149223
1761478551656692700,7.932692626953125,1.254656362468004,-0.1870164634309709,0.45375411383062597
1761478551666728700,7.942728759765625,1.2059452307909726,-0.14812460538093,0.740496879774332
1761478551676764700,7.9527646484375,0.8399474340856075,-0.010135901828110217,0.802004656921327
1761478551686800600,7.962800537109375,0.2138870808303356,0.2752932242337614,0.5887240175515412
1761478551696836600,7.972836669921875,-0.578142417782545,0.6588640139654278,0.4792603110089898
1761478551706872600,7.98287255859375,-1.1688052944421767,0.8591353880278766,0.4048950981155038
1761478551716907800,7.99290771484375,-1.3496318171918391,0.9757727855920791,0.29602935746610165
1761478551726943700,8.00294384765625,-1.190795007932186,1.0920106624446808,0.30383564730286594
1761478551736979700,8.012979736328125,-0.8012035696715116,1.208449687892571,0.32214521097540855
1761478551747015700,8.023015625,-0.22779285658597945,1.1856440549097955,0.3004769845247269
1761478551757051600,8.0330517578125,0.15266834975779056,1.029399161839485,0.20136603743135928
1761478551767087600,8.043087646484375,0.30546646337509153,0.8412784634936601,-0.18915391385108232
1761478551777122800,8.053122802734375,0.4272048373401165,0.6703748574085533,-0.7697635985299944
1761478551787158800,8.06315869140625,0.5167980145037174,0.46721309566684066,-1.3485899069234728
1761478551797194800,8.07319482421875,0.7071756249308586,0.28128840952795,-1.8232655204907058
1761478551807230700,8.083230712890625,1.009880222377181,0.1783874590344727,-1.96483029243201
1761478551817266700,8.0932666015625,1.1454092212855815,0.1894331691838801,-1.76790428327471
1761478551827302700,8.103302734375,0.9127396985739469,0.23358433600161224,-1.389229960347712
1761478551837337900,8.113337890625,0.47667058677673335,0.4407960672538727,-0.9715987147778272
1761478551847373800,8.123373779296875,0.013639233773946761,0.7141845538448542,-0.6049459612950683
1761478551857409800,8.133409912109375,-0.3180219935655594,0.7279226448833942,-0.32419746733009813
1761478551867445800,8.14344580078125,-0.4692611873030662,0.507364196530357,-0.23111820161640642
1761478551877481700,8.153481689453125,-0.5476303751409054,0.38471572198309,-0.2585261407628655
1761478551887517700,8.163517578125,-0.47209611846804617,0.3056429889857769,-0.2349430206015706
1761478551897552600,8.173552734375,-0.37089375205338,0.13983224906027317,-0.1327805769830942
1761478551907588600,8.183588623046875,-0.3744657653212547,0.035271804389357564,-0.10971505095511674
1761478551917624800,8.193624755859375,-0.3560106556981802,0.03605016835071146,-0.269814135235548
1761478551927660800,8.203660888671875,-0.31743980976343156,-0.01148008297868073,-0.5313815433904528
1761478551937696800,8.21369677734375,-0.1047825629889965,-0.14638400879129768,-0.6965718133300542
1761478551947732700,8.223732666015625,0.25138123744428154,-0.24244280177243052,-0.6852361803233623
1761478551957767700,8.233767578125,0.6065127722203731,-0.28837146312408146,-0.519361142989993
1761478551967803600,8.2438037109375,0.8681079451650381,-0.31046894783750173,-0.2970055090218782
1761478551977839600,8.253839599609375,0.969834627714753,-0.2630827811539173,-0.2173766765117645
1761478551987875600,8.26387548828125,0.7976923466801643,-0.16114866639859973,-0.28445377822369333
1761478551997911800,8.273911865234375,0.4454191239446401,-0.055314603328984226,-0.3336354500219226
1761478552007947800,8.28394775390625,0.17654022373259068,0.036662820356339214,-0.21368162138611077
1761478552017982700,8.293982666015625,-0.04270926091372967,0.026893267622590065,0.0567439237460494
1761478552028018700,8.304018798828125,-0.165994864320755,-0.05571940300390124,0.2407636895790696
1761478552038054700,8.3140546875,-0.09626491001248359,-0.1476711807913147,0.2107552125453949
1761478552048090600,8.324090576171875,-0.08189736196398735,-0.2980734122480266,-0.1035518521502614
1761478552058126600,8.334126708984375,-0.06126666186749935,-0.4359214469548315,-0.46265082925260065
1761478552068162600,8.34416259765625,-0.171131058165431,-0.5224599857881665,-0.7067983160510659
1761478552078197800,8.35419775390625,-0.4269441405773163,-0.5427847617406397,-0.6932169499441981
1761478552088233700,8.364233642578125,-0.5637392138987779,-0.5036433493763208,-0.47161944086700675
1761478552098271200,8.374271240234375,-0.40733869187533855,-0.3743515643570572,0.027949790938198566
1761478552108307200,8.38430712890625,-0.03922434140741825,-0.39121231746077534,0.5825599419638514
1761478552118343200,8.39434326171875,0.37821839585304257,-0.6190048817858099,0.7364867673501372
1761478552128379100,8.404379150390625,0.42208208749890325,-0.8445346888106315,0.40554537871778007
1761478552138414000,8.4144140625,0.03529693883061409,-0.7339796799000352,-0.06911269919276238
1761478552148450000,8.424449951171875,-0.06829787567853927,-0.03398790205866098,-0.29871582007110115
1761478552158486000,8.434486083984375,0.26688275795876976,-0.0060529798960313195,0.35196810230910774
1761478552168522200,8.444522216796875,0.07919453274607657,-1.6814105334311722,1.5041341043785215
1761478552178558200,8.45455810546875,-0.2908107460349798,-1.6532275182589888,0.8932283578962087
1761478552188594200,8.46459423828125,-0.9668541505992412,-0.8257968167234212,-0.0948155879870057
1761478552198629000,8.474629150390625,-1.0574550435006618,-1.0339889738477765,-0.6703133364796638
1761478552208665000,8.4846650390625,-1.0556927100032567,-0.9717799896288662,-0.7074371984764933
1761478552218701000,8.494701171875,-0.8288286586999892,-0.6496965918432921,-0.5256476759135723
1761478552228737000,8.504737060546875,-0.1762333497405052,-0.008808343018777668,-0.20522066703289746
