time,seconds_elapsed,z,y,x
1761478543804910000,0.08091015625,0.09747888892889023,0.06699234992265701,0.20804613828659058
1761478543814946000,0.090946044921875,0.1465071439743042,0.03610527515411377,0.11451113224029541
1761478543824982300,0.100982177734375,0.16072097420692444,-0.009238239377737045,0.01629961095750332
1761478543835017200,0.111017333984375,0.13794241845607758,-0.03431456536054611,-0.05043467879295349
1761478543845053200,0.12105322265625,0.10720794647932053,-0.01444205641746521,-0.07093942165374756
1761478543855089200,0.131089111328125,0.08423418551683426,-0.034141991287469864,-0.07167258858680725
1761478543865125000,0.141125,0.07574775815010071,-0.07340443879365921,-0.04976009950041771
1761478543875160300,0.151160400390625,0.04314267635345459,-0.061281997710466385,0.01931990124285221
1761478543885196300,0.1611962890625,-0.004878112114965916,-0.023212911561131477,0.09327641874551773
1761478543895232300,0.171232177734375,-0.04502686485648155,-0.01149739883840084,0.1408330202102661
1761478543905268200,0.181268310546875,-0.0673966184258461,0.0007227819296531379,0.1485641747713089
1761478543915304200,0.19130419921875,-0.08615459501743317,0.0008665926288813353,0.11229059100151062
1761478543925340200,0.201340087890625,-0.10162835568189621,-0.012493154965341091,0.05174175649881363
1761478543935375000,0.211375,-0.11127538979053497,-0.01906636916100979,-0.0146489841863513
1761478543945411300,0.221411376953125,-0.11472578346729279,-0.019997410476207733,-0.06428951025009155
1761478543955447300,0.231447265625,-0.10428512841463089,-0.03929174691438675,-0.0799449011683464
1761478543965483300,0.241483154296875,-0.08131243288516998,-0.06585464626550674,-0.07296768575906754
1761478543975519200,0.251519287109375,-0.060980264097452164,-0.06424716114997864,-0.03309057652950287
1761478543985554200,0.26155419921875,-0.05452768877148628,-0.028908347710967064,0.03632897883653641
1761478543995590100,0.271590087890625,-0.0560118705034256,-0.0035958001390099525,0.09323274344205856
1761478544005626000,0.281626220703125,-0.05451011285185814,-0.001577123999595642,0.12856410443782806
1761478544015662000,0.291662109375,-0.049220010638237,0.01133654359728098,0.13685451447963715
1761478544025698300,0.3016982421875,-0.03503015637397766,0.007790278643369675,0.11326823383569717
1761478544035733200,0.311733154296875,-0.027292074635624886,0.006073072552680969,0.07225848734378815
1761478544045769200,0.321769287109375,-0.023335149511694908,0.014756308868527412,0.030789338052272797
1761478544055805200,0.33180517578125,-0.03930879011750221,0.024463796988129616,-0.01848020777106285
1761478544065841200,0.341841064453125,-0.0690632238984108,0.029464680701494217,-0.06851594150066376
1761478544075877000,0.351877197265625,-0.09579550474882126,0.03647678345441818,-0.11285464465618134
1761478544085912300,0.361912353515625,-0.11073556542396545,0.03079945780336857,-0.14126046001911163
1761478544095948300,0.3719482421875,-0.11180855333805084,0.03682193160057068,-0.12242817878723145
1761478544105984300,0.381984375,-0.10997763276100159,0.035292211920022964,-0.07013487815856934
1761478544116020200,0.392020263671875,-0.10181611031293869,0.038130875676870346,-0.00999191403388977
1761478544126055200,0.40205517578125,-0.1041511669754982,0.036923397332429886,0.037342313677072525
1761478544136091100,0.412091064453125,-0.10381880402565002,0.02171328477561474,0.06517767161130905
1761478544146127000,0.422127197265625,-0.10099425911903381,-0.0014476943761110306,0.06090809032320976
1761478544156163300,0.432163330078125,-0.08082827180624008,-0.026150910183787346,0.047805871814489365
1761478544166199300,0.44219921875,-0.06446820497512817,-0.036263465881347656,0.0265975221991539
1761478544176235300,0.4522353515625,-0.04416399821639061,-0.033300433307886124,0.008647018112242222
1761478544186270200,0.462270263671875,-0.019152922555804253,-0.02539989911019802,0.00018908442871179432
1761478544196306200,0.47230615234375,0.0030546458438038826,-0.015557920560240746,0.0009528790251351893
1761478544206342100,0.482342041015625,0.018306834623217583,-0.009707488119602203,0.009131180122494698
1761478544216378000,0.492378173828125,0.00999404489994049,0.00026312030968256295,0.012245480902493
1761478544226413300,0.502413330078125,-0.013294500298798084,0.001127582392655313,0.008745288476347923
1761478544236449300,0.51244921875,-0.01600426621735096,-0.004207794554531574,0.002891926560550928
1761478544246485200,0.5224853515625,-0.011393535882234573,0.0024639565963298082,0.005783853121101856
1761478544256521200,0.532521240234375,0.00902918167412281,0.011638812720775604,0.02214551530778408
1761478544266557200,0.54255712890625,0.03723285719752312,0.02400094084441662,0.04356931522488594
1761478544276593200,0.55259326171875,0.07803647965192795,0.04656590521335602,0.05880366265773773
1761478544286628400,0.56262841796875,0.1291406750679016,0.06745893508195877,0.05649123713374138
1761478544296664300,0.572664306640625,0.16430479288101196,0.09030193090438843,0.04315519332885742
1761478544306700300,0.5827001953125,0.1651596575975418,0.11495748162269592,0.015145663172006607
1761478544316736300,0.592736328125,0.15228034555912018,0.09897878021001816,-0.03213902935385704
1761478544326772200,0.602772216796875,0.13073484599590302,0.07298152893781662,-0.07632193714380264
1761478544336807200,0.61280712890625,0.09481705725193024,0.03660834580659866,-0.1011417955160141
1761478544346843100,0.622843017578125,0.031985897570848465,0.018573684617877007,-0.09584689885377884
1761478544356879400,0.63287939453125,-0.037205956876277924,0.02159637212753296,-0.07000598311424255
1761478544366915300,0.642915283203125,-0.08742545545101166,0.029526732861995697,-0.042150117456912994
1761478544376951300,0.652951416015625,-0.11033795773983002,0.04968073591589928,0.003276220755651593
1761478544386986200,0.662986328125,-0.10469099134206772,0.0965515747666359,0.04487399756908417
1761478544397022200,0.673022216796875,-0.10225792974233627,0.1117907166481018,0.06546556204557419
1761478544407058200,0.68305810546875,-0.10353704541921616,0.10082594305276871,0.07244303822517395
1761478544417094100,0.69309423828125,-0.09149369597434998,0.08026048541069031,0.0755394995212555
1761478544427130000,0.703130126953125,-0.09319598972797394,0.03484586626291275,0.06347617506980896
1761478544437165300,0.713165283203125,-0.1057586520910263,-0.00711729796603322,0.04457385838031769
1761478544447201300,0.723201171875,-0.12336214631795883,-0.017474064603447914,0.024561535567045212
1761478544457237200,0.7332373046875,-0.13823989033699036,-0.008886968716979027,0.001264202524907887
1761478544467273200,0.743273193359375,-0.13518525660037994,0.011682755313813686,-0.023985227569937706
1761478544477309200,0.75330908203125,-0.10380548983812332,0.03659076616168022,-0.0501723550260067
1761478544487344400,0.763344482421875,-0.05007248744368553,0.05871311575174332,-0.07227126508951187
1761478544497380400,0.77338037109375,-0.00481233187019825,0.0795118659734726,-0.07479754090309143
1761478544507416300,0.783416259765625,0.009165268391370773,0.10875923931598663,-0.06793191283941269
1761478544517452300,0.793452392578125,0.007092264015227556,0.1207655668258667,-0.06951169669628143
1761478544527488300,0.80348828125,0.005218463949859142,0.11457185447216034,-0.07491046190261841
1761478544537524200,0.813524169921875,0.009000418707728386,0.10669422149658203,-0.08139844983816147
1761478544547559200,0.82355908203125,0.022361231967806816,0.08069857209920883,-0.0798407718539238
1761478544557595100,0.83359521484375,0.04976809024810791,0.05604223161935806,-0.06609060615301132
1761478544567631400,0.84363134765625,0.0646895170211792,0.0359358973801136,-0.05030178651213646
1761478544577667300,0.853667236328125,0.06573427468538284,0.009889381937682629,-0.03731541335582733
1761478544587703300,0.863703369140625,0.06376379728317261,0.010906443931162357,-0.018252773210406303
1761478544597738200,0.87373828125,0.06474544107913971,0.013420999981462955,-0.0020221380982548
1761478544607774200,0.883774169921875,0.0637078732252121,0.024688834324479103,0.009859022684395313
1761478544617810200,0.89381005859375,0.07063449174165726,0.03813913092017174,0.01480371318757534
1761478544627846100,0.90384619140625,0.0732547715306282,0.05384458974003792,0.011929630301892757
1761478544637882000,0.913882080078125,0.06167002022266388,0.06262663006782532,-0.0013603427214547992
1761478544647917300,0.923917236328125,0.0476524718105793,0.050331614911556244,-0.03224821761250496
1761478544657953300,0.933953369140625,0.03423786535859108,0.029523802921175957,-0.0515579991042614
1761478544667989200,0.9439892578125,0.02671310305595398,0.013426858931779861,-0.053221676498651505
1761478544678025200,0.954025146484375,0.03190919756889343,-0.020196881145238876,-0.040709346532821655
1761478544688061200,0.964061279296875,0.035842154175043106,-0.037462420761585236,-0.02853337489068508
1761478544698097200,0.97409716796875,0.0232952032238245,-0.048103079199790955,-0.017308149486780167
1761478544708132400,0.98413232421875,-0.0029590383637696505,-0.04627242311835289,-0.011122692376375198
1761478544718168300,0.994168212890625,-0.03496836870908737,-0.03719610348343849,-0.007487210910767317
1761478544728204300,1.004204345703125,-0.06817080080509186,-0.038907185196876526,-0.012826582416892052
1761478544738240300,1.014240234375,-0.07672514021396637,-0.030498521402478218,-0.013118465431034565
1761478544748276200,1.024276123046875,-0.07011650502681732,-0.03003726154565811,-0.003925233148038387
1761478544758311200,1.034311279296875,-0.048406146466732025,-0.030224481597542763,0.018034927546977997
1761478544768347100,1.04434716796875,-0.017469804733991623,-0.041788194328546524,0.03460751101374626
1761478544778383400,1.05438330078125,-0.0023007048293948174,-0.037452299147844315,0.04405773803591728
1761478544788419300,1.06441943359375,-0.0024056334514170885,-0.023429159075021744,0.04085741937160492
1761478544798455300,1.074455322265625,-0.015213307924568653,-0.011452658101916313,0.030535804107785225
1761478544808491300,1.0844912109375,-0.017131848260760307,-0.010639328509569168,0.0036394759081304073
1761478544818526200,1.094526123046875,-0.010203901678323746,-0.011411645449697971,-0.030219953507184982
1761478544828562200,1.104562255859375,0.0005243764026090503,0.012051070109009743,-0.06193820387125015
1761478544838598100,1.11459814453125,-0.005225654691457748,0.02700791507959366,-0.10073939710855484
1761478544848634400,1.12463427734375,-0.012531237676739693,0.028505144640803337,-0.11635750532150269
1761478544858670300,1.13467041015625,-0.03134753555059433,0.036919668316841125,-0.11578252911567688
1761478544868705300,1.144705322265625,-0.04364308342337608,0.04635604843497276,-0.10078386962413788
1761478544878741200,1.1547412109375,-0.0491797961294651,0.05495166406035423,-0.07920507341623306
1761478544888777200,1.164777099609375,-0.04688495025038719,0.05236493796110153,-0.051176369190216064
1761478544898813200,1.174813232421875,-0.04995397850871086,0.041980206966400146,-0.03369085118174553
1761478544908849200,1.18484912109375,-0.04843837395310402,0.03947710245847702,-0.02773868665099144
1761478544918885000,1.194885009765625,-0.038862444460392,0.035531096160411835,-0.024513332173228264
1761478544928920300,1.20492041015625,-0.018012821674346924,0.029585322365164757,-0.021312478929758072
1761478544938956300,1.214956298828125,-0.0009811085183173418,0.008653408847749233,-0.020660802721977234
1761478544948992300,1.2249921875,-0.0002364887041039765,0.01534406840801239,-0.015682822093367577
1761478544959028200,1.2350283203125,-0.012947756797075272,0.03320375829935074,-0.014515292830765247
1761478544969064200,1.245064208984375,-0.022713834419846535,0.035232823342084885,-0.013554691337049007
1761478544979099400,1.255099365234375,-0.013411146588623524,0.037993188947439194,-0.02178385853767395
1761478544989135400,1.26513525390625,0.013115801848471165,0.028243621811270714,-0.030610373243689537
1761478544999171300,1.27517138671875,0.04069656506180763,0.038358841091394424,-0.022011026740074158
1761478545009207300,1.285207275390625,0.08491915464401245,0.06956123560667038,-0.008824650198221207
1761478545019243300,1.2952431640625,0.14503894746303558,0.07220495492219925,0.009425459429621696
1761478545029279200,1.305279296875,0.20589376986026764,0.05620228499174118,0.021391041576862335
1761478545039314200,1.315314208984375,0.2284821718931198,0.018002701923251152,0.02990463562309742
1761478545049350100,1.32535009765625,0.21721647679805756,-0.012958142906427383,0.05669310688972473
1761478545059386400,1.335386474609375,0.18371310830116272,-0.033008016645908356,0.09202180057764053
1761478545069422300,1.34542236328125,0.1681935340166092,-0.04122067242860794,0.12197250872850418
1761478545079458600,1.35545849609375,0.1835155040025711,-0.050694867968559265,0.17455555498600006
1761478545089494500,1.36549462890625,0.2130366414785385,-0.03881131112575531,0.23249396681785583
1761478545099529500,1.375529541015625,0.22855009138584137,-0.0512022003531456,0.26577842235565186
1761478545109565400,1.3855654296875,0.22683048248291016,-0.0600564144551754,0.28440776467323303
1761478545119601400,1.395601318359375,0.19724462926387787,-0.04133252426981926,0.29356637597084045
1761478545129637400,1.405637451171875,0.15690599381923676,-0.05456790328025818,0.272047758102417
1761478545139673300,1.41567333984375,0.1157071590423584,-0.08874904364347458,0.24362410604953766
1761478545149709600,1.42570947265625,0.06842779368162155,-0.11488743871450424,0.21089892089366913
1761478545159744500,1.43574462890625,0.024631043896079063,-0.1363069713115692,0.18869641423225403
1761478545169780500,1.445780517578125,-0.020979849621653557,-0.15068617463111877,0.17650659382343292
1761478545179816400,1.45581640625,-0.04061080887913704,-0.1379389613866806,0.17526955902576447
1761478545189852400,1.465852294921875,-0.03575160726904869,-0.10377459973096848,0.16891364753246307
1761478545199888400,1.475888427734375,-0.023327160626649857,-0.05354977771639824,0.15965624153614044
1761478545209924400,1.48592431640625,-0.011680624447762966,0.03640647605061531,0.11720545589923859
1761478545219959600,1.49595947265625,-0.008020375855267048,0.123031385242939,0.04578879475593567
1761478545229995500,1.50599560546875,-0.0008964200387708843,0.2180873304605484,-0.06795135140419006
1761478545240031500,1.516031494140625,0.03287645801901817,0.290346622467041,-0.1960800290107727
1761478545250067500,1.5260673828125,0.11409967392683029,0.3122449815273285,-0.3010093867778778
1761478545260103400,1.536103515625,0.21119239926338196,0.2911181151866913,-0.37502819299697876
1761478545270139400,1.546139404296875,0.2608473002910614,0.21245980262756348,-0.3638887405395508
1761478545280174600,1.556174560546875,0.2696796655654907,0.1396513730287552,-0.2536812722682953
1761478545290210600,1.56621044921875,0.3073655366897583,0.10190878808498383,-0.10148002207279205
1761478545300246500,1.57624658203125,0.344296395778656,0.0954628735780716,0.05321501940488815
1761478545310282500,1.586282470703125,0.3232768476009369,0.07320284098386765,0.1681743562221527
1761478545320318500,1.596318359375,0.29001957178115845,0.058338142931461334,0.2358972132205963
1761478545330353400,1.606353515625,0.27965056896209717,0.053760167211294174,0.2670260965824127
1761478545340389400,1.616389404296875,0.2938750386238098,0.014196778647601604,0.2718067467212677
1761478545350425600,1.626425537109375,0.31427323818206787,-0.02353382110595703,0.25668877363204956
1761478545360461600,1.636461669921875,0.32569608092308044,-0.022117020562291145,0.24489043653011322
1761478545370497500,1.64649755859375,0.3386795222759247,-0.020972926169633865,0.2328718602657318
1761478545380533500,1.656533447265625,0.34320104122161865,-0.0474572628736496,0.22281257808208466
1761478545390569500,1.666569580078125,0.33136436343193054,-0.07933663576841354,0.19514445960521698
1761478545400604400,1.6766044921875,0.3239905834197998,-0.10276978462934494,0.1675165593624115
1761478545410640400,1.686640380859375,0.30208343267440796,-0.11295425146818161,0.13787823915481567
1761478545420676400,1.69667626953125,0.2729244828224182,-0.09952552616596222,0.12347400188446045
1761478545430712600,1.706712646484375,0.2263585776090622,-0.0674850344657898,0.12925225496292114
1761478545440748500,1.71674853515625,0.17598141729831696,-0.022904250770807266,0.1274932473897934
1761478545450783500,1.726783447265625,0.12800297141075134,-0.009423329494893551,0.10027413815259933
1761478545460819500,1.7368193359375,0.10529313236474991,-0.02412477694451809,0.05621693283319473
1761478545470855400,1.74685546875,0.10427100956439972,-0.052316468209028244,-0.004098072182387114
1761478545480891400,1.756891357421875,0.09936387091875076,-0.08408664911985397,-0.0687609538435936
1761478545490927400,1.76692724609375,0.07233944535255432,-0.08708803355693817,-0.1226300448179245
1761478545500963300,1.77696337890625,0.033248234540224075,-0.06243514642119408,-0.1638677567243576
1761478545510998500,1.78699853515625,-0.011996475048363209,-0.03147296980023384,-0.18673206865787506
1761478545521034500,1.797034423828125,-0.04104011133313179,0.015777897089719772,-0.20402823388576508
1761478545531070500,1.807070556640625,-0.043062515556812286,0.05049433186650276,-0.2304750233888626
1761478545541106400,1.8171064453125,-0.008639028295874596,0.08987076580524445,-0.25332972407341003
1761478545551142400,1.827142333984375,0.043470513075590134,0.10362652689218521,-0.2552453577518463
1761478545561178400,1.837178466796875,0.08215425908565521,0.09070540219545364,-0.24151861667633057
1761478545571213600,1.847213623046875,0.09314778447151184,0.09353234618902206,-0.2121998816728592
1761478545581249500,1.85724951171875,0.08844704180955887,0.1005452498793602,-0.18196474015712738
1761478545591285500,1.867285400390625,0.082965187728405,0.11012943089008331,-0.1462315171957016
1761478545601321500,1.877321533203125,0.08020375669002533,0.11318647861480713,-0.09084095805883408
1761478545611357400,1.887357421875,0.09259118884801865,0.10796907544136047,-0.030499054118990898
1761478545621393400,1.897393310546875,0.10824684798717499,0.08837699890136719,0.02845800668001175
1761478545631428600,1.9074287109375,0.1245882660150528,0.06700833141803741,0.08992429822683334
1761478545641464600,1.917464599609375,0.13046640157699585,0.031319040805101395,0.1458360254764557
1761478545651500500,1.92750048828125,0.13159531354904175,-0.011800733394920826,0.19425123929977417
1761478545661536500,1.93753662109375,0.1341002732515335,-0.037694115191698074,0.23699364066123962
1761478545671572500,1.947572509765625,0.14423812925815582,-0.04515016824007034,0.2683643400669098
1761478545681608400,1.9576083984375,0.16139449179172516,-0.038955919444561005,0.2689710259437561
1761478545691644400,1.96764453125,0.1900642067193985,-0.03894846513867378,0.23185107111930847
1761478545701679400,1.977679443359375,0.20591188967227936,-0.044197555631399155,0.1519852727651596
1761478545711715600,1.987715576171875,0.2091473639011383,-0.03783233463764191,0.0716363713145256
1761478545721751600,1.99775146484375,0.18821677565574646,-0.036981720477342606,0.00926274061203003
1761478545731787500,2.00778759765625,0.14973384141921997,-0.03135126456618309,-0.032942503690719604
1761478545741823500,2.017823486328125,0.10474345833063126,-0.031512387096881866,-0.06763283908367157
1761478545751858400,2.0278583984375,0.06329029053449631,-0.037155356258153915,-0.07318499684333801
1761478545761894400,2.037894287109375,0.021891450509428978,-0.03930133208632469,-0.06532014906406403
1761478545771930400,2.047930419921875,-0.005365204066038132,-0.05212525278329849,-0.05762201547622681
1761478545781966300,2.05796630859375,-0.02508697658777237,-0.06012432277202606,-0.05205734074115753
1761478545792002600,2.06800244140625,-0.026156501844525337,-0.039977509528398514,-0.0527162067592144
1761478545802038500,2.07803857421875,-0.019164640456438065,-0.001961151836439967,-0.041655033826828
1761478545812073500,2.088073486328125,-0.0020237360149621964,0.02984791062772274,-0.027172764763236046
1761478545822109400,2.098109375,0.012240421026945114,0.04465322196483612,-0.017101755365729332
1761478545832145400,2.1081455078125,0.008511463180184364,0.04541807994246483,-0.025707760825753212
1761478545842181400,2.118181396484375,-0.0051721250638365746,0.0492788664996624,-0.04386918619275093
1761478545852217300,2.12821728515625,-0.02834136039018631,0.05137157812714577,-0.0753573402762413
1761478545862253300,2.13825341796875,-0.041014011949300766,0.0462694950401783,-0.11027217656373978
1761478545872289500,2.14828955078125,-0.03508341684937477,0.054480019956827164,-0.13137532770633698
1761478545882324500,2.158324462890625,-0.010669955052435398,0.08467094600200653,-0.14011237025260925
1761478545892360400,2.1683603515625,0.0219135545194149,0.10530485212802887,-0.1408572494983673
1761478545902396400,2.178396484375,0.0434366911649704,0.12038420140743256,-0.1356142908334732
1761478545912432400,2.188432373046875,0.0396113246679306,0.12966425716876984,-0.1347053498029709
1761478545922468400,2.19846826171875,0.027086744084954262,0.11372683197259903,-0.13303448259830475
1761478545932504300,2.20850439453125,0.021854432299733162,0.09263326227664948,-0.13454608619213104
1761478545942539500,2.21853955078125,0.029202360659837723,0.0663132444024086,-0.11795726418495178
1761478545952575500,2.228575439453125,0.03717639669775963,0.03704936429858208,-0.10434318333864212
1761478545962611500,2.238611572265625,0.02977600507438183,0.01203988492488861,-0.09163111448287964
1761478545972647400,2.2486474609375,0.0009398295660503209,-0.0003909520455636084,-0.0798809826374054
1761478545982683400,2.258683349609375,-0.04075035825371742,-0.025677666068077087,-0.08516096323728561
1761478545992719400,2.26871923828125,-0.08392472565174103,-0.0379127599298954,-0.09710018336772919
1761478546002754600,2.278754638671875,-0.137425497174263,-0.03611113131046295,-0.11181893944740295
1761478546012790500,2.28879052734375,-0.17719635367393494,-0.02646755985915661,-0.11848749965429306
1761478546022826500,2.298826416015625,-0.20191314816474915,-0.00794660672545433,-0.11063063889741898
1761478546032862500,2.308862548828125,-0.208518847823143,0.0016615461790934205,-0.08830935508012772
1761478546042898400,2.3188984375,-0.20357869565486908,0.011512313038110733,-0.052318330854177475
1761478546052934400,2.328934326171875,-0.17944511771202087,0.022727949544787407,-0.0073298183269798756
1761478546062969300,2.33896923828125,-0.15104012191295624,0.017368070781230927,0.030301978811621666
1761478546073005300,2.34900537109375,-0.13576075434684753,-0.0009946906939148903,0.03802674263715744
1761478546083041800,2.359041748046875,-0.1403011828660965,-0.0009275790071114898,0.03271879628300667
1761478546093078000,2.369078125,-0.144912451505661,0.013502492569386959,0.018137991428375244
1761478546103114000,2.379114013671875,-0.12171817570924759,0.03549008443951607,-0.007165767718106508
1761478546113150000,2.38914990234375,-0.08116888999938965,0.043108854442834854,-0.029021264985203743
1761478546123185000,2.399184814453125,-0.031020766124129295,0.0327179990708828,-0.04541035741567612
1761478546133220900,2.409220947265625,-0.0026786073576658964,0.017960891127586365,-0.04615604504942894
1761478546143256800,2.4192568359375,0.0113975303247571,0.009226787835359573,-0.03477688878774643
1761478546153292800,2.429292724609375,0.015386146493256092,0.012592224404215813,-0.02984391525387764
1761478546163328800,2.439328857421875,-0.0037702370900660753,0.023149527609348297,-0.029086247086524963
1761478546173365000,2.449364990234375,-0.01625646837055683,0.040405213832855225,-0.0357808992266655
1761478546183400000,2.45939990234375,-0.017857827246189117,0.0512823611497879,-0.05438734218478203
1761478546193436000,2.469435791015625,-0.009160208515822887,0.0509587898850441,-0.06814629584550858
1761478546203472000,2.479471923828125,-0.0037345506716519594,0.03573083132505417,-0.07967032492160797
1761478546213507800,2.4895078125,-0.030109167098999023,-0.011028682813048363,-0.08511249721050262
1761478546223543800,2.499543701171875,-0.08696792274713516,-0.04447372630238533,-0.08273296058177948
1761478546233579800,2.509579833984375,-0.13824762403964996,-0.07062490284442902,-0.07038494944572449
1761478546243615000,2.519614990234375,-0.1673157513141632,-0.0886923149228096,-0.038959115743637085
1761478546253651000,2.52965087890625,-0.1785987764596939,-0.09934522956609726,0.006657636258751154
1761478546263687000,2.53968701171875,-0.1828068345785141,-0.11846299469470978,0.04987168684601784
1761478546273723000,2.549722900390625,-0.19244880974292755,-0.13460548222064972,0.08189353346824646
1761478546283758800,2.5597587890625,-0.19897061586380005,-0.15970417857170105,0.09075866639614105
1761478546293794800,2.569794921875,-0.20855852961540222,-0.17196376621723175,0.09073975682258606
1761478546303830000,2.579830078125,-0.2014809250831604,-0.1753624975681305,0.0762721374630928
1761478546313866000,2.589865966796875,-0.18022648990154266,-0.17155124247074127,0.049183525145053864
1761478546323902000,2.59990185546875,-0.1408785581588745,-0.18257273733615875,0.03163888677954674
1761478546333938000,2.60993798828125,-0.10444039106369019,-0.17987336218357086,0.03267938271164894
1761478546343974000,2.619973876953125,-0.08746113628149033,-0.19217263162136078,0.05549095571041107
1761478546354009900,2.630009765625,-0.09211128205060959,-0.21554799377918243,0.09312780946493149
1761478546364044800,2.640044921875,-0.10624068230390549,-0.22043544054031372,0.1318078339099884
1761478546374081000,2.6500810546875,-0.10209813714027405,-0.21863380074501038,0.16175667941570282
1761478546384117000,2.660116943359375,-0.08933787047863007,-0.2111428678035736,0.17487220466136932
1761478546394153000,2.670153076171875,-0.08637243509292603,-0.17934125661849976,0.16889634728431702
1761478546404189000,2.68018896484375,-0.08794903010129929,-0.15947088599205017,0.1435374617576599
1761478546414225000,2.690224853515625,-0.10356873273849487,-0.17739875614643097,0.10593069344758987
1761478546424259800,2.700259765625,-0.13209864497184753,-0.21462787687778473,0.06441015005111694
1761478546434295800,2.7102958984375,-0.15404389798641205,-0.2595900297164917,0.03171105682849884
1761478546444331800,2.720331787109375,-0.1728239804506302,-0.29267555475234985,0.017373131588101387
1761478546454368000,2.730367919921875,-0.19856742024421692,-0.2864333689212799,0.01859818585216999
1761478546464404000,2.740404052734375,-0.21539805829524994,-0.25707706809043884,0.034744929522275925
1761478546474440000,2.75043994140625,-0.23629802465438843,-0.22407837212085724,0.061051636934280396
1761478546484475000,2.760474853515625,-0.2667539417743683,-0.2074514627456665,0.08597562462091446
1761478546494510800,2.7705107421875,-0.29807403683662415,-0.1959197074174881,0.10974141210317612
1761478546504546800,2.780546875,-0.32737600803375244,-0.21234874427318573,0.1168091744184494
1761478546514582800,2.790582763671875,-0.34214162826538086,-0.24094070494174957,0.10374397039413452
1761478546524618800,2.80061865234375,-0.35050687193870544,-0.23501011729240417,0.07334212213754654
1761478546534655000,2.810655029296875,-0.34855690598487854,-0.19457906484603882,0.026079803705215454
1761478546544690000,2.82068994140625,-0.32462868094444275,-0.1249893382191658,-0.026037460193037987
1761478546554726000,2.830725830078125,-0.298457533121109,-0.041359689086675644,-0.08020535856485367
1761478546564761900,2.840761962890625,-0.262366384267807,-0.0025750105269253254,-0.1376420110464096
1761478546574797800,2.8507978515625,-0.21111224591732025,-0.01372380182147026,-0.20265324413776398
1761478546584833800,2.860833740234375,-0.1471654772758484,-0.05084080994129181,-0.25827309489250183
1761478546594869800,2.870869873046875,-0.09445539861917496,-0.07941599935293198,-0.2730850577354431
1761478546604905000,2.880905029296875,-0.05658232048153877,-0.09055360406637192,-0.23426470160484314
1761478546614941000,2.89094091796875,-0.02972487173974514,-0.06575477868318558,-0.12965360283851624
1761478546624977000,2.900976806640625,-0.012041749432682991,-0.020208066329360008,0.010130930691957474
1761478546635012900,2.911012939453125,0.01932549476623535,0.01643117144703865,0.1329127699136734
1761478546645048800,2.921048828125,0.05577857792377472,0.0015102786710485816,0.21709157526493073
1761478546655084800,2.931084716796875,0.07565401494503021,-0.063014917075634,0.25182345509529114
1761478546665120000,2.9411201171875,0.08105836808681488,-0.1623753309249878,0.2561127245426178
1761478546675156000,2.951156005859375,0.07761996239423752,-0.2690466344356537,0.2525385022163391
1761478546685192000,2.96119189453125,0.05577697977423668,-0.3445422053337097,0.2543976604938507
1761478546695228000,2.971227783203125,0.03346528112888336,-0.369735449552536,0.27891817688941956
1761478546705263900,2.981263916015625,0.017130250111222267,-0.3527098596096039,0.3070560693740845
1761478546715299800,2.9912998046875,0.0054331147111952305,-0.33284425735473633,0.3256601095199585
1761478546725335800,3.001335693359375,0.006518619135022163,-0.29759547114372253,0.314858078956604
1761478546735370800,3.011370849609375,0.011349060572683811,-0.25995248556137085,0.2688189446926117
1761478546745407000,3.021406982421875,0.002389654517173767,-0.22474735975265503,0.19211937487125397
1761478546755443000,3.03144287109375,-0.013068663887679577,-0.19354496896266937,0.1213996633887291
1761478546765479000,3.04147900390625,-0.04394402354955673,-0.16874933242797852,0.06299867480993271
1761478546775515000,3.051514892578125,-0.07407103478908539,-0.14144474267959595,0.02159743756055832
1761478546785550800,3.06155078125,-0.10039664804935455,-0.10369976609945297,0.009828396141529083
1761478546795585800,3.071585693359375,-0.11503683775663376,-0.07864554226398468,0.014267618767917156
1761478546805621800,3.081621826171875,-0.11714313179254532,-0.060376524925231934,0.036494363099336624
1761478546815657700,3.09165771484375,-0.11778229475021362,-0.027583157643675804,0.06053445115685463
1761478546825694000,3.10169384765625,-0.13593998551368713,0.02311836928129196,0.07701009511947632
1761478546835730000,3.11172998046875,-0.18775871396064758,0.06775347888469696,0.07245955616235733
1761478546845766000,3.121765869140625,-0.23212245106697083,0.08983694761991501,0.04241909459233284
1761478546855800800,3.13180078125,-0.24340972304344177,0.08688270300626755,-0.01858700066804886
1761478546865836800,3.1418369140625,-0.20936574041843414,0.08084238320589066,-0.07751822471618652
1761478546875872800,3.151872802734375,-0.14639955759048462,0.07836537808179855,-0.1143430843949318
1761478546885908700,3.16190869140625,-0.0789818987250328,0.06462666392326355,-0.11966301500797272
1761478546895945000,3.171945068359375,-0.029798109084367752,0.058341335505247116,-0.09119861572980881
1761478546905981000,3.18198095703125,-0.005980394314974546,0.045458294451236725,-0.03056296892464161
1761478546916015900,3.192015869140625,-0.0006857639527879655,0.027211647480726242,0.04809002950787544
1761478546926051800,3.2020517578125,-0.004570250865072012,0.012631372548639774,0.11958711594343185
1761478546936087800,3.212087890625,-0.01041322574019432,-0.0005036037764512002,0.17355340719223022
1761478546946123800,3.222123779296875,-0.008623582310974598,-0.027954136952757835,0.1940496265888214
1761478546956159700,3.23215966796875,0.004002997186034918,-0.03632844612002373,0.17684881389141083
1761478546966195700,3.24219580078125,0.02341371402144432,-0.037338584661483765,0.12828579545021057
1761478546976231000,3.25223095703125,0.03196246176958084,-0.053702641278505325,0.0728454440832138
1761478546986267000,3.262266845703125,0.03213290125131607,-0.08486002683639526,0.011921374127268791
1761478546996302800,3.272302734375,0.05060005933046341,-0.11177606880664825,-0.03129001334309578
1761478547006338800,3.2823388671875,0.06040501967072487,-0.11251935362815857,-0.04419036582112312
1761478547016374800,3.292374755859375,0.042689405381679535,-0.0744907483458519,-0.050212837755680084
1761478547026410800,3.30241064453125,0.010148773901164532,-0.004699147772043943,-0.07225076109170914
1761478547036446000,3.312446044921875,-0.024522919207811356,0.06233314797282219,-0.12251605838537216
1761478547046482000,3.32248193359375,-0.06796467304229736,0.09224071353673935,-0.1749774068593979
1761478547056518000,3.332517822265625,-0.09486978501081467,0.07414773106575012,-0.2085297703742981
1761478547066553900,3.342553955078125,-0.10761860758066177,0.01793479174375534,-0.19936317205429077
1761478547076589800,3.35258984375,-0.11740652471780777,-0.009795905090868473,-0.16148076951503754
1761478547086626000,3.3626259765625,-0.12162736803293228,0.006688795518130064,-0.12734118103981018
1761478547096661000,3.372660888671875,-0.12934386730194092,0.026211097836494446,-0.0892004519701004
1761478547106697000,3.382697021484375,-0.14005137979984283,0.02364940382540226,-0.05380117893218994
1761478547116733200,3.392733154296875,-0.14270734786987305,0.010464359074831009,-0.03253770247101784
1761478547126769200,3.40276904296875,-0.12897183001041412,-0.023126358166337013,-0.029089707881212234
1761478547136805000,3.41280517578125,-0.10590273141860962,-0.0644780620932579,-0.025120267644524574
1761478547146841000,3.422841064453125,-0.07497943937778473,-0.09271129220724106,-0.02750725857913494
1761478547156877000,3.432876953125,-0.04851400479674339,-0.1015804186463356,-0.0235868189483881
1761478547166912000,3.442912109375,-0.03182930126786232,-0.1001199409365654,-0.010102701373398304
1761478547176948000,3.452947998046875,-0.022459503263235092,-0.09781604260206223,0.006078398786485195
1761478547186984000,3.46298388671875,-0.003173955250531435,-0.08991071581840515,0.012278237380087376
1761478547197020200,3.473020263671875,0.01188062783330679,-0.08343949913978577,0.008328503929078579
1761478547207056100,3.48305615234375,0.02888997085392475,-0.07944396138191223,-0.0046762446872889996
1761478547217092000,3.493092041015625,0.048049286007881165,-0.0754750519990921,-0.009072057902812958
1761478547227127000,3.503126953125,0.06428231298923492,-0.07173597067594528,-0.012778911739587784
1761478547237163000,3.5131630859375,0.06111874803900719,-0.07375731319189072,-0.034448254853487015
1761478547247199000,3.523198974609375,0.05694424360990524,-0.07376343756914139,-0.06418298184871674
1761478547257235000,3.53323486328125,0.05220993980765343,-0.06942781060934067,-0.09047690033912659
1761478547267271200,3.543271240234375,0.060624729841947556,-0.07059107720851898,-0.10061289370059967
1761478547277307100,3.55330712890625,0.07242439687252045,-0.0670490711927414,-0.08682917058467865
1761478547287342000,3.563342041015625,0.07714405655860901,-0.061044711619615555,-0.05199316143989563
1761478547297378000,3.5733779296875,0.06944618374109268,-0.039806801825761795,0.0013265205780044198
1761478547307414000,3.5834140625,0.051003262400627136,-0.01575526036322117,0.038608379662036896
1761478547317450000,3.593449951171875,0.02762683480978012,0.004994758404791355,0.051590755581855774
1761478547327486000,3.60348583984375,-0.0030716899782419205,0.019453059881925583,0.042034268379211426
1761478547337522000,3.61352197265625,-0.03941291943192482,0.011901932768523693,0.006514358334243298
1761478547347557000,3.62355712890625,-0.07520899921655655,-0.0010285128373652697,-0.03995327651500702
1761478547357593000,3.633593017578125,-0.11028283089399338,-0.017734521999955177,-0.08551356941461563
1761478547367629000,3.643629150390625,-0.13785320520401,-0.0170250553637743,-0.11714553087949753
1761478547377665000,3.6536650390625,-0.1571776419878006,0.0025414545089006424,-0.13506540656089783
1761478547387701000,3.663700927734375,-0.1574748456478119,0.03353798761963844,-0.13651922345161438
1761478547397737000,3.673737060546875,-0.15345320105552673,0.05927743762731552,-0.13309626281261444
1761478547407773000,3.68377294921875,-0.15760959684848785,0.0894036516547203,-0.1314975768327713
1761478547417808100,3.69380810546875,-0.15788257122039795,0.1252758949995041,-0.13230477273464203
1761478547427844000,3.703843994140625,-0.15906581282615662,0.14775750041007996,-0.1328645795583725
1761478547437880000,3.713880126953125,-0.1506481021642685,0.1358925849199295,-0.13484196364879608
1761478547447916000,3.723916015625,-0.10941970348358154,0.09376084804534912,-0.1289537250995636
1761478547457952000,3.733951904296875,-0.05054439976811409,0.04231683164834976,-0.09727542102336884
1761478547467988000,3.743988037109375,0.011125355027616024,0.01543781254440546,-0.03672365844249725
1761478547478023200,3.754023193359375,0.04934384673833847,0.0268369410187006,0.029750971123576164
1761478547488059100,3.76405908203125,0.0712835043668747,0.046894803643226624,0.09002869576215744
1761478547498095000,3.77409521484375,0.07655017077922821,0.054596930742263794,0.1384580135345459
1761478547508131000,3.784131103515625,0.08176650106906891,0.0757746547460556,0.1793798804283142
1761478547518167000,3.7941669921875,0.10244541615247726,0.09083962440490723,0.21081875264644623
1761478547528203000,3.804203125,0.13225790858268738,0.06603308022022247,0.23440317809581757
1761478547538238000,3.814238037109375,0.15051573514938354,0.055564459413290024,0.24158333241939545
1761478547548274000,3.82427392578125,0.13844123482704163,0.06769382953643799,0.2288518249988556
1761478547558310100,3.83431005859375,0.10260254144668579,0.09207986295223236,0.19964706897735596
1761478547568346000,3.84434619140625,0.06899584829807281,0.09328068047761917,0.13985323905944824
1761478547578382000,3.854382080078125,0.04023929685354233,0.09086599200963974,0.07064780592918396
1761478547588418000,3.86441796875,0.021738851442933083,0.09271741658449173,0.0115573201328516
1761478547598453000,3.874452880859375,0.010614028200507164,0.08829817175865173,-0.019998209550976753
1761478547608489000,3.884489013671875,-0.006740993354469538,0.0820421352982521,-0.028537901118397713
1761478547618525000,3.89452490234375,-0.005906358826905489,0.09724825620651245,-0.007691475562751293
1761478547628561000,3.904560791015625,0.007852330803871155,0.12173868715763092,0.02569417841732502
1761478547638597000,3.91459716796875,0.033855170011520386,0.14890612661838531,0.06413744390010834
1761478547648633000,3.924633056640625,0.06930237263441086,0.15068617463111877,0.09634038060903549
1761478547658669000,3.9346689453125,0.10079958289861679,0.12899713218212128,0.10994620621204376
1761478547668704000,3.9447041015625,0.12129553407430649,0.09365778416395187,0.10489685088396072
1761478547678740000,3.954739990234375,0.12528522312641144,0.04748469591140747,0.10038839280605316
1761478547688776000,3.96477587890625,0.11163092404603958,0.03671540319919586,0.09728607535362244
1761478547698812000,3.97481201171875,0.0719815120100975,0.053820621222257614,0.09543011337518692
1761478547708847900,3.984847900390625,0.03575373813509941,0.11246742308139801,0.08443871885538101
1761478547718884000,3.994884033203125,0.032230108976364136,0.22535376250743866,0.042516835033893585
1761478547728919000,4.0049189453125,0.08788404613733292,0.36212971806526184,-0.026616962626576424
1761478547738955000,4.014955078125,0.19694529473781586,0.48853400349617004,-0.09513264149427414
1761478547748991000,4.024990966796875,0.3372131884098053,0.5497850775718689,-0.14203622937202454
1761478547759027000,4.03502685546875,0.42864349484443665,0.4950115978717804,-0.15306837856769562
1761478547769063000,4.04506298828125,0.42539310455322266,0.3605906665325165,-0.10717944800853729
1761478547779099000,4.055098876953125,0.3320850133895874,0.22683954238891602,-0.006875216495245695
1761478547789134000,4.065134033203125,0.22806432843208313,0.15283988416194916,0.10009943693876266
1761478547799170000,4.075170166015625,0.14468607306480408,0.11485707759857178,0.20175549387931824
1761478547809206000,4.0852060546875,0.07876218855381012,0.09466099739074707,0.2849805951118469
1761478547819242000,4.095241943359375,0.0511004701256752,0.07102517783641815,0.3305198550224304
1761478547829278000,4.10527783203125,0.06087986379861832,0.015152587555348873,0.3408622443675995
1761478547839314000,4.11531396484375,0.11233639717102051,-0.04723329097032547,0.33215877413749695
1761478547849350000,4.125349853515625,0.19415003061294556,-0.10634614527225494,0.30504804849624634
1761478547859385000,4.135385009765625,0.25822675228118896,-0.14037787914276123,0.275254487991333
1761478547869421000,4.145421142578125,0.2792185842990875,-0.13652083277702332,0.26946955919265747
1761478547879457000,4.15545703125,0.2638913094997406,-0.11438409984111786,0.27184537053108215
1761478547889493000,4.165492919921875,0.24064962565898895,-0.09074535220861435,0.2767708897590637
1761478547899529000,4.175529052734375,0.20235230028629303,-0.07947644591331482,0.27519774436950684
1761478547909565000,4.18556494140625,0.1605425328016281,-0.07858109474182129,0.24295859038829803
1761478547919600000,4.19560009765625,0.13040408492088318,-0.08866781741380692,0.19477267563343048
1761478547929636000,4.205635986328125,0.11115395277738571,-0.10126163810491562,0.1421227902173996
1761478547939672000,4.215672119140625,0.10072155296802521,-0.08726406842470169,0.10409896820783615
1761478547949708000,4.2257080078125,0.08660147339105606,-0.06644293665885925,0.09244284778833389
1761478547959744000,4.235743896484375,0.0590827614068985,-0.04577920585870743,0.09369400143623352
1761478547969780000,4.245780029296875,0.043592751026153564,-0.03075338527560234,0.07983624190092087
1761478547979815000,4.25581494140625,0.0656953901052475,-0.010468353517353535,0.05313858389854431
1761478547989851000,4.265850830078125,0.11766138672828674,0.003920439630746841,0.024822792038321495
1761478547999887000,4.27588720703125,0.16281980276107788,0.00436012726277113,-0.006102900020778179
1761478548009923000,4.285923095703125,0.1903768628835678,0.0028810077346861362,-0.028496623039245605
1761478548019959000,4.295958984375,0.2094043493270874,0.011419634334743023,-0.031201861798763275
1761478548029995000,4.3059951171875,0.23419518768787384,0.029282255098223686,-0.014182930812239647
1761478548040030000,4.316030029296875,0.24404995143413544,0.0323595367372036,0.020261328667402267
1761478548050066000,4.32606591796875,0.23197944462299347,0.015933426097035408,0.036491699516773224
1761478548060102000,4.336101806640625,0.200504869222641,0.022298380732536316,0.024985510855913162
1761478548070137900,4.346137939453125,0.16779166460037231,0.029415946453809738,-0.015351525507867336
1761478548080174000,4.356174072265625,0.1494949460029602,0.050887417048215866,-0.0614796057343483
1761478548090209300,4.366209228515625,0.14073528349399567,0.08699828386306763,-0.09507591277360916
1761478548100245200,4.376245361328125,0.12182950228452682,0.09670097380876541,-0.11160482466220856
1761478548110280200,4.3862802734375,0.1031050831079483,0.10033885389566422,-0.11312442272901535
1761478548120316200,4.396316162109375,0.08572688698768616,0.09148117899894714,-0.09708447009325027
1761478548130352400,4.406352294921875,0.06920197606086731,0.08452340960502625,-0.059671320021152496
1761478548140388400,4.416388427734375,0.06327484548091888,0.06915643066167831,-0.017583254724740982
1761478548150424300,4.42642431640625,0.08572635799646378,0.030256172642111778,0.021754829213023186
1761478548160460300,4.436460205078125,0.11992959678173065,0.01990766078233719,0.05347787216305733
1761478548170495200,4.4464951171875,0.1569366157054901,0.008855543099343777,0.06824323534965515
1761478548180531200,4.45653125,0.17165671288967133,0.003272492438554764,0.07998590916395187
1761478548190567200,4.466567138671875,0.16023041307926178,0.010529606603085995,0.08567149192094803
1761478548200603100,4.47660302734375,0.1375027298927307,0.012143215164542198,0.0861617848277092
1761478548210639400,4.486639404296875,0.13331091403961182,0.02995843067765236,0.05372155085206032
1761478548220675300,4.49667529296875,0.1476009041070938,0.051240552216768265,-0.001996305538341403
1761478548230710300,4.506710205078125,0.1777774542570114,0.06436620652675629,-0.08146769553422928
1761478548240746200,4.516746337890625,0.21061502397060394,0.060680657625198364,-0.1500089317560196
1761478548250782200,4.5267822265625,0.2199358195066452,0.04259166866540909,-0.1862417757511139
1761478548260818200,4.536818115234375,0.19995678961277008,0.017720673233270645,-0.1854875683784485
1761478548270854100,4.546854248046875,0.16308799386024475,0.0027835359796881676,-0.16135293245315552
1761478548280890000,4.55689013671875,0.1113520935177803,-0.024625984951853752,-0.12186837941408157
1761478548290926300,4.56692626953125,0.06045562028884888,-0.05374924838542938,-0.08918127417564392
1761478548300961300,4.576961181640625,0.020003534853458405,-0.08142855018377304,-0.06451960653066635
1761478548310997200,4.586997314453125,-0.0117914117872715,-0.08896822482347488,-0.04962241277098656
1761478548321033200,4.597033203125,-0.03880278766155243,-0.07608384639024734,-0.03397847339510918
1761478548331069200,4.607069091796875,-0.06263461709022522,-0.06118585914373398,-0.018967298790812492
1761478548341105200,4.617105224609375,-0.08591783791780472,-0.035836558789014816,-0.017655692994594574
1761478548351141000,4.62714111328125,-0.10395009815692902,-0.010428939014673233,-0.03502269834280014
1761478548361176300,4.63717626953125,-0.12217357754707336,-0.005693039391189814,-0.07144834846258163
1761478548371212300,4.64721240234375,-0.14003406465053558,-0.024822525680065155,-0.12032561004161835
1761478548381248300,4.657248291015625,-0.13287362456321716,-0.04291044920682907,-0.16002455353736877
1761478548391284200,4.6672841796875,-0.1028004139661789,-0.040609210729599,-0.17024363577365875
1761478548401320200,4.6773203125,-0.07214769721031189,-0.029916886240243912,-0.1547299176454544
1761478548411356200,4.687356201171875,-0.05943909287452698,0.00032916670897975564,-0.13278281688690186
1761478548421392100,4.69739208984375,-0.0558379665017128,0.04253707453608513,-0.10392612963914871
1761478548431427300,4.70742724609375,-0.050442133098840714,0.07994916290044785,-0.0760183334350586
1761478548441463300,4.71746337890625,-0.04813743382692337,0.09033948183059692,-0.06327857077121735
1761478548451499300,4.727499267578125,-0.02484169974923134,0.09654518216848373,-0.07587292790412903
1761478548461535200,4.73753515625,0.027467044070363045,0.09290863573551178,-0.10075297951698303
1761478548471571200,4.7475712890625,0.09622400254011154,0.09612173587083817,-0.12221219390630722
1761478548481607200,4.757607177734375,0.16090738773345947,0.10974700003862381,-0.1468198001384735
1761478548491642000,4.76764208984375,0.1980273276567459,0.10850223898887634,-0.17304794490337372
1761478548501678300,4.77767822265625,0.22202934324741364,0.10060250759124756,-0.1880766898393631
1761478548511714300,4.78771435546875,0.23609082400798798,0.08657883107662201,-0.1881326287984848
1761478548521750300,4.797750244140625,0.24462199211120605,0.07853315770626068,-0.16529043018817902
1761478548531786200,4.8077861328125,0.23687326908111572,0.0763925090432167,-0.12621279060840607
1761478548541822500,4.817822509765625,0.21280041337013245,0.06627702713012695,-0.07002196460962296
1761478548551857200,4.827857177734375,0.18439753353595734,0.05590694025158882,-0.017137175425887108
1761478548561893000,4.83789306640625,0.1646491289138794,0.024816399440169334,0.01835929974913597
1761478548571929300,4.847929443359375,0.14731834828853607,-0.008775648660957813,0.022295186296105385
1761478548581965300,4.85796533203125,0.12856809794902802,-0.04705033451318741,0.004686364438384771
1761478548592001300,4.868001220703125,0.09964536875486374,-0.07577625662088394,-0.017645839601755142
1761478548602037500,4.87803759765625,0.04122147336602211,-0.08919032663106918,-0.039136748760938644
1761478548612072200,4.888072265625,-0.04096927121281624,-0.09079834818840027,-0.045709431171417236
1761478548622108200,4.898108154296875,-0.11000186949968338,-0.08222056925296783,-0.04180790111422539
1761478548632144100,4.90814404296875,-0.1543256640434265,-0.0814911276102066,-0.02821352891623974
1761478548642180000,4.91818017578125,-0.172259122133255,-0.08395082503557205,-0.016943296417593956
1761478548652216300,4.92821630859375,-0.17016400396823883,-0.08000535517930984,-0.022958844900131226
1761478548662252500,4.93825244140625,-0.1781763881444931,-0.06530017405748367,-0.04417465254664421
1761478548672288500,4.94828857421875,-0.2090083360671997,-0.04145929217338562,-0.07925700396299362
1761478548682323200,4.9583232421875,-0.24330054223537445,-0.01047421246767044,-0.1047234833240509
1761478548692359200,4.968359130859375,-0.2514396905899048,0.008256332017481327,-0.11440913379192352
1761478548702395100,4.97839501953125,-0.22096966207027435,0.01637391373515129,-0.11061839014291763
1761478548712431400,4.988431396484375,-0.1715986579656601,0.006322077941149473,-0.10705108195543289
1761478548722467300,4.99846728515625,-0.13605770468711853,-0.024659007787704468,-0.10615333169698715
1761478548732503300,5.00850341796875,-0.13124537467956543,-0.04903252422809601,-0.10173115134239197
1761478548742538200,5.018538330078125,-0.14761902391910553,-0.05805744230747223,-0.0811915248632431
1761478548752574200,5.02857421875,-0.15982109308242798,-0.04097646102309227,-0.041424673050642014
1761478548762610200,5.038610107421875,-0.14902277290821075,-0.030069751664996147,0.011519502848386765
1761478548772646400,5.048646484375,-0.12802933156490326,-0.015733422711491585,0.05108901485800743
1761478548782682400,5.058682373046875,-0.09936520457267761,-0.01483753602951765,0.06741925328969955
1761478548792718300,5.06871826171875,-0.090754933655262,-0.011829495429992676,0.07020971179008484
1761478548802753300,5.078753173828125,-0.09755291789770126,-0.028318990021944046,0.04812625050544739
1761478548812789200,5.088789306640625,-0.1132541224360466,-0.06340054422616959,0.02196308970451355
1761478548822825500,5.098825439453125,-0.1198265329003334,-0.09069714695215225,-0.005763613153249025
1761478548832861400,5.108861328125,-0.13656264543533325,-0.11736204475164413,-0.02304593101143837
1761478548842897400,5.1188974609375,-0.16338759660720825,-0.14157311618328094,-0.015868712216615677
1761478548852933400,5.128933349609375,-0.18615682423114777,-0.15515416860580444,0.010787134058773518
1761478548862969300,5.13896923828125,-0.1946144849061966,-0.14088600873947144,0.04354614391922951
1761478548873004300,5.14900439453125,-0.1894357055425644,-0.14021889865398407,0.05907184258103371
1761478548883040500,5.15904052734375,-0.18628598749637604,-0.15401166677474976,0.05396789312362671
1761478548893076500,5.169076416015625,-0.18053781986236572,-0.16680815815925598,0.04421220347285271
1761478548903112400,5.179112548828125,-0.18973584473133087,-0.20725731551647186,0.036868803203105927
1761478548913148400,5.1891484375,-0.2084978222846985,-0.246212437748909,0.04757550731301308
1761478548923184400,5.199184326171875,-0.22548611462116241,-0.3053354024887085,0.07838215678930283
1761478548933219300,5.20921923828125,-0.23929381370544434,-0.34198957681655884,0.12117888778448105
1761478548943255600,5.219255615234375,-0.24597355723381042,-0.33079415559768677,0.18489022552967072
1761478548953291500,5.22929150390625,-0.28448686003685,-0.32814645767211914,0.25619450211524963
1761478548963327500,5.239327392578125,-0.3189532160758972,-0.31047263741493225,0.28377047181129456
1761478548973363500,5.249363525390625,-0.33173292875289917,-0.2433982789516449,0.25711143016815186
1761478548983399400,5.2593994140625,-0.31133604049682617,-0.15131895244121552,0.16646353900432587
1761478548993435400,5.269435302734375,-0.24641723930835724,-0.06541948765516281,0.03178882226347923
1761478549003470300,5.27947021484375,-0.15771932899951935,-0.010451043024659157,-0.11730558425188065
1761478549013506300,5.28950634765625,-0.07760770618915558,-0.008168181404471397,-0.2511874735355377
1761478549023542500,5.29954248046875,-0.02695891261100769,0.0029052423778921366,-0.3440937399864197
1761478549033578500,5.30957861328125,0.01509932428598404,0.012820190750062466,-0.35898879170417786
1761478549043614500,5.319614501953125,0.05558709427714348,0.011443869210779667,-0.30044451355934143
1761478549053650400,5.329650390625,0.10725454986095428,0.015211443416774273,-0.18941733241081238
1761478549063685400,5.339685302734375,0.16920633614063263,0.04249526187777519,-0.03465411812067032
1761478549073721300,5.349721435546875,0.22632554173469543,0.09771084785461426,0.104688860476017
1761478549083757800,5.3597578125,0.269316166639328,0.1026720479130745,0.19037367403507233
1761478549093793800,5.369793701171875,0.28971436619758606,0.04560716450214386,0.21832726895809174
1761478549103829800,5.379829833984375,0.27668699622154236,-0.05013320967555046,0.21431602537631989
1761478549113865700,5.38986572265625,0.25710397958755493,-0.12914440035820007,0.21236605942249298
1761478549123901000,5.39990087890625,0.21366088092327118,-0.17292623221874237,0.23633290827274323
1761478549133937000,5.40993701171875,0.1465657353401184,-0.17852872610092163,0.27596715092658997
1761478549143972900,5.419972900390625,0.09134615957736969,-0.15202175080776215,0.31237122416496277
1761478549154008800,5.4300087890625,0.04909084737300873,-0.11549223959445953,0.32696133852005005
1761478549164044800,5.440044921875,0.03635747358202934,-0.08859244734048843,0.3085179030895233
1761478549174080800,5.450080810546875,0.04133891686797142,-0.0676506832242012,0.25873833894729614
1761478549184116700,5.46011669921875,0.047809865325689316,-0.044610876590013504,0.17489272356033325
1761478549194152000,5.47015185546875,0.042501386255025864,-0.0180482417345047,0.0667385533452034
1761478549204188000,5.48018798828125,0.01888953521847725,-0.012350409291684628,-0.053706903010606766
1761478549214224000,5.490223876953125,-0.015517973341047764,-0.0038075214251875877,-0.15556882321834564
1761478549224259800,5.500259765625,-0.05263764411211014,0.0015576828736811876,-0.2132270634174347
1761478549234295800,5.5102958984375,-0.09440506249666214,0.01158501673489809,-0.21902422606945038
1761478549244331800,5.520331787109375,-0.10799331218004227,0.008048871532082558,-0.17115071415901184
1761478549254367000,5.530366943359375,-0.10880903899669647,0.00401737866923213,-0.08504006266593933
1761478549264403000,5.54040283203125,-0.11196435242891312,0.0015813850332051516,0.001032507512718439
1761478549274439000,5.55043896484375,-0.12550652027130127,-0.0041151163168251514,0.06422319263219833
1761478549284475000,5.560474853515625,-0.1453699767589569,-0.008961536921560764,0.10979893803596497
1761478549294510800,5.5705107421875,-0.1431819200515747,-0.013244166038930416,0.12440504133701324
1761478549304546800,5.580546875,-0.12361834198236465,-0.014268417842686176,0.11958658695220947
1761478549314581800,5.590581787109375,-0.10369443893432617,-0.00634897593408823,0.10519672930240631
1761478549324618000,5.600617919921875,-0.08976397663354874,-0.008742624893784523,0.08050736039876938
1761478549334654000,5.610654052734375,-0.08187355846166611,-0.01973082683980465,0.04897793009877205
1761478549344690000,5.62068994140625,-0.07485853135585785,-0.01167663000524044,0.02237694524228573
1761478549354726000,5.630725830078125,-0.0750793069601059,-0.001329982653260231,0.004257861990481615
1761478549364761900,5.640761962890625,-0.08496095985174179,0.02545369416475296,0.0020120181143283844
1761478549374796800,5.650796875,-0.08587443083524704,0.05356362462043762,0.0083700492978096
1761478549384832800,5.660832763671875,-0.06189878657460213,0.06407991796731949,0.01386787835508585
1761478549394868700,5.67086865234375,-0.022411299869418144,0.0428910069167614,0.014405570924282074
1761478549404905000,5.680905029296875,0.014957377687096596,0.0018442390719428658,0.022528478875756264
1761478549414941000,5.69094091796875,0.053037919104099274,-0.023755397647619247,0.04994545504450798
1761478549424977000,5.700976806640625,0.08206850290298462,-0.05270342528820038,0.08391673862934113
1761478549435013000,5.71101318359375,0.11152546107769012,-0.07299911230802536,0.12676113843917847
1761478549445047800,5.7210478515625,0.13207228481769562,-0.08189699798822403,0.16829073429107666
1761478549455083800,5.731083740234375,0.13074655830860138,-0.09885547310113907,0.19274868071079254
1761478549465119700,5.74111962890625,0.12232085317373276,-0.11262615025043488,0.1978776603937149
1761478549475155700,5.75115576171875,0.11079469323158264,-0.12653343379497528,0.17057333886623383
1761478549485192000,5.76119189453125,0.10832381248474121,-0.14854232966899872,0.12534193694591522
1761478549495228200,5.771228271484375,0.11712342500686646,-0.1532239019870758,0.08494791388511658
1761478549505262800,5.781262939453125,0.12878194451332092,-0.14644137024879456,0.05463261902332306
1761478549515298800,5.791298828125,0.12670867145061493,-0.1266825795173645,0.04480502009391785
1761478549525334800,5.801334716796875,0.11517958343029022,-0.09165108948945999,0.037144970148801804
1761478549535370800,5.811370849609375,0.10290747135877609,-0.07251468300819397,0.03259176388382912
1761478549545407000,5.821406982421875,0.09571108222007751,-0.07838322222232819,0.04297463223338127
1761478549555443000,5.83144287109375,0.09357522428035736,-0.0693359300494194,0.04260817915201187
1761478549565478000,5.841477783203125,0.07003448158502579,-0.026225479319691658,0.003051982494071126
1761478549575513900,5.851513916015625,0.03314303979277611,0.056469667702913284,-0.07055006921291351
1761478549585549800,5.8615498046875,-0.0013305152533575892,0.12555286288261414,-0.15812651813030243
1761478549595585800,5.871585693359375,-0.04189551994204521,0.1319473832845688,-0.23148968815803528
1761478549605622000,5.8816220703125,-0.060382649302482605,0.12270727753639221,-0.2885151505470276
1761478549615658000,5.891657958984375,-0.06451348215341568,0.10855257511138916,-0.2950358986854553
1761478549625693000,5.90169287109375,-0.08156223595142365,0.06867120414972305,-0.24232874810695648
1761478549635729000,5.91172900390625,-0.12151684612035751,0.026507508009672165,-0.1350046843290329
1761478549645764900,5.921764892578125,-0.15991562604904175,0.014424745924770832,-0.01889353059232235
1761478549655801000,5.931801025390625,-0.1756911277770996,0.008254467509686947,0.05883109197020531
1761478549665837000,5.941837158203125,-0.17455902695655823,-0.009670470841228962,0.07630355656147003
1761478549675873000,5.951873046875,-0.15816859900951385,-0.036617398262023926,0.055273108184337616
1761478549685909000,5.961908935546875,-0.14839400351047516,-0.06451507657766342,0.02022111602127552
1761478549695944000,5.97194384765625,-0.1556287407875061,-0.08548400551080704,-0.021506357938051224
1761478549705980000,5.98197998046875,-0.1671181470155716,-0.08143360912799835,-0.08113160729408264
1761478549716016000,5.99201611328125,-0.19352684915065765,-0.0649728775024414,-0.14686214923858643
1761478549726052000,6.002052001953125,-0.21291892230510712,-0.033728670328855515,-0.2049073427915573
1761478549736088000,6.012088134765625,-0.1981991082429886,0.01420237123966217,-0.25366395711898804
1761478549746124000,6.0221240234375,-0.15853877365589142,0.04275971278548241,-0.27860021591186523
1761478549756158700,6.03215869140625,-0.10328750312328339,0.06855296343564987,-0.28753405809402466
1761478549766195000,6.04219482421875,-0.038542866706848145,0.09432516992092133,-0.28851354122161865
1761478549776231200,6.052231201171875,0.005483448505401611,0.12405190616846085,-0.2851065695285797
1761478549786267100,6.06226708984375,0.039616651833057404,0.14061756432056427,-0.2864176332950592
1761478549796303000,6.07230322265625,0.07217645645141602,0.15535897016525269,-0.29452189803123474
1761478549806339000,6.082339111328125,0.08581024408340454,0.1353844553232193,-0.2897593677043915
1761478549816373800,6.092373779296875,0.08251111954450607,0.13553492724895477,-0.29131999611854553
1761478549826410000,6.102409912109375,0.06890955567359924,0.1268564760684967,-0.2926417291164398
1761478549836446000,6.112446044921875,0.05956479161977768,0.10582443326711655,-0.2864549458026886
1761478549846482000,6.12248193359375,0.067142553627491,0.06906748563051224,-0.26276132464408875
1761478549856518100,6.13251806640625,0.08613941073417664,0.03205540403723717,-0.20979957282543182
1761478549866554000,6.14255419921875,0.10360176116228104,0.006668022833764553,-0.12633369863033295
1761478549876588800,6.1525888671875,0.09379573166370392,-0.01453073974698782,-0.030946463346481323
1761478549886625000,6.162625,0.060323793441057205,-0.039329562336206436,0.043651074171066284
1761478549896661000,6.172660888671875,0.029210615903139114,-0.07728306949138641,0.08893360197544098
1761478549906697000,6.182697021484375,0.013285711407661438,-0.10227976739406586,0.09517019242048264
1761478549916733000,6.19273291015625,0.018092717975378036,-0.11803662776947021,0.08882547914981842
1761478549926769000,6.202768798828125,0.033669013530015945,-0.11993146687746048,0.08418465405702591
1761478549936805000,6.21280517578125,0.042923230677843094,-0.1025647222995758,0.093769371509552
1761478549946840000,6.222840087890625,0.04412059113383293,-0.08508346974849701,0.11506826430559158
1761478549956876000,6.2328759765625,0.041781000792980194,-0.07542231678962708,0.14374278485774994
1761478549966912000,6.242912109375,0.04977528005838394,-0.0900111123919487,0.15536509454250336
1761478549976948000,6.252947998046875,0.0835883691906929,-0.11437104642391205,0.1501876413822174
1761478549986984000,6.26298388671875,0.14229029417037964,-0.11433003842830658,0.15117327868938446
1761478549997020000,6.27302001953125,0.19896262884140015,-0.10531150549650192,0.1644880175590515
1761478550007055000,6.28305517578125,0.23378905653953552,-0.0787893533706665,0.1746290624141693
1761478550017091000,6.293091064453125,0.232893168926239,-0.041735727339982986,0.16421157121658325
1761478550027127000,6.303126953125,0.20046599209308624,-0.017372332513332367,0.12011682242155075
1761478550037163000,6.3131630859375,0.1454906165599823,-0.006216883193701506,0.062237273901700974
1761478550047199000,6.323198974609375,0.09866984933614731,-0.007138337008655071,0.009431318379938602
1761478550057235000,6.33323486328125,0.06675266474485397,-0.01889406330883503,-0.023256054148077965
1761478550067270100,6.343270263671875,0.04993373900651932,-0.010750115849077702,-0.028415929526090622
1761478550077306000,6.35330615234375,0.04026726260781288,0.006333795841783285,-0.030313163995742798
1761478550087341600,6.363341552734375,0.034927625209093094,0.035531893372535706,-0.023331688717007637
1761478550097377500,6.37337744140625,0.03855191916227341,0.07876245677471161,-0.002998985582962632
1761478550107413500,6.38341357421875,0.03924300894141197,0.0988839715719223,0.03562483936548233
1761478550117449500,6.393449462890625,0.037039242684841156,0.09338188171386719,0.08365681022405624
1761478550127484700,6.403484619140625,0.0376746729016304,0.07482603937387466,0.1379714459180832
1761478550137520600,6.413520751953125,0.030068153515458107,0.06246684119105339,0.19684861600399017
1761478550147556600,6.423556640625,0.019719641655683517,0.06647889316082001,0.22996528446674347
1761478550157592600,6.433592529296875,0.010298976674675941,0.06510283797979355,0.24284273386001587
1761478550167628500,6.443628662109375,0.020441625267267227,0.06238827481865883,0.2212144136428833
1761478550177664500,6.45366455078125,0.05398706719279289,0.04506973922252655,0.1769428253173828
1761478550187699500,6.463699462890625,0.11995117366313934,0.039260853081941605,0.1505623459815979
1761478550197735400,6.4737353515625,0.2017672061920166,0.02961195446550846,0.1433268040418625
1761478550207771600,6.483771728515625,0.24910755455493927,0.03628716617822647,0.16080699861049652
1761478550217807600,6.4938076171875,0.24164271354675293,0.07923756539821625,0.19149193167686462
1761478550227843600,6.503843505859375,0.19342352449893951,0.13303901255130768,0.20053309202194214
1761478550237879600,6.513879638671875,0.16532078385353088,0.19258782267570496,0.16753892600536346
1761478550247915500,6.52391552734375,0.17276698350906372,0.2643387019634247,0.07283106446266174
1761478550257950500,6.533950439453125,0.22706563770771027,0.3778700530529022,-0.06659234315156937
1761478550267986400,6.543986328125,0.32188987731933594,0.5175384879112244,-0.2042119950056076
1761478550278022400,6.5540224609375,0.40279698371887207,0.5758830308914185,-0.3248627781867981
1761478550288058600,6.56405859375,0.44072920083999634,0.5309690833091736,-0.41179901361465454
1761478550298094600,6.574094482421875,0.42312729358673096,0.4485916495323181,-0.4315498173236847
1761478550308130600,6.584130615234375,0.3316897749900818,0.3575022220611572,-0.3780447542667389
1761478550318165500,6.59416552734375,0.17336858808994293,0.2916528880596161,-0.2763293385505676
1761478550328201500,6.604201416015625,-0.025056084617972374,0.23007048666477203,-0.15375520288944244
1761478550338237400,6.614237548828125,-0.22542592883110046,0.16862709820270538,-0.012857475318014622
1761478550348273400,6.6242734375,-0.35970011353492737,0.09254777431488037,0.13424596190452576
1761478550358309600,6.6343095703125,-0.3968088626861572,0.004986236337572336,0.2678956389427185
1761478550368345600,6.644345703125,-0.3350142240524292,-0.05192152038216591,0.3936817944049835
1761478550378380500,6.654380615234375,-0.18182599544525146,-0.06863578408956528,0.49810540676116943
1761478550388416500,6.66441650390625,-0.013760287314653397,-0.07827509939670563,0.5585740804672241
1761478550398452500,6.674452392578125,0.11884063482284546,-0.08483099937438965,0.5685217976570129
1761478550408488400,6.684488525390625,0.22154811024665833,-0.04616536572575569,0.5202410817146301
1761478550418524400,6.6945244140625,0.3016996681690216,-0.02057505026459694,0.4426053762435913
1761478550428560400,6.704560302734375,0.3483406603336334,-0.016499880701303482,0.3483382761478424
1761478550438595600,6.714595703125,0.36258912086486816,-0.03141890838742256,0.2574416697025299
1761478550448631600,6.724631591796875,0.3694310486316681,-0.0280942190438509,0.18976540863513947
1761478550458667500,6.73466748046875,0.4035668969154358,0.0015515576815232635,0.13662709295749664
1761478550468703500,6.744703369140625,0.4276101887226105,0.025238776579499245,0.10144166648387909
1761478550478739500,6.754739501953125,0.4100029766559601,0.05363206937909126,0.08519265800714493
1761478550488775400,6.764775390625,0.36234596371650696,0.08382299542427063,0.09095574170351028
1761478550498810600,6.774810546875,0.3122290074825287,0.1020057275891304,0.09627300500869751
1761478550508846600,6.7848466796875,0.26124438643455505,0.092303566634655,0.08261125534772873
1761478550518882600,6.794882568359375,0.20176027715206146,0.05608377605676651,0.043781034648418427
1761478550528918500,6.80491845703125,0.14125539362430573,0.018814699724316597,-0.012719789519906044
1761478550538954500,6.81495458984375,0.11178911477327347,0.0036187032237648964,-0.05373460054397583
1761478550548990500,6.824990478515625,0.1092255562543869,0.013095295988023281,-0.07319272309541702
1761478550559025400,6.835025390625,0.10708197951316833,0.004969724919646978,-0.07748200744390488
1761478550569061600,6.8450615234375,0.0889304056763649,-0.030782412737607956,-0.09997746348381042
1761478550579097600,6.85509765625,0.027961593121290207,-0.03488794341683388,-0.10808492451906204
1761478550589133600,6.865133544921875,-0.027881165966391563,0.018981946632266045,-0.09022869914770126
1761478550599169500,6.87516943359375,-0.061766959726810455,0.08895117789506912,-0.06509005278348923
1761478550609205500,6.88520556640625,-0.05026397109031677,0.13945350050926208,-0.018199244514107704
1761478550619241500,6.895241455078125,-0.019396601244807243,0.13630244135856628,0.035229094326496124
1761478550629276400,6.9052763671875,0.014225541613996029,0.11392576992511749,0.05560946464538574
1761478550639312400,6.9153125,0.04489237442612648,0.05281474441289902,0.020235763862729073
1761478550649348600,6.9253486328125,0.06577794998884201,-0.04778509959578514,-0.07625295966863632
1761478550659384600,6.935384521484375,0.09599683433771133,-0.12594860792160034,-0.16332048177719116
1761478550669420500,6.945420654296875,0.13527126610279083,-0.09313181042671204,-0.16976453363895416
1761478550679456500,6.95545654296875,0.12444499135017395,-0.034637872129678726,-0.12286227196455002
1761478550689491500,6.965491455078125,0.06850555539131165,0.045705437660217285,-0.061526745557785034
1761478550699527400,6.97552734375,0.01507162768393755,0.08816847205162048,-0.03794817999005318
1761478550709563400,6.9855634765625,-0.021442707628011703,0.08048205822706223,-0.062441274523735046
1761478550719599400,6.995599365234375,-0.032648757100105286,0.03496251255273819,-0.1126362681388855
1761478550729635600,7.005635498046875,-0.00566986994817853,-0.0057007623836398125,-0.1596224159002304
1761478550739671600,7.015671630859375,0.03154514357447624,-0.05744784697890282,-0.1813812404870987
1761478550749706500,7.02570654296875,0.02973366156220436,-0.09718140959739685,-0.18391524255275726
1761478550759742500,7.035742431640625,-0.008626777678728104,-0.10501430183649063,-0.17468419671058655
1761478550769778400,7.0457783203125,-0.05072496086359024,-0.07673392444849014,-0.160885289311409
1761478550779814400,7.055814453125,-0.07438288629055023,-0.05001603066921234,-0.1453944742679596
1761478550789850400,7.065850341796875,-0.08426028490066528,-0.060939252376556396,-0.1265539526939392
1761478550799886600,7.075886474609375,-0.07188910245895386,-0.09871086478233337,-0.08472607284784317
1761478550809921500,7.085921630859375,-0.05955520644783974,-0.15436294674873352,-0.030968569219112396
1761478550819957500,7.09595751953125,-0.05173083767294884,-0.20750285685062408,0.0029920614324510098
1761478550829993500,7.105993408203125,-0.05198170989751816,-0.22873277962207794,0.0054216631688177586
1761478550840029400,7.116029541015625,-0.06468258798122406,-0.2140217423439026,-0.011263040825724602
1761478550850065400,7.1260654296875,-0.07888363301753998,-0.15368250012397766,-0.011601794511079788
1761478550860101400,7.136101318359375,-0.0737578421831131,-0.07098895311355591,0.020742297172546387
1761478550870136600,7.146136474609375,-0.06382052600383759,-0.018507104367017746,0.062190935015678406
1761478550880172500,7.156172607421875,-0.06114644557237625,-0.010184993036091328,0.08696606010198593
1761478550890208500,7.16620849609375,-0.06575371325016022,-0.030012760311365128,0.07675469666719437
1761478550900244500,7.176244384765625,-0.06699048727750778,-0.05864493548870087,0.03858254477381706
1761478550910280400,7.186280517578125,-0.07013780623674393,-0.09380878508090973,-0.015733156353235245
1761478550920316400,7.19631640625,-0.08527415245771408,-0.07819626480340958,-0.03639928624033928
1761478550930351600,7.2063515625,-0.11340485513210297,-0.037823278456926346,-0.02652961201965809
1761478550940387600,7.2163876953125,-0.14075684547424316,-0.02328002266585827,0.004295412451028824
1761478550950423600,7.226423583984375,-0.1619713306427002,-0.029448702931404114,0.036501552909612656
1761478550960459500,7.23645947265625,-0.17962515354156494,-0.06558114290237427,0.03561871498823166
1761478550970495500,7.24649560546875,-0.18571101129055023,-0.09645729511976242,0.008006527088582516
1761478550980531500,7.256531494140625,-0.1939511001110077,-0.1250670999288559,-0.05723772197961807
1761478550990566400,7.26656640625,-0.2044183909893036,-0.13736584782600403,-0.14690501987934113
1761478551000602400,7.276602294921875,-0.24461321532726288,-0.11338195204734802,-0.2502377927303314
1761478551010638600,7.286638671875,-0.30126821994781494,-0.06969865411520004,-0.34807488322257996
1761478551020674600,7.296674560546875,-0.3534475564956665,-0.024706678465008736,-0.42319414019584656
1761478551030710500,7.30671044921875,-0.39327698945999146,0.03580912947654724,-0.4572080373764038
1761478551040746500,7.31674658203125,-0.41640999913215637,0.087456613779068,-0.45338931679725647
1761478551050781400,7.326781494140625,-0.41499027609825134,0.11297369003295898,-0.43202465772628784
1761478551060817400,7.3368173828125,-0.41028153896331787,0.11167513579130173,-0.3999601900577545
1761478551070853400,7.346853271484375,-0.38910913467407227,0.07024140655994415,-0.34259676933288574
1761478551080889300,7.356889404296875,-0.35971876978874207,0.014245514757931232,-0.25324371457099915
1761478551090924800,7.3669248046875,-0.32531818747520447,-0.02997734025120735,-0.14435239136219025
1761478551100960800,7.376960693359375,-0.2852466404438019,-0.08077580481767654,-0.04429369419813156
1761478551110995700,7.38699560546875,-0.26219087839126587,-0.13882845640182495,0.038119155913591385
1761478551121031700,7.39703173828125,-0.2554698586463928,-0.17552947998046875,0.08964679390192032
1761478551131067600,7.407067626953125,-0.26230645179748535,-0.18107683956623077,0.10693603754043579
1761478551141103900,7.417103759765625,-0.2738136947154999,-0.16298572719097137,0.09618299454450607
1761478551151139800,7.427139892578125,-0.2607516944408417,-0.11694473028182983,0.054431550204753876
1761478551161175800,7.43717578125,-0.21896590292453766,-0.05595008283853531,0.0013012205017730594
1761478551171210800,7.447210693359375,-0.15959446132183075,0.003010703483596444,-0.07200495153665543
1761478551181246700,7.457246826171875,-0.10330428183078766,0.02636129967868328,-0.15726898610591888
1761478551191282700,7.46728271484375,-0.07390112429857254,0.040284574031829834,-0.24448004364967346
1761478551201318700,7.477318603515625,-0.10334263741970062,0.07962798327207565,-0.3090611696243286
1761478551211354600,7.487354736328125,-0.15990258753299713,0.09447856992483139,-0.3132109045982361
1761478551221390800,7.497390869140625,-0.42905867099761963,-0.01877315528690815,-0.2424483299255371
1761478551231425800,7.50742578125,-0.4584919512271881,0.00227833422832191,-0.21679942309856415
1761478551241461800,7.517461669921875,-0.37321698665618896,-0.06546103209257126,-0.1713552474975586
1761478551251497700,7.527497802734375,-0.2431812286376953,-0.1564817577600479,-0.07426437735557556
1761478551261533700,7.53753369140625,-0.06028757616877556,-0.18413175642490387,0.03634016588330269
1761478551271569700,7.547569580078125,-0.037092242389917374,-0.24121075868606567,0.15357491374015808
1761478551281605600,7.557605712890625,-0.11167646199464798,-0.2127269208431244,0.19716127216815948
1761478551291640800,7.567640869140625,-0.24121341109275818,-0.19194893538951874,0.16123469173908234
1761478551301676800,7.5776767578125,-0.35501161217689514,-0.1984928548336029,0.08553700149059296
1761478551311712800,7.587712646484375,-0.4234926700592041,-0.19900311529636383,-0.006364422384649515
1761478551321748700,7.597748779296875,-0.43377700448036194,-0.20144683122634888,-0.08052147179841995
1761478551331784700,7.60778466796875,-0.41445523500442505,-0.20495447516441345,-0.1180880218744278
1761478551341820700,7.617820556640625,-0.3967340290546417,-0.21689583361148834,-0.125468447804451
1761478551351855900,7.62785595703125,-0.3922937512397766,-0.21865405142307281,-0.11524323374032974
1761478551361891800,7.637891845703125,-0.4107683598995209,-0.19943508505821228,-0.09924536198377609
1761478551371927800,7.647927734375,-0.4241824448108673,-0.15897713601589203,-0.09818648546934128
1761478551381963800,7.6579638671875,-0.40037351846694946,-0.12126730382442474,-0.10644281655550003
1761478551391999700,7.667999755859375,-0.3571125864982605,-0.10370589047670364,-0.10434877872467041
1761478551402035700,7.67803564453125,-0.3135989308357239,-0.13512559235095978,-0.09293393790721893
1761478551412070700,7.688070556640625,-0.3062345087528229,-0.19707605242729187,-0.05802921578288078
1761478551422106600,7.698106689453125,-0.3142410218715668,-0.23096317052841187,-0.003326554549857974
1761478551432142800,7.708142822265625,-0.32611313462257385,-0.1967466175556183,0.024098411202430725
1761478551442178800,7.7181787109375,-0.3082451820373535,-0.07052716612815857,0.0010972223244607449
1761478551452214800,7.72821484375,-0.27740445733070374,0.0637451559305191,-0.10581298172473907
1761478551462250800,7.738250732421875,-0.2500505745410919,0.11316516995429993,-0.24668247997760773
1761478551472285700,7.74828564453125,-0.19487148523330688,0.07242173701524734,-0.34962430596351624
1761478551482321700,7.75832177734375,-0.12598083913326263,-0.01299489475786686,-0.37804555892944336
1761478551492357600,7.768357666015625,-0.07166406512260437,-0.09174136817455292,-0.32745322585105896
1761478551502393600,7.7783935546875,-0.06565890461206436,-0.07955847680568695,-0.23026064038276672
1761478551512429800,7.788429931640625,-0.09231740981340408,-0.0029286781791597605,-0.11862464994192123
1761478551522465800,7.7984658203125,-0.1389128714799881,0.06156722456216812,-0.02700844779610634
1761478551532500700,7.808500732421875,-0.166433185338974,0.11126713454723358,0.0320785753428936
1761478551542536700,7.81853662109375,-0.16784785687923431,0.09551800042390823,0.05086158215999603
1761478551552572700,7.82857275390625,-0.14316993951797485,0.03116031549870968,0.03158668801188469
1761478551562608600,7.838608642578125,-0.11528851091861725,-0.04325586184859276,0.020124176517128944
1761478551572644600,7.84864453125,-0.1016366109251976,-0.10724470019340515,0.024701084941625595
1761478551582680600,7.8586806640625,-0.10849504917860031,-0.1546899825334549,0.07028188556432724
1761478551592715800,7.8687158203125,-0.15137727558612823,-0.15388010442256927,0.13226589560508728
1761478551602751700,7.878751708984375,-0.21269282698631287,-0.14107084274291992,0.1731075942516327
1761478551612787700,7.88878759765625,-0.26051759719848633,-0.09080474078655243,0.19286586344242096
1761478551622823700,7.89882373046875,-0.2813190221786499,-0.0141754737123847,0.17325752973556519
1761478551632859600,7.908859619140625,-0.27959275245666504,0.03464160114526749,0.10146830230951309
1761478551642895600,7.9188955078125,-0.25396090745925903,0.09177705645561218,0.005135373678058386
1761478551652930800,7.928930908203125,-0.20059221982955933,0.14816896617412567,-0.10822287946939468
1761478551662966800,7.938966796875,-0.10781754553318024,0.17177815735340118,-0.21789291501045227
1761478551673002800,7.949002685546875,-0.02461453340947628,0.16288718581199646,-0.30560946464538574
1761478551683038700,7.959038818359375,0.02719247154891491,0.1743619441986084,-0.3205606937408447
1761478551693074700,7.96907470703125,0.08032812923192978,0.16838288307189941,-0.24845002591609955
1761478551703110700,7.979110595703125,0.11477185785770416,0.13073217868804932,-0.11419980973005295
1761478551713145900,7.989145751953125,0.1389472335577011,0.08658868819475174,0.03772101178765297
1761478551723181800,7.999181884765625,0.160323366522789,0.04379301890730858,0.1789148896932602
1761478551733217800,8.0092177734375,0.18258126080036163,0.011001784354448318,0.28873884677886963
1761478551743253800,8.019253662109374,0.22164210677146912,-0.04139644280076027,0.3483446538448334
1761478551753289700,8.029289794921874,0.27054306864738464,-0.13001632690429688,0.3630059063434601
1761478551763325700,8.03932568359375,0.28997349739074707,-0.20122525095939636,0.3596756160259247
1761478551773360600,8.049360595703124,0.27483901381492615,-0.21039532124996185,0.3268263339996338
1761478551783396600,8.059396728515624,0.22254678606987,-0.17728476226329803,0.2753322422504425
1761478551793432800,8.069432861328124,0.13470642268657684,-0.11810453236103058,0.19653436541557312
1761478551803468800,8.07946875,0.046656716614961624,-0.02366032265126705,0.07009413093328476
1761478551813504800,8.0895048828125,-0.02599511481821537,0.09263885766267776,-0.08681558817625046
1761478551823540700,8.099540771484374,-0.06841900199651718,0.18771690130233765,-0.22616443037986755
1761478551833575700,8.10957568359375,-0.08145011961460114,0.26654887199401855,-0.3163715600967407
1761478551843611600,8.119611572265624,-0.07113596051931381,0.29032132029533386,-0.34923627972602844
1761478551853647600,8.129647705078124,-0.061160292476415634,0.254264771938324,-0.3467174768447876
1761478551863683600,8.13968359375,-0.06024815887212753,0.1899305284023285,-0.3264116644859314
1761478551873719800,8.1497197265625,-0.07369393110275269,0.11256595700979233,-0.29434934258461
1761478551883755800,8.159755859375,-0.08649787306785583,0.06330014020204544,-0.2731263339519501
1761478551893790700,8.169790771484376,-0.0795598030090332,0.04936062544584274,-0.24129517376422882
1761478551903826700,8.17982666015625,-0.0625467374920845,0.05905479937791824,-0.18389366567134857
1761478551913862700,8.189862548828126,-0.046185072511434555,0.09938943386077881,-0.10674189031124115
1761478551923898600,8.199898681640626,-0.05732826888561249,0.13716956973075867,-0.014797587879002094
1761478551933934600,8.2099345703125,-0.07902291417121887,0.1685410737991333,0.05097902938723564
1761478551943970600,8.219970458984376,-0.09778275340795517,0.17346979677677155,0.07543483376502991
1761478551954005800,8.230005859375,-0.09877265244722366,0.13953791558742523,0.03299416974186897
1761478551964041700,8.240041748046876,-0.08479291945695877,0.09996388107538223,-0.05643131956458092
1761478551974077700,8.25007763671875,-0.06766746193170547,0.10269016027450562,-0.15713156759738922
1761478551984113700,8.26011376953125,-0.06072885915637016,0.1000557616353035,-0.2354186475276947
1761478551994149600,8.270149658203126,-0.06265006214380264,0.1084979772567749,-0.2829752564430237
1761478552004185600,8.280185546875,-0.053756970912218094,0.14801928400993347,-0.2836120128631592
1761478552014220800,8.290220703125,-0.026790868490934372,0.18262360990047455,-0.26760080456733704
1761478552024256800,8.3002568359375,0.02317829057574272,0.20054881274700165,-0.22374920547008514
1761478552034292700,8.310292724609376,0.06339841336011887,0.18131573498249054,-0.19842654466629028
1761478552044328700,8.32032861328125,0.06876068562269211,0.1307138055562973,-0.1865869164466858
1761478552054364700,8.33036474609375,0.02370612882077694,0.11610130220651627,-0.17706160247325897
1761478552064400600,8.340400634765626,-0.051182493567466736,0.12898728251457214,-0.16162218153476715
1761478552074435600,8.350435546875,-0.12755823135375977,0.1361123025417328,-0.12603436410427094
1761478552084471800,8.360471923828126,-0.17770954966545105,0.1730189174413681,-0.059064384549856186
1761478552094509000,8.370509033203126,-0.17623335123062134,0.18272507190704346,0.004055195488035679
1761478552104545000,8.380544921875,-0.1259017437696457,0.1365991234779358,-0.002397910226136446
1761478552114581000,8.3905810546875,-0.07419406622648239,0.06828504800796509,-0.04268141835927963
1761478552124617200,8.4006171875,-0.04566948488354683,-0.025371136143803596,-0.09132405370473862
1761478552134652200,8.410652099609376,-0.04915422946214676,-0.12333951145410538,-0.09346044063568115
1761478552144688000,8.420688232421876,-0.09568524360656738,0.048170991241931915,0.21191571652889252
1761478552154724000,8.43072412109375,-0.07787429541349411,-0.036919932812452316,0.16207918524742126
1761478552164760000,8.440760009765626,0.02959411032497883,-0.19665101170539856,0.04191975295543671
1761478552174796000,8.450796142578126,0.12251552939414978,-0.23185347020626068,0.0906904861330986
1761478552184832000,8.46083203125,0.12448786944150925,-0.2872283160686493,0.14831143617630005
1761478552194867200,8.4708671875,0.0470452718436718,-0.19999247789382935,0.25470417737960815
1761478552204903200,8.480903076171876,-0.023068567737936974,-0.11091399937868118,0.3691732585430145
1761478552214939100,8.490939208984376,-0.06987708806991577,0.00469515286386013,0.4997725486755371
1761478552224975000,8.50097509765625,-0.04500369355082512,0.17488153278827667,0.6489872932434082
