time,seconds_elapsed,z,y,x
1761479801015259400,0.06825927734375,-1.0131378173828125,-0.01898193359375,-0.0175018310546875
1761479801025294300,0.07829443359375,-1.013702392578125,-0.0238189697265625,-0.022003173828125
1761479801035330300,0.088330322265625,-1.0123291015625,-0.025909423828125,-0.015045166015625
1761479801045366300,0.0983662109375,-1.013275146484375,-0.0197601318359375,-0.0138702392578125
1761479801055402200,0.10840234375,-1.012481689453125,-0.019927978515625,-0.022369384765625
1761479801065438200,0.118438232421875,-1.0130157470703125,-0.0214996337890625,-0.0185699462890625
1761479801075474200,0.12847412109375,-1.012664794921875,-0.026519775390625,-0.013458251953125
1761479801085509400,0.13850927734375,-1.0139617919921875,-0.0191650390625,-0.01788330078125
1761479801095545300,0.14854541015625,-1.0136566162109375,-0.022003173828125,-0.0225982666015625
1761479801105581300,0.158581298828125,-1.0142059326171875,-0.0223388671875,-0.0135040283203125
1761479801115617300,0.1686171875,-1.0125732421875,-0.0278472900390625,-0.0154876708984375
1761479801125653200,0.1786533203125,-1.0133819580078125,-0.0189056396484375,-0.02154541015625
1761479801135689200,0.188689208984375,-1.01287841796875,-0.02215576171875,-0.019317626953125
1761479801145725200,0.19872509765625,-1.0124359130859375,-0.0217742919921875,-0.0123443603515625
1761479801155760400,0.208760498046875,-1.012176513671875,-0.02532958984375,-0.0192413330078125
1761479801165796400,0.21879638671875,-1.0137176513671875,-0.018463134765625,-0.0203857421875
1761479801175832300,0.228832275390625,-1.012847900390625,-0.02239990234375,-0.0161895751953125
1761479801185868300,0.238868408203125,-1.0130767822265625,-0.022003173828125,-0.01531982421875
1761479801195904300,0.248904296875,-1.0132293701171875,-0.02532958984375,-0.0201568603515625
1761479801205940200,0.258940185546875,-1.0132293701171875,-0.0205230712890625,-0.0174102783203125
1761479801215975200,0.26897509765625,-1.0122833251953125,-0.0211334228515625,-0.015838623046875
1761479801226011400,0.279011474609375,-1.0139923095703125,-0.021514892578125,-0.01995849609375
1761479801236047400,0.28904736328125,-1.01300048828125,-0.0243682861328125,-0.01922607421875
1761479801246083300,0.299083251953125,-1.012664794921875,-0.020111083984375,-0.014801025390625
1761479801256119300,0.309119384765625,-1.013824462890625,-0.02081298828125,-0.017852783203125
1761479801266155300,0.3191552734375,-1.0138397216796875,-0.0220947265625,-0.0200958251953125
1761479801276190200,0.329190185546875,-1.0129241943359375,-0.0228729248046875,-0.0163116455078125
1761479801286226200,0.33922607421875,-1.01312255859375,-0.0219573974609375,-0.01629638671875
1761479801296262100,0.34926220703125,-1.012847900390625,-0.0201873779296875,-0.0204620361328125
1761479801306298400,0.35929833984375,-1.0125579833984375,-0.02276611328125,-0.0177764892578125
1761479801316334300,0.369334228515625,-1.0124664306640625,-0.023681640625,-0.0139617919921875
1761479801326370300,0.379370361328125,-1.012420654296875,-0.022216796875,-0.018829345703125
1761479801336406300,0.38940625,-1.0135955810546875,-0.0198822021484375,-0.0201568603515625
1761479801346442500,0.3994423828125,-1.012115478515625,-0.023468017578125,-0.0150299072265625
1761479801356478700,0.409478759765625,-1.0128631591796875,-0.02362060546875,-0.0162200927734375
1761479801366514700,0.4195146484375,-1.013427734375,-0.022552490234375,-0.021087646484375
1761479801376550700,0.429550537109375,-1.0125732421875,-0.0205535888671875,-0.0169525146484375
1761479801386586600,0.439586669921875,-1.0117950439453125,-0.024261474609375,-0.0157318115234375
1761479801396622600,0.44962255859375,-1.01361083984375,-0.0225982666015625,-0.017974853515625
1761479801406658600,0.459658447265625,-1.0138092041015625,-0.0233306884765625,-0.01922607421875
1761479801416693800,0.46969384765625,-1.0135345458984375,-0.020843505859375,-0.01495361328125
1761479801426729700,0.479729736328125,-1.0126953125,-0.0230560302734375,-0.0174560546875
1761479801436765700,0.489765625,-1.0118255615234375,-0.0225067138671875,-0.0187225341796875
1761479801446801700,0.4998017578125,-1.012359619140625,-0.0228729248046875,-0.0168304443359375
1761479801456837600,0.509837646484375,-1.01312255859375,-0.02001953125,-0.01617431640625
1761479801466873600,0.51987353515625,-1.0135345458984375,-0.022613525390625,-0.019775390625
1761479801476909600,0.52990966796875,-1.0135345458984375,-0.0232391357421875,-0.0177154541015625
1761479801486944800,0.53994482421875,-1.01202392578125,-0.0219879150390625,-0.0158843994140625
1761479801496980700,0.549980712890625,-1.0134124755859375,-0.0202484130859375,-0.018798828125
1761479801507016700,0.5600166015625,-1.0136566162109375,-0.0225677490234375,-0.01922607421875
1761479801517052700,0.570052734375,-1.0135040283203125,-0.023773193359375,-0.01531982421875
1761479801527088600,0.580088623046875,-1.0123748779296875,-0.021636962890625,-0.0163421630859375
1761479801537124600,0.59012451171875,-1.012298583984375,-0.0204010009765625,-0.0196990966796875
1761479801547160600,0.60016064453125,-1.0119781494140625,-0.021270751953125,-0.0169219970703125
1761479801557195800,0.61019580078125,-1.01220703125,-0.0243682861328125,-0.0153350830078125
1761479801567231700,0.620231689453125,-1.012603759765625,-0.021942138671875,-0.01934814453125
1761479801577267700,0.630267822265625,-1.0120849609375,-0.0216522216796875,-0.01947021484375
1761479801587303700,0.6403037109375,-1.013946533203125,-0.022857666015625,-0.0162811279296875
1761479801597339600,0.650339599609375,-1.0131988525390625,-0.02301025390625,-0.017486572265625
1761479801607375600,0.660375732421875,-1.0125579833984375,-0.021331787109375,-0.019500732421875
1761479801617411600,0.67041162109375,-1.0125579833984375,-0.0205078125,-0.0172576904296875
1761479801627446500,0.680446533203125,-1.0130615234375,-0.02178955078125,-0.015777587890625
1761479801637482800,0.690482666015625,-1.0120086669921875,-0.02362060546875,-0.0188140869140625
1761479801647518700,0.700518798828125,-1.0127105712890625,-0.02215576171875,-0.0180511474609375
1761479801657554700,0.7105546875,-1.0130157470703125,-0.02166748046875,-0.0169830322265625
1761479801667590700,0.720590576171875,-1.012969970703125,-0.02178955078125,-0.018035888671875
1761479801677626600,0.730626708984375,-1.0121307373046875,-0.02294921875,-0.0184478759765625
1761479801687662600,0.74066259765625,-1.01361083984375,-0.02154541015625,-0.0166778564453125
1761479801697697500,0.750697509765625,-1.01263427734375,-0.022308349609375,-0.016815185546875
1761479801707733500,0.7607333984375,-1.0127105712890625,-0.0217132568359375,-0.0182647705078125
1761479801717769700,0.770769775390625,-1.01214599609375,-0.02349853515625,-0.0183868408203125
1761479801727805700,0.7808056640625,-1.0129547119140625,-0.02203369140625,-0.0173492431640625
1761479801737841700,0.790841552734375,-1.0124664306640625,-0.020843505859375,-0.0184478759765625
1761479801747877600,0.800877685546875,-1.0131683349609375,-0.021697998046875,-0.0173797607421875
1761479801757913600,0.81091357421875,-1.0125274658203125,-0.0231170654296875,-0.016143798828125
1761479801767948500,0.820948486328125,-1.011993408203125,-0.0221710205078125,-0.0177001953125
1761479801777984500,0.830984619140625,-1.01177978515625,-0.0210113525390625,-0.0189208984375
1761479801788020700,0.841020751953125,-1.012969970703125,-0.0232696533203125,-0.017303466796875
1761479801798056700,0.851056640625,-1.0123291015625,-0.023284912109375,-0.0167999267578125
1761479801808092700,0.8610927734375,-1.0121307373046875,-0.02252197265625,-0.01824951171875
1761479801818128600,0.871128662109375,-1.0126953125,-0.0210723876953125,-0.0180511474609375
1761479801828164600,0.88116455078125,-1.01239013671875,-0.0220184326171875,-0.0169677734375
1761479801838200600,0.89120068359375,-1.01220703125,-0.021942138671875,-0.01751708984375
1761479801848235500,0.901235595703125,-1.0133056640625,-0.0218505859375,-0.0183563232421875
1761479801858271500,0.911271484375,-1.0122528076171875,-0.021575927734375,-0.016754150390625
1761479801868307700,0.9213076171875,-1.011566162109375,-0.023101806640625,-0.0171051025390625
1761479801878343700,0.93134375,-1.012451171875,-0.0225982666015625,-0.0180816650390625
1761479801888379600,0.941379638671875,-1.0125732421875,-0.02154541015625,-0.0174713134765625
1761479801898415600,0.95141552734375,-1.0135498046875,-0.0229644775390625,-0.016571044921875
1761479801908451600,0.96145166015625,-1.011871337890625,-0.0227508544921875,-0.017486572265625
1761479801918487600,0.971487548828125,-1.0128173828125,-0.022705078125,-0.017547607421875
1761479801928522500,0.9815224609375,-1.0128326416015625,-0.0224151611328125,-0.017120361328125
1761479801938558500,0.991558349609375,-1.01397705078125,-0.02032470703125,-0.01788330078125
1761479801948594700,1.0015947265625,-1.013031005859375,-0.0215301513671875,-0.018463134765625
1761479801958630700,1.011630615234375,-1.0126190185546875,-0.02239990234375,-0.016815185546875
1761479801968666600,1.02166650390625,-1.012542724609375,-0.02197265625,-0.01654052734375
1761479801978702600,1.03170263671875,-1.0131988525390625,-0.0209503173828125,-0.017730712890625
1761479801988738600,1.041738525390625,-1.0123748779296875,-0.02239990234375,-0.017608642578125
1761479801998774500,1.0517744140625,-1.012603759765625,-0.0220947265625,-0.0162353515625
1761479802008809500,1.0618095703125,-1.0124053955078125,-0.0219268798828125,-0.0174102783203125
1761479802018845400,1.071845458984375,-1.013397216796875,-0.0208740234375,-0.0186614990234375
1761479802028881700,1.081881591796875,-1.0130157470703125,-0.022308349609375,-0.0174713134765625
1761479802038917600,1.091917724609375,-1.0137786865234375,-0.022705078125,-0.0169219970703125
1761479802048953600,1.10195361328125,-1.0128173828125,-0.0223846435546875,-0.017059326171875
1761479802058989600,1.111989501953125,-1.013397216796875,-0.0215911865234375,-0.0179443359375
1761479802069025500,1.122025634765625,-1.0120849609375,-0.0224761962890625,-0.017181396484375
1761479802079061500,1.1320615234375,-1.013031005859375,-0.0218658447265625,-0.0173187255859375
1761479802089096400,1.142096435546875,-1.01318359375,-0.0218963623046875,-0.017822265625
1761479802099132400,1.15213232421875,-1.0132293701171875,-0.02215576171875,-0.017852783203125
1761479802109168600,1.162168701171875,-1.012939453125,-0.0217437744140625,-0.0166168212890625
1761479802119204600,1.17220458984375,-1.0144195556640625,-0.022552490234375,-0.018646240234375
1761479802129240600,1.182240478515625,-1.0137786865234375,-0.022186279296875,-0.0172576904296875
1761479802139276500,1.192276611328125,-1.01263427734375,-0.0215911865234375,-0.0164642333984375
1761479802149312500,1.2023125,-1.013153076171875,-0.0221710205078125,-0.0175628662109375
1761479802159348500,1.212348388671875,-1.0122528076171875,-0.0222320556640625,-0.0179901123046875
1761479802169383400,1.222383544921875,-1.0124359130859375,-0.0218658447265625,-0.0171356201171875
1761479802179419400,1.23241943359375,-1.012115478515625,-0.020965576171875,-0.017059326171875
1761479802189455600,1.24245556640625,-1.013397216796875,-0.0218353271484375,-0.018646240234375
1761479802199491600,1.25249169921875,-1.01324462890625,-0.0224151611328125,-0.0168609619140625
1761479802209527600,1.262527587890625,-1.0135498046875,-0.0226287841796875,-0.0169677734375
1761479802219563500,1.2725634765625,-1.0132598876953125,-0.0214996337890625,-0.01849365234375
1761479802229599500,1.282599609375,-1.0128631591796875,-0.0220489501953125,-0.0169830322265625
1761479802239635500,1.292635498046875,-1.0127716064453125,-0.0220947265625,-0.0171356201171875
1761479802249671400,1.30267138671875,-1.0129852294921875,-0.0219268798828125,-0.0173187255859375
1761479802259706600,1.31270654296875,-1.013702392578125,-0.0225830078125,-0.0180816650390625
1761479802269742600,1.32274267578125,-1.0122222900390625,-0.0232696533203125,-0.017333984375
1761479802279778600,1.332778564453125,-1.0129547119140625,-0.0227203369140625,-0.01727294921875
1761479802289814500,1.342814453125,-1.0139617919921875,-0.022125244140625,-0.01861572265625
1761479802299850500,1.3528505859375,-1.0134124755859375,-0.0220184326171875,-0.0177001953125
1761479802309886500,1.362886474609375,-1.01239013671875,-0.022552490234375,-0.0171051025390625
1761479802319922700,1.372922607421875,-1.012664794921875,-0.022186279296875,-0.01800537109375
1761479802329958700,1.382958740234375,-1.013031005859375,-0.022796630859375,-0.0176544189453125
1761479802339993600,1.39299365234375,-1.0125274658203125,-0.022216796875,-0.0174102783203125
1761479802350029800,1.40302978515625,-1.0128936767578125,-0.022491455078125,-0.01739501953125
1761479802360066000,1.413066162109375,-1.0125885009765625,-0.0222320556640625,-0.0180511474609375
1761479802370102000,1.42310205078125,-1.01318359375,-0.0230712890625,-0.017425537109375
1761479802380138000,1.433137939453125,-1.012664794921875,-0.021728515625,-0.01702880859375
1761479802390174000,1.443174072265625,-1.013580322265625,-0.020965576171875,-0.017608642578125
1761479802400210000,1.4532099609375,-1.01324462890625,-0.02203369140625,-0.0183868408203125
1761479802410246000,1.463245849609375,-1.0127716064453125,-0.02227783203125,-0.0173797607421875
1761479802420280800,1.47328076171875,-1.013275146484375,-0.0222015380859375,-0.0182342529296875
1761479802430316800,1.48331689453125,-1.0131378173828125,-0.0221710205078125,-0.0179901123046875
1761479802440353000,1.49335302734375,-1.013031005859375,-0.023040771484375,-0.0168304443359375
1761479802450389000,1.503388916015625,-1.013275146484375,-0.0216217041015625,-0.0181732177734375
1761479802460425000,1.513425048828125,-1.0133819580078125,-0.0214080810546875,-0.01806640625
1761479802470461000,1.5234609375,-1.013763427734375,-0.02227783203125,-0.01751708984375
1761479802480497000,1.533496826171875,-1.013092041015625,-0.022705078125,-0.0176239013671875
1761479802490532900,1.543532958984375,-1.0136260986328125,-0.021728515625,-0.018768310546875
1761479802500568800,1.55356884765625,-1.013031005859375,-0.0222930908203125,-0.017547607421875
1761479802510604000,1.56360400390625,-1.01324462890625,-0.02166748046875,-0.0170440673828125
1761479802520640000,1.573639892578125,-1.0128936767578125,-0.022705078125,-0.017608642578125
1761479802530676000,1.583676025390625,-1.0124359130859375,-0.0220184326171875,-0.0179443359375
1761479802540712000,1.5937119140625,-1.0134735107421875,-0.0224151611328125,-0.0178070068359375
1761479802550748000,1.603747802734375,-1.0134124755859375,-0.0219879150390625,-0.017578125
1761479802560784000,1.613783935546875,-1.013641357421875,-0.02264404296875,-0.018646240234375
1761479802570819800,1.62381982421875,-1.0130462646484375,-0.022857666015625,-0.0183868408203125
1761479802580855800,1.633855712890625,-1.0139007568359375,-0.021484375,-0.01708984375
1761479802590891800,1.643891845703125,-1.0136871337890625,-0.0218353271484375,-0.017578125
1761479802600927000,1.653927001953125,-1.0125885009765625,-0.0220794677734375,-0.0174102783203125
1761479802610963000,1.663962890625,-1.01336669921875,-0.021514892578125,-0.016937255859375
1761479802620999000,1.6739990234375,-1.012939453125,-0.0225067138671875,-0.0181884765625
1761479802631035000,1.684034912109375,-1.01385498046875,-0.02215576171875,-0.0170745849609375
1761479802641070800,1.69407080078125,-1.0139312744140625,-0.0227508544921875,-0.0165557861328125
1761479802651106800,1.70410693359375,-1.013427734375,-0.0219573974609375,-0.01690673828125
1761479802661142800,1.714142822265625,-1.0124969482421875,-0.0227203369140625,-0.0178375244140625
1761479802671178800,1.7241787109375,-1.012969970703125,-0.022491455078125,-0.017791748046875
1761479802681214000,1.7342138671875,-1.0124359130859375,-0.0218963623046875,-0.0171051025390625
1761479802691250000,1.74425,-1.01336669921875,-0.0220184326171875,-0.0171966552734375
1761479802701286000,1.754285888671875,-1.013458251953125,-0.02178955078125,-0.017364501953125
1761479802711321900,1.76432177734375,-1.0146942138671875,-0.022430419921875,-0.017669677734375
1761479802721357800,1.77435791015625,-1.013763427734375,-0.0227203369140625,-0.0176849365234375
1761479802731393800,1.784393798828125,-1.0137176513671875,-0.022125244140625,-0.017822265625
1761479802741429800,1.7944296875,-1.012725830078125,-0.0216064453125,-0.0180206298828125
1761479802751465700,1.8044658203125,-1.012969970703125,-0.02252197265625,-0.0174102783203125
1761479802761501700,1.814501708984375,-1.0131072998046875,-0.0225372314453125,-0.018096923828125
1761479802771537000,1.824536865234375,-1.0131072998046875,-0.0217437744140625,-0.01812744140625
1761479802781572900,1.83457275390625,-1.014251708984375,-0.0219879150390625,-0.01739501953125
1761479802791608800,1.84460888671875,-1.013702392578125,-0.0224609375,-0.0164642333984375
1761479802801644800,1.854644775390625,-1.0126800537109375,-0.021820068359375,-0.017608642578125
1761479802811680800,1.8646806640625,-1.013885498046875,-0.02239990234375,-0.017425537109375
1761479802821716700,1.874716796875,-1.0147552490234375,-0.0225982666015625,-0.0169525146484375
1761479802831752700,1.884752685546875,-1.015380859375,-0.0218658447265625,-0.017791748046875
1761479802841788700,1.89478857421875,-1.0133819580078125,-0.021209716796875,-0.0180206298828125
1761479802851824600,1.90482470703125,-1.01336669921875,-0.0216217041015625,-0.0170745849609375
1761479802861859800,1.91485986328125,-1.0132293701171875,-0.0215911865234375,-0.017791748046875
1761479802871895800,1.924895751953125,-1.0137939453125,-0.0221405029296875,-0.0171661376953125
1761479802881931800,1.934931884765625,-1.013671875,-0.0235595703125,-0.0172576904296875
1761479802891967700,1.9449677734375,-1.013885498046875,-0.022003173828125,-0.0173797607421875
1761479802902003700,1.955003662109375,-1.0128631591796875,-0.020904541015625,-0.017120361328125
1761479802912039700,1.965039794921875,-1.0131988525390625,-0.022308349609375,-0.0167388916015625
1761479802922075600,1.97507568359375,-1.013427734375,-0.0223541259765625,-0.0172882080078125
1761479802932111600,1.985111572265625,-1.0134735107421875,-0.022125244140625,-0.01763916015625
1761479802942147800,1.99514794921875,-1.0139312744140625,-0.022125244140625,-0.0174407958984375
1761479802952182800,2.005182861328125,-1.013763427734375,-0.022308349609375,-0.0174560546875
1761479802962218800,2.01521875,-1.014312744140625,-0.0223541259765625,-0.017547607421875
1761479802972254700,2.025254638671875,-1.0133819580078125,-0.02203369140625,-0.0174102783203125
1761479802982290700,2.035290771484375,-1.0145416259765625,-0.0219879150390625,-0.01824951171875
1761479802992326700,2.04532666015625,-1.0139007568359375,-0.021759033203125,-0.017913818359375
1761479803002362600,2.055362548828125,-1.012939453125,-0.0224456787109375,-0.0167236328125
1761479803012398600,2.065398681640625,-1.013275146484375,-0.0222015380859375,-0.016876220703125
1761479803022434800,2.075434814453125,-1.013885498046875,-0.02264404296875,-0.017364501953125
1761479803032469800,2.0854697265625,-1.0138092041015625,-0.022705078125,-0.01751708984375
1761479803042505700,2.095505615234375,-1.0136871337890625,-0.022186279296875,-0.017120361328125
1761479803052541700,2.105541748046875,-1.013885498046875,-0.02203369140625,-0.0174407958984375
1761479803062577700,2.11557763671875,-1.0136566162109375,-0.02178955078125,-0.017486572265625
1761479803072613600,2.125613525390625,-1.0133209228515625,-0.02191162109375,-0.017333984375
1761479803082649600,2.135649658203125,-1.0128173828125,-0.02215576171875,-0.017486572265625
1761479803092685800,2.145685791015625,-1.013641357421875,-0.02166748046875,-0.01690673828125
1761479803102722000,2.15572216796875,-1.0133056640625,-0.022491455078125,-0.016937255859375
1761479803112758000,2.165758056640625,-1.013946533203125,-0.021728515625,-0.0181427001953125
1761479803122792700,2.175792724609375,-1.01373291015625,-0.02203369140625,-0.017547607421875
1761479803132828700,2.18582861328125,-1.0137939453125,-0.021697998046875,-0.01763916015625
1761479803142865000,2.195864990234375,-1.01348876953125,-0.0221099853515625,-0.017578125
1761479803152900900,2.20590087890625,-1.014007568359375,-0.02178955078125,-0.0173187255859375
1761479803162936800,2.215936767578125,-1.0139617919921875,-0.021759033203125,-0.0170135498046875
1761479803172972800,2.225972900390625,-1.0134429931640625,-0.0220947265625,-0.0174407958984375
1761479803183009000,2.236009033203125,-1.013336181640625,-0.022552490234375,-0.017913818359375
1761479803193045000,2.246044921875,-1.0135040283203125,-0.022247314453125,-0.017181396484375
1761479803203081000,2.2560810546875,-1.013763427734375,-0.021697998046875,-0.0174713134765625
1761479803213116000,2.266115966796875,-1.0139617919921875,-0.0222930908203125,-0.017852783203125
1761479803223151900,2.27615185546875,-1.013427734375,-0.0218505859375,-0.017364501953125
1761479803233187800,2.286187744140625,-1.01318359375,-0.0221405029296875,-0.017822265625
1761479803243223800,2.296223876953125,-1.0134735107421875,-0.0223388671875,-0.016998291015625
1761479803253259800,2.306259765625,-1.0133056640625,-0.0211181640625,-0.0171051025390625
1761479803263296000,2.3162958984375,-1.013214111328125,-0.0223846435546875,-0.018157958984375
1761479803273332000,2.32633203125,-1.013824462890625,-0.02301025390625,-0.01837158203125
1761479803283368000,2.336367919921875,-1.01397705078125,-0.0219268798828125,-0.017578125
1761479803293403000,2.34640283203125,-1.014190673828125,-0.022216796875,-0.017425537109375
1761479803303438800,2.35643896484375,-1.0137786865234375,-0.0223388671875,-0.0175323486328125
1761479803313474800,2.366474853515625,-1.01361083984375,-0.022125244140625,-0.0177764892578125
1761479803323510800,2.3765107421875,-1.0134735107421875,-0.0225830078125,-0.0172882080078125
1761479803333546800,2.386546630859375,-1.01458740234375,-0.0226898193359375,-0.0175628662109375
1761479803343583000,2.3965830078125,-1.0132598876953125,-0.0214996337890625,-0.0167999267578125
1761479803353618400,2.406618408203125,-1.0140838623046875,-0.0217437744140625,-0.0164337158203125
1761479803363654400,2.416654296875,-1.0131072998046875,-0.02294921875,-0.0168304443359375
1761479803373690400,2.4266904296875,-1.01373291015625,-0.0218963623046875,-0.0183563232421875
1761479803383725300,2.436725341796875,-1.0140380859375,-0.0215606689453125,-0.018310546875
1761479803393761300,2.44676123046875,-1.0128936767578125,-0.0217742919921875,-0.018524169921875
1761479803403797500,2.456797607421875,-1.013671875,-0.023040771484375,-0.0180816650390625
1761479803413833500,2.46683349609375,-1.014556884765625,-0.0216217041015625,-0.0174102783203125
1761479803423869400,2.476869384765625,-1.0134124755859375,-0.02142333984375,-0.0175628662109375
1761479803433905400,2.486905517578125,-1.0139923095703125,-0.0218963623046875,-0.017791748046875
1761479803443941400,2.49694140625,-1.014404296875,-0.0224761962890625,-0.01751708984375
1761479803453977300,2.506977294921875,-1.013916015625,-0.02203369140625,-0.0174407958984375
1761479803464013300,2.517013427734375,-1.013580322265625,-0.0220794677734375,-0.017181396484375
1761479803474048300,2.52704833984375,-1.01318359375,-0.0214996337890625,-0.018157958984375
1761479803484084500,2.53708447265625,-1.0137939453125,-0.022186279296875,-0.01739501953125
1761479803494120400,2.547120361328125,-1.0140838623046875,-0.022125244140625,-0.0169830322265625
1761479803504156400,2.557156494140625,-1.014801025390625,-0.02154541015625,-0.0173797607421875
1761479803514192400,2.5671923828125,-1.0132904052734375,-0.0216522216796875,-0.01702880859375
1761479803524228400,2.577228271484375,-1.0137176513671875,-0.02191162109375,-0.0168609619140625
1761479803534264300,2.587264404296875,-1.014373779296875,-0.02215576171875,-0.0178985595703125
1761479803544300300,2.59730029296875,-1.0132904052734375,-0.022125244140625,-0.0167999267578125
1761479803554335200,2.607335205078125,-1.013153076171875,-0.0223236083984375,-0.0173797607421875
1761479803564371500,2.617371337890625,-1.014404296875,-0.02264404296875,-0.0171051025390625
1761479803574407400,2.627407470703125,-1.0141754150390625,-0.021697998046875,-0.0172576904296875
1761479803584443400,2.637443359375,-1.0140838623046875,-0.0225067138671875,-0.0180511474609375
1761479803594479400,2.647479248046875,-1.013031005859375,-0.0222320556640625,-0.0174713134765625
1761479803604515300,2.657515380859375,-1.0142059326171875,-0.021942138671875,-0.0171661376953125
1761479803614551300,2.66755126953125,-1.0142669677734375,-0.0217437744140625,-0.0178375244140625
1761479803624587300,2.677587158203125,-1.0132293701171875,-0.022216796875,-0.0170135498046875
1761479803634623200,2.687623291015625,-1.0147247314453125,-0.022613525390625,-0.01788330078125
1761479803644658400,2.697658447265625,-1.01373291015625,-0.0218963623046875,-0.017364501953125
1761479803654694400,2.7076943359375,-1.0140533447265625,-0.0227203369140625,-0.0174102783203125
1761479803664730400,2.71773046875,-1.0136566162109375,-0.022857666015625,-0.018310546875
1761479803674766300,2.727766357421875,-1.014190673828125,-0.022003173828125,-0.0172882080078125
1761479803684802300,2.73780224609375,-1.0138702392578125,-0.0228271484375,-0.01739501953125
1761479803694838300,2.74783837890625,-1.0133819580078125,-0.0228118896484375,-0.0172119140625
1761479803704874200,2.757874267578125,-1.01318359375,-0.0224609375,-0.016998291015625
1761479803714910200,2.76791015625,-1.0135345458984375,-0.0218658447265625,-0.0173492431640625
1761479803724945400,2.7779453125,-1.0142669677734375,-0.0222930908203125,-0.0176849365234375
1761479803734981400,2.7879814453125,-1.0148162841796875,-0.02197265625,-0.0182952880859375
1761479803745017300,2.798017333984375,-1.0134429931640625,-0.0214080810546875,-0.01739501953125
1761479803755053300,2.80805322265625,-1.014007568359375,-0.022369384765625,-0.0177459716796875
1761479803765089300,2.81808935546875,-1.0145263671875,-0.0225677490234375,-0.01812744140625
1761479803775125200,2.828125244140625,-1.0135650634765625,-0.02105712890625,-0.0173492431640625
1761479803785161200,2.8381611328125,-1.0135498046875,-0.022125244140625,-0.0182037353515625
1761479803795197200,2.848197265625,-1.013702392578125,-0.02294921875,-0.017120361328125
1761479803805233200,2.858233154296875,-1.014801025390625,-0.02294921875,-0.0173797607421875
1761479803815268400,2.868268310546875,-1.0141754150390625,-0.02313232421875,-0.0174102783203125
1761479803825304300,2.87830419921875,-1.0146942138671875,-0.022430419921875,-0.0175933837890625
1761479803835340300,2.88834033203125,-1.014129638671875,-0.0212554931640625,-0.0172882080078125
1761479803845376300,2.898376220703125,-1.0142822265625,-0.021636962890625,-0.0177154541015625
1761479803855412200,2.908412109375,-1.014404296875,-0.0222015380859375,-0.017486572265625
1761479803865448200,2.9184482421875,-1.014251708984375,-0.021697998046875,-0.0172882080078125
1761479803875484200,2.928484130859375,-1.014251708984375,-0.0218353271484375,-0.0172576904296875
1761479803885520100,2.93852001953125,-1.0145721435546875,-0.0221710205078125,-0.0181732177734375
1761479803895555300,2.948555419921875,-1.01416015625,-0.0220947265625,-0.017486572265625
1761479803905591300,2.95859130859375,-1.01422119140625,-0.02191162109375,-0.016998291015625
1761479803915627300,2.968627197265625,-1.0133819580078125,-0.021942138671875,-0.0172882080078125
1761479803925663200,2.978663330078125,-1.013671875,-0.0223541259765625,-0.0171966552734375
1761479803935699200,2.98869921875,-1.0139312744140625,-0.0221710205078125,-0.0176849365234375
1761479803945735200,2.998735107421875,-1.0139312744140625,-0.022491455078125,-0.016815185546875
1761479803955771100,3.008771240234375,-1.0143585205078125,-0.0223236083984375,-0.0178070068359375
1761479803965807400,3.018807373046875,-1.013214111328125,-0.0220794677734375,-0.0182647705078125
1761479803975842300,3.02884228515625,-1.0137786865234375,-0.0225372314453125,-0.0169525146484375
1761479803985878300,3.038878173828125,-1.014251708984375,-0.0218048095703125,-0.0167999267578125
1761479803995914200,3.048914306640625,-1.0143280029296875,-0.02215576171875,-0.017333984375
1761479804005950200,3.0589501953125,-1.014068603515625,-0.022552490234375,-0.0175018310546875
1761479804015986400,3.068986328125,-1.0147552490234375,-0.0221405029296875,-0.0178680419921875
1761479804026022400,3.0790224609375,-1.0143585205078125,-0.0218963623046875,-0.017974853515625
1761479804036058400,3.089058349609375,-1.0146636962890625,-0.022216796875,-0.0165863037109375
1761479804046094300,3.09909423828125,-1.0151214599609375,-0.022003173828125,-0.0179901123046875
1761479804056130300,3.10913037109375,-1.0144805908203125,-0.0219573974609375,-0.0182342529296875
1761479804066165200,3.119165283203125,-1.0140533447265625,-0.02252197265625,-0.0167999267578125
1761479804076201500,3.129201416015625,-1.013580322265625,-0.0226898193359375,-0.016937255859375
1761479804086237400,3.139237548828125,-1.0139617919921875,-0.0224761962890625,-0.0171051025390625
1761479804096273400,3.1492734375,-1.0139312744140625,-0.02197265625,-0.017486572265625
1761479804106309400,3.159309326171875,-1.013763427734375,-0.02215576171875,-0.01702880859375
1761479804116345300,3.169345458984375,-1.0136260986328125,-0.022064208984375,-0.0175323486328125
1761479804126381300,3.17938134765625,-1.015411376953125,-0.021636962890625,-0.017791748046875
1761479804136417300,3.189417236328125,-1.0144805908203125,-0.0218505859375,-0.017578125
1761479804146452500,3.199452392578125,-1.012847900390625,-0.022613525390625,-0.0178680419921875
1761479804156488400,3.209488525390625,-1.0134429931640625,-0.0223541259765625,-0.0177154541015625
1761479804166524400,3.2195244140625,-1.0143585205078125,-0.0218658447265625,-0.0174102783203125
1761479804176560400,3.229560302734375,-1.0136566162109375,-0.0217437744140625,-0.0175323486328125
1761479804186596400,3.239596435546875,-1.0130157470703125,-0.0216064453125,-0.0171356201171875
1761479804196632300,3.24963232421875,-1.012939453125,-0.0222930908203125,-0.017333984375
1761479804206668300,3.259668212890625,-1.01397705078125,-0.0224151611328125,-0.0177154541015625
1761479804216704300,3.269704345703125,-1.0131988525390625,-0.0220184326171875,-0.017608642578125
1761479804226739500,3.279739501953125,-1.0142669677734375,-0.0224456787109375,-0.0175323486328125
1761479804236775400,3.289775390625,-1.014007568359375,-0.0220947265625,-0.01715087890625
1761479804246811400,3.299811279296875,-1.0137481689453125,-0.022125244140625,-0.0178375244140625
1761479804256847400,3.309847412109375,-1.013458251953125,-0.0218658447265625,-0.017913818359375
1761479804266883300,3.31988330078125,-1.0130615234375,-0.0218505859375,-0.01763916015625
1761479804276919300,3.329919189453125,-1.014251708984375,-0.0225677490234375,-0.0169525146484375
1761479804286955300,3.339955322265625,-1.013916015625,-0.022064208984375,-0.0171051025390625
1761479804296991200,3.3499912109375,-1.0141754150390625,-0.02215576171875,-0.0182037353515625
1761479804307026400,3.3600263671875,-1.01470947265625,-0.022308349609375,-0.0175018310546875
1761479804317062400,3.3700625,-1.0128173828125,-0.0215301513671875,-0.01715087890625
1761479804327098400,3.380098388671875,-1.0135040283203125,-0.02142333984375,-0.0175323486328125
1761479804337134300,3.39013427734375,-1.015838623046875,-0.0218505859375,-0.0173492431640625
1761479804347170600,3.400170654296875,-1.013641357421875,-0.021392822265625,-0.0170745849609375
1761479804357206500,3.41020654296875,-1.0135650634765625,-0.02264404296875,-0.017547607421875
1761479804367242500,3.420242431640625,-1.0138702392578125,-0.023223876953125,-0.0172119140625
1761479804377278500,3.430278564453125,-1.013763427734375,-0.021759033203125,-0.0170745849609375
1761479804387313700,3.440313720703125,-1.014312744140625,-0.0218048095703125,-0.01788330078125
1761479804397349600,3.450349609375,-1.0142059326171875,-0.022003173828125,-0.0172882080078125
1761479804407385600,3.460385498046875,-1.0134429931640625,-0.0226593017578125,-0.0176544189453125
1761479804417421600,3.470421630859375,-1.01458740234375,-0.021759033203125,-0.0167999267578125
1761479804427457500,3.48045751953125,-1.013275146484375,-0.02142333984375,-0.0180816650390625
1761479804437493500,3.490493408203125,-1.01373291015625,-0.0214691162109375,-0.01806640625
1761479804447529500,3.500529541015625,-1.013885498046875,-0.0224151611328125,-0.0173492431640625
1761479804457565400,3.5105654296875,-1.0138092041015625,-0.0214691162109375,-0.0174560546875
1761479804467600600,3.5206005859375,-1.012969970703125,-0.02215576171875,-0.0172882080078125
1761479804477636600,3.53063671875,-1.01422119140625,-0.02301025390625,-0.0175323486328125
1761479804487672600,3.540672607421875,-1.0138397216796875,-0.022430419921875,-0.01763916015625
1761479804497708500,3.55070849609375,-1.0131988525390625,-0.023193359375,-0.016571044921875
1761479804507744500,3.56074462890625,-1.01397705078125,-0.0214996337890625,-0.01763916015625
1761479804517780500,3.570780517578125,-1.0137786865234375,-0.02252197265625,-0.0186004638671875
1761479804527816400,3.58081640625,-1.0143280029296875,-0.023345947265625,-0.0180511474609375
1761479804537852400,3.590852294921875,-1.0144805908203125,-0.02227783203125,-0.0179595947265625
1761479804547887600,3.6008876953125,-1.01287841796875,-0.02203369140625,-0.01727294921875
1761479804557923600,3.610923583984375,-1.0140533447265625,-0.022979736328125,-0.0171661376953125
1761479804567959600,3.62095947265625,-1.0142669677734375,-0.02239990234375,-0.0176544189453125
1761479804577995500,3.63099560546875,-1.0137176513671875,-0.022369384765625,-0.01739501953125
1761479804588031500,3.641031494140625,-1.013336181640625,-0.021636962890625,-0.01776123046875
1761479804598067500,3.6510673828125,-1.0141448974609375,-0.0214080810546875,-0.017242431640625
1761479804608103400,3.661103515625,-1.0138702392578125,-0.021728515625,-0.017181396484375
1761479804618139400,3.671139404296875,-1.013519287109375,-0.022186279296875,-0.0174560546875
1761479804628174600,3.681174560546875,-1.0140380859375,-0.02227783203125,-0.0181884765625
1761479804638210600,3.69121044921875,-1.014007568359375,-0.0222015380859375,-0.0184173583984375
1761479804648246500,3.70124658203125,-1.013824462890625,-0.0218353271484375,-0.01806640625
1761479804658282500,3.711282470703125,-1.0133819580078125,-0.022552490234375,-0.017364501953125
1761479804668318500,3.721318359375,-1.0132904052734375,-0.0221710205078125,-0.016448974609375
1761479804678354400,3.7313544921875,-1.0142822265625,-0.0221710205078125,-0.0172119140625
1761479804688390400,3.741390380859375,-1.013885498046875,-0.020751953125,-0.0178070068359375
1761479804698426400,3.75142626953125,-1.013763427734375,-0.0225677490234375,-0.017791748046875
1761479804708461600,3.761461669921875,-1.01507568359375,-0.021881103515625,-0.0174407958984375
1761479804718497500,3.77149755859375,-1.0137481689453125,-0.022857666015625,-0.0176544189453125
1761479804728533500,3.781533447265625,-1.0138092041015625,-0.021484375,-0.0176544189453125
1761479804738569500,3.791569580078125,-1.014190673828125,-0.0218963623046875,-0.0171051025390625
1761479804748605400,3.80160546875,-1.0135345458984375,-0.023101806640625,-0.01806640625
1761479804758641400,3.811641357421875,-1.0136871337890625,-0.022918701171875,-0.0171356201171875
1761479804768677400,3.821677490234375,-1.0138397216796875,-0.022186279296875,-0.0169525146484375
1761479804778713300,3.83171337890625,-1.0127716064453125,-0.021240234375,-0.017425537109375
1761479804788748500,3.84174853515625,-1.0129241943359375,-0.0219879150390625,-0.018310546875
1761479804798784500,3.851784423828125,-1.013671875,-0.0222930908203125,-0.0182647705078125
1761479804808820500,3.861820556640625,-1.012969970703125,-0.0226898193359375,-0.0177459716796875
1761479804818856400,3.8718564453125,-1.0129241943359375,-0.02166748046875,-0.017822265625
1761479804828892400,3.881892333984375,-1.013336181640625,-0.022186279296875,-0.0176239013671875
1761479804838928400,3.891928466796875,-1.0137939453125,-0.0223388671875,-0.0179443359375
1761479804848964600,3.901964599609375,-1.0134735107421875,-0.022369384765625,-0.0174102783203125
1761479804859000600,3.91200048828125,-1.0135345458984375,-0.021728515625,-0.0171051025390625
1761479804869035500,3.922035400390625,-1.0141754150390625,-0.022796630859375,-0.016815185546875
1761479804879071500,3.932071533203125,-1.01483154296875,-0.02197265625,-0.0172271728515625
1761479804889107500,3.942107421875,-1.01397705078125,-0.0226287841796875,-0.0173797607421875
1761479804899143400,3.952143310546875,-1.01495361328125,-0.0218505859375,-0.0180511474609375
1761479804909179600,3.9621796875,-1.0135955810546875,-0.021636962890625,-0.0176239013671875
1761479804919215600,3.972215576171875,-1.01373291015625,-0.0221405029296875,-0.0181121826171875
1761479804929251600,3.98225146484375,-1.01287841796875,-0.0225067138671875,-0.01727294921875
1761479804939286500,3.99228662109375,-1.0142669677734375,-0.02178955078125,-0.0174560546875
1761479804949321500,4.002321533203125,-1.0150604248046875,-0.0214080810546875,-0.018402099609375
1761479804959357400,4.012357421875,-1.0138702392578125,-0.022735595703125,-0.017913818359375
1761479804969393400,4.022393310546875,-1.013641357421875,-0.0225067138671875,-0.0177154541015625
1761479804979429400,4.032429443359375,-1.0141448974609375,-0.022613525390625,-0.017913818359375
1761479804989464600,4.042464599609375,-1.0130767822265625,-0.021697998046875,-0.01812744140625
1761479804999500500,4.05250048828125,-1.0137939453125,-0.0217132568359375,-0.0175628662109375
1761479805009536500,4.06253662109375,-1.0145721435546875,-0.0229034423828125,-0.017333984375
1761479805019572500,4.072572509765625,-1.013946533203125,-0.023040771484375,-0.01751708984375
1761479805029608400,4.0826083984375,-1.013671875,-0.022125244140625,-0.016754150390625
1761479805039644400,4.09264453125,-1.01397705078125,-0.0225372314453125,-0.0176544189453125
1761479805049680400,4.102680419921875,-1.013031005859375,-0.023101806640625,-0.017120361328125
1761479805059716400,4.11271630859375,-1.0132904052734375,-0.0224761962890625,-0.017669677734375
1761479805069751600,4.12275146484375,-1.013885498046875,-0.0221405029296875,-0.0168914794921875
1761479805079787500,4.13278759765625,-1.0137939453125,-0.02154541015625,-0.017791748046875
1761479805089823500,4.142823486328125,-1.0141754150390625,-0.0226287841796875,-0.0181884765625
1761479805099859500,4.152859375,-1.014007568359375,-0.0223388671875,-0.0167999267578125
1761479805109895400,4.1628955078125,-1.0142974853515625,-0.02203369140625,-0.017913818359375
1761479805119931400,4.172931396484375,-1.01348876953125,-0.0221405029296875,-0.0179901123046875
1761479805129967600,4.182967529296875,-1.013946533203125,-0.0219573974609375,-0.0176544189453125
1761479805140002600,4.19300244140625,-1.013275146484375,-0.0217132568359375,-0.017791748046875
1761479805150038500,4.20303857421875,-1.013885498046875,-0.0220489501953125,-0.0175323486328125
1761479805160074500,4.213074462890625,-1.013824462890625,-0.021728515625,-0.01788330078125
1761479805170110500,4.2231103515625,-1.014678955078125,-0.0215606689453125,-0.0170440673828125
1761479805180146400,4.233146484375,-1.0139312744140625,-0.0219268798828125,-0.0174560546875
1761479805190182700,4.2431826171875,-1.014617919921875,-0.0219879150390625,-0.0164794921875
1761479805200218600,4.253218505859375,-1.0135040283203125,-0.0228271484375,-0.017242431640625
1761479805210254600,4.263254638671875,-1.014495849609375,-0.0223846435546875,-0.0178375244140625
1761479805220289500,4.27328955078125,-1.0135498046875,-0.0229339599609375,-0.0173492431640625
1761479805230325500,4.283325439453125,-1.014617919921875,-0.0224151611328125,-0.0183563232421875
1761479805240361700,4.29336181640625,-1.014129638671875,-0.0222015380859375,-0.0175933837890625
1761479805250397700,4.303397705078125,-1.0129852294921875,-0.022430419921875,-0.017120361328125
1761479805260433700,4.31343359375,-1.0133056640625,-0.0218505859375,-0.0170745849609375
1761479805270469600,4.3234697265625,-1.01434326171875,-0.0216217041015625,-0.01702880859375
1761479805280505600,4.333505615234375,-1.013671875,-0.0224761962890625,-0.0173492431640625
1761479805290540500,4.34354052734375,-1.01446533203125,-0.0224151611328125,-0.017486572265625
1761479805300576800,4.35357666015625,-1.01446533203125,-0.0220794677734375,-0.0177154541015625
1761479805310612700,4.36361279296875,-1.0143280029296875,-0.0223236083984375,-0.0175323486328125
1761479805320648700,4.373648681640625,-1.0143280029296875,-0.022216796875,-0.017333984375
1761479805330684700,4.3836845703125,-1.013671875,-0.021636962890625,-0.017181396484375
1761479805340720600,4.393720703125,-1.014007568359375,-0.021240234375,-0.0176849365234375
1761479805350756600,4.403756591796875,-1.01312255859375,-0.0226593017578125,-0.017364501953125
1761479805360792600,4.41379248046875,-1.0146636962890625,-0.021881103515625,-0.0177154541015625
1761479805370827800,4.423827880859375,-1.0143280029296875,-0.0218353271484375,-0.01739501953125
1761479805380863700,4.43386376953125,-1.013336181640625,-0.0223541259765625,-0.017059326171875
1761479805390899700,4.443899658203125,-1.0141754150390625,-0.0221405029296875,-0.017120361328125
1761479805400935700,4.453935791015625,-1.0147857666015625,-0.02191162109375,-0.0173187255859375
1761479805410971600,4.4639716796875,-1.0135040283203125,-0.0220947265625,-0.0176239013671875
1761479805421007600,4.474007568359375,-1.013519287109375,-0.02215576171875,-0.0175933837890625
1761479805431043600,4.484043701171875,-1.0146484375,-0.0224151611328125,-0.01763916015625
1761479805441078800,4.494078857421875,-1.01416015625,-0.02215576171875,-0.017242431640625
1761479805451114800,4.50411474609375,-1.0128631591796875,-0.022216796875,-0.016998291015625
1761479805461150700,4.514150634765625,-1.0135345458984375,-0.0219879150390625,-0.017303466796875
1761479805471186700,4.524186767578125,-1.0130462646484375,-0.022064208984375,-0.0176239013671875
1761479805481222700,4.53422265625,-1.0142364501953125,-0.0223541259765625,-0.0175323486328125
1761479805491258600,4.544258544921875,-1.0138092041015625,-0.0222625732421875,-0.018585205078125
1761479805501294600,4.554294677734375,-1.013580322265625,-0.0217742919921875,-0.0174713134765625
1761479805511330600,4.56433056640625,-1.0136871337890625,-0.0217437744140625,-0.0178680419921875
1761479805521365800,4.57436572265625,-1.0132598876953125,-0.0225830078125,-0.0177001953125
1761479805531402500,4.584402587890625,-1.013580322265625,-0.0216064453125,-0.017822265625
1761479805541438500,4.5944384765625,-1.013580322265625,-0.022064208984375,-0.0168304443359375
1761479805551474700,4.604474609375,-1.012542724609375,-0.0223846435546875,-0.0172576904296875
1761479805561510700,4.6145107421875,-1.012908935546875,-0.0216217041015625,-0.0184478759765625
1761479805571546600,4.624546630859375,-1.0145721435546875,-0.02215576171875,-0.0172882080078125
1761479805581582600,4.63458251953125,-1.013671875,-0.0216522216796875,-0.0174560546875
1761479805591617500,4.644617431640625,-1.012664794921875,-0.0209503173828125,-0.0176849365234375
1761479805601653500,4.654653564453125,-1.0142974853515625,-0.022003173828125,-0.017364501953125
1761479805611689500,4.664689453125,-1.0135955810546875,-0.0211334228515625,-0.0171966552734375
1761479805621725400,4.674725341796875,-1.01300048828125,-0.0220489501953125,-0.0177459716796875
1761479805631761700,4.68476171875,-1.014007568359375,-0.0209808349609375,-0.017791748046875
1761479805641797600,4.694797607421875,-1.015228271484375,-0.0218505859375,-0.0173797607421875
1761479805651833600,4.70483349609375,-1.013458251953125,-0.021820068359375,-0.017120361328125
1761479805661869600,4.71486962890625,-1.013458251953125,-0.0220947265625,-0.017669677734375
1761479805671904500,4.724904541015625,-1.012725830078125,-0.022186279296875,-0.0174407958984375
1761479805681940500,4.7349404296875,-1.0138702392578125,-0.022064208984375,-0.017669677734375
1761479805691976400,4.7449765625,-1.0150909423828125,-0.0234832763671875,-0.01763916015625
1761479805702012400,4.755012451171875,-1.0138092041015625,-0.0216827392578125,-0.01812744140625
1761479805712048600,4.765048583984375,-1.0135955810546875,-0.020965576171875,-0.0178070068359375
1761479805722084600,4.775084716796875,-1.0136260986328125,-0.02227783203125,-0.017669677734375
1761479805732120600,4.78512060546875,-1.013031005859375,-0.021759033203125,-0.0178985595703125
1761479805742156500,4.795156494140625,-1.0136260986328125,-0.0223541259765625,-0.0175018310546875
1761479805752191500,4.80519140625,-1.0142364501953125,-0.0219573974609375,-0.0174713134765625
1761479805762227500,4.8152275390625,-1.0136871337890625,-0.0222015380859375,-0.01800537109375
1761479805772263400,4.825263427734375,-1.0126190185546875,-0.022369384765625,-0.017578125
1761479805782299400,4.83529931640625,-1.0136260986328125,-0.0218963623046875,-0.017181396484375
1761479805792335600,4.845335693359375,-1.01446533203125,-0.0225982666015625,-0.0171966552734375
1761479805802371600,4.85537158203125,-1.01324462890625,-0.0215606689453125,-0.0172119140625
1761479805812407600,4.865407470703125,-1.013397216796875,-0.021636962890625,-0.017425537109375
1761479805822443500,4.875443603515625,-1.0140533447265625,-0.0225830078125,-0.017974853515625
1761479805832478500,4.885478515625,-1.01416015625,-0.0222320556640625,-0.0171966552734375
1761479805842514400,4.895514404296875,-1.01275634765625,-0.0223236083984375,-0.017669677734375
1761479805852550400,4.90555029296875,-1.01409912109375,-0.0219268798828125,-0.018218994140625
1761479805862586600,4.915586669921875,-1.012969970703125,-0.02178955078125,-0.01788330078125
1761479805872622600,4.92562255859375,-1.0135498046875,-0.02203369140625,-0.0171661376953125
1761479805882658600,4.935658447265625,-1.014892578125,-0.020538330078125,-0.01690673828125
1761479805892694500,4.945694580078125,-1.0136871337890625,-0.0220947265625,-0.0169219970703125
1761479805902730500,4.95573046875,-1.01361083984375,-0.0219879150390625,-0.0176239013671875
1761479805912765400,4.965765380859375,-1.0135345458984375,-0.0225982666015625,-0.0172576904296875
1761479805922801400,4.975801513671875,-1.012481689453125,-0.02288818359375,-0.0173187255859375
1761479805932837400,4.98583740234375,-1.0129547119140625,-0.021820068359375,-0.017486572265625
1761479805942873600,4.99587353515625,-1.0135345458984375,-0.0216217041015625,-0.0170135498046875
1761479805952909600,5.00590966796875,-1.01300048828125,-0.022125244140625,-0.017303466796875
1761479805962945500,5.015945556640625,-1.0134124755859375,-0.0214080810546875,-0.017303466796875
1761479805972981800,5.025981689453125,-1.0139007568359375,-0.02197265625,-0.0172271728515625
1761479805983017700,5.036017822265625,-1.0141448974609375,-0.022247314453125,-0.017303466796875
1761479805993052400,5.046052490234375,-1.0136566162109375,-0.0231781005859375,-0.0178680419921875
1761479806003088400,5.05608837890625,-1.01348876953125,-0.022186279296875,-0.0178070068359375
1761479806013124400,5.066124267578125,-1.01409912109375,-0.0223236083984375,-0.0164947509765625
1761479806023160600,5.07616064453125,-1.0151214599609375,-0.0220794677734375,-0.0170745849609375
1761479806033196800,5.08619677734375,-1.0139312744140625,-0.022186279296875,-0.0169677734375
1761479806043232800,5.096232666015625,-1.0135650634765625,-0.021148681640625,-0.0174102783203125
1761479806053268700,5.106268798828125,-1.014007568359375,-0.0214996337890625,-0.0169219970703125
1761479806063304700,5.1163046875,-1.0134735107421875,-0.02191162109375,-0.017730712890625
1761479806073339400,5.12633935546875,-1.0125732421875,-0.02264404296875,-0.0176849365234375
1761479806083375600,5.136375732421875,-1.0138702392578125,-0.0220794677734375,-0.0181884765625
1761479806093411600,5.14641162109375,-1.013397216796875,-0.0218963623046875,-0.01763916015625
1761479806103447600,5.156447509765625,-1.0145721435546875,-0.0228729248046875,-0.017730712890625
1761479806113483800,5.16648388671875,-1.013671875,-0.02191162109375,-0.0178375244140625
1761479806123519700,5.176519775390625,-1.01318359375,-0.0221099853515625,-0.0179443359375
1761479806133555700,5.1865556640625,-1.012969970703125,-0.0227813720703125,-0.017791748046875
1761479806143590700,5.196590576171875,-1.013702392578125,-0.022735595703125,-0.0167083740234375
1761479806153626600,5.206626708984375,-1.0129241943359375,-0.0221405029296875,-0.0180511474609375
1761479806163662600,5.21666259765625,-1.0135498046875,-0.0224609375,-0.01715087890625
1761479806173698600,5.226698486328125,-1.012969970703125,-0.0212860107421875,-0.0174407958984375
1761479806183734500,5.236734619140625,-1.01361083984375,-0.021942138671875,-0.0175628662109375
1761479806193770800,5.246770751953125,-1.014434814453125,-0.022125244140625,-0.0174407958984375
1761479806203806700,5.256806640625,-1.0136871337890625,-0.0216217041015625,-0.0176239013671875
1761479806213842700,5.2668427734375,-1.0141143798828125,-0.0212554931640625,-0.0173492431640625
1761479806223878700,5.276878662109375,-1.01434326171875,-0.0228271484375,-0.0172119140625
1761479806233913600,5.28691357421875,-1.0133514404296875,-0.0223846435546875,-0.017913818359375
1761479806243949600,5.296949462890625,-1.01434326171875,-0.021820068359375,-0.0186614990234375
1761479806253985500,5.306985595703125,-1.0131683349609375,-0.0217437744140625,-0.0175933837890625
1761479806264021800,5.317021728515625,-1.01361083984375,-0.0223541259765625,-0.017669677734375
1761479806274057700,5.3270576171875,-1.0131378173828125,-0.02178955078125,-0.0177459716796875
1761479806284093700,5.33709375,-1.01373291015625,-0.0225982666015625,-0.0178070068359375
1761479806294129700,5.347129638671875,-1.0135498046875,-0.0216827392578125,-0.017486572265625
1761479806304164600,5.35716455078125,-1.0135650634765625,-0.0223236083984375,-0.017578125
1761479806314200600,5.36720068359375,-1.014739990234375,-0.0221405029296875,-0.0171051025390625
1761479806324236500,5.377236572265625,-1.0145416259765625,-0.022674560546875,-0.017120361328125
1761479806334272500,5.3872724609375,-1.0140533447265625,-0.022369384765625,-0.01806640625
1761479806344308700,5.397308837890625,-1.0130615234375,-0.022369384765625,-0.01751708984375
1761479806354344200,5.40734423828125,-1.01434326171875,-0.0223236083984375,-0.01666259765625
1761479806364380200,5.417380126953125,-1.0135345458984375,-0.022186279296875,-0.0172119140625
1761479806374416100,5.427416015625,-1.0148468017578125,-0.021942138671875,-0.0173187255859375
1761479806384451000,5.437451171875,-1.01397705078125,-0.02178955078125,-0.017852783203125
1761479806394487000,5.447487060546875,-1.01416015625,-0.022796630859375,-0.0175323486328125
1761479806404523000,5.45752294921875,-1.0150299072265625,-0.022491455078125,-0.0171966552734375
1761479806414559200,5.467559326171875,-1.0144195556640625,-0.02203369140625,-0.0173492431640625
1761479806424595200,5.47759521484375,-1.0135955810546875,-0.0222320556640625,-0.0173797607421875
1761479806434631200,5.487631103515625,-1.0139312744140625,-0.022308349609375,-0.0175323486328125
1761479806444667100,5.497667236328125,-1.0143585205078125,-0.0222930908203125,-0.01812744140625
1761479806454703000,5.507703125,-1.0147857666015625,-0.022216796875,-0.017242431640625
1761479806464738000,5.517738037109375,-1.0139923095703125,-0.0214080810546875,-0.0180206298828125
1761479806474774000,5.52777392578125,-1.0136566162109375,-0.0222015380859375,-0.018157958984375
1761479806484810200,5.537810302734375,-1.01409912109375,-0.02142333984375,-0.01702880859375
1761479806494846200,5.54784619140625,-1.014007568359375,-0.022979736328125,-0.0176239013671875
1761479806504882200,5.557882080078125,-1.0142974853515625,-0.021942138671875,-0.0175628662109375
1761479806514918100,5.567918212890625,-1.0130767822265625,-0.0218505859375,-0.0168914794921875
1761479806524954000,5.5779541015625,-1.0146026611328125,-0.022186279296875,-0.017181396484375
1761479806534990300,5.587990234375,-1.01416015625,-0.0211334228515625,-0.0172119140625
1761479806545025000,5.59802490234375,-1.01416015625,-0.02130126953125,-0.0176239013671875
1761479806555061000,5.60806103515625,-1.013824462890625,-0.022430419921875,-0.017608642578125
1761479806565097200,5.61809716796875,-1.0140838623046875,-0.0227508544921875,-0.0173797607421875
1761479806575133200,5.62813330078125,-1.013458251953125,-0.0218658447265625,-0.017852783203125
1761479806585169400,5.63816943359375,-1.0130615234375,-0.0223846435546875,-0.017578125
1761479806595205400,5.648205322265625,-1.01373291015625,-0.0223236083984375,-0.017425537109375
1761479806605241300,5.658241455078125,-1.013702392578125,-0.022125244140625,-0.017547607421875
1761479806615277300,5.66827734375,-1.0140228271484375,-0.022064208984375,-0.0179290771484375
1761479806625312000,5.67831201171875,-1.0134429931640625,-0.0216522216796875,-0.017486572265625
1761479806635348000,5.688347900390625,-1.0151214599609375,-0.0215606689453125,-0.017822265625
1761479806645384200,5.69838427734375,-1.014190673828125,-0.022003173828125,-0.01788330078125
1761479806655420400,5.70842041015625,-1.0142974853515625,-0.0220184326171875,-0.0180816650390625
1761479806665456400,5.718456298828125,-1.0145263671875,-0.0214691162109375,-0.0175933837890625
1761479806675492400,5.728492431640625,-1.0143280029296875,-0.0218353271484375,-0.0171356201171875
1761479806685528300,5.7385283203125,-1.01336669921875,-0.022430419921875,-0.0172119140625
1761479806695563300,5.748563232421875,-1.0129547119140625,-0.021392822265625,-0.018157958984375
1761479806705599200,5.75859912109375,-1.01409912109375,-0.021484375,-0.0172271728515625
1761479806715635200,5.76863525390625,-1.013671875,-0.022125244140625,-0.0172882080078125
1761479806725671200,5.778671142578125,-1.012603759765625,-0.0229949951171875,-0.0177001953125
1761479806735707400,5.788707275390625,-1.0136260986328125,-0.0222015380859375,-0.0178070068359375
1761479806745743400,5.798743408203125,-1.0134124755859375,-0.022247314453125,-0.0171966552734375
1761479806755779300,5.808779296875,-1.014404296875,-0.0230255126953125,-0.0171356201171875
1761479806765815300,5.818815185546875,-1.0149688720703125,-0.02215576171875,-0.0172119140625
1761479806775850200,5.828850341796875,-1.013458251953125,-0.022613525390625,-0.0172271728515625
1761479806785886200,5.83888623046875,-1.0136871337890625,-0.021697998046875,-0.0180816650390625
1761479806795922200,5.848922119140625,-1.01361083984375,-0.021759033203125,-0.017822265625
1761479806805958100,5.858958251953125,-1.012939453125,-0.022003173828125,-0.0176239013671875
1761479806815994400,5.868994384765625,-1.0140380859375,-0.0223236083984375,-0.0173187255859375
1761479806826030300,5.8790302734375,-1.0133056640625,-0.021575927734375,-0.0174560546875
1761479806836066300,5.88906640625,-1.0136260986328125,-0.021636962890625,-0.0170440673828125
1761479806846102300,5.899102294921875,-1.01318359375,-0.0222930908203125,-0.0174560546875
1761479806856137200,5.90913720703125,-1.013702392578125,-0.021881103515625,-0.018280029296875
1761479806866173200,5.919173095703125,-1.0142364501953125,-0.0214996337890625,-0.0177001953125
1761479806876209200,5.929209228515625,-1.014251708984375,-0.02215576171875,-0.0174102783203125
1761479806886245400,5.939245361328125,-1.0137481689453125,-0.0226287841796875,-0.0181121826171875
1761479806896281300,5.94928125,-1.01507568359375,-0.02227783203125,-0.0180511474609375
1761479806906317300,5.9593173828125,-1.0139312744140625,-0.0227508544921875,-0.017608642578125
1761479806916353300,5.969353271484375,-1.012939453125,-0.0222015380859375,-0.0174407958984375
1761479806926388200,5.97938818359375,-1.013885498046875,-0.022003173828125,-0.017547607421875
1761479806936424200,5.989424072265625,-1.01348876953125,-0.022735595703125,-0.0177154541015625
1761479806946460200,5.999460205078125,-1.0135955810546875,-0.0224761962890625,-0.017547607421875
1761479806956496100,6.00949609375,-1.0141448974609375,-0.02166748046875,-0.0177764892578125
1761479806966532400,6.019532470703125,-1.0139007568359375,-0.022216796875,-0.01776123046875
1761479806976568300,6.029568359375,-1.01397705078125,-0.0228424072265625,-0.01727294921875
1761479806986604300,6.039604248046875,-1.013885498046875,-0.0225372314453125,-0.01788330078125
1761479806996640300,6.04964013671875,-1.0145263671875,-0.0209808349609375,-0.017364501953125
1761479807006675200,6.05967529296875,-1.014251708984375,-0.022796630859375,-0.0173797607421875
1761479807016711200,6.069711181640625,-1.0145263671875,-0.0227203369140625,-0.01666259765625
1761479807026747100,6.0797470703125,-1.015167236328125,-0.022247314453125,-0.01806640625
1761479807036783000,6.089783203125,-1.01361083984375,-0.0218048095703125,-0.017578125
1761479807046819300,6.0998193359375,-1.013519287109375,-0.02154541015625,-0.01702880859375
1761479807056855300,6.109855224609375,-1.014251708984375,-0.0221710205078125,-0.01708984375
1761479807066891300,6.119891357421875,-1.013641357421875,-0.021820068359375,-0.017364501953125
1761479807076926200,6.12992626953125,-1.0132904052734375,-0.0225372314453125,-0.0173492431640625
1761479807086962200,6.139962158203125,-1.01397705078125,-0.0221099853515625,-0.0171356201171875
1761479807096998100,6.149998046875,-1.01373291015625,-0.0216064453125,-0.018035888671875
1761479807107034000,6.1600341796875,-1.0135345458984375,-0.0220489501953125,-0.0174407958984375
1761479807117070000,6.170070068359375,-1.01409912109375,-0.02252197265625,-0.0171966552734375
1761479807127106300,6.180106201171875,-1.0138702392578125,-0.022735595703125,-0.0173492431640625
1761479807137142300,6.190142333984375,-1.01416015625,-0.021392822265625,-0.0179901123046875
1761479807147178200,6.20017822265625,-1.0141143798828125,-0.0218963623046875,-0.01751708984375
1761479807157213200,6.210213134765625,-1.014190673828125,-0.0220947265625,-0.017608642578125
1761479807167249200,6.220249267578125,-1.0131683349609375,-0.0226593017578125,-0.0171966552734375
1761479807177285000,6.23028515625,-1.0131378173828125,-0.0225372314453125,-0.017608642578125
1761479807187321000,6.240321044921875,-1.0141143798828125,-0.02203369140625,-0.0177001953125
1761479807197357000,6.250357177734375,-1.0145111083984375,-0.02227783203125,-0.0173187255859375
1761479807207393300,6.260393310546875,-1.01458740234375,-0.021881103515625,-0.017852783203125
1761479807217429200,6.27042919921875,-1.0139617919921875,-0.0222625732421875,-0.017486572265625
1761479807227464200,6.280464111328125,-1.0147552490234375,-0.022552490234375,-0.017333984375
1761479807237500200,6.290500244140625,-1.0140380859375,-0.02142333984375,-0.01776123046875
1761479807247536000,6.3005361328125,-1.0137481689453125,-0.0225677490234375,-0.0170745849609375
1761479807257572000,6.310572021484375,-1.013946533203125,-0.0229644775390625,-0.017730712890625
1761479807267608000,6.320608154296875,-1.0133209228515625,-0.021820068359375,-0.017791748046875
1761479807277644000,6.33064404296875,-1.014068603515625,-0.02227783203125,-0.0177764892578125
1761479807287680300,6.34068017578125,-1.0150909423828125,-0.0220947265625,-0.0174407958984375
1761479807297715200,6.350715087890625,-1.0140380859375,-0.022735595703125,-0.017852783203125
1761479807307751200,6.360751220703125,-1.013824462890625,-0.0224151611328125,-0.0178680419921875
1761479807317787100,6.370787109375,-1.014312744140625,-0.022216796875,-0.0171356201171875
1761479807327823000,6.380822998046875,-1.0143280029296875,-0.022247314453125,-0.017303466796875
1761479807337859000,6.390859130859375,-1.0138702392578125,-0.02154541015625,-0.0176239013671875
1761479807347895000,6.40089501953125,-1.0145721435546875,-0.0216217041015625,-0.0172271728515625
1761479807357931000,6.410930908203125,-1.0144195556640625,-0.022308349609375,-0.0175323486328125
1761479807367967000,6.420967041015625,-1.014068603515625,-0.0223846435546875,-0.0179290771484375
1761479807378002000,6.431001953125,-1.0145416259765625,-0.0216217041015625,-0.0174560546875
1761479807388038000,6.441037841796875,-1.013702392578125,-0.021881103515625,-0.016937255859375
1761479807398073900,6.451073974609375,-1.0141448974609375,-0.0224609375,-0.0175323486328125
1761479807408109800,6.46110986328125,-1.01458740234375,-0.021820068359375,-0.017822265625
1761479807418145800,6.471145751953125,-1.0135345458984375,-0.0218658447265625,-0.0164337158203125
1761479807428181800,6.481181640625,-1.014007568359375,-0.0216064453125,-0.017120361328125
1761479807438218000,6.491218017578125,-1.012847900390625,-0.0218963623046875,-0.0174102783203125
1761479807448253000,6.5012529296875,-1.0135650634765625,-0.0226898193359375,-0.0177764892578125
1761479807458289000,6.511288818359375,-1.0142364501953125,-0.02203369140625,-0.0184478759765625
1761479807468324900,6.521324951171875,-1.014892578125,-0.02239990234375,-0.01739501953125
1761479807478360800,6.53136083984375,-1.0142669677734375,-0.020721435546875,-0.017303466796875
1761479807488396800,6.541396728515625,-1.0131378173828125,-0.0215911865234375,-0.0174560546875
1761479807498432800,6.551432861328125,-1.0147705078125,-0.022186279296875,-0.016815185546875
1761479807508469000,6.561468994140625,-1.01434326171875,-0.022674560546875,-0.016754150390625
1761479807518504000,6.57150390625,-1.01348876953125,-0.0222320556640625,-0.0178070068359375
1761479807528540000,6.581539794921875,-1.01312255859375,-0.02264404296875,-0.017242431640625
1761479807538576000,6.591575927734375,-1.01373291015625,-0.0223236083984375,-0.01800537109375
1761479807548611800,6.60161181640625,-1.0143280029296875,-0.021697998046875,-0.0174102783203125
1761479807558647800,6.611647705078125,-1.0137939453125,-0.02197265625,-0.016754150390625
1761479807568683800,6.621683837890625,-1.0142364501953125,-0.0216217041015625,-0.01763916015625
1761479807578719700,6.6317197265625,-1.0137481689453125,-0.0223541259765625,-0.0178070068359375
1761479807588756000,6.641755859375,-1.0152130126953125,-0.0221710205078125,-0.0171356201171875
1761479807598791000,6.651791015625,-1.0138702392578125,-0.0224609375,-0.017303466796875
1761479807608827000,6.661826904296875,-1.01446533203125,-0.0224609375,-0.0169525146484375
1761479807618862800,6.67186279296875,-1.01495361328125,-0.0223236083984375,-0.0182952880859375
1761479807628898800,6.68189892578125,-1.0146942138671875,-0.0234375,-0.0183868408203125
1761479807638934800,6.691934814453125,-1.01470947265625,-0.0219879150390625,-0.01666259765625
1761479807648970800,6.701970703125,-1.0154266357421875,-0.0218048095703125,-0.01739501953125
1761479807659006700,6.7120068359375,-1.0150909423828125,-0.0222625732421875,-0.01751708984375
1761479807669042000,6.7220419921875,-1.013580322265625,-0.02166748046875,-0.0170745849609375
1761479807679078000,6.732077880859375,-1.01409912109375,-0.021453857421875,-0.0179595947265625
1761479807689113900,6.74211376953125,-1.0132293701171875,-0.0228424072265625,-0.017913818359375
1761479807699149800,6.75214990234375,-1.013336181640625,-0.0230255126953125,-0.018035888671875
1761479807709185800,6.762185791015625,-1.013885498046875,-0.0225067138671875,-0.0174560546875
1761479807719221800,6.7722216796875,-1.0143585205078125,-0.02191162109375,-0.0175018310546875
1761479807729258000,6.782258056640625,-1.0146026611328125,-0.022247314453125,-0.0171356201171875
1761479807739293000,6.79229296875,-1.012969970703125,-0.0229034423828125,-0.0171661376953125
1761479807749329000,6.802328857421875,-1.014312744140625,-0.0220947265625,-0.0171051025390625
1761479807759364900,6.81236474609375,-1.01373291015625,-0.021820068359375,-0.0170745849609375
1761479807769400800,6.82240087890625,-1.013153076171875,-0.02215576171875,-0.0168914794921875
1761479807779437000,6.83243701171875,-1.013336181640625,-0.0220794677734375,-0.01708984375
1761479807789473000,6.84247314453125,-1.013275146484375,-0.0218353271484375,-0.017333984375
1761479807799509000,6.852509033203125,-1.0131378173828125,-0.02178955078125,-0.0178985595703125
1761479807809544000,6.8625439453125,-1.0128173828125,-0.022491455078125,-0.01763916015625
1761479807819580000,6.872579833984375,-1.013427734375,-0.0218048095703125,-0.0167999267578125
1761479807829615900,6.882615966796875,-1.014129638671875,-0.0222625732421875,-0.017242431640625
1761479807839652000,6.892652099609375,-1.0130157470703125,-0.0231475830078125,-0.017333984375
1761479807849688000,6.90268798828125,-1.0149383544921875,-0.02276611328125,-0.0176544189453125
1761479807859724000,6.91272412109375,-1.013641357421875,-0.0224761962890625,-0.0178375244140625
1761479807869760000,6.922760009765625,-1.013458251953125,-0.021881103515625,-0.0173797607421875
1761479807879795000,6.932794921875,-1.0137939453125,-0.0210418701171875,-0.0171356201171875
1761479807889831200,6.9428310546875,-1.0135040283203125,-0.0216064453125,-0.017791748046875
1761479807899867100,6.9528671875,-1.01531982421875,-0.0215301513671875,-0.0172882080078125
1761479807909903000,6.962903076171875,-1.013885498046875,-0.022308349609375,-0.0175933837890625
1761479807919939000,6.97293896484375,-1.0139923095703125,-0.021453857421875,-0.0165252685546875
1761479807929975000,6.98297509765625,-1.0140838623046875,-0.022186279296875,-0.0171966552734375
1761479807940011000,6.993010986328125,-1.01483154296875,-0.0220794677734375,-0.01763916015625
1761479807950046000,7.0030458984375,-1.014801025390625,-0.02191162109375,-0.017486572265625
1761479807960082200,7.013082275390625,-1.0129852294921875,-0.023193359375,-0.01849365234375
1761479807970118100,7.0231181640625,-1.0138702392578125,-0.022735595703125,-0.0172271728515625
1761479807980154000,7.033154052734375,-1.013519287109375,-0.022979736328125,-0.0166168212890625
1761479807990190000,7.043190185546875,-1.0139923095703125,-0.0220794677734375,-0.0180816650390625
1761479808000226000,7.05322607421875,-1.01422119140625,-0.0210113525390625,-0.017913818359375
1761479808010262000,7.063261962890625,-1.0135345458984375,-0.0217742919921875,-0.0177001953125
1761479808020297000,7.073296875,-1.014434814453125,-0.0217437744140625,-0.0178985595703125
1761479808030333000,7.0833330078125,-1.014251708984375,-0.02215576171875,-0.01727294921875
1761479808040369200,7.093369140625,-1.0141754150390625,-0.0221710205078125,-0.0182037353515625
1761479808050405000,7.103405029296875,-1.013946533203125,-0.021392822265625,-0.0176849365234375
1761479808060441000,7.113441162109375,-1.0146942138671875,-0.02239990234375,-0.0177154541015625
1761479808070477000,7.12347705078125,-1.0133209228515625,-0.0236053466796875,-0.01708984375
1761479808080513000,7.133512939453125,-1.013519287109375,-0.0225372314453125,-0.0170440673828125
1761479808090548000,7.1435478515625,-1.0146026611328125,-0.0215301513671875,-0.01806640625
1761479808100584000,7.153583984375,-1.014190673828125,-0.0216064453125,-0.0179901123046875
1761479808110620000,7.163619873046875,-1.014495849609375,-0.0209808349609375,-0.0184173583984375
1761479808120656100,7.17365625,-1.0142669677734375,-0.02203369140625,-0.0175933837890625
1761479808130692000,7.183692138671875,-1.0144805908203125,-0.022613525390625,-0.0172271728515625
1761479808140728000,7.19372802734375,-1.0145263671875,-0.022003173828125,-0.017242431640625
1761479808150764000,7.203763916015625,-1.013580322265625,-0.0214996337890625,-0.017913818359375
1761479808160799000,7.213799072265625,-1.0137176513671875,-0.0207366943359375,-0.017333984375
1761479808170835000,7.2238349609375,-1.0147705078125,-0.0216827392578125,-0.0178680419921875
1761479808180871000,7.233870849609375,-1.0144805908203125,-0.02252197265625,-0.0180816650390625
1761479808190907000,7.243906982421875,-1.0142669677734375,-0.0220184326171875,-0.0173797607421875
1761479808200943000,7.253943115234375,-1.014373779296875,-0.021942138671875,-0.0174407958984375
1761479808210979000,7.26397900390625,-1.014984130859375,-0.0219879150390625,-0.017913818359375
1761479808221015000,7.27401513671875,-1.0128631591796875,-0.0223388671875,-0.0173797607421875
1761479808231050000,7.284050048828125,-1.0140380859375,-0.0225830078125,-0.0174560546875
1761479808241086000,7.2940859375,-1.0144805908203125,-0.02197265625,-0.017425537109375
1761479808251122000,7.304121826171875,-1.0133819580078125,-0.0218505859375,-0.01776123046875
1761479808261158000,7.314157958984375,-1.01300048828125,-0.02197265625,-0.017242431640625
1761479808271193900,7.32419384765625,-1.0146026611328125,-0.022491455078125,-0.01812744140625
1761479808281230000,7.33422998046875,-1.0139312744140625,-0.0222625732421875,-0.0173492431640625
1761479808291265000,7.34426513671875,-1.0140228271484375,-0.022216796875,-0.0177459716796875
1761479808301301000,7.354301025390625,-1.01434326171875,-0.0222320556640625,-0.0176544189453125
1761479808311337000,7.3643369140625,-1.0146484375,-0.021240234375,-0.0171966552734375
1761479808321373000,7.374373046875,-1.013458251953125,-0.021331787109375,-0.01751708984375
1761479808331409000,7.384408935546875,-1.0135040283203125,-0.0219573974609375,-0.0179290771484375
1761479808341444900,7.39444482421875,-1.013519287109375,-0.0218505859375,-0.0182037353515625
1761479808351480800,7.404480712890625,-1.0149688720703125,-0.022186279296875,-0.0177459716796875
1761479808361515500,7.414515625,-1.0147705078125,-0.0219573974609375,-0.017578125
1761479808371551500,7.424551513671875,-1.013092041015625,-0.0228424072265625,-0.0179443359375
1761479808381587500,7.43458740234375,-1.014068603515625,-0.0233001708984375,-0.0179901123046875
1761479808391623400,7.44462353515625,-1.014251708984375,-0.023040771484375,-0.0167388916015625
1761479808401659600,7.45465966796875,-1.013702392578125,-0.022552490234375,-0.0177001953125
1761479808411695600,7.464695556640625,-1.01409912109375,-0.021453857421875,-0.0172882080078125
1761479808421731600,7.474731689453125,-1.01318359375,-0.022216796875,-0.017486572265625
1761479808431766500,7.4847666015625,-1.013336181640625,-0.0218048095703125,-0.0167236328125
1761479808441802500,7.494802490234375,-1.014007568359375,-0.022247314453125,-0.017608642578125
1761479808451838700,7.504838623046875,-1.0141448974609375,-0.0218505859375,-0.0167388916015625
1761479808461874700,7.514874755859375,-1.0137176513671875,-0.0215911865234375,-0.01763916015625
1761479808471910700,7.52491064453125,-1.0137939453125,-0.0221099853515625,-0.0177764892578125
1761479808481946600,7.534946533203125,-1.0146484375,-0.0223236083984375,-0.0173492431640625
1761479808491982600,7.544982666015625,-1.0135955810546875,-0.022613525390625,-0.017547607421875
1761479808502017500,7.555017578125,-1.013763427734375,-0.0228271484375,-0.0175323486328125
1761479808512053800,7.5650537109375,-1.0142059326171875,-0.0215301513671875,-0.017608642578125
1761479808522089700,7.57508984375,-1.0137786865234375,-0.021331787109375,-0.0176239013671875
1761479808532125700,7.585125732421875,-1.0135650634765625,-0.0222625732421875,-0.01708984375
1761479808542161700,7.59516162109375,-1.0130157470703125,-0.021575927734375,-0.0174713134765625
1761479808552197600,7.60519775390625,-1.0127716064453125,-0.022735595703125,-0.017669677734375
1761479808562232800,7.61523291015625,-1.0133514404296875,-0.02252197265625,-0.0174407958984375
1761479808572268800,7.625268798828125,-1.0139923095703125,-0.0220947265625,-0.01812744140625
1761479808582304800,7.6353046875,-1.0147552490234375,-0.0213165283203125,-0.0178375244140625
1761479808592340700,7.6453408203125,-1.0140380859375,-0.0222930908203125,-0.017608642578125
1761479808602376700,7.655376708984375,-1.0139923095703125,-0.022491455078125,-0.0169525146484375
1761479808612412700,7.66541259765625,-1.01348876953125,-0.02191162109375,-0.017303466796875
1761479808622448600,7.67544873046875,-1.0131988525390625,-0.0223846435546875,-0.0169830322265625
1761479808632483800,7.68548388671875,-1.012847900390625,-0.02227783203125,-0.0172119140625
1761479808642519800,7.695519775390625,-1.014007568359375,-0.0225830078125,-0.017333984375
1761479808652555800,7.7055556640625,-1.013519287109375,-0.0222625732421875,-0.0175628662109375
1761479808662591700,7.715591796875,-1.0148468017578125,-0.0212249755859375,-0.017547607421875
1761479808672627700,7.725627685546875,-1.012969970703125,-0.021575927734375,-0.0174407958984375
1761479808682663700,7.73566357421875,-1.013214111328125,-0.0225830078125,-0.017669677734375
1761479808692699600,7.74569970703125,-1.0132598876953125,-0.0218963623046875,-0.0177154541015625
1761479808702734600,7.755734619140625,-1.0138397216796875,-0.022247314453125,-0.017822265625
1761479808712770800,7.765770751953125,-1.0134429931640625,-0.0222320556640625,-0.0182952880859375
1761479808722806800,7.775806884765625,-1.0137481689453125,-0.022674560546875,-0.017486572265625
1761479808732842800,7.7858427734375,-1.012969970703125,-0.021728515625,-0.0174102783203125
1761479808742878700,7.795878662109375,-1.014312744140625,-0.0219268798828125,-0.017333984375
1761479808752914700,7.805914794921875,-1.0138397216796875,-0.022735595703125,-0.0176239013671875
1761479808762949600,7.81594970703125,-1.0147857666015625,-0.02197265625,-0.0173187255859375
1761479808772985600,7.825985595703125,-1.013763427734375,-0.0214385986328125,-0.017913818359375
1761479808783021600,7.836021484375,-1.012664794921875,-0.0214996337890625,-0.0172882080078125
1761479808793057800,7.846057861328125,-1.01287841796875,-0.0230560302734375,-0.0172271728515625
1761479808803093800,7.85609375,-1.01385498046875,-0.022552490234375,-0.01776123046875
1761479808813129700,7.866129638671875,-1.01324462890625,-0.022552490234375,-0.0176849365234375
1761479808823165700,7.876165771484375,-1.0133514404296875,-0.021728515625,-0.017608642578125
1761479808833200600,7.88620068359375,-1.014801025390625,-0.0216217041015625,-0.017425537109375
1761479808843236600,7.896236572265625,-1.0136871337890625,-0.02130126953125,-0.0174713134765625
1761479808853272600,7.9062724609375,-1.0141143798828125,-0.0225372314453125,-0.017608642578125
1761479808863308500,7.91630859375,-1.013427734375,-0.0216522216796875,-0.0181732177734375
1761479808873344800,7.9263447265625,-1.0126800537109375,-0.0224761962890625,-0.017669677734375
1761479808883380700,7.936380615234375,-1.0131378173828125,-0.0217437744140625,-0.01715087890625
1761479808893415700,7.946415771484375,-1.0153045654296875,-0.0225830078125,-0.0178375244140625
1761479808903451600,7.95645166015625,-1.01397705078125,-0.021759033203125,-0.0175323486328125
1761479808913487600,7.966487548828125,-1.0132904052734375,-0.0221099853515625,-0.017852783203125
1761479808923523600,7.976523681640625,-1.013397216796875,-0.021514892578125,-0.0179290771484375
1761479808933559600,7.9865595703125,-1.014007568359375,-0.0228118896484375,-0.0173492431640625
1761479808943595500,7.996595458984375,-1.013427734375,-0.0228118896484375,-0.0180511474609375
1761479808953630700,8.006630615234375,-1.0140228271484375,-0.0224456787109375,-0.01763916015625
1761479808963665700,8.016665771484375,-1.0145111083984375,-0.023040771484375,-0.0175323486328125
1761479808973701600,8.02670166015625,-1.0139923095703125,-0.022125244140625,-0.0184783935546875
1761479808983737600,8.036737548828125,-1.014312744140625,-0.023040771484375,-0.017364501953125
1761479808993773800,8.04677392578125,-1.0141754150390625,-0.02191162109375,-0.017486572265625
1761479809003809800,8.056809814453125,-1.013397216796875,-0.022735595703125,-0.0174102783203125
1761479809013845800,8.066845703125,-1.014007568359375,-0.023529052734375,-0.0173492431640625
1761479809023881700,8.0768818359375,-1.0132904052734375,-0.023040771484375,-0.0181884765625
1761479809033916700,8.086916748046875,-1.014495849609375,-0.021759033203125,-0.0177764892578125
1761479809043952600,8.09695263671875,-1.0148162841796875,-0.022674560546875,-0.01708984375
1761479809053988600,8.106988525390625,-1.013580322265625,-0.02215576171875,-0.01788330078125
1761479809064024600,8.117024658203125,-1.0137176513671875,-0.021942138671875,-0.0169219970703125
1761479809074060800,8.127060791015625,-1.0132904052734375,-0.0216064453125,-0.0168914794921875
1761479809084096800,8.1370966796875,-1.0134735107421875,-0.0217132568359375,-0.01751708984375
1761479809094131700,8.147131591796875,-1.0139007568359375,-0.022125244140625,-0.017425537109375
1761479809104167700,8.157167724609375,-1.0144500732421875,-0.021820068359375,-0.017791748046875
1761479809114203600,8.16720361328125,-1.0135650634765625,-0.0221710205078125,-0.0171966552734375
1761479809124239600,8.177239501953125,-1.0151214599609375,-0.0221099853515625,-0.0167694091796875
1761479809134275600,8.187275634765625,-1.014007568359375,-0.021331787109375,-0.01727294921875
1761479809144311600,8.1973115234375,-1.0144500732421875,-0.022216796875,-0.0175323486328125
1761479809154347800,8.20734765625,-1.014495849609375,-0.022125244140625,-0.0174407958984375
1761479809164382700,8.2173828125,-1.0138702392578125,-0.0223388671875,-0.0179290771484375
1761479809174418700,8.227418701171874,-1.0146026611328125,-0.0212249755859375,-0.0173492431640625
1761479809184454700,8.23745458984375,-1.0144195556640625,-0.021942138671875,-0.0173492431640625
1761479809194490600,8.24749072265625,-1.0130462646484375,-0.0222320556640625,-0.0181884765625
1761479809204526600,8.257526611328124,-1.0135650634765625,-0.0211181640625,-0.0174560546875
1761479809214562600,8.2675625,-1.0135650634765625,-0.0223236083984375,-0.0174713134765625
1761479809224597800,8.27759765625,-1.01361083984375,-0.0222625732421875,-0.0175933837890625
1761479809234633700,8.2876337890625,-1.0136260986328125,-0.021240234375,-0.0176544189453125
1761479809244669700,8.297669677734374,-1.013458251953125,-0.0214691162109375,-0.0183258056640625
1761479809254705700,8.30770556640625,-1.0143890380859375,-0.0225677490234375,-0.017364501953125
1761479809264741600,8.31774169921875,-1.01422119140625,-0.02252197265625,-0.01776123046875
1761479809274777600,8.327777587890624,-1.0141448974609375,-0.02191162109375,-0.0170440673828125
1761479809284813600,8.3378134765625,-1.0146331787109375,-0.0221710205078125,-0.016845703125
1761479809294848800,8.347848876953124,-1.0138092041015625,-0.022674560546875,-0.0172882080078125
1761479809304884700,8.357884765625,-1.0135955810546875,-0.0216522216796875,-0.0173492431640625
1761479809314920700,8.367920654296874,-1.013397216796875,-0.022003173828125,-0.0174560546875
1761479809324956700,8.377956787109374,-1.0135498046875,-0.021820068359375,-0.01739501953125
1761479809334992600,8.38799267578125,-1.0146026611328125,-0.0216064453125,-0.018157958984375
1761479809345028600,8.398028564453124,-1.012969970703125,-0.021484375,-0.0174407958984375
1761479809355064600,8.408064697265624,-1.013153076171875,-0.0225677490234375,-0.017578125
1761479809365100500,8.4181005859375,-1.0133209228515625,-0.0218963623046875,-0.0174713134765625
1761479809375136800,8.42813671875,-1.0140380859375,-0.0215606689453125,-0.0169830322265625
1761479809385172700,8.4381728515625,-1.013946533203125,-0.0223541259765625,-0.0173187255859375
1761479809395209000,8.448208984375,-1.0130462646484375,-0.0225067138671875,-0.0172576904296875
1761479809405245000,8.458244873046874,-1.014007568359375,-0.0213470458984375,-0.017913818359375
1761479809415281000,8.468281005859374,-1.0134429931640625,-0.0216522216796875,-0.017181396484375
1761479809425315800,8.47831591796875,-1.0139007568359375,-0.0224151611328125,-0.016998291015625
1761479809435351800,8.488351806640624,-1.0142364501953125,-0.022369384765625,-0.017242431640625
1761479809445387800,8.4983876953125,-1.0135345458984375,-0.022308349609375,-0.017547607421875
1761479809455423700,8.508423828125,-1.01446533203125,-0.021240234375,-0.017303466796875
1761479809465459700,8.518459716796874,-1.01446533203125,-0.0214996337890625,-0.017578125
1761479809475496000,8.528495849609374,-1.013336181640625,-0.0218963623046875,-0.017059326171875
1761479809485531000,8.53853076171875,-1.01324462890625,-0.02294921875,-0.017333984375
1761479809495566800,8.54856689453125,-1.01434326171875,-0.02215576171875,-0.017303466796875
1761479809505602800,8.558602783203124,-1.0138092041015625,-0.021514892578125,-0.0169677734375
1761479809515638800,8.568638671875,-1.013702392578125,-0.021514892578125,-0.0181884765625
1761479809525674800,8.5786748046875,-1.0143890380859375,-0.02239990234375,-0.0177764892578125
1761479809535710700,8.588710693359374,-1.014007568359375,-0.0222930908203125,-0.017303466796875
1761479809545746700,8.59874658203125,-1.0141754150390625,-0.022003173828125,-0.0180511474609375
1761479809555782000,8.608781982421876,-1.0133209228515625,-0.021728515625,-0.01751708984375
1761479809565817900,8.61881787109375,-1.0143585205078125,-0.0217132568359375,-0.0178985595703125
1761479809575853800,8.628853759765626,-1.024688720703125,-0.0202484130859375,-0.018157958984375
1761479809585889800,8.638889892578124,-0.9961395263671875,-0.026702880859375,-0.01373291015625
1761479809595925800,8.64892578125,-1.0188140869140625,-0.0200347900390625,-0.0187225341796875
1761479809605961700,8.658961669921876,-1.01416015625,-0.0204620361328125,-0.02227783203125
1761479809615997000,8.668996826171876,-1.0120391845703125,-0.02191162109375,-0.0130767822265625
1761479809626033000,8.679032958984376,-1.0166473388671875,-0.027099609375,-0.01495361328125
1761479809636068900,8.68906884765625,-1.01605224609375,-0.02008056640625,-0.0204925537109375
