time,seconds_elapsed,z,y,x
1761479801035330300,0.088330322265625,-0.1238578503370285,-0.062402607094869014,-0.02451470192298293
1761479801045366300,0.0983662109375,-0.13119243100881575,0.015281941213365643,0.06252144770156592
1761479801055402200,0.10840234375,-0.1317874742925167,0.007642550642415881,-0.010363445239979773
1761479801065438200,0.118438232421875,-0.1311854167461395,0.038791119355615224,-0.032457075762189924
1761479801075474200,0.12847412109375,-0.12460428479015827,-0.044725697036366904,0.02381722117811441
1761479801085509400,0.13850927734375,-0.13792261604666708,0.006096088385395705,0.043823286570236084
1761479801095545300,0.14854541015625,-0.1380745917379856,0.010542034943588078,-0.046567050586733966
1761479801105581300,0.158581298828125,-0.14570961666107177,0.011644644156936555,0.00264898013882339
1761479801115617300,0.1686171875,-0.1310509767115116,-0.04519576223352924,0.05108712182706222
1761479801125653200,0.1786533203125,-0.13030278869271278,-0.00810510838655755,-0.0059310340167954565
1761479801135689200,0.188689208984375,-0.1332996324211359,0.023441939858626575,-0.041299047055933624
1761479801145725200,0.19872509765625,-0.12955869232714176,0.0016645356787368655,0.03134991823788732
1761479801155760400,0.208760498046875,-0.12207798118293285,-0.020499584530107674,0.03231218739878386
1761479801165796400,0.21879638671875,-0.13314941029548644,0.0010080810640007256,-0.030905407607089725
1761479801175832300,0.228832275390625,-0.13719196368455885,0.027438955339230596,-0.0030361893581226465
1761479801185868300,0.238868408203125,-0.1244721828430891,-0.007152282907441258,0.02986855710633099
1761479801195904300,0.248904296875,-0.13778934505581855,-0.013682342263311147,0.0023520612851716575
1761479801205940200,0.258940185546875,-0.13076046933233737,-0.01743504586033523,-0.018993198555149138
1761479801215975200,0.26897509765625,-0.13345569976568222,0.026493746910989283,0.028619598224852234
1761479801226011400,0.279011474609375,-0.12627017217576503,0.0013216770578175783,-0.0002157981751486659
1761479801236047400,0.28904736328125,-0.14362813421189785,-0.0006936813525855541,-0.022176705695781857
1761479801246083300,0.299083251953125,-0.1240273616850376,-0.011851272644940763,0.01200551335858181
1761479801256119300,0.309119384765625,-0.13734160128831863,0.03078669486455619,0.025757030134275553
1761479801266155300,0.3191552734375,-0.139886609596014,-0.0035097799529321488,-0.01903621571296826
1761479801276190200,0.329190185546875,-0.13809154287278652,0.010175795447081326,-0.002508548754826188
1761479801286226200,0.33922607421875,-0.12821663006842135,-0.018986312156636268,0.02329387315744534
1761479801296262100,0.34926220703125,-0.13509762175381182,0.026375819619745014,-0.0019656009845435618
1761479801306298400,0.35929833984375,-0.1249205111324787,-0.002488930738903582,-0.02421705241696909
1761479801316334300,0.369334228515625,-0.1318050099492073,-0.005580868872255087,0.031186800098046658
1761479801326370300,0.379370361328125,-0.11863280916512012,-0.013718436489999293,0.021621939623542127
1761479801336406300,0.38940625,-0.13598667954802512,0.0191252639696002,-0.025200291300658133
1761479801346442500,0.3994423828125,-0.12566519201993942,0.005234247391670942,0.005940934356302023
1761479801356478700,0.409478759765625,-0.12835808436572552,-0.015606697922013699,0.03707406803835183
1761479801366514700,0.4195146484375,-0.13269640583097933,-0.013188622195925563,-0.01373272074367851
1761479801376550700,0.429550537109375,-0.13554068934619426,0.015800978385098276,-0.015289777459949255
1761479801386586600,0.439586669921875,-0.1217705226689577,-0.003563647298328578,0.024578707069903612
1761479801396622600,0.44962255859375,-0.12626140434741973,-0.015607866965793072,0.013388473883271216
1761479801406658600,0.459658447265625,-0.14107494259774683,-0.00926485461462289,-0.012464344775676726
1761479801416693800,0.46969384765625,-0.13748597819507122,0.002639408592879772,0.011193831649515778
1761479801426729700,0.479729736328125,-0.13374445357918738,0.005495839203614741,0.024478753826767206
1761479801436765700,0.489765625,-0.1252121875554323,-0.01048743694582954,-0.0059624155357480045
1761479801446801700,0.4998017578125,-0.11803192066252231,-0.005997340718656778,-0.00012669511958956716
1761479801456837600,0.509837646484375,-0.13165069617033004,0.005387501724623143,0.022688947800546883
1761479801466873600,0.51987353515625,-0.13299685008227824,0.01583718220964074,0.00008230798859149217
1761479801476909600,0.52990966796875,-0.1412298408985138,-0.015355609237775205,-0.013457392667327076
1761479801486944800,0.53994482421875,-0.12806933055222033,-0.0036639476013369857,0.021771230167429892
1761479801496980700,0.549980712890625,-0.12388064669072628,0.008460114102996885,0.008671144771482795
1761479801507016700,0.5600166015625,-0.13779869740605352,0.013818079205881803,-0.015591043695155531
1761479801517052700,0.570052734375,-0.14034662832319736,-0.016006931019667534,0.007688143349811434
1761479801527088600,0.580088623046875,-0.12852759571373462,-0.003821786777861416,0.034972456116601824
1761479801537124600,0.59012451171875,-0.12493570870161055,0.011963975771795957,-0.005097944193519652
1761479801547160600,0.60016064453125,-0.1213432371675968,0.020610899417474866,-0.00706062256861478
1761479801557195800,0.61019580078125,-0.12358721670210361,-0.01340105937020853,0.027531108868401495
1761479801567231700,0.620231689453125,-0.12777648508548736,-0.00948803237862885,0.009811364315170793
1761479801577267700,0.630267822265625,-0.12208616448938846,0.0073142502698116,-0.021433139053173362
1761479801587303700,0.6403037109375,-0.13361001354455948,0.0018824344794265925,0.0029642931656911967
1761479801597339600,0.650339599609375,-0.1398953774243593,-0.013701704550907015,0.01679627303276211
1761479801607375600,0.660375732421875,-0.12702362089157104,0.0019228030224330722,-0.006298625220172107
1761479801617411600,0.67041162109375,-0.12762275582849977,0.012218955179862677,-0.00549110822957009
1761479801627446500,0.680446533203125,-0.13016951770186425,0.01361261976165697,0.01945579283190891
1761479801637482800,0.690482666015625,-0.1279278762549162,-0.009474679706711321,0.010822934244200586
1761479801647518700,0.700518798828125,-0.12328618792891502,-0.008788085682038217,-0.0082887395914644
1761479801657554700,0.7105546875,-0.1285235040605068,0.006641648237872868,0.008900624412111938
1761479801667590700,0.720590576171875,-0.13301263217329978,0.005568849640898406,0.010302143506798892
1761479801677626600,0.730626708984375,-0.1264274085640907,-0.0005557524529285729,-0.004440631062258035
1761479801687662600,0.74066259765625,-0.13106617428064346,-0.002150638695247471,0.00550325532509014
1761479801697697500,0.750697509765625,-0.1321142220288515,0.003634575376380235,0.016059391859266907
1761479801707733500,0.7607333984375,-0.12777297795414924,0.003555537057109177,0.006763758513890206
1761479801717769700,0.770769775390625,-0.1265729545146227,-0.0038811705485917625,-0.004624536261800676
1761479801727805700,0.7808056640625,-0.1273217270553112,-0.01124185377601534,0.00530815287809819
1761479801737841700,0.790841552734375,-0.12866495835781097,0.011180259781889617,0.002302870114892721
1761479801747877600,0.800877685546875,-0.1300093587040901,0.009229929431714117,0.0000827098473906517
1761479801757913600,0.81091357421875,-0.13165537234544752,0.0009964636914432047,0.01475892198625952
1761479801767948500,0.820948486328125,-0.12462766566574572,-0.009421981405094265,0.011992105887737125
1761479801777984500,0.830984619140625,-0.12043956632614135,0.008529708740487694,-0.003628547494392842
1761479801788020700,0.841020751953125,-0.12298749724328517,0.002355330954492092,-0.0033795046367682516
1761479801798056700,0.851056640625,-0.1306207686007023,-0.014456559772510081,0.018730236770026384
1761479801808092700,0.8610927734375,-0.12104220839440821,-0.007258629358746111,0.0015642536420375109
1761479801818128600,0.871128662109375,-0.12582827362716198,0.006621664895769208,-0.0009142470343969761
1761479801828164600,0.88116455078125,-0.12957213633060455,0.007658862456399947,0.0038988706020638346
1761479801838200600,0.89120068359375,-0.12104396196007727,0.0015691124802455305,0.01213533201701939
1761479801848235500,0.901235595703125,-0.13047113099694252,0.0003163724727928638,-0.0014129355378448962
1761479801858271500,0.911271484375,-0.1279278762549162,0.006305931743793189,0.009081570469588041
1761479801868307700,0.9213076171875,-0.12074585579633712,-0.00023505086489021776,0.013696827446389942
1761479801878343700,0.93134375,-0.12328969506025314,-0.01214026392046362,0.004632080247439444
1761479801888379600,0.941379638671875,-0.12613280953168868,0.00496332149580121,0.0023542532422579825
1761479801898415600,0.95141552734375,-0.13675766392052172,0.0008899893759749829,0.01346113726068288
1761479801908451600,0.96145166015625,-0.12852584214806556,-0.008881463053915649,0.013119392884615808
1761479801918487600,0.971487548828125,-0.1261316404879093,-0.0024908669676631688,0.0046310208015143866
1761479801928522500,0.9815224609375,-0.12613339405357837,-0.00729561863457784,0.0062671523696742944
1761479801938558500,0.991558349609375,-0.1360094759017229,0.010767514262534677,0.008857004466094076
1761479801948594700,1.0015947265625,-0.13616028254926205,0.012174915108736604,-0.0019452157836407423
1761479801958630700,1.011630615234375,-0.1289765085250139,0.002830346321407705,0.004374707952886819
1761479801968666600,1.02166650390625,-0.12748188605308533,-0.004445179373212159,0.015906557651422917
1761479801978702600,1.03170263671875,-0.12778057673871515,0.008125731049478054,0.01093178317984566
1761479801988738600,1.041738525390625,-0.1336176123291254,0.008112013051379471,0.0026202107020653785
1761479801998774500,1.0517744140625,-0.12419102781414985,-0.002653199656214565,0.013844875881262124
1761479802008809500,1.0618095703125,-0.1267336980342865,0.001136127890460193,0.01492236891966313
1761479802018845400,1.071845458984375,-0.1318143622994423,0.009380937008652836,-0.0014656155731528997
1761479802028881700,1.081881591796875,-0.1312169809281826,0.005709975144639611,-0.0008492189741693436
1761479802038917600,1.091917724609375,-0.14213935695886612,-0.000420472168084234,0.00881199628058821
1761479802048953600,1.10195361328125,-0.1271773501485586,-0.004361245683114976,0.0095484573289752
1761479802058989600,1.111989501953125,-0.1327104343563318,0.005147975614015012,0.004942370039317756
1761479802069025500,1.122025634765625,-0.12806757698655127,0.0010388963273726404,0.0037386750716716047
1761479802079061500,1.1320615234375,-0.1279185239046812,-0.0033713761292397974,0.009378726785257458
1761479802089096400,1.142096435546875,-0.13211188394129275,0.006425740464869887,0.0033084852271713316
1761479802099132400,1.15213232421875,-0.13600421520471573,0.0016138466711156068,0.000007105594221502542
1761479802109168600,1.162168701171875,-0.13226210606694222,0.0029662841933779417,0.009970938791055232
1761479802119204600,1.17220458984375,-0.1369032098710537,-0.0006838723446242511,0.00715398167418316
1761479802129240600,1.182240478515625,-0.14872691865563392,0.0009154708771035075,-0.005264386801607906
1761479802139276500,1.192276611328125,-0.12822481337487696,0.0014601722130551933,0.015058343324251471
1761479802149312500,1.2023125,-0.13391279588341712,0.0035051037778146563,0.01264536389838904
1761479802159348500,1.212348388671875,-0.12613397857546807,0.0025379392460919913,0.0005473316844552755
1761479802169383400,1.222383544921875,-0.126729021859169,-0.0002733553149737418,0.0072435779200866815
1761479802179419400,1.23241943359375,-0.12283552155196666,0.010586896998621522,0.011649484728835523
1761479802189455600,1.24245556640625,-0.12672726829349995,0.009640957918018103,0.0034842984518036243
1761479802199491600,1.25249169921875,-0.13779986644983291,-0.0011716741278767586,0.00021466566398739814
1761479802209527600,1.262527587890625,-0.13181670038700102,-0.0033364144137129187,0.01550908276643604
1761479802219563500,1.2725634765625,-0.1404968504488468,0.0010013225296512246,0.00043071956746280193
1761479802229599500,1.282599609375,-0.12822890502810477,0.005679068549722433,0.0009645889821462332
1761479802239635500,1.292635498046875,-0.13122165710330008,-0.0005931618538685142,0.011882672430202364
1761479802249671400,1.30267138671875,-0.12778174578249454,0.003749360862467438,0.009559910304751246
1761479802259706600,1.31270654296875,-0.13526187240481377,0.0001049216791987419,0.0016130612198263406
1761479802269742600,1.32274267578125,-0.1357084471285343,-0.005844963168539106,0.0019340550688095389
1761479802279778600,1.332778564453125,-0.12179273450076579,-0.006861209272686392,0.01193685030285269
1761479802289814500,1.342814453125,-0.13930091866254807,-0.0011877667461521924,-0.0017719781085848807
1761479802299850500,1.3528505859375,-0.13840660017132758,0.0027328042310662565,-0.003269450124725699
1761479802309886500,1.362886474609375,-0.13032558504641056,-0.0029979031743481753,0.010829528381768613
1761479802319922700,1.372922607421875,-0.12703180419802665,-0.004787855331040918,0.003536174769513309
1761479802329958700,1.382958740234375,-0.1307727442920208,-0.002069024826399982,0.002785612130537629
1761479802339993600,1.39299365234375,-0.1259831719279289,-0.002406860212329775,0.004891534901224077
1761479802350029800,1.40302978515625,-0.12941957611739635,0.001668609065655619,0.007606986138690263
1761479802360066000,1.413066162109375,-0.13195990824997425,-0.0026907003886997697,0.0029303543634712696
1761479802370102000,1.42310205078125,-0.1282195526778698,-0.0051483957391232245,0.005898593051917851
1761479802380138000,1.433137939453125,-0.13165946399867534,-0.00433764561181888,0.0058980450626462694
1761479802390174000,1.443174072265625,-0.131512749004364,0.011256850415747612,0.011120437619742005
1761479802400210000,1.4532099609375,-0.1371989779472351,0.0064590216799639165,-0.0018921338895335792
1761479802410246000,1.463245849609375,-0.13240765201747418,0.0001936594085767865,0.0007868760613724589
1761479802420280800,1.47328076171875,-0.1289677406966686,-0.0035603228300809856,0.007040054704621434
1761479802430316800,1.48331689453125,-0.13509995984137058,0.0022998744402080774,-0.004052234532870352
1761479802440353000,1.49335302734375,-0.13359773858487606,-0.00798455074680969,0.009375036990828811
1761479802450389000,1.503388916015625,-0.13479483941495418,-0.00041754955863580105,0.005714669586066156
1761479802460425000,1.513425048828125,-0.1344932261198759,0.008513853584229946,0.001176112840976566
1761479802470461000,1.5234609375,-0.13673077591359614,0.0033638321436010297,0.0002640212310478091
1761479802480497000,1.533496826171875,-0.13673077591359614,-0.0065241410717368125,0.008495368079468607
1761479802490532900,1.543532958984375,-0.13314531864225865,0.0013869791126810012,-0.0012175590962171553
1761479802500568800,1.55356884765625,-0.13494038536548614,-0.0013037578086368738,-0.0018406594306230545
1761479802510604000,1.56360400390625,-0.12910159620940684,0.002425911972671747,0.007290357937570661
1761479802520640000,1.573639892578125,-0.13598551050424576,0.0006520707005634904,0.009525587910041213
1761479802530676000,1.583676025390625,-0.12252221781909466,-0.0049432285558432335,0.0020207652378827334
1761479802540712000,1.5937119140625,-0.1317968266427517,0.0038110644544474778,0.0023947861820459364
1761479802550748000,1.603747802734375,-0.13658406091928482,-0.0006091083416715264,0.004818305268231779
1761479802560784000,1.613783935546875,-0.13434125042855738,-0.00035674101579934354,0.0011888261920772493
1761479802570819800,1.62381982421875,-0.138379712164402,-0.010021572999749331,-0.008818517352920024
1761479802580855800,1.633855712890625,-0.13209434828460215,-0.0011018785609863697,0.004996383515186608
1761479802590891800,1.643891845703125,-0.14256898054778575,0.004541095762047916,0.008036335732974112
1761479802600927000,1.653927001953125,-0.1280535484611988,0.001348327602725476,0.004041183415893465
1761479802610963000,1.663962890625,-0.13568740434050558,0.003848857447877526,0.013297325001098214
1761479802620999000,1.6739990234375,-0.12985036875009537,0.0007283690734766423,0.003798204972874373
1761479802631035000,1.684034912109375,-0.13388883048593997,-0.0029928068741224704,0.0030732699654996394
1761479802641070800,1.69407080078125,-0.14017185627818107,-0.001465085850190371,0.011466090985946356
1761479802651106800,1.70410693359375,-0.14092296690642833,-0.0070819941502064465,0.015118092421162873
1761479802661142800,1.714142822265625,-0.12865209887623785,0.0007019377242773771,0.005221424442715943
1761479802671178800,1.7241787109375,-0.1297007311463356,-0.0035734928389079866,-0.00019311141930520535
1761479802681214000,1.7342138671875,-0.1298480306625366,-0.0017658040961250662,0.008359393674880266
1761479802691250000,1.74425,-0.12849953866302966,0.003601860416866839,0.00811807746598497
1761479802701286000,1.754285888671875,-0.13897124831676483,0.0016124584316276013,0.006062149583175778
1761479802711321900,1.76432177734375,-0.14061433934867382,-0.00009871113412082195,0.003154427176620811
1761479802721357800,1.77435791015625,-0.14734803151786327,-0.00647694092914462,0.0032296843699179587
1761479802731393800,1.784393798828125,-0.1398655668079853,-0.002425656244345009,0.005271254933811724
1761479802741429800,1.7944296875,-0.13043956681489943,0.0023716975674033165,-0.003059752896800637
1761479802751465700,1.8044658203125,-0.13044248942434786,0.002242408631928265,0.006963628467544913
1761479802761501700,1.814501708984375,-0.13523089274466038,-0.0083937160695903,0.0019230404844507575
1761479802771537000,1.824536865234375,-0.12909633551239966,0.003149440474249422,0.00014149082992225885
1761479802781572900,1.83457275390625,-0.13777648557424543,0.002982614273671061,0.0017276275102049111
1761479802791608800,1.84460888671875,-0.14824994879364967,-0.0017373086540028453,0.013433409003540873
1761479802801644800,1.854644775390625,-0.1296919633179903,-0.0009349792951717972,0.007982742382213474
1761479802811680800,1.8646806640625,-0.13478431802093982,0.0021666217156685887,0.005233005282655358
1761479802821716700,1.874716796875,-0.14571078570485113,-0.007069938386231661,0.007100698850676417
1761479802831752700,1.884752685546875,-0.15274141499400137,0.00035953576108440754,0.009285422478616237
1761479802841788700,1.89478857421875,-0.1425631353288889,0.006801094849593937,-0.0009174801710993051
1761479802851824600,1.90482470703125,-0.1382236448198557,0.008245411906391381,0.007641893055289983
1761479802861859800,1.91485986328125,-0.13238953183889388,0.0028679018528200684,0.004885543551854789
1761479802871895800,1.924895751953125,-0.13717851968109607,0.009037859192024916,0.00502650465881452
1761479802881931800,1.934931884765625,-0.13852701168060302,-0.008343392388150095,0.0060757762497290965
1761479802891967700,1.9449677734375,-0.13687924447357655,-0.006329824076034128,0.009069003248959779
1761479802902003700,1.955003662109375,-0.13374094644784926,0.01085530214384198,0.0059866731941699974
1761479802912039700,1.965039794921875,-0.13179390403330327,0.005995441022515297,0.011371270575653762
1761479802922075600,1.97507568359375,-0.13523264631032944,-0.005678557093068957,0.009431900010909884
1761479802932111600,1.985111572265625,-0.13552899890840053,0.0003871909529902041,0.005176745050773025
1761479802942147800,1.99514794921875,-0.1380705000847578,0.0018603322454728184,0.0028365933991037306
1761479802952182800,2.005182861328125,-0.1371685828089714,0.0005337232842110097,0.004399075209163129
1761479802962218800,2.01521875,-0.14719196417331695,0.0009488434237428009,0.004915281102992594
1761479802972254700,2.025254638671875,-0.13746844253838061,-0.0024035905430093408,0.00662559215221554
1761479802982290700,2.035290771484375,-0.141803841394186,0.0025737960107624527,-0.0003671162793412804
1761479802992326700,2.04532666015625,-0.14614040929377078,0.00211458100117743,-0.0013991992734372616
1761479803002362600,2.055362548828125,-0.13402560860812662,-0.001158102260250598,0.006783869720157236
1761479803012398600,2.065398681640625,-0.13163432955741883,-0.0014445179861970244,0.013487842604517936
1761479803022434800,2.075434814453125,-0.13792203152477742,0.00016182123189792036,0.006649100891966372
1761479803032469800,2.0854697265625,-0.1418172853976488,-0.008683054404985159,0.004200173369888216
1761479803042505700,2.095505615234375,-0.13583295029103756,-0.00046190015701577067,0.006639620677568018
1761479803052541700,2.105541748046875,-0.14256664246022702,-0.0006684738460928201,0.008182721933722496
1761479803062577700,2.11557763671875,-0.13703122016489505,0.003971406115312129,0.0018119813254103064
1761479803072613600,2.125613525390625,-0.13583411933481693,0.005376085281465202,0.009702168319653719
1761479803082649600,2.135649658203125,-0.13194821781218052,-0.0015642536420375109,0.007178275865223258
1761479803092685800,2.145685791015625,-0.13209960898160933,0.006539155977778137,0.006637757514044642
1761479803102722000,2.15572216796875,-0.13643968401253223,0.0010877952367067335,0.01468459637472406
1761479803112758000,2.165758056640625,-0.13689035038948058,0.0011888809910044072,0.0018160912449471651
1761479803122792700,2.175792724609375,-0.1382359197795391,0.0028489962229505178,0.001725271156337112
1761479803132828700,2.18582861328125,-0.14033318431973457,0.0036667058140039442,0.00671875032838434
1761479803142865000,2.195864990234375,-0.1364449447095394,0.003545545386057347,0.0005309833378531038
1761479803152900900,2.20590087890625,-0.137342770332098,0.0020224092056974766,0.0060828270450234406
1761479803162936800,2.215936767578125,-0.14438216744959353,0.0040147520666941995,0.010705554942227899
1761479803172972800,2.225972900390625,-0.1382487792611122,0.003873754427116364,0.006597754297219216
1761479803183009000,2.236009033203125,-0.13405951087772847,-0.0031450382937677204,0.005398680705763399
1761479803193045000,2.246044921875,-0.1385498080343008,-0.001542023543920368,0.0029639461058191953
1761479803203081000,2.2560810546875,-0.1346586458146572,0.004779927752912044,0.008398337445780635
1761479803213116000,2.266115966796875,-0.14139116894006729,0.00144300188254565,0.002550908325519413
1761479803223151900,2.27615185546875,-0.13959434865117074,0.002672616742737591,0.005288352199085056
1761479803233187800,2.286187744140625,-0.13360825997889042,0.0026947555093094705,0.002540770523995161
1761479803243223800,2.296223876953125,-0.13480419176518915,-0.003894486687891185,0.004871661156974733
1761479803253259800,2.306259765625,-0.13644728279709814,0.006441924414690584,0.011305110004264861
1761479803263296000,2.3162958984375,-0.136149176633358,0.004650766681600362,0.004161759321950376
1761479803273332000,2.32633203125,-0.1336041683256626,-0.006007021862454712,-0.007982413588650525
1761479803283368000,2.336367919921875,-0.14467910456955432,-0.002050009598676115,0.005061923032067716
1761479803293403000,2.34640283203125,-0.1373468619853258,0.002623151577822864,0.004857029843423516
1761479803303438800,2.35643896484375,-0.1451250947713852,0.00021062880968675016,0.006068177465163171
1761479803313474800,2.366474853515625,-0.1364490363627672,0.00044135055933147666,-0.0003077142423018813
1761479803323510800,2.3765107421875,-0.13255670509934425,0.003244516612868756,0.006692739104293286
1761479803333546800,2.386546630859375,-0.14692074601650237,-0.005193696185573935,0.005597089354693889
1761479803343583000,2.3965830078125,-0.13884323802292345,0.002697075330559164,0.008482216336950659
1761479803353618400,2.406618408203125,-0.14049042070806025,0.007278667499776929,0.01127371021900326
1761479803363654400,2.416654296875,-0.13585048594772814,-0.003845752175338566,0.018459785798192022
1761479803373690400,2.4266904296875,-0.13226093702316283,-0.0006335121305659413,0.004250241323001683
1761479803383725300,2.436725341796875,-0.14288228428065777,0.006181501646526157,-0.007197218027710914
1761479803393761300,2.44676123046875,-0.1376432145833969,0.007727744707837701,-0.001924739251192659
1761479803403797500,2.456797607421875,-0.12641864073574544,-0.005736570890620351,-0.008170812300220131
1761479803413833500,2.46683349609375,-0.1479647021114826,-0.0010911379712633788,0.004742335688881576
1761479803423869400,2.476869384765625,-0.1380874512195587,0.011131507003027945,0.005941555410809814
1761479803433905400,2.486905517578125,-0.13733517154753208,0.0063833260952495035,0.0006125972067005932
1761479803443941400,2.49694140625,-0.14242577268481255,-0.001413191266171634,0.002122581644542515
1761479803453977300,2.506977294921875,-0.14212474391162394,0.0007175006195902824,0.001115030303504318
1761479803464013300,2.517013427734375,-0.1394341896533966,0.001727262184023857,0.01136423804666847
1761479803474048300,2.52704833984375,-0.1341968735218048,0.006221924988459795,0.0014671499431133269
1761479803484084500,2.53708447265625,-0.13838205025196074,0.0012956293011084198,0.001992397659923881
1761479803494120400,2.547120361328125,-0.14152736254036427,0.00022748861294239758,0.008258508849982171
1761479803504156400,2.557156494140625,-0.14586802209317684,0.005310308302566409,0.0077036879788152865
1761479803514192400,2.5671923828125,-0.14183131392300127,0.005216821332834661,0.006927351577766239
1761479803524228400,2.577228271484375,-0.13300620243251324,0.0019617285270243884,0.015766053202189503
1761479803534264300,2.587264404296875,-0.1434820037394762,0.004245985272992402,0.0018655381435528397
1761479803544300300,2.59730029296875,-0.13749591506719588,-0.001462802561558783,0.008897299943864345
1761479803554335200,2.607335205078125,-0.13345277715623377,0.003605952070094645,0.008155249404907226
1761479803564371500,2.617371337890625,-0.13779519027471543,-0.0025871852152980863,0.005349051144067198
1761479803574407400,2.627407470703125,-0.1446755974382162,-0.003508409979753196,0.010308920307457446
1761479803584443400,2.637443359375,-0.14572481423020361,0.005066781870275735,0.0010849456924945115
1761479803594479400,2.647479248046875,-0.1355477036088705,-0.00406248193224892,0.0009792202956974505
1761479803604515300,2.657515380859375,-0.136745973482728,0.0025581235175952313,0.008778477603476494
1761479803614551300,2.66755126953125,-0.14437982936203478,0.0015021299249492585,0.004151073531154543
1761479803624587300,2.677587158203125,-0.139739310079813,0.004542118675354868,0.008501980483345687
1761479803634623200,2.687623291015625,-0.13704524869024753,-0.005028276490792632,0.005620214501954615
1761479803644658400,2.697658447265625,-0.14437690675258635,0.00039721915666013954,-0.0007569558471441269
1761479803654694400,2.7076943359375,-0.14242811077237127,-0.0005819646064192057,0.010529029331542551
1761479803664730400,2.71773046875,-0.1361439159363508,-0.006196863612439483,-0.0020422829499468207
1761479803674766300,2.727766357421875,-0.14632044203579425,0.0001635565312579274,0.000641914632730186
1761479803684802300,2.73780224609375,-0.13569383408129215,-0.0014556787010282276,0.010996226718183606
1761479803694838300,2.74783837890625,-0.1422796422123909,-0.009116660049278288,0.004805464052967727
1761479803704874200,2.757874267578125,-0.1324012222766876,-0.0016769019699655473,0.008308850797731429
1761479803714910200,2.76791015625,-0.13404665139615535,-0.0015763824712485073,0.00581149929035455
1761479803724945400,2.7779453125,-0.1410807878166437,0.0024936069140210747,0.005839958199858665
1761479803734981400,2.7879814453125,-0.1503618263810873,0.0009631459437310695,0.000043912206962704653
1761479803745017300,2.798017333984375,-0.14048457548916338,0.003271331554558128,0.00006221504863351583
1761479803755053300,2.80805322265625,-0.1344973177731037,0.0073902929143980145,0.007652706710249185
1761479803765089300,2.81808935546875,-0.14676584771573542,-0.004735668486077338,-0.0033783721256069837
1761479803775125200,2.828125244140625,-0.13958382725715637,0.00616201149476692,0.004616846145689487
1761479803785161200,2.8381611328125,-0.13748831628262995,0.010188581863418221,0.0022089082211256025
1761479803795197200,2.848197265625,-0.13523966057300565,-0.0034324038677848875,0.00455833915779367
1761479803805233200,2.858233154296875,-0.14526538002490996,-0.009243172505777329,0.007374510823376476
1761479803815268400,2.868268310546875,-0.14601473708748816,-0.0036797844912856816,0.005470777827594429
1761479803825304300,2.87830419921875,-0.1454161866724491,-0.010749010491464286,0.002200304789561778
1761479803835340300,2.88834033203125,-0.14511632694303989,0.005411211393773555,0.005596102974005043
1761479803845376300,2.898376220703125,-0.14182546870410442,0.007291910573840141,0.004969623372424394
1761479803855412200,2.908412109375,-0.14362345803678034,0.005238759170006961,0.0026408150986768305
1761479803865448200,2.9184482421875,-0.1469154853194952,0.003528338522929698,0.002872413631156087
1761479803875484200,2.928484130859375,-0.143172791659832,0.005360759848169982,0.011590009626559912
1761479803885520100,2.93852001953125,-0.1478121418982744,0.0013949797560460864,0.00015776611128821968
1761479803895555300,2.948555419921875,-0.1410772806853056,-0.0022316863085143266,0.0020734818058088422
1761479803905591300,2.95859130859375,-0.14332301378548146,0.004168864916171878,0.0070987991545349355
1761479803915627300,2.968627197265625,-0.14302198501229285,0.003460607048962265,0.006836604554392397
1761479803925663200,2.978663330078125,-0.13314765672981738,0.001915368634648621,0.005199651002325117
1761479803935699200,2.98869921875,-0.14123217898607254,0.003035568303614855,0.00444329794337973
1761479803945735200,2.998735107421875,-0.13704057251513002,-0.0020867248798720536,0.005266816220711916
1761479803955771100,3.008771240234375,-0.14691256271004677,-0.0002889182102866471,0.010628379786480218
1761479803965807400,3.018807373046875,-0.1404758076608181,0.003067443012911826,-0.004382416335307062
1761479803975842300,3.02884228515625,-0.1341921973466873,-0.00003271495951339602,0.004469437031634152
1761479803985878300,3.038878173828125,-0.14481763625741004,-0.0006218947580084205,0.01096040648613125
1761479803995914200,3.048914306640625,-0.1421183141708374,0.002772624784801155,0.009211352595407516
1761479804005950200,3.0589501953125,-0.14496142864227293,-0.0009463226730935275,0.004517806218005717
1761479804015986400,3.068986328125,-0.14376257424652575,-0.005238357311207801,0.0036373335890471934
1761479804026022400,3.0790224609375,-0.14959551818370817,0.004089114210847765,-0.0022408742619678375
1761479804036058400,3.089058349609375,-0.14629881472587586,0.002016162128001451,0.009325571825914085
1761479804046094300,3.09909423828125,-0.14914602085053918,0.00033975334838032723,0.00685815879907459
1761479804056130300,3.10913037109375,-0.14869476995170117,0.0029491686617955566,-0.004080328116193414
1761479804066165200,3.119165283203125,-0.14734861603975294,0.0006827946323901415,0.0031381153626367448
1761479804076201500,3.129201416015625,-0.13717150541841983,-0.0067956149568781255,0.0094657657478936
1761479804086237400,3.139237548828125,-0.1386672969341278,-0.003878613265324384,0.00875224718367681
1761479804096273400,3.1492734375,-0.1424094060719013,-0.0015544446340762079,0.005005881995894014
1761479804106309400,3.159309326171875,-0.14031272605359554,0.0037721572161652146,0.006939717868994921
1761479804116345300,3.169345458984375,-0.1337263334006071,-0.0036380642414093017,0.006157700645830482
1761479804126381300,3.17938134765625,-0.14689619609713553,0.004030552424024791,0.00217473195688799
1761479804136417300,3.189417236328125,-0.15123451756238937,0.004731467234995216,0.0023000571032986044
1761479804146452500,3.199452392578125,-0.13985738350152968,-0.0012296696591190992,0.0013174392741173505
1761479804156488400,3.209488525390625,-0.12923136006891728,-0.00513533532815054,0.00048292467873543496
1761479804166524400,3.2195244140625,-0.14075696268975735,0.0004423369400203228,0.00630668066246435
1761479804176560400,3.229560302734375,-0.1388110893189907,0.005065740690659732,0.0046392406405881045
1761479804186596400,3.239596435546875,-0.13806640843152998,0.006995028252806514,0.006525584110151976
1761479804196632300,3.24963232421875,-0.1271463704884052,0.00019101079376414418,0.007209766982030123
1761479804206668300,3.259668212890625,-0.13717325898408889,-0.0012170659058727323,0.005680986512172967
1761479804216704300,3.269704345703125,-0.13642565548717975,-0.0000817417330108583,-0.0009551818329840898
1761479804226739500,3.279739501953125,-0.13821721507906912,-0.0014164609354920684,0.004839019262697548
1761479804236775400,3.289775390625,-0.1421101308643818,-0.004261529901996255,0.007488236863538622
1761479804246811400,3.299811279296875,-0.14075930077731608,0.0020481647014617918,0.005169511592388153
1761479804256847400,3.309847412109375,-0.13597148197889328,0.0019473529417999087,0.0012788060304708777
1761479804266883300,3.31988330078125,-0.13163257599174977,0.0038914727468974887,0.0016067410768941044
1761479804276919300,3.329919189453125,-0.13761866466403005,-0.003136471394822001,0.0052296077491715545
1761479804286955300,3.339955322265625,-0.1427069277137518,0.0010426774533465505,0.01333084367820993
1761479804296991200,3.3499912109375,-0.1415074887961149,0.00039829686889424916,-0.0009448796346783637
1761479804307026400,3.3600263671875,-0.14599837047457695,-0.0004963138832710683,0.0010631174531765281
1761479804317062400,3.3700625,-0.14121113619804382,0.0010136705545708536,0.0073769219761714334
1761479804327098400,3.380098388671875,-0.12654548198580742,0.011100198549311607,0.007447758722677826
1761479804337134300,3.39013427734375,-0.15228373435437678,-0.000022869418933987616,0.004535999461822211
1761479804347170600,3.400170654296875,-0.15033786098361016,0.008763334833271802,0.009180172005854546
1761479804357206500,3.41020654296875,-0.13073767297863959,0.0031702640665695067,0.005918594660330564
1761479804367242500,3.420242431640625,-0.1388151809722185,-0.009561791734583675,0.004276270813401788
1761479804377278500,3.430278564453125,-0.14315174887180326,-0.003894596285745501,0.009264050897024572
1761479804387313700,3.440313720703125,-0.13821136986017227,0.0032267252278514206,0.005315057542920112
1761479804397349600,3.450349609375,-0.1480827755331993,0.004896521603595465,0.004018186132796108
1761479804407385600,3.460385498046875,-0.14015139801204204,-0.004580624054837972,0.004177029956318438
1761479804417421600,3.470421630859375,-0.13775836539566516,-0.00013763663871213793,0.0055109089085832235
1761479804427457500,3.48045751953125,-0.1446416951686144,0.005688439166266471,0.007929788352269679
1761479804437493500,3.490493408203125,-0.13207447454035282,0.006385097927227616,-0.004061185024306178
1761479804447529500,3.500529541015625,-0.1424012227654457,-0.0014496508190408347,0.0002656651988625526
1761479804457565400,3.5105654296875,-0.1409066002935171,0.0032183227256871757,0.009015665626525879
1761479804467600600,3.5206005859375,-0.13372282626926899,0.0016762626491487024,0.005425879239942878
1761479804477636600,3.53063671875,-0.13731471328139305,-0.0014773790761828422,0.007560681045241654
1761479804487672600,3.540672607421875,-0.14135434406101702,-0.010268917090632022,0.0013449483355507253
1761479804497708500,3.55070849609375,-0.13791267917454242,-0.002118818784877658,0.008296630636975168
1761479804507744500,3.56074462890625,-0.13402151695489883,-0.0016491371802054345,0.008854227987118065
1761479804517780500,3.570780517578125,-0.14344810146987438,0.005304262154269963,-0.004401486361958086
1761479804527816400,3.58081640625,-0.13985504541397095,-0.009155457689706235,-0.0032200580250471827
1761479804537852400,3.590852294921875,-0.14748422511816023,-0.008782843251340091,-0.00025602058768272397
1761479804547887600,3.6008876953125,-0.13760522066056727,0.0033792671747505665,0.0019522300463169812
1761479804557923600,3.610923583984375,-0.1334165367990732,-0.006685158586036414,0.007732092089392245
1761479804567959600,3.62095947265625,-0.14763503176569936,-0.0044705695427954195,0.0069913567246869205
1761479804577995500,3.63099560546875,-0.14150164357721803,-0.0043148857907392086,0.0030420345770195124
1761479804588031500,3.641031494140625,-0.1356611008554697,0.0015458046698942779,0.006077529815398156
1761479804598067500,3.6510673828125,-0.14059914177954197,0.007476710822526365,0.0019685966592282054
1761479804608103400,3.661103515625,-0.13776011896133422,0.008805603072419762,0.008608966255467384
1761479804618139400,3.671139404296875,-0.14254735323786735,0.00032844650307670235,0.007609853949211537
1761479804628174600,3.681174560546875,-0.13805822512507437,0.0022260602853260932,0.002708455241099
1761479804638210600,3.69121044921875,-0.13985504541397095,-0.00434162766719237,-0.004140259876195341
1761479804648246500,3.70124658203125,-0.1429980196148157,0.006032722559291869,-0.004181779196672141
1761479804658282500,3.711282470703125,-0.13341945940852165,-0.0009566066050902009,-0.00026285218726843594
1761479804668318500,3.721318359375,-0.137909756565094,-0.0006650763126090168,0.012202040577679872
1761479804678354400,3.7313544921875,-0.13835574676692486,-0.004492050722241401,0.012894845147430896
1761479804688390400,3.741390380859375,-0.14284253679215908,0.007284804979618639,0.004291961572878062
1761479804698426400,3.75142626953125,-0.13730828354060648,0.006306096140574664,0.0006155015498399734
1761479804708461600,3.761461669921875,-0.14838088169693947,-0.003728500737529248,0.004612133437953889
1761479804718497500,3.77149755859375,-0.14328852699398995,-0.0001613097752444446,0.003063059098739177
1761479804728533500,3.781533447265625,-0.1358054777622223,-0.0031726386867463588,0.0021042605365626512
1761479804738569500,3.791569580078125,-0.14553192200660706,0.00827145966310054,0.005326400920841842
1761479804748605400,3.80160546875,-0.14014555279314517,-0.0060165386094711715,0.0028818207803182304
1761479804758641400,3.811641357421875,-0.13326046945452688,-0.008018343418557197,0.0006238675193861126
1761479804768677400,3.821677490234375,-0.14553075296282766,-0.0063075757116079325,0.01240165480300784
1761479804778713300,3.83171337890625,-0.13401099556088447,0.002120006094966084,0.007512878114450722
1761479804788748500,3.84174853515625,-0.12907178559303284,0.00884379792464897,-0.000009187953453510998
1761479804798784500,3.851784423828125,-0.1328121411651373,0.0002542122230865061,-0.002947141101490706
1761479804808820500,3.861820556640625,-0.13730185379981993,-0.0046929801218211645,-0.0009714753806591034
1761479804818856400,3.8718564453125,-0.1257791737884283,-0.0014750775212422013,0.0010457827258855104
1761479804828892400,3.881892333984375,-0.13775485826432704,0.0036321824898943303,0.004520637495908886
1761479804838928400,3.891928466796875,-0.13626082031428813,-0.0033295280152000487,-0.0008075169906020164
1761479804848964600,3.901964599609375,-0.13880056792497633,-0.004781973579525947,0.0058129240624606605
1761479804859000600,3.91200048828125,-0.13520926543474196,0.0003415617129765451,0.00472602387489751
1761479804869035500,3.922035400390625,-0.1386503457993269,-0.0012747143772430718,0.009777188050933182
1761479804879071500,3.932071533203125,-0.14897709402441978,-0.005539605280105025,0.006195164845697582
1761479804889107500,3.942107421875,-0.14479016372859477,0.0018201828981749713,0.008433335693925618
1761479804899143400,3.952143310546875,-0.14673603709936142,-0.005820120988227427,0.0013807137686759233
1761479804909179600,3.9621796875,-0.1464355928480625,0.0093759685725905,0.0011186652990058065
1761479804919215600,3.972215576171875,-0.13761106587946415,0.0013435783623717723,0.00009176993668079376
1761479804929251600,3.98225146484375,-0.13581892176568508,0.0013732428482733667,0.0013965506586246191
1761479804939286500,3.99228662109375,-0.13447218333184718,-0.002684599441476166,0.008605586988292634
1761479804949321500,4.002321533203125,-0.15092998165786264,0.008591357533540575,-0.0017359752134419976
1761479804959357400,4.012357421875,-0.14853402643203734,0.0023183599449694155,-0.002403809738717973
1761479804969393400,4.022393310546875,-0.13536767086684703,-0.00940378816127777,0.0006025324704125524
1761479804979429400,4.032429443359375,-0.14569675717949868,-0.001896682200487703,0.0027375717377290127
1761479804989464600,4.042464599609375,-0.1347726275831461,-0.0024461145104840397,-0.0012174129657447337
1761479804999500500,4.05250048828125,-0.13672142356336117,0.0043866541190072895,0.0038020226314663887
1761479805009536500,4.06253662109375,-0.14509820676445961,0.0002628339209593832,0.006738879800960421
1761479805019572500,4.072572509765625,-0.1430062029212713,-0.011838577560149133,0.0014840097463689743
1761479805029608400,4.0826083984375,-0.1383668526828289,-0.000005516425333917141,0.01042728599011898
1761479805039644400,4.09264453125,-0.14016075036227701,-0.0027146840524859724,0.006745108612347394
1761479805049680400,4.102680419921875,-0.1395610309034586,-0.00878938258998096,0.008714417657628655
1761479805059716400,4.11271630859375,-0.1301356154322624,-0.00413572983155027,0.0011601663531735538
1761479805069751600,4.12275146484375,-0.13672142356336117,-0.004707721033226698,0.00990423023039475
1761479805079787500,4.13278759765625,-0.14135668214857577,0.004956891755014657,0.005740589478611946
1761479805089823500,4.142823486328125,-0.13956161542534828,-0.0009831292858347297,-0.0023653408918529748
1761479805099859500,4.152859375,-0.13940963973402976,-0.004398856013454497,0.0033175270501524206
1761479805109895400,4.1628955078125,-0.144797177991271,-0.0010255801880732177,0.009523761279135942
1761479805119931400,4.172931396484375,-0.13626432744562625,0.0009902531463652849,-0.004800769611541181
1761479805129967600,4.182967529296875,-0.14314648817479608,0.0031721454964019355,0.0007622348104603589
1761479805140002600,4.19300244140625,-0.13596096058487891,0.001329823831655085,-0.0012953918390907347
1761479805150038500,4.20303857421875,-0.13760755874812602,0.002174622359033674,0.0057073995950631794
1761479805160074500,4.213074462890625,-0.13925181882381438,0.00011352511076256632,-0.003254837077483535
1761479805170110500,4.2231103515625,-0.1443354056984186,0.006431238623894751,0.009247538153640926
1761479805180146400,4.233146484375,-0.14418810618221758,0.0006867584214545786,0.006863857887499034
1761479805190182700,4.2431826171875,-0.143142981043458,-0.00017161197355017066,0.008282711709477007
1761479805200218600,4.253218505859375,-0.14434066639542578,0.0009074337011203169,0.013824344549886881
1761479805210254600,4.263254638671875,-0.1377571963518858,-0.005078362710215151,0.0026371435705572367
1761479805220289500,4.27328955078125,-0.146587568539381,-0.0029737185811623927,0.005265957704186439
1761479805230325500,4.283325439453125,-0.14225216968357562,-0.007939031104650348,0.0022043051112443208
1761479805240361700,4.29336181640625,-0.14599194073379038,0.0022001769253984092,-0.0024592114540748296
1761479805250397700,4.303397705078125,-0.13686112429499625,-0.005568886173516511,0.007991400612704456
1761479805260433700,4.31343359375,-0.13177519933283327,0.0007449183494783937,0.006854907396063208
1761479805270469600,4.3234697265625,-0.14120236836969852,0.00807210116609931,0.0077484404359944165
1761479805280505600,4.333505615234375,-0.14135317501723765,0.0018577201632782815,0.008342223344370722
1761479805290540500,4.34354052734375,-0.14060732508599758,-0.0009123473382554948,0.0016403328192420303
1761479805300576800,4.35357666015625,-0.15078385118544102,-0.0004977751879952848,0.002798508144728839
1761479805310612700,4.36361279296875,-0.14165478831231593,-0.001768544042482972,0.00595759323015809
1761479805320648700,4.373648681640625,-0.1485369490414858,-0.002003211314883083,0.005846771533135325
1761479805330684700,4.3836845703125,-0.1401531515777111,-0.0007365706462413072,0.009163257403671741
1761479805340720600,4.393720703125,-0.14209376425147055,0.009328403103817254,0.004104932834487408
1761479805350756600,4.403756591796875,-0.13416530933976173,-0.00041124768201261755,0.005006740512419491
1761479805360792600,4.41379248046875,-0.14075345555841923,-0.0008395012977533042,0.003223967015184462
1761479805370827800,4.423827880859375,-0.14718611895442008,0.0043838776400312775,0.0031357042098417876
1761479805380863700,4.43386376953125,-0.14029928205013276,-0.003751388422772288,0.006439494995586574
1761479805390899700,4.443899658203125,-0.13221592883765695,0.0011878580776974559,0.010179631371982394
1761479805400935700,4.453935791015625,-0.15241525177955625,-0.003204330732952803,0.0077555094975978135
1761479805410971600,4.4639716796875,-0.13984160141050814,0.004017017089016735,0.004066299590840936
1761479805421007600,4.474007568359375,-0.13459960910379887,-0.0031532216002233323,0.0038321437750943005
1761479805431043600,4.484043701171875,-0.1404325530409813,0.0027747619429603215,0.0009031228521838784
1761479805441078800,4.494078857421875,-0.15090835434794425,-0.003866904561221599,0.008169350995495915
1761479805451114800,4.50411474609375,-0.13160159633159638,0.00025870573511347175,0.0046212300598621366
1761479805461150700,4.514150634765625,-0.13847908088564873,-0.002042429080419242,0.010824633010942488
1761479805471186700,4.524186767578125,-0.12800327957868576,0.0011854469249024987,0.004106302807666361
1761479805481222700,4.53422265625,-0.14281857139468193,0.0011554719117470085,0.003459912929218262
1761479805491258600,4.544258544921875,-0.14027648569643497,-0.00796854946007952,-0.0048200771002098915
1761479805501294600,4.554294677734375,-0.1369897191107273,0.0030665114311501382,-0.002424359336402267
1761479805511330600,4.56433056640625,-0.13564239615499973,0.005806055930256843,0.0059000178240239615
1761479805521365800,4.57436572265625,-0.13818857350647448,-0.004061057160142809,0.00018299188409000633
1761479805531402500,4.584402587890625,-0.13310206402242183,-0.0006237761878408491,0.0017515198424458503
1761479805541438500,4.5944384765625,-0.14133622388243675,0.0027202552767470476,0.005516589730698615
1761479805551474700,4.604474609375,-0.13176175532937048,-0.00010802695173770189,0.012803367471694945
1761479805561510700,4.6145107421875,-0.12577625117897986,0.0010903342536650598,-0.001710438913386315
1761479805571546600,4.624546630859375,-0.14014146113991738,0.00042083749426528806,0.001525876126717776
1761479805581582600,4.63458251953125,-0.1434340729445219,-0.001840001843497157,0.007568645155988633
1761479805591617500,4.644617431640625,-0.1307113694936037,0.010269757340848446,0.005158003817684948
1761479805601653500,4.654653564453125,-0.13654665151834486,0.0039445363746955986,0.0036940687449648975
1761479805611689500,4.664689453125,-0.1444751064300537,0.004285111706983298,0.010726469866093248
1761479805621725400,4.674725341796875,-0.1323532914817333,0.004411313636228442,0.004398600285127759
1761479805631761700,4.68476171875,-0.1341489427268505,0.0014427096216008066,0.004083634318131953
1761479805641797600,4.694797607421875,-0.1500134513348341,0.008856164215877652,0.003972100235056132
1761479805651833600,4.70483349609375,-0.1443266378700733,0.0014079671017825602,0.009463208464626222
1761479805661869600,4.71486962890625,-0.1338525901287794,0.0007758980096317827,0.006830357476696372
1761479805671904500,4.724904541015625,-0.13460077814757823,-0.002525554688554257,0.003238799258135259
1761479805681940500,4.7349404296875,-0.12996493504047393,0.0018962072764523326,0.004808934651687741
1761479805691976400,4.7449765625,-0.15091419956684113,-0.008550459267571567,0.0032694866573438047
1761479805702012400,4.755012451171875,-0.14223288046121596,-0.009405760922655463,0.0009928104296326637
1761479805712048600,4.765048583984375,-0.14312953703999517,0.0066908759407699105,-0.0009334814578294754
1761479805722084600,4.775084716796875,-0.13489771526753902,0.0034971944659948346,0.002461056351289153
1761479805732120600,4.78512060546875,-0.13684241959452628,0.00014399331426247954,0.0010008476056158541
1761479805742156500,4.795156494140625,-0.13385142108500003,0.0012771985952742396,-0.00021207184810191393
1761479805752191500,4.80519140625,-0.1414864460080862,-0.0026308051613159475,0.00684992069369182
1761479805762227500,4.8152275390625,-0.139093997913599,0.0039531946051865816,0.005886555554252117
1761479805772263400,4.825263427734375,-0.13371113583147526,-0.005969795124605297,0.000019398820213973522
1761479805782299400,4.83529931640625,-0.12667992202043532,0.002530815385561436,0.00809005694789812
1761479805792335600,4.845335693359375,-0.14688041400611399,-0.0022785576575435696,0.00705306031666696
1761479805802371600,4.85537158203125,-0.13895137457251547,-0.0019881781425327063,0.009424374291580169
1761479805812407600,4.865407470703125,-0.13416414029598236,0.007863244188390671,0.0077021718751639125
1761479805822443500,4.875443603515625,-0.13984978471696377,-0.004672101730573922,0.0026988654288463295
1761479805832478500,4.885478515625,-0.1464320857167244,-0.00006648936495184898,0.004286043288744986
1761479805842514400,4.895514404296875,-0.13116612752377987,-0.004083597785513848,0.008183799645956604
1761479805852550400,4.90555029296875,-0.13909925861060618,0.00037792993430048224,-0.0014172646530903874
1761479805862586600,4.915586669921875,-0.13490940570533275,0.000678538582380861,-0.002179024539515376
1761479805872622600,4.92562255859375,-0.13042027759253977,0.0003458908282220363,0.006360858535114675
1761479805882658600,4.935658447265625,-0.1437391933709383,0.006889777780044824,0.007942867029551416
1761479805892694500,4.945694580078125,-0.14808160648941993,0.007423537596873938,0.01112438314249739
1761479805902730500,4.95573046875,-0.1326677642583847,0.0009455372218042611,0.006920593043416738
1761479805912765400,4.965765380859375,-0.14074877938330171,0.0008306786704808473,0.004817483284324407
1761479805922801400,4.975801513671875,-0.13027414712011814,-0.008485431207343935,0.0077119626168161625
1761479805932837400,4.98583740234375,-0.1290723701149225,-0.0038279242577031252,0.006870945215411484
1761479805942873600,4.99587353515625,-0.13131459608376025,0.0059663062595762305,0.008494929688051342
1761479805952909600,5.00590966796875,-0.13610416844785211,-0.0016449541954323649,0.00688785981759429
1761479805962945500,5.015945556640625,-0.12907587724626063,0.002646733382809907,0.005362659544311464
1761479805972981800,5.025981689453125,-0.13999825327694415,0.0037272768948227166,0.007359897776134312
1761479805983017700,5.036017822265625,-0.13924948073625565,-0.0011135689987801015,0.008286438036523758
1761479805993052400,5.046052490234375,-0.14044716608822344,-0.005856196948606521,0.001979556444659829
1761479806003088400,5.05608837890625,-0.13371639652848244,-0.007029807305242866,0.00017342033814638852
1761479806013124400,5.066124267578125,-0.13940204094946385,-0.0011413885874673724,0.009678623047284781
1761479806023160600,5.07616064453125,-0.1479255391448736,-0.002467997548729181,0.012947963574156165
1761479806033196800,5.08619677734375,-0.1483697757810354,-0.0013002872099168597,0.010212985652312635
1761479806043232800,5.096232666015625,-0.13654665151834486,0.005691708835586905,0.008223327938746661
1761479806053268700,5.106268798828125,-0.1396867031097412,0.00462287402767688,0.005928586331382393
1761479806063304700,5.1163046875,-0.14133213222920893,0.003112104138545692,0.008590060625597834
1761479806073339400,5.12633935546875,-0.12756722624897956,-0.004323836282175034,0.0022101503301411867
1761479806083375600,5.136375732421875,-0.13624679178893565,-0.004530172509234398,0.002898296991083771
1761479806093411600,5.14641162109375,-0.13908698365092276,0.0037290852594189343,0.00020166005194187164
1761479806103447600,5.156447509765625,-0.13908873721659182,-0.007862805796973406,0.002874751718714833
1761479806113483800,5.16648388671875,-0.14672142405211924,-0.002882971557788551,-0.0005535787621513008
1761479806123519700,5.176519775390625,-0.13370412156879902,-0.00003578369943425059,0.0031260413323529065
1761479806133555700,5.1865556640625,-0.13070903140604495,-0.006418927131593227,-0.0006347542395815253
1761479806143590700,5.196590576171875,-0.14013386235535144,-0.004331270669959485,0.00911633125571534
1761479806153626600,5.206626708984375,-0.1310077220916748,-0.0040315753373317414,0.0039676432556472714
1761479806163662600,5.21666259765625,-0.1371422793239355,-0.005849840273056179,0.0023283150834031404
1761479806173698600,5.226698486328125,-0.1342979958087206,0.0032434936995618044,0.010520480698905885
1761479806183734500,5.236734619140625,-0.12965923009216784,0.005586038237717002,0.0028028920589014887
1761479806193770800,5.246770751953125,-0.14357494271993637,-0.002085574102401733,0.006122976392321288
1761479806203806700,5.256806640625,-0.14118307914733885,-0.0011322371666319668,0.0034778504447080193
1761479806213842700,5.2668427734375,-0.13684943385720252,0.007259469608962535,0.004809007716923952
1761479806223878700,5.276878662109375,-0.14642565597593785,-0.0013548121424391865,0.007441109786182641
1761479806233913600,5.28691357421875,-0.13714987810850143,-0.009562485854327679,0.007502009660564362
1761479806243949600,5.296949462890625,-0.14029460587501524,0.0006600165450014174,-0.005159245926700532
1761479806253985500,5.306985595703125,-0.13909633600115776,0.001652644311543554,0.0006936630862765014
1761479806264021800,5.317021728515625,-0.13296119424700736,0.0017977518706582486,0.004871149700321257
1761479806274057700,5.3270576171875,-0.13700199407041072,-0.0012579641718417406,0.006027480128593742
1761479806284093700,5.33709375,-0.13535831851661204,-0.0033909393462352453,0.0018612820935435593
1761479806294129700,5.347129638671875,-0.14194178856015205,-0.00003260536165907979,0.005215761886909604
1761479806304164600,5.35716455078125,-0.13281331020891665,0.0004842033203691244,0.005565214645396918
1761479806314200600,5.36720068359375,-0.14448679686784743,-0.002652505536470562,0.007451010125689208
1761479806324236500,5.377236572265625,-0.14807985292375087,-0.0025655031064525245,0.012533939413167536
1761479806334272500,5.3872724609375,-0.1411994457602501,-0.005545834091491997,0.0031070991698652502
1761479806344308700,5.397308837890625,-0.13670856408178805,-0.003793346134666353,0.0012709149849601089
1761479806354344200,5.40734423828125,-0.1376046361386776,-0.0045050928669050335,0.012956201679538934
1761479806364380200,5.417380126953125,-0.14089958603084088,0.0006478329168632626,0.010175393588282167
1761479806374416100,5.427416015625,-0.14239537754654882,-0.0012924326970241962,0.007899904670659453
1761479806384451000,5.437451171875,-0.14673369901180267,0.0022946502758190036,0.0060392618979327375
1761479806394487000,5.447487060546875,-0.14119593862891197,-0.0019900047734379765,0.003869352246634662
1761479806404523000,5.45752294921875,-0.149276953753829,-0.008298639930970967,0.006001615034975111
1761479806414559200,5.467559326171875,-0.151223996168375,-0.0038673429526388642,0.007195519260969013
1761479806424595200,5.47759521484375,-0.1395516785532236,-0.0036903424179181455,0.00876406548563391
1761479806434631200,5.487631103515625,-0.1385053843706846,-0.0017094342663884162,0.005042451146617531
1761479806444667100,5.497667236328125,-0.14359657002985476,-0.00207907129637897,0.0029011648016050457
1761479806454703000,5.507703125,-0.14883330163955688,-0.0014406089960597454,0.0022364903477951883
1761479806464738000,5.517738037109375,-0.1452379074960947,0.0059553647404536605,0.008249412228073924
1761479806474774000,5.52777392578125,-0.13940204094946385,-0.00228369049038738,-0.0020866335483267903
1761479806484810200,5.537810302734375,-0.1423930394589901,0.007454681653808802,0.0033413097845390437
1761479806494846200,5.54784619140625,-0.13939794929623603,-0.004725859478116035,0.010622370170801877
1761479806504882200,5.557882080078125,-0.14238836328387258,-0.0029060967050492763,0.0009182108234614133
1761479806514918100,5.567918212890625,-0.13969780902564524,0.001041216148622334,0.010445990690588951
1761479806524954000,5.5779541015625,-0.1407417651206255,0.0017416925681754945,0.007921732909977436
1761479806534990300,5.587990234375,-0.14373276363015175,0.002194934494700283,0.009459628268051893
1761479806545025000,5.59802490234375,-0.1429816530019045,0.009055869772750883,0.009766520526446401
1761479806555061000,5.60806103515625,-0.1380447811216116,0.0035455636523663995,0.0021681195530109105
1761479806565097200,5.61809716796875,-0.1404401518255472,-0.007138181316852569,0.004968107268773019
1761479806575133200,5.62813330078125,-0.13849661654233933,-0.00115872331475839,0.00222907422631979
1761479806585169400,5.63816943359375,-0.13056874615252018,-0.0012686682289466261,0.004307487935572863
1761479806595205400,5.648205322265625,-0.13879939888119697,-0.0047871246786788104,0.0069380191022530196
1761479806605241300,5.658241455078125,-0.13715221619606016,-0.0007857435502111912,0.004954297939129174
1761479806615277300,5.66827734375,-0.14044775061011314,-0.004641779657546431,0.004806614830438047
1761479806625312000,5.67831201171875,-0.13745733662247656,0.001984323951322585,0.0016095358221791683
1761479806635348000,5.688347900390625,-0.14269699084162712,0.002510594581440091,0.00671706982795149
1761479806645384200,5.69838427734375,-0.15107552760839463,0.002964895953889936,0.002175736603885889
1761479806655420400,5.70842041015625,-0.13790508038997648,-0.00046602834286168214,-0.0003568140810355544
1761479806665456400,5.718456298828125,-0.1453863760560751,0.0037351679403334853,0.0012478629029355943
1761479806675492400,5.728492431640625,-0.14853051930069922,0.00394771471247077,0.009789846603106707
1761479806685528300,5.7385283203125,-0.13566636155247688,-0.0009494644782505929,0.010582074693031608
1761479806695563300,5.748563232421875,-0.13506605757176876,-0.0005518982617184519,0.003236625567357987
1761479806705599200,5.75859912109375,-0.13326982180476188,0.005237809321936219,0.005325578936934471
1761479806715635200,5.76863525390625,-0.14703823491632936,0.0014138853859156368,0.007756897737085819
1761479806725671200,5.778671142578125,-0.12594167087376118,-0.00581332592125982,0.005662190480157732
1761479806735707400,5.788707275390625,-0.13088321892917154,-0.004634107807744294,0.003005575024150312
1761479806745743400,5.798743408203125,-0.13641571861505508,0.0008365969546139239,0.008386062486097216
1761479806755779300,5.808779296875,-0.13955869281589983,-0.0038509398071095344,0.00738857588134706
1761479806765815300,5.818815185546875,-0.14794249027967452,-0.003436020596977323,0.008967095510754733
1761479806775850200,5.828850341796875,-0.14809388144910335,-0.0035070948055014014,0.008093070888891815
1761479806785886200,5.83888623046875,-0.13208148880302906,-0.0014858729098923503,0.0059847734980285165
1761479806795922200,5.848922119140625,-0.1427063431918621,0.006964505250379443,-0.0005177767964079976
1761479806805958100,5.858958251953125,-0.12639584438204765,0.00028826062316074965,0.00421498734652996
1761479806815994400,5.868994384765625,-0.14031506414115427,0.0018847908332943915,0.0059066667605191464
1761479806826030300,5.8790302734375,-0.13358078745007515,-0.0023315847527235747,0.004407459445018321
1761479806836066300,5.88906640625,-0.14031155700981615,0.01015785793159157,0.009882164529059082
1761479806846102300,5.899102294921875,-0.13283026134371756,-0.0009672923958860337,0.007387973093148321
1761479806856137200,5.90913720703125,-0.13806757747530937,0.001969820501934737,0.0006793240336701274
1761479806866173200,5.919173095703125,-0.13911913235485554,0.0043642596241086715,0.0010346585436724126
1761479806876209200,5.929209228515625,-0.14704934083223342,0.006239990368112921,0.005998327099345624
1761479806886245400,5.939245361328125,-0.14286007244884966,-0.0045898302746005355,0.0005237316131591796
1761479806896281300,5.94928125,-0.14555647192597387,-0.0003514437861740589,-0.0013276684071868658
1761479806906317300,5.9593173828125,-0.14795242715179918,-0.0055245903740637,0.001403016932029277
1761479806916353300,5.969353271484375,-0.1319400345057249,-0.004217069705761969,0.005558218649029731
1761479806926388200,5.97938818359375,-0.13942425278127193,0.0036362558768130836,0.003509049300570041
1761479806936424200,5.989424072265625,-0.13703238920867442,-0.002633380710892379,0.008852821481321006
1761479806946460200,5.999460205078125,-0.13478840967416764,-0.006769037477206439,0.0010303294284269213
1761479806956496100,6.00949609375,-0.1431687000066042,0.0007336115041747689,0.0035794659219682214
1761479806966532400,6.019532470703125,-0.13793313744068145,0.004169906095787883,0.0018925357483327388
1761479806976568300,6.029568359375,-0.145569331407547,-0.0036167109261266883,0.004726864125113934
1761479806986604300,6.039604248046875,-0.13779051409959792,-0.009648465371038764,0.004100512387696653
1761479806996640300,6.04964013671875,-0.14287819262742996,0.007232855596672743,0.005198445425927639
1761479807006675200,6.05967529296875,-0.146322780123353,0.00605480652693659,0.007137889055907726
1761479807016711200,6.069711181640625,-0.1425841781169176,-0.009784439775627107,0.012018500704318284
1761479807026747100,6.0797470703125,-0.15066168611049652,-0.0031153738078661263,0.00806353426715359
1761479807036783000,6.089783203125,-0.14692133053839207,-0.0006943937386386097,0.0002616831434890628
1761479807046819300,6.0998193359375,-0.1328553957849741,0.007428871359117329,0.009929748264141381
1761479807056855300,6.109855224609375,-0.14213234269618988,0.004073386918753385,0.008044738235138356
1761479807066891300,6.119891357421875,-0.14317980592250823,0.0016436572874896228,0.009732837452553211
1761479807076926200,6.12992626953125,-0.13554887265264987,0.0014248999702744184,0.006832056243438273
1761479807086962200,6.139962158203125,-0.13839724782109258,-0.0034557482107542455,0.011963884440250695
1761479807096998100,6.149998046875,-0.14184066627323627,0.0038225174302235244,0.002217712582089007
1761479807107034000,6.1600341796875,-0.13884908324182033,0.004895316027197986,0.004053147848322987
1761479807117070000,6.170070068359375,-0.13720131603479385,-0.001442380828037858,0.009126505589857697
1761479807127106300,6.180106201171875,-0.141539052978158,-0.007242883800342679,0.011547156865522264
1761479807137142300,6.190142333984375,-0.13974457077682018,0.003365329980943352,-0.000645202568359673
1761479807147178200,6.20017822265625,-0.14408523032963275,0.0064017385347746305,0.004175769580993801
1761479807157213200,6.210213134765625,-0.14348667991459368,-0.00046767231067642564,0.0063931533695198595
1761479807167249200,6.220249267578125,-0.13809855713546276,0.000458959281258285,0.006158285167720169
1761479807177285000,6.23028515625,-0.1310638361930847,-0.006168240306153893,0.009229491040296852
1761479807187321000,6.240321044921875,-0.13854162472784518,-0.00033388986317440866,0.0012696180770173668
1761479807197357000,6.250357177734375,-0.1460211668282747,-0.002606456171348691,0.00986243691528216
1761479807207393300,6.260393310546875,-0.14721943670213222,0.0015938267963938415,0.002722593364305794
1761479807217429200,6.27042919921875,-0.14572072257697583,0.0012449220271781086,0.0034199827776290473
1761479807227464200,6.280464111328125,-0.1455687468856573,-0.0020614077755250035,0.007492730375565588
1761479807237500200,6.290500244140625,-0.14856032991707324,-0.0008395560966804623,0.003804050191771239
1761479807247536000,6.3005361328125,-0.13988602507412431,0.008282236785441637,0.007298449912481009
1761479807257572000,6.310572021484375,-0.13704758677780626,-0.008616875567287206,0.008105875571537762
1761479807267608000,6.320608154296875,-0.13959434865117074,-0.0017682883141562343,-0.0010150953266769647
1761479807277644000,6.33064404296875,-0.13959376412928104,0.003715075000375509,0.0045631066644564264
1761479807287680300,6.34068017578125,-0.1434814192175865,-0.0007053352577611803,0.004493840820528567
1761479807297715200,6.350715087890625,-0.1505143865942955,0.0013825221332721411,0.005861201917286962
1761479807307751200,6.360751220703125,-0.1407891113936901,-0.004549936655629426,-0.0013281067986041306
1761479807317787100,6.370787109375,-0.14034312119185924,0.0027398184937424954,0.004841850540600717
1761479807327823000,6.380822998046875,-0.14617723417282102,-0.003424585887510329,0.009279376330319791
1761479807337859000,6.390859130859375,-0.14243746312260627,0.0013330387020483612,0.0031905944685451685
1761479807347895000,6.40089501953125,-0.14138883085250853,0.011581661923322826,0.007852832392230629
1761479807357931000,6.410930908203125,-0.14602759656906128,-0.0020870536734350024,0.00538052399456501
1761479807367967000,6.420967041015625,-0.1413864927649498,-0.00197429574765265,0.0039571035953238605
1761479807378002000,6.431001953125,-0.14677520006597042,-0.0005084427124820649,0.0018181553378701209
1761479807388038000,6.441037841796875,-0.1397480779081583,0.0076401394896209235,0.006649776745401323
1761479807398073900,6.451073974609375,-0.13855039255619048,0.00016775778234004974,0.01214943360760808
1761479807408109800,6.46110986328125,-0.14603227274417876,0.0035908458325080573,0.001252100686635822
1761479807418145800,6.471145751953125,-0.1434901870459318,0.00429977955315262,0.012171535841561854
1761479807428181800,6.481181640625,-0.13855214612185954,0.007017568878177553,0.013484043212234974
1761479807438218000,6.491218017578125,-0.136305828499794,0.005538874627742916,0.005444401277322322
1761479807448253000,6.5012529296875,-0.1334650521159172,0.0014194018112495541,0.0036718569131568074
1761479807458289000,6.511288818359375,-0.1376513978898525,-0.0007017915938049554,-0.00035928003275766964
1761479807468324900,6.521324951171875,-0.14692600671350955,-0.001956961020361632,-0.0001647986402735114
1761479807478360800,6.53136083984375,-0.15141338126063347,0.00549198501240462,0.010540646704100072
1761479807488396800,6.541396728515625,-0.13569851025640964,0.014580825472995638,0.005049355811439454
1761479807498432800,6.551432861328125,-0.1388379773259163,0.0020846059880219397,0.01067727869581431
1761479807508469000,6.561468994140625,-0.15051146398484705,-0.004471501124557108,0.013139887683372944
1761479807518504000,6.57150390625,-0.14213292721807955,0.0005744754197075962,0.009947539649158716
1761479807528540000,6.581539794921875,-0.13076280741989613,-0.0019282646488398313,0.004352276925370097
1761479807538576000,6.591575927734375,-0.13809738809168337,-0.005074545051623135,0.004316310562845319
1761479807548611800,6.60161181640625,-0.14049451236128807,0.0011100984000600874,0.0008356105739250779
1761479807558647800,6.611647705078125,-0.14273615380823612,0.006742514796461909,0.01076112105436623
1761479807568683800,6.621683837890625,-0.14333061257004737,0.0014743834014981985,0.007294650520198047
1761479807578719700,6.6317197265625,-0.14093582638800142,0.004896704266685992,0.003097491091303527
1761479807588756000,6.641755859375,-0.1431757142692804,-0.002322999587468803,0.00517009611427784
1761479807598791000,6.651791015625,-0.1506581789791584,-0.0002966448590159416,0.0077754928397014735
1761479807608827000,6.661826904296875,-0.1350946991443634,-0.0027873656962066886,0.008879691221937536
1761479807618862800,6.67186279296875,-0.15274959830045698,-0.0013748137508518992,0.007663118506409227
1761479807628898800,6.68189892578125,-0.14960662409961223,-0.008158683471009134,-0.006077639413252472
1761479807638934800,6.691934814453125,-0.1461608675599098,-0.0035987734106369316,0.00396459278203547
1761479807648970800,6.701970703125,-0.1515513284265995,0.0018113602709025143,0.011777147962804883
1761479807659006700,6.7120068359375,-0.1551414618730545,0.0029345738808624444,0.004906184481084347
1761479807669042000,6.7220419921875,-0.14676117154061794,0.001303812607564032,0.007246463996917009
1761479807679078000,6.732077880859375,-0.1379267076998949,0.008690269597060978,0.006150905578862875
1761479807689113900,6.74211376953125,-0.13987199654877186,-0.0018425591267645358,-0.0014582542506046592
1761479807699149800,6.75214990234375,-0.1344844582915306,-0.010258614892326295,0.0013710691574960947
1761479807709185800,6.762185791015625,-0.13642857809662817,-0.005971621755510568,0.0010822422787547111
1761479807719221800,6.7722216796875,-0.14376140520274638,-0.0011568966838531195,0.004225362610071897
1761479807729258000,6.782258056640625,-0.14615034616589545,0.0034484782197512684,0.006386321769934147
1761479807739293000,6.79229296875,-0.13941431590914724,-0.004749897940829396,0.006999485232215374
1761479807749329000,6.802328857421875,-0.13537468512952328,-0.004715191953629255,0.00833551960894838
1761479807759364900,6.81236474609375,-0.14465221656262875,0.0001905176034197211,0.009134725428931414
1761479807769400800,6.82240087890625,-0.13507950157523155,0.00434588371720165,0.009680467944499104
1761479807779437000,6.83243701171875,-0.13059563415944575,-0.000944422976952046,0.011197740639653056
1761479807789473000,6.84247314453125,-0.13703180468678475,0.0015052351974882184,0.00703610918186605
1761479807799509000,6.852509033203125,-0.13119710718393324,0.005323934969119727,0.004753843463584781
1761479807809544000,6.8625439453125,-0.13598200337290764,-0.00022157032880932092,-0.0015555040800012648
1761479807819580000,6.872579833984375,-0.12819967893362044,0.0010942067111842334,0.011722769160754978
1761479807829615900,6.882615966796875,-0.1457084476172924,0.00426467170715332,0.006216098035871982
1761479807839652000,6.892652099609375,-0.1320961018502712,-0.00589629149697721,0.009997625868581234
1761479807849688000,6.90268798828125,-0.14481588269174098,-0.007499452377296984,0.0011745967373251913
1761479807859724000,6.91272412109375,-0.14466098439097402,-0.004351984664425253,0.005538892894051969
1761479807869760000,6.922760009765625,-0.13568155912160873,0.0015649477617815136,-0.0010323569887317717
1761479807879795000,6.932794921875,-0.13583178124725817,0.009012085429951548,0.013256627664528786
1761479807889831200,6.9428310546875,-0.13418752117156982,0.01090916948923841,0.003799428815580904
1761479807899867100,6.9528671875,-0.14406301849782466,0.006448408954404294,0.004199424451217055
1761479807909903000,6.962903076171875,-0.1510942323088646,-0.0007951689656823873,0.00416745841037482
1761479807919939000,6.97293896484375,-0.1370300511211157,0.003972922218963504,0.01053779715988785
1761479807929975000,6.98297509765625,-0.14660744228363037,0.0019129209492355585,0.013224826020468025
1761479807940011000,6.993010986328125,-0.14181962348520755,0.0019907719584181904,0.0032895430646836758
1761479807950046000,7.0030458984375,-0.15454349597990513,-0.00043336818227544425,0.006378266327641904
1761479807960082200,7.013082275390625,-0.14032675457894803,-0.00023466727240011094,-0.0038666488328948615
1761479807970118100,7.0231181640625,-0.1310509767115116,-0.01293031831961125,0.0005263436953537165
1761479807980154000,7.033154052734375,-0.1391337454020977,-0.00290598710719496,0.014278426726628095
1761479807990190000,7.043190185546875,-0.13718962559700013,-0.0047075018375180655,0.00716950803687796
1761479808000226000,7.05322607421875,-0.14512158764004707,0.009427790091373026,-0.0016656499235890804
1761479808010262000,7.063261962890625,-0.14033259979784488,0.005545085172820836,0.0036764234904199835
1761479808020297000,7.073296875,-0.13838731094896792,0.006771594760473817,-0.0004249839464202523
1761479808030333000,7.0833330078125,-0.14811141710579395,0.001763831334747374,0.004177724076062441
1761479808040369200,7.093369140625,-0.13972878868579863,-0.0013330752346664666,0.0033980084078386423
1761479808050405000,7.103405029296875,-0.14511340433359146,0.008326605650130658,0.002622293061297387
1761479808060441000,7.113441162109375,-0.14211948321461676,0.005545066906511784,0.003389971231855452
1761479808070477000,7.12347705078125,-0.14765549003183842,-0.009861048675794154,0.004253163932450115
1761479808080513000,7.133512939453125,-0.12939911785125732,-0.009569847176875918,0.012910481107980012
1761479808090548000,7.1435478515625,-0.1454085878878832,0.006270513370539993,0.0032612302856519816
1761479808100584000,7.153583984375,-0.14465747725963593,0.001913998661469668,-0.00016627821130678057
1761479808110620000,7.163619873046875,-0.14181670087575912,0.010436894068680704,-0.0010929646021686495
1761479808120656100,7.17365625,-0.14735446125864982,0.007820939416624605,0.00022770780865103004
1761479808130692000,7.183692138671875,-0.1404711314857006,-0.0008698781697079539,0.004591748237051069
1761479808140728000,7.19372802734375,-0.14810264927744865,-0.003973050083126872,0.009658639705181122
1761479808150764000,7.203763916015625,-0.1404711314857006,0.005760956413205713,0.00007273644264787434
1761479808160799000,7.213799072265625,-0.13478490254282952,0.012129450265504419,0.006270385506376624
1761479808170835000,7.2238349609375,-0.14181494731009006,0.009409414184466005,0.004041238214820623
1761479808180871000,7.233870849609375,-0.14914543632864952,-0.0006988689843565226,0.0008952500729821622
1761479808190907000,7.243906982421875,-0.14764789124727248,-0.002445986646320671,0.0015361052597872911
1761479808200943000,7.253943115234375,-0.14151391853690146,0.0034925730898045003,0.009978519309312105
1761479808210979000,7.26397900390625,-0.15124386991262434,0.0018511077594012021,0.0007476217632181942
1761479808221015000,7.27401513671875,-0.13987550368010998,-0.00015833236686885356,0.002663136528339237
1761479808231050000,7.284050048828125,-0.1302969434738159,-0.004391238962579518,0.008613204039167613
1761479808241086000,7.2940859375,-0.14660685776174068,0.0029806963112205265,0.004958608788065612
1761479808251122000,7.304121826171875,-0.14301380170583725,0.0017856047751381992,0.005208912021014839
1761479808261158000,7.314157958984375,-0.1271516311854124,0.004451572581380605,0.0019146927812136707
1761479808271193900,7.32419384765625,-0.14166355614066123,0.0003298712751828134,0.006029635553061962
1761479808281230000,7.33422998046875,-0.1445049170464277,-0.003603467852063477,-0.0032849034221842884
1761479808291265000,7.34426513671875,-0.14300854100883006,0.0031858817608095705,0.006073566026333719
1761479808301301000,7.354301025390625,-0.14240765250623225,-0.00179722214769572,0.0012199885153211653
1761479808311337000,7.3643369140625,-0.1495937646180391,0.003935823345277458,0.005985558949317783
1761479808321373000,7.374373046875,-0.14031623318493366,0.009226075240503995,0.007577705245278775
1761479808331409000,7.384408935546875,-0.13942249921560287,0.004498078604228795,0.0021421265952289103
1761479808341444900,7.39444482421875,-0.13209493280649184,0.0025012239648960527,0.0008129603506997227
1761479808351480800,7.404480712890625,-0.1454161866724491,-0.0014790595766156912,0.0006210727741010486
1761479808361515500,7.414515625,-0.1502051745146513,0.0007607917720451951,0.0018595833268016575
1761479808371551500,7.424551513671875,-0.14182429966032503,0.0018493907263502478,0.005329195666126906
1761479808381587500,7.43458740234375,-0.13374094644784926,-0.010957483876682817,-0.004301368722040206
1761479808391623400,7.44462353515625,-0.14391454993784428,-0.00832242266535759,0.008531681501865387
1761479808401659600,7.45465966796875,-0.14256781150400638,-0.0031080124853178855,0.009160919316112995
1761479808411695600,7.464695556640625,-0.1409200442969799,0.00107480789097026,0.0022451303119771183
1761479808421731600,7.474731689453125,-0.1391284847050905,0.004127235997840762,0.005091824979986995
1761479808431766500,7.4847666015625,-0.13164777356088161,0.0019357355692423879,0.010029098719079046
1761479808441802500,7.494802490234375,-0.1413695416301489,0.00011065730024129151,0.0072741922540590165
1761479808451838700,7.504838623046875,-0.14031974031627178,-0.0000032148703932762145,0.006542115119844674
1761479808461874700,7.514874755859375,-0.14241700485646724,0.005305394665431231,0.011065730024129151
1761479808471910700,7.52491064453125,-0.13538169939219952,0.00225351454783231,0.0008353365792892873
1761479808481946600,7.534946533203125,-0.14405834232270717,-0.0014796075658872723,0.004886986590269953
1761479808491982600,7.544982666015625,-0.14780103598237038,-0.0031123598668724296,0.005432126317638904
1761479808502017500,7.555017578125,-0.1350812551409006,-0.0007938537914305925,0.0038280338555574415
1761479808512053800,7.5650537109375,-0.14106968190073965,-0.004186217909771949,0.004694222230836749
1761479808522089700,7.57508984375,-0.1421188986927271,0.01369998751785606,0.0038037944634445008
1761479808532125700,7.585125732421875,-0.13808102147877216,0.0033935331621207294,0.007632138846255838
1761479808542161700,7.59516162109375,-0.13449030351042746,0.0011260266215540468,0.006356182359997182
1761479808552197600,7.60519775390625,-0.13284312082529068,0.0003104907212778926,0.004291450116224587
1761479808562232800,7.61523291015625,-0.1292512338131666,-0.0038723661876283585,0.007068842407688498
1761479808572268800,7.625268798828125,-0.14212299034595488,-0.003929484936036169,-0.0019860592506825924
1761479808582304800,7.6353046875,-0.14421674775481222,0.009814305190928279,0.003213463887479156
1761479808592340700,7.6453408203125,-0.14960545505583286,0.002204780035279691,0.0007282777419313788
1761479808602376700,7.655376708984375,-0.13479074776172636,-0.004288235245831311,0.007495926979649812
1761479808612412700,7.66541259765625,-0.13972878868579863,0.0016600421667098998,0.009054262337554245
1761479808622448600,7.67544873046875,-0.1326928986996412,-0.001866067866515368,0.01001804760210216
1761479808632483800,7.68548388671875,-0.1307464408069849,-0.0017896781620569526,0.00721237906422466
1761479808642519800,7.695519775390625,-0.13688801230192182,-0.0012434607224538921,0.01075523930285126
1761479808652555800,7.7055556640625,-0.1365881525725126,-0.0024589739920571445,0.005334127569571137
1761479808662591700,7.715591796875,-0.14631635038256643,0.0038640184843912718,0.004645999174937606
1761479808672627700,7.725627685546875,-0.14002806389331818,0.007995455733314156,0.00527088960763067
1761479808682663700,7.73566357421875,-0.1317921504676342,0.0015556867430917918,0.00618570289760828
1761479808692699600,7.74569970703125,-0.13597849624156952,-0.0022089812863618132,0.002418349720723927
1761479808702734600,7.755734619140625,-0.13657704665660858,0.0015962196828797459,0.002217073261272162
1761479808712770800,7.765770751953125,-0.13987141202688216,-0.0033378391858190294,-0.001750661325920373
1761479808722806800,7.775806884765625,-0.13568214364349843,-0.00374647478563711,0.0021344730117358267
1761479808732842800,7.7858427734375,-0.13358838623464106,-0.0026619126856327053,0.003634447512216866
1761479808742878700,7.795878662109375,-0.13808102147877216,0.007441548177599906,0.007775712035410106
1761479808752914700,7.805914794921875,-0.1436205354273319,-0.0046318062528036535,0.0045969176025129855
1761479808762949600,7.81594970703125,-0.1403273391008377,-0.0014377959844656288,0.006153389796894043
1761479808772985600,7.825985595703125,-0.14870704491138456,0.002318761803768575,0.005071859904192387
1761479808783021600,7.836021484375,-0.13493980084359644,0.011410744069516658,0.0007389817990362643
1761479808793057800,7.846057861328125,-0.1241670624166727,-0.0024688377989456056,0.007645473251864314
1761479808803093800,7.85609375,-0.13778525340259073,-0.006328271439764648,0.006617993367649615
1761479808813129700,7.866129638671875,-0.13793196839690208,-0.005890829870570451,-0.0009807729319669305
1761479808823165700,7.876165771484375,-0.13089783197641372,0.0021369937623851,0.004702460336219519
1761479808833200600,7.88620068359375,-0.1455640707105398,0.001692063006479293,0.004048197678569704
1761479808843236600,7.896236572265625,-0.14047931479215622,0.010333287563733756,0.004069039537198841
1761479808853272600,7.9062724609375,-0.1428764390617609,-0.0009743614574894309,0.005322090071905404
1761479808863308500,7.91630859375,-0.13554536552131174,0.0024792130624875426,0.0027039982616901396
1761479808873344800,7.9263447265625,-0.1364408530563116,-0.002570763803459704,-0.00119045189358294
1761479808883380700,7.936380615234375,-0.1258183367550373,0.0024069515438750384,0.005444821402430534
1761479808893415700,7.946415771484375,-0.14407237084805966,0.002697933847084641,0.006558189471811055
1761479808903451600,7.95645166015625,-0.1497550926595926,-0.00041035263286903496,0.0036178617035970088
1761479808913487600,7.966487548828125,-0.13329261815845966,-0.0013298968968912957,0.0033721798468381164
1761479808923523600,7.976523681640625,-0.13643559235930441,0.003507350533828139,0.002608045340236276
1761479808933559600,7.9865595703125,-0.13913023827075957,0.0005848141506314277,0.003917319574207067
1761479808943595500,7.996595458984375,-0.13942834443449972,-0.009465729215275496,0.003596380524151027
1761479808953630700,8.006630615234375,-0.1385281807243824,-0.000996829017624259,-0.0015439597726799547
1761479808963665700,8.016665771484375,-0.14571429283618925,-0.008088120719138532,0.007219886517245322
1761479808973701600,8.02670166015625,-0.14467150578498839,-0.0023682635013014077,-0.004390490043908357
1761479808983737600,8.036737548828125,-0.14048457548916338,-0.0023949505788274108,0.002364646772108972
1761479808993773800,8.04677392578125,-0.14587328279018402,-0.005170497973076999,0.0038890433277934786
1761479809003809800,8.056809814453125,-0.1380921273946762,0.0012264730550348758,0.006778590756841003
1761479809013845800,8.066845703125,-0.1395861653447151,-0.01102231100751087,0.005585764243081211
1761479809023881700,8.0768818359375,-0.14123100994229315,-0.009671298257354646,0.0026761969393119213
1761479809033916700,8.086916748046875,-0.137342770332098,-0.0015681078332476317,-0.0023073088279925284
1761479809043952600,8.09695263671875,-0.1527577816069126,0.0022426826265640556,0.006387399482168257
1761479809053988600,8.106988525390625,-0.14183248296678067,-0.0019654365877620874,0.001846340252738446
1761479809064024600,8.117024658203125,-0.14063421309292315,0.0010286854606121778,0.006706676298100501
1761479809074060800,8.127060791015625,-0.13434768016934395,0.00261016423208639,0.014740071155317128
1761479809084096800,8.1370966796875,-0.13823708882331848,0.007807769407797605,0.008434870063886046
1761479809094131700,8.147131591796875,-0.13584230264127253,-0.000690703944209963,0.0037303639010526236
1761479809104167700,8.157167724609375,-0.1461702199101448,0.004581446038745343,0.0035482305334880947
1761479809114203600,8.16720361328125,-0.1380874512195587,0.000919599062949419,0.004548785878159106
1761479809124239600,8.177239501953125,-0.14676643223762512,0.00013243074063211678,0.011181209629960357
1761479809134275600,8.187275634765625,-0.14916121841967106,0.003928133229166269,0.008470178839284926
1761479809144311600,8.1973115234375,-0.1395873343884945,0.007304532593395561,0.007022190254367887
1761479809154347800,8.20734765625,-0.15185820241868495,-0.0017404504591599106,0.008130315893050282
1761479809164382700,8.2173828125,-0.1394423729598522,-0.0009611549160443246,0.003097052699886262
1761479809174418700,8.227418701171874,-0.14542904615402222,0.007103785856906324,0.002583477154560387
1761479809184454700,8.23745458984375,-0.14887188008427618,0.009968418040405958,0.009198072988726198
1761479809194490600,8.24749072265625,-0.14138883085250853,-0.0033254911608994004,0.0019178893852978944
1761479809204526600,8.257526611328124,-0.129418407073617,0.007327749072201549,0.002080496068485081
1761479809214562600,8.2675625,-0.1385463009029627,0.004828260406665503,0.005040587983094156
1761479809224597800,8.27759765625,-0.1372030696004629,-0.00432076754225418,0.004175294656958431
1761479809234633700,8.2876337890625,-0.13780337358117103,0.008147796750813723,0.003615322686638683
1761479809244669700,8.297669677734374,-0.13390811970829963,0.007438296774588525,0.0010930194010958076
1761479809254705700,8.30770556640625,-0.14153437680304048,0.000400233097653836,-0.0003533800149336457
1761479809264741600,8.31774169921875,-0.14572364518642425,-0.004705236815195531,0.005336136863566935
1761479809274777600,8.327777587890624,-0.14377660277187823,0.00034687720891088246,0.0025862901661545036
1761479809284813600,8.3378134765625,-0.14721826765835283,0.0030455234420485792,0.010972115190234034
1761479809294848800,8.347848876953124,-0.14108721755743026,-0.004716360997408628,0.00906441840538755
1761479809304884700,8.357884765625,-0.13809388096034525,0.0015788849555887282,0.008419654228445142
1761479809314920700,8.367920654296874,-0.13614683854579926,0.004867679101601243,0.005922046992741525
1761479809324956700,8.377956787109374,-0.13480010011196136,0.004398308024182915,0.005968479950353503
1761479809334992600,8.38799267578125,-0.14318331305384635,0.0015493483338505029,0.001784253068268299
1761479809345028600,8.398028564453124,-0.13989362385869025,0.006182962951250374,0.0025085670211352404
1761479809355064600,8.408064697265624,-0.13271160340011118,0.002332425002939999,0.006704356476850807
1761479809365100500,8.4181005859375,-0.13301380121707915,-0.002735690307896584,0.004110942450165749
1761479809375136800,8.42813671875,-0.1355640702217817,0.00559999369783327,0.008527936908509582
1761479809385172700,8.4381728515625,-0.1451426304280758,0.008226798537466674,0.007048037081677466
1761479809395209000,8.448208984375,-0.13392039466798306,-0.008090878931805491,0.007987491622567176
1761479809405245000,8.458244873046874,-0.13601590564250945,0.002595459853298962,0.005099898688588291
1761479809415281000,8.468281005859374,-0.1376601657181978,0.00817444729572162,0.005152706588059663
1761479809425315800,8.47831591796875,-0.13810615592002867,0.000010576192941516637,0.010014978862181305
1761479809435351800,8.488351806640624,-0.14424129767417906,-0.00007175006195902824,0.013389021872542798
1761479809445387800,8.4983876953125,-0.13765724310874938,-0.0009518025658093392,0.003626245939452201
1761479809455423700,8.508423828125,-0.14184592697024345,0.0053959224930964405,0.007276000618655234
1761479809465459700,8.518459716796874,-0.14887830982506275,0.010579773138090968,0.00503724524853751
1761479809475496000,8.528495849609374,-0.13795184214115142,0.0051939519139006735,0.007434972306340932
1761479809485531000,8.53853076171875,-0.13465747677087783,0.0006305529884994029,0.008877097406052052
1761479809495566800,8.54856689453125,-0.13689736465215682,-0.0072588485544547434,0.007866988781746477
1761479809505602800,8.558602783203124,-0.146322780123353,0.0053229668547399335,0.012987016942910849
1761479809515638800,8.568638671875,-0.13360124571621418,0.006367343074828386,0.004677672954834997
1761479809525674800,8.5786748046875,-0.1461737270414829,0.003953030208405107,-0.0012756459590047597
1761479809535710700,8.588710693359374,-0.14303016831874846,-0.0005799553124234079,0.006036247956939042
1761479809545746700,8.59874658203125,-0.14347440495491026,-0.0011437997402623295,0.003831979378312826
1761479809555782000,8.608781982421876,-0.1376350312769413,0.005069722746033221,0.0017742431309074162
1761479809565817900,8.61881787109375,-0.1401841312378645,0.005003178582154214,0.0024865561187267303
1761479809575853800,8.628853759765626,-0.18045768943727014,0.014880064147897065,-0.0027650260002352297
1761479809585889800,8.638889892578124,-0.18688918378949165,-0.006860588218178599,0.011856003618985414
1761479809595925800,8.64892578125,-0.03590425707399845,-0.01157318635592237,0.030781105373986064
1761479809605961700,8.658961669921876,-0.14438216744959353,0.022084734829701483,-0.040939310365449635
1761479809615997000,8.668996826171876,-0.14242869529426097,0.01908591833990067,-0.0015588833471760152
1761479809626033000,8.679032958984376,-0.15933540643155575,-0.028220479372050612,0.05502572165131569
1761479809636068900,8.68906884765625,-0.1367418818295002,-0.02881035329028964,-0.0014504545366391538
