time,seconds_elapsed,z,y,x
1761479801015259400,0.06825927734375,-0.003847202518954873,-0.003385676769539714,-0.0008769789128564298
1761479801025294300,0.07829443359375,-0.0068062408827245235,-0.0066062374971807,-0.003912449814379215
1761479801035330300,0.088330322265625,-0.004933505784720182,-0.003225354477763176,-0.002296177437528968
1761479801045366300,0.0983662109375,-0.007656321860849857,-0.002892459277063608,-0.003323625074699521
1761479801055402200,0.10840234375,-0.006554838269948959,-0.00013182646944187582,-0.0010287790792062879
1761479801065438200,0.118438232421875,-0.006882939953356981,-0.0024546354543417692,-0.0018093516118824482
1761479801075474200,0.12847412109375,-0.006627010181546211,-0.00250603468157351,-0.0007888282998465002
1761479801085509400,0.13850927734375,-0.007096258923411369,0.00011851066665258259,-0.0015020228456705809
1761479801095545300,0.14854541015625,-0.006105563137680292,-0.0029196233954280615,0.00023276027059182525
1761479801105581300,0.158581298828125,-0.004317782819271088,-0.00509835546836257,-0.0008980178972706199
1761479801115617300,0.1686171875,-0.005276521202176809,0.00020160128769930452,-0.0014418354257941246
1761479801125653200,0.1786533203125,-0.0060144830495119095,-0.0032746228389441967,-0.0006359628750942647
1761479801135689200,0.188689208984375,-0.0044112601317465305,-0.004364388529211283,-0.002775280037894845
1761479801145725200,0.19872509765625,-0.009040899574756622,-0.001026115962304175,-0.00016671388584654778
1761479801155760400,0.208760498046875,-0.0049462891183793545,-0.003626160090789199,-0.00020719393796753138
1761479801165796400,0.21879638671875,-0.007987619377672672,-0.0008018778171390295,-0.0014181332662701607
1761479801175832300,0.228832275390625,-0.005437642335891724,-0.0024048343766480684,-0.001038366463035345
1761479801185868300,0.238868408203125,-0.00803449098020792,-0.0006490123341791332,-0.0029736857395619154
1761479801195904300,0.248904296875,-0.006484530866146088,-0.0006530070677399635,-0.0005145227187313139
1761479801205940200,0.258940185546875,-0.0065170214511454105,-0.0033097765408456326,-0.0011108045000582933
1761479801215975200,0.26897509765625,-0.006976416800171137,-0.0010969560826197267,-0.0010580739472061396
1761479801226011400,0.279011474609375,-0.003852795111015439,-0.00398701848462224,-0.0013440974289551377
1761479801236047400,0.28904736328125,-0.003337739733979106,-0.004041613079607487,-0.000838895735796541
1761479801246083300,0.299083251953125,-0.005259476602077484,-0.004531634971499443,-0.0019560917280614376
1761479801256119300,0.309119384765625,-0.007191333919763565,-0.0023728765081614256,-0.0023190807551145554
1761479801266155300,0.3191552734375,-0.003424292430281639,-0.002892725635319948,-0.001050617080181837
1761479801276190200,0.329190185546875,-0.007997472770512104,-0.0034850125666707754,-0.0019622170366346836
1761479801286226200,0.33922607421875,-0.0053553506731987,-0.0007550061563961208,-0.0024730113800615072
1761479801296262100,0.34926220703125,-0.005530053749680519,-0.004710332956165075,-0.0006857639527879655
1761479801306298400,0.35929833984375,-0.0057558901607990265,-0.003457315731793642,-0.002811499172821641
1761479801316334300,0.369334228515625,-0.005150021053850651,-0.0034887411165982485,-0.003126284806057811
1761479801326370300,0.379370361328125,-0.007801197934895754,-0.0009121326729655266,-0.0009158611064776778
1761479801336406300,0.38940625,-0.007781223859637976,-0.004226969089359045,-0.002508165081962943
1761479801346442500,0.3994423828125,-0.005104480776935816,-0.002636795863509178,-0.0035273567773401737
1761479801356478700,0.409478759765625,-0.005536978133022785,-0.0016887104138731956,-0.0020591560751199722
1761479801366514700,0.4195146484375,-0.004315119702368975,-0.0029409287963062525,-0.001258609932847321
1761479801376550700,0.429550537109375,-0.0070344735868275166,-0.002353701740503311,-0.0021662150975316763
1761479801386586600,0.439586669921875,-0.007124222349375486,-0.004881574306637049,-0.002357163932174444
1761479801396622600,0.44962255859375,-0.00788775086402893,-0.004055461846292019,-0.0006202502408996224
1761479801406658600,0.459658447265625,-0.005660282447934151,-0.001740109408274293,-0.0023723437916487455
1761479801416693800,0.46969384765625,-0.006915164180099964,-0.0003376888344064355,-0.0007829693495295942
1761479801426729700,0.479729736328125,-0.007651794236153364,-0.0038011297583580017,-0.0015363775892183185
1761479801436765700,0.489765625,-0.0068182251416146755,-0.001916144392453134,-0.003388339886441827
1761479801446801700,0.4998017578125,-0.007407316006720066,-0.003175287041813135,-0.0010341054294258356
1761479801456837600,0.509837646484375,-0.007128216791898012,-0.004510329570621252,-0.0005241101025603712
1761479801466873600,0.51987353515625,-0.006953513715416193,-0.003495665267109871,-0.0025001754984259605
1761479801476909600,0.52990966796875,-0.006148706190288067,-0.00253426400013268,0.0018900453578680754
1761479801486944800,0.53994482421875,-0.00757988914847374,-0.006143646314740181,-0.003564108395949006
1761479801496980700,0.549980712890625,-0.006596117280423641,-0.0032402679789811373,0.00016937704640440643
1761479801507016700,0.5600166015625,-0.003829359309747815,-0.006067746318876743,-0.0008455536444671452
1761479801517052700,0.570052734375,-0.005783054046332836,-0.0034173682797700167,-0.0013020194601267576
1761479801527088600,0.580088623046875,-0.004864796530455351,-0.0022831279784440994,-0.00015686018741689622
1761479801537124600,0.59012451171875,-0.008028365671634674,-0.0016740630380809307,-0.0009606021922081709
1761479801547160600,0.60016064453125,-0.006113818846642971,-0.0017243968322873116,-0.0018599516479298472
1761479801557195800,0.61019580078125,-0.003925233148038387,-0.003634948516264558,-0.00307648372836411
1761479801567231700,0.620231689453125,-0.005721268709748983,-0.0013720606220886111,-0.0015646071406081319
1761479801577267700,0.630267822265625,-0.005653624422848225,-0.0025840650778263807,-0.0008993495139293373
1761479801587303700,0.6403037109375,-0.007741276640444994,-0.007003048434853554,-0.0012767193838953972
1761479801597339600,0.650339599609375,-0.005321528296917677,0.0002884203568100929,-0.0020208065398037434
1761479801607375600,0.660375732421875,-0.00618306128308177,-0.003724697045981884,-0.002531068166717887
1761479801617411600,0.67041162109375,-0.0065079666674137115,-0.0024165522772818804,-0.00010839065362233669
1761479801627446500,0.680446533203125,-0.006527940277010202,-0.005852562841027975,-0.0004647216119337827
1761479801637482800,0.690482666015625,-0.005331382155418396,-0.003897536313161254,-0.001919340225867927
1761479801647518700,0.700518798828125,-0.0027358653023838997,-0.003281813347712159,-0.003914314322173595
1761479801657554700,0.7105546875,-0.00560968229547143,-0.003635481232777238,0.0003057308786083013
1761479801667590700,0.720590576171875,-0.006135656964033842,-0.003439738880842924,-0.0034352114889770746
1761479801677626600,0.730626708984375,-0.003933488857001066,-0.000666322885081172,0.00044128578156232834
1761479801687662600,0.74066259765625,-0.006421147845685482,-0.0003020024741999805,-0.0014327806420624256
1761479801697697500,0.750697509765625,-0.0049643986858427525,-0.0010612696642056108,-0.0016615461790934205
1761479801707733500,0.7607333984375,-0.005825931206345558,-0.0019028285751119256,-0.0008660599705763161
1761479801717769700,0.770769775390625,-0.006298908498138189,-0.004629106726497412,-0.0054155378602445126
1761479801727805700,0.7808056640625,-0.006452572997659445,-0.0022945795208215714,-0.001303084660321474
1761479801737841700,0.790841552734375,-0.006852047052234411,0.0004985437262803316,-0.0019241338595747948
1761479801747877600,0.800877685546875,-0.005059739574790001,-0.0013627394801005721,-0.002341717481613159
1761479801757913600,0.81091357421875,-0.006855775602161884,-0.0054730623960494995,-0.002373675350099802
1761479801767948500,0.820948486328125,-0.001958222361281514,-0.005209143273532391,-0.0009544769418425858
1761479801777984500,0.830984619140625,-0.008139153011143208,-0.003913515247404575,-0.001133441342972219
1761479801788020700,0.841020751953125,-0.007131146267056465,-0.0026104305870831013,-0.0007036071619950235
1761479801798056700,0.851056640625,-0.005399825517088175,-0.0016674051294103265,-0.0025305356830358505
1761479801808092700,0.8610927734375,-0.005947371479123831,-0.0046850331127643585,-0.001678057829849422
1761479801818128600,0.871128662109375,-0.005006476305425167,-0.0032831449061632156,0.00023622238950338215
1761479801828164600,0.88116455078125,-0.003775030840188265,-0.003919374197721481,-0.0006524744676426053
1761479801838200600,0.89120068359375,-0.004449343308806419,-0.004550010897219181,-0.002415753435343504
1761479801848235500,0.901235595703125,-0.005514341406524181,-0.0009166600648313761,-0.000672448193654418
1761479801858271500,0.911271484375,-0.004846953321248293,-0.0025358619168400764,-0.000862864195369184
1761479801868307700,0.9213076171875,-0.005167331546545029,-0.0034384073223918676,-0.0013278521364554763
1761479801878343700,0.93134375,-0.006593187805265188,-0.0025872609112411737,-0.0006831008358858526
1761479801888379600,0.941379638671875,-0.0046386937610805035,-0.002168612089008093,-0.0006103964988142252
1761479801898415600,0.95141552734375,-0.004991296678781509,-0.0013590110465884209,-0.0005669869715347886
1761479801908451600,0.96145166015625,-0.006389189511537552,-0.0020591560751199722,-0.0019925772212445736
1761479801918487600,0.971487548828125,-0.005452822428196669,-0.004442951641976833,0.00036245622322894633
1761479801928522500,0.9815224609375,-0.0052112736739218235,-0.003763579297810793,-0.002597647253423929
1761479801938558500,0.991558349609375,-0.007527957204729319,-0.0019060244085267186,-0.0014572817599400878
1761479801948594700,1.0015947265625,-0.006817159708589315,-0.0018556906143203378,-0.001100950757972896
1761479801958630700,1.011630615234375,-0.004957207944244146,-0.003766508772969246,-0.0010764497565105557
1761479801968666600,1.02166650390625,-0.005030711181461811,-0.0020969731267541647,-0.0031095067970454693
1761479801978702600,1.03170263671875,-0.006167348474264145,-0.0022892532870173454,0.00025300029665231705
1761479801988738600,1.041738525390625,-0.00878976285457611,-0.003096723696216941,0.0003507383225951344
1761479801998774500,1.0517744140625,-0.005905027035623789,-0.0026370619889348745,-0.0025680861435830593
1761479802008809500,1.0618095703125,-0.006646184716373682,-0.0018104169284924865,-0.0014181332662701607
1761479802018845400,1.071845458984375,-0.0075689698569476604,-0.002519350266084075,-0.0031883365008980036
1761479802028881700,1.081881591796875,-0.006154565140604973,-0.003257578704506159,-0.002444781828671694
1761479802038917600,1.091917724609375,-0.0076118470169603825,-0.004187554586678743,-0.002579537918791175
1761479802048953600,1.10195361328125,-0.007902664132416248,-0.002843457041308284,-0.0013129384024068713
1761479802058989600,1.111989501953125,-0.005242698825895786,-0.0008689894457347691,-0.002037318190559745
1761479802069025500,1.122025634765625,-0.00424374733120203,-0.0016106797847896814,-0.0024226775858551264
1761479802079061500,1.1320615234375,-0.007383081596344709,-0.0028093685396015644,-0.002176867797970772
1761479802089096400,1.142096435546875,-0.002953711897134781,-0.0009177253232337534,-0.0022269352339208126
1761479802099132400,1.15213232421875,-0.005447762086987495,-0.004634965676814318,-0.000041278995922766626
1761479802109168600,1.162168701171875,-0.0065625617280602455,-0.0029710223898291588,-0.0008807073463685811
1761479802119204600,1.17220458984375,-0.0054339137859642506,-0.0034320156555622816,0.00025992453447543085
1761479802129240600,1.182240478515625,-0.006330333650112152,-0.0018666095566004515,-0.0009941579774022102
1761479802139276500,1.192276611328125,-0.005423527676612139,-0.0024839304387569427,-0.0007352987886406481
1761479802149312500,1.2023125,-0.007518636528402567,-0.002846919232979417,-0.0007094661123119295
1761479802159348500,1.212348388671875,-0.006146575789898634,-0.005798766855150461,-0.0017033577896654606
1761479802169383400,1.222383544921875,-0.008565524592995644,-0.001796834752894938,-0.003564374754205346
1761479802179419400,1.23241943359375,-0.004095409065485001,-0.0009502158500254154,-0.001561944023706019
1761479802189455600,1.24245556640625,-0.004968393128365278,-0.0037816886324435472,-0.0003981425834354013
1761479802199491600,1.25249169921875,-0.005898901727050543,-0.0037824877072125673,-0.0007590008899569511
1761479802209527600,1.262527587890625,-0.005839513149112463,-0.00347462622448802,0.00001997370782191865
1761479802219563500,1.2725634765625,-0.009485114365816116,-0.0013480921043083072,-0.0008623315370641649
1761479802229599500,1.282599609375,-0.006590524688363075,-0.0057071540504693985,-0.0013712616637349129
1761479802239635500,1.292635498046875,-0.008776979520916939,-0.0036645096261054277,-0.0021427792962640524
1761479802249671400,1.30267138671875,-0.005616073962301016,-0.001142229768447578,-0.0008868326549418271
1761479802259706600,1.31270654296875,-0.006848851218819618,-0.002186721656471491,-0.003014165675267577
1761479802269742600,1.32274267578125,-0.0067575047723948956,-0.003552656853571534,-0.003195793367922306
1761479802279778600,1.332778564453125,-0.00612367270514369,-0.004477838985621929,0.00004367584188003093
1761479802289814500,1.342814453125,-0.004199805203825235,-0.0031883365008980036,-0.0010388991795480251
1761479802299850500,1.3528505859375,-0.005873069167137146,-0.002686863299459219,-0.0013467605458572507
1761479802309886500,1.362886474609375,-0.008915464393794537,-0.00293400464579463,-0.0017422399250790477
1761479802319922700,1.372922607421875,-0.004887166898697615,-0.0032378712203353643,-0.0029494508635252714
1761479802329958700,1.382958740234375,-0.0055002267472445965,-0.005132177844643593,-0.0027454528026282787
1761479802339993600,1.39299365234375,-0.005537244491279125,-0.00012969593808520585,-0.0044352286495268345
1761479802350029800,1.40302978515625,-0.008125304244458675,-0.00023995080846361816,-0.0034346787724643946
1761479802360066000,1.413066162109375,-0.005504487548023462,-0.004027232062071562,-0.0016341155860573053
1761479802370102000,1.42310205078125,-0.005188902840018272,-0.0006388923502527177,-0.003835218260064721
1761479802380138000,1.433137939453125,-0.005793706979602575,-0.005898635368794203,-0.0014953649369999766
1761479802390174000,1.443174072265625,-0.005804359447211027,-0.0048919604159891605,-0.0004825647920370102
1761479802400210000,1.4532099609375,-0.004845355171710253,-0.003203516360372305,-0.002302835462614894
1761479802410246000,1.463245849609375,-0.006326072849333286,-0.004159324802458286,-0.001654622028581798
1761479802420280800,1.47328076171875,-0.006040049251168966,-0.002921221312135458,-0.0014500912511721253
1761479802430316800,1.48331689453125,-0.006641923915594816,-0.003430684097111225,-0.002195776207372546
1761479802440353000,1.49335302734375,-0.006690925918519497,-0.0008178567513823509,-0.0035289546940475702
1761479802450389000,1.503388916015625,-0.006336458958685398,-0.00427250936627388,-0.0027057717088609934
1761479802460425000,1.513425048828125,-0.006893592420965433,-0.0011235876008868217,-0.0015036207623779774
1761479802470461000,1.5234609375,-0.006116215605288744,-0.0006713828770443797,-0.001580053474754095
1761479802480497000,1.533496826171875,-0.0037795582320541143,-0.003599528456106782,-0.0014988270122557878
1761479802490532900,1.543532958984375,-0.007485613226890564,-0.0025124261155724525,-0.0027329358272254467
1761479802500568800,1.55356884765625,-0.006903179921209812,-0.0018050905782729387,-0.003463174682110548
1761479802510604000,1.56360400390625,-0.005431783385574818,-0.003293264890089631,-0.002038117265328765
1761479802520640000,1.573639892578125,-0.0059934440068900585,-0.0041342913173139095,0.00012916330888401717
1761479802530676000,1.583676025390625,-0.006840861868113279,-0.0009976201690733433,-0.0006878945278003812
1761479802540712000,1.5937119140625,-0.006368949543684721,-0.002644518855959177,-0.002496447181329131
1761479802550748000,1.603747802734375,-0.005727127660065889,-0.005585980135947466,-0.002186721656471491
1761479802560784000,1.613783935546875,-0.006585198454558849,-0.0006085322820581496,-0.0016144082183018327
1761479802570819800,1.62381982421875,-0.004525509662926197,-0.002793123247101903,-0.003094060579314828
1761479802580855800,1.633855712890625,-0.007669903803616762,-0.0020450414158403873,-0.0023917849175632
1761479802590891800,1.643891845703125,-0.00358781055547297,-0.004171575419604778,-0.0005701828049495816
1761479802600927000,1.653927001953125,-0.005772934295237064,-0.0013648699969053268,-0.00141041015740484
1761479802610963000,1.663962890625,-0.005776130128651857,-0.0022128205746412277,-0.00026498452643863857
1761479802620999000,1.6739990234375,-0.007479754276573658,-0.001933721243403852,-0.0009116000146605074
1761479802631035000,1.684034912109375,-0.005319664254784584,-0.0017233315156772733,-0.0010245180455967784
1761479802641070800,1.69407080078125,-0.00694818701595068,-0.0018679412314668298,-0.001517735538072884
1761479802651106800,1.70410693359375,-0.0062826634384691715,-0.0021635519806295633,-0.00014913702034391463
1761479802661142800,1.714142822265625,-0.006503705866634846,-0.0019912454299628735,-0.0021670141723006964
1761479802671178800,1.7241787109375,-0.0075636436231434345,-0.002338521648198366,0.0008370315190404654
1761479802681214000,1.7342138671875,-0.004710599314421415,-0.0015401060227304697,-0.0033190976828336716
1761479802691250000,1.74425,-0.005960420705378056,-0.002246376359835267,-0.00009054747351910919
1761479802701286000,1.754285888671875,-0.00720491586253047,-0.002251702593639493,-0.0017707358347252011
1761479802711321900,1.76432177734375,-0.00649784691631794,-0.0031284152064472437,-0.0033715618774294853
1761479802721357800,1.77435791015625,-0.007682687137275934,-0.0029523803386837244,-0.00027377295191399753
1761479802731393800,1.784393798828125,-0.0068901302292943,-0.0027537085115909576,-0.0013789847726002336
1761479802741429800,1.7944296875,-0.006103432737290859,-0.003058107802644372,-0.0025571673177182674
1761479802751465700,1.8044658203125,-0.005697300657629967,-0.0023821976501494646,-0.0007113303290680051
1761479802761501700,1.814501708984375,-0.006015814375132322,-0.005702360533177853,-0.0011688614031299949
1761479802771537000,1.824536865234375,-0.003796336008235812,-0.006588127929717302,-0.0008564725867472589
1761479802781572900,1.83457275390625,-0.008009723387658596,-0.0013899037148803473,-0.0031587753910571337
1761479802791608800,1.84460888671875,-0.006216883193701506,-0.003653324441984296,-0.003939614165574312
1761479802801644800,1.854644775390625,-0.004464789759367704,-0.003706853836774826,-0.0019094864837825298
1761479802811680800,1.8646806640625,-0.004483165219426155,0.0015374429058283567,0.001202150946483016
1761479802821716700,1.874716796875,-0.004226702731102705,-0.0032056469935923815,0.00250470289029181
1761479802831752700,1.884752685546875,-0.006321811582893133,-0.0035385421942919493,-0.002326537622138858
1761479802841788700,1.89478857421875,-0.0057737333700060844,-0.00108257494866848,-0.0014572817599400878
1761479802851824600,1.90482470703125,-0.008038751780986786,-0.001418665866367519,0.0005131911602802575
1761479802861859800,1.91485986328125,-0.004445082042366266,-0.0034139060880988836,-0.0006356965750455856
1761479802871895800,1.924895751953125,-0.006012884899973869,-0.0031092404387891293,-0.0005747101386077702
1761479802881931800,1.934931884765625,-0.004446413833647966,-0.004291417542845011,-0.0034916705917567015
1761479802891967700,1.9449677734375,-0.006217149551957846,-0.0033723609521985054,0.00005459480235003866
1761479802902003700,1.955003662109375,-0.007517038378864527,-0.0007214503129944205,-0.0011725898366421461
1761479802912039700,1.965039794921875,-0.004944424610584974,-0.0017920411191880703,-0.0030421288684010506
1761479802922075600,1.97507568359375,-0.006681338418275118,-0.0033577135764062405,-0.0021912488155066967
1761479802932111600,1.985111572265625,-0.005787315312772989,-0.0012112056137993932,-0.0013646037550643086
1761479802942147800,1.99514794921875,-0.006899984087795019,-0.0018575548892840743,-0.0015571502735838294
1761479802952182800,2.005182861328125,-0.00495081627741456,-0.0016674051294103265,-0.0032706281635910273
1761479802962218800,2.01521875,-0.005311941262334585,-0.0018996327416971326,0.0012980246683582664
1761479802972254700,2.025254638671875,-0.006043511442840099,-0.0026373283471912146,-0.0012916331179440022
1761479802982290700,2.035290771484375,-0.004321245010942221,0.0008721852791495621,-0.0036613137926906347
1761479802992326700,2.04532666015625,-0.007926899008452892,-0.003465837799012661,-0.001178448786959052
1761479803002362600,2.055362548828125,-0.004887699615210295,-0.0034730283077806234,-0.0002426139690214768
1761479803012398600,2.065398681640625,-0.006416087504476309,-0.0026296053547412157,0.00025513084256090224
1761479803022434800,2.075434814453125,-0.00512871565297246,-0.0018492990639060736,0.0004601942200679332
1761479803032469800,2.0854697265625,-0.00637880340218544,-0.005142297595739365,-0.0003454120014794171
1761479803042505700,2.095505615234375,-0.005425125360488892,-0.0014759238110855222,-0.002299639629200101
1761479803052541700,2.105541748046875,-0.0057319216430187225,-0.0026610305067151785,-0.0006713828770443797
1761479803062577700,2.11557763671875,-0.00830693170428276,-0.0048890309408307076,-0.003117762738838792
1761479803072613600,2.125613525390625,-0.005393700208514929,-0.002347842790186405,-0.0013709953054785728
1761479803082649600,2.135649658203125,-0.005476790945976973,-0.004412058740854263,-0.0013126720441505313
1761479803092685800,2.145685791015625,-0.0034972631838172674,-0.0036610474344342947,-0.0006788397440686822
1761479803102722000,2.15572216796875,-0.003906590864062309,-0.006250439211726189,-0.002216282533481717
1761479803112758000,2.165758056640625,-0.0052024852484464645,-0.0032535837963223457,-0.002597114769741893
1761479803122792700,2.175792724609375,-0.00433003343641758,-0.0004370247188489884,-0.0011382350930944085
1761479803132828700,2.18582861328125,-0.004141747951507568,-0.004321777727454901,-0.0006799050024710596
1761479803142865000,2.195864990234375,-0.006413690745830536,-0.004738030023872852,-0.0012458267156034708
1761479803152900900,2.20590087890625,-0.006119944155216217,-0.0012343751732259989,-0.0021883193403482437
1761479803162936800,2.215936767578125,-0.007625162601470947,-0.004848817363381386,0.0008367652189917862
1761479803172972800,2.225972900390625,-0.008013185113668442,-0.002877545543015003,-0.0019470370607450604
1761479803183009000,2.236009033203125,-0.003981159534305334,-0.003966245800256729,0.00023995080846361816
1761479803193045000,2.246044921875,-0.005930859595537186,-0.0016165387351065874,-0.0007030745036900043
1761479803203081000,2.2560810546875,-0.006081061903387308,-0.0009568737586960196,-0.002822417998686433
1761479803213116000,2.266115966796875,-0.005151885095983744,-0.0026495789643377066,0.00020426444825716317
1761479803223151900,2.27615185546875,-0.005504221189767122,-0.0018998990999534726,-0.0003709783486556262
1761479803233187800,2.286187744140625,-0.00449807895347476,-0.0026546388398855925,-0.0027142937760800123
1761479803243223800,2.296223876953125,-0.008169779554009438,0.00013981595111545175,0.00013981595111545175
1761479803253259800,2.306259765625,-0.006086920853704214,-0.002142246812582016,-0.00282082031480968
1761479803263296000,2.3162958984375,-0.006174538750201464,-0.0026996464002877474,-0.002401106059551239
1761479803273332000,2.32633203125,-0.004610730800777674,-0.004830974154174328,-0.0014274542918428779
1761479803283368000,2.336367919921875,-0.005769205745309591,-0.0018690064316615462,-0.001835716888308525
1761479803293403000,2.34640283203125,-0.003492735791951418,-0.0006487460341304541,-0.001614940818399191
1761479803303438800,2.35643896484375,-0.00421391986310482,-0.002552373567596078,-0.0016652746126055717
1761479803313474800,2.366474853515625,-0.007077882997691631,-0.004721518140286207,-0.0019124159589409828
1761479803323510800,2.3765107421875,-0.005742041394114494,0.00009427589975530282,-0.0017632789677008986
1761479803333546800,2.386546630859375,-0.005774265620857477,-0.0025156219489872456,-0.0016173376934602857
1761479803343583000,2.3965830078125,-0.007072290405631065,-0.0018884475575760007,0.0017251957906410098
1761479803353618400,2.406618408203125,-0.005951898638159037,-0.0046541402116417885,-0.002014681464061141
1761479803363654400,2.416654296875,-0.007995608262717724,-0.0028703550342470407,-0.0027502465527504683
1761479803373690400,2.4266904296875,-0.0036796897184103727,-0.0028727517928928137,-0.0017622136510908604
1761479803383725300,2.436725341796875,-0.006822752300649881,-0.003040530951693654,-0.003171292133629322
1761479803393761300,2.44676123046875,-0.004114051349461079,-0.0030040456913411617,-0.0010301107540726662
1761479803403797500,2.456797607421875,-0.00666269613429904,-0.0005792375304736197,-0.0033859428949654102
1761479803413833500,2.46683349609375,-0.00649678148329258,-0.0025063008069992065,-0.002552107209339738
1761479803423869400,2.476869384765625,-0.00794234499335289,-0.003257312346249819,-0.001942776027135551
1761479803433905400,2.486905517578125,-0.0049404301680624485,-0.0015462313313037157,-0.0026676885318011045
1761479803443941400,2.49694140625,-0.00427171029150486,-0.0029055087361484766,-0.002162486780434847
1761479803453977300,2.506977294921875,-0.007799866143614054,-0.00586614478379488,-0.002316950121894479
1761479803464013300,2.517013427734375,-0.006171342916786671,-0.004768922459334135,-0.0032032502349466085
1761479803474048300,2.52704833984375,-0.006646717432886362,-0.0007480819476768374,-0.0010490191634744406
1761479803484084500,2.53708447265625,-0.007447796408087015,-0.002995523624122143,-0.0030743530951440334
1761479803494120400,2.547120361328125,-0.002909237053245306,-0.0009805759182199836,0.0016341155860573053
1761479803504156400,2.557156494140625,-0.005392901133745909,-0.002074069809168577,-0.0006183860241435468
1761479803514192400,2.5671923828125,-0.005387042183429003,-0.0016626114957034588,-0.001457814360037446
1761479803524228400,2.577228271484375,-0.007969776168465614,-0.00336144189350307,-0.0009523464250378311
1761479803534264300,2.587264404296875,-0.00507039250805974,-0.001945705502294004,-0.0010988202411681414
1761479803544300300,2.59730029296875,-0.005241633392870426,-0.003944940399378538,-0.0012428972404450178
1761479803554335200,2.607335205078125,-0.006106894463300705,-0.0007211840129457414,-0.0013992248568683863
1761479803564371500,2.617371337890625,-0.007694405037909746,-0.0038631814531981945,0.00007669904152862728
1761479803574407400,2.627407470703125,-0.004977714270353317,-0.0013379721203818917,-0.0025443839840590954
1761479803584443400,2.637443359375,-0.004030427895486355,-0.004321777727454901,-0.0015310513554140925
1761479803594479400,2.647479248046875,-0.003305781865492463,-0.0012514194240793586,-0.0014716627774760127
1761479803604515300,2.657515380859375,-0.00651595601812005,-0.005458681378513575,-0.0014088122406974435
1761479803614551300,2.66755126953125,-0.006315154023468494,-0.004102067090570927,-0.0025827335193753242
1761479803624587300,2.677587158203125,-0.006734068971127272,-0.0007520766812376678,-0.0011848403373733163
1761479803634623200,2.687623291015625,-0.008125836960971355,-0.004327636677771807,-0.0007246461464092135
1761479803644658400,2.697658447265625,-0.005015531089156866,-0.0024114924017339945,-0.002382996492087841
1761479803654694400,2.7076943359375,-0.005012601613998413,-0.005198223982006311,-0.0019443739438429475
1761479803664730400,2.71773046875,-0.0034402713645249605,-0.004232295788824558,-0.0019331886433064938
1761479803674766300,2.727766357421875,-0.006706638727337122,-0.004291683901101351,-0.0018825886072590947
1761479803684802300,2.73780224609375,-0.004532966297119856,-0.00115394766908139,-0.0010543455136939883
1761479803694838300,2.74783837890625,-0.005201153457164764,-0.0032261533197015524,-0.000051399008953012526
1761479803704874200,2.757874267578125,-0.004798483569175005,-0.0035782232880592346,-0.002805107505992055
1761479803714910200,2.76791015625,-0.005496498197317123,-0.0025427863001823425,-0.0007456850726157427
1761479803724945400,2.7779453125,-0.006217682268470526,-0.0027603665366768837,-0.00011611382069531828
1761479803734981400,2.7879814453125,-0.005890379659831524,-0.0032000544015318155,-0.0018048242200165987
1761479803745017300,2.798017333984375,-0.005379052832722664,-0.0015267902053892612,-0.0008231831016018987
1761479803755053300,2.80805322265625,-0.004707936197519302,-0.0011235876008868217,-0.0007992146420292556
1761479803765089300,2.81808935546875,-0.006071208510547876,-0.0026589001063257456,-0.002171275205910206
1761479803775125200,2.828125244140625,-0.005675196181982756,-0.0024588967207819223,-0.0013076120521873236
1761479803785161200,2.8381611328125,-0.005370264407247305,-0.0019241338595747948,-0.00555322365835309
1761479803795197200,2.848197265625,-0.004530835896730423,-0.0024200144689530134,-0.003216299694031477
1761479803805233200,2.858233154296875,-0.007851531729102135,-0.0031284152064472437,-0.002520682057365775
1761479803815268400,2.868268310546875,-0.007114901207387447,-0.0035119105596095324,-0.0006825681775808334
1761479803825304300,2.87830419921875,-0.006887200754135847,-0.00007536746124969795,0.0004830974212381989
1761479803835340300,2.88834033203125,-0.006929278839379549,-0.0017624800093472004,-0.0008881642133928835
1761479803845376300,2.898376220703125,-0.005079713650047779,-0.0020008329302072525,-0.0006386260502040386
1761479803855412200,2.908412109375,-0.006039250176399946,-0.0007552724564447999,-0.00166580721270293
1761479803865448200,2.9184482421875,-0.004552407655864954,-0.005241101142019033,-0.003099386813119054
1761479803875484200,2.928484130859375,-0.005703159607946873,-0.0034879420418292284,-0.0024551681708544493
1761479803885520100,2.93852001953125,-0.0036045885644853115,-0.0005848301807418466,-0.0015331818722188473
1761479803895555300,2.948555419921875,-0.00404667342081666,-0.0033957967534661293,-0.00021678130724467337
1761479803905591300,2.95859130859375,-0.00751996785402298,-0.002469016704708338,0.0004767058417201042
1761479803915627300,2.968627197265625,-0.006940730381757021,-0.005082376766949892,-0.0018037590198218822
1761479803925663200,2.978663330078125,-0.008975119329988956,-0.004680505488067865,-0.0015720640076324344
1761479803935699200,2.98869921875,-0.004722050856798887,-0.004254133440554142,-0.0016785904299467802
1761479803945735200,2.998735107421875,-0.0065559037029743195,-0.004319647327065468,-0.002590989461168647
1761479803955771100,3.008771240234375,-0.005063201766461134,-0.0019236012594774365,-0.003555586328729987
1761479803965807400,3.018807373046875,-0.005148156546056271,-0.0013243899447843432,-0.0014037522487342358
1761479803975842300,3.02884228515625,-0.006410761270672083,-0.0031039142049849033,-0.0018455706303939223
1761479803985878300,3.038878173828125,-0.005891711451113224,-0.0024703482631593943,-0.003486344125121832
1761479803995914200,3.048914306640625,-0.00549276964738965,0.0003779025573749095,-0.0018050905782729387
1761479804005950200,3.0589501953125,-0.0031856733839958906,-0.0036163064651191235,-0.0012871057260781527
1761479804015986400,3.068986328125,-0.006741792429238558,-0.004555603489279747,-0.000609863898716867
1761479804026022400,3.0790224609375,-0.007427290081977844,-0.0035843485966324806,-0.0031515848822891712
1761479804036058400,3.089058349609375,-0.004904743749648333,-0.0022032330743968487,-0.001472728094086051
1761479804046094300,3.09909423828125,-0.004698615055531263,-0.0031467911321669817,-0.0016109461430460215
1761479804056130300,3.10913037109375,-0.006310360040515661,-0.004590757191181183,-0.0034527883399277925
1761479804066165200,3.119165283203125,-0.005513808690011501,-0.0030567762441933155,-0.0017190704820677638
1761479804076201500,3.129201416015625,-0.004549744538962841,-0.0018905780743807554,-0.0027363980188965797
1761479804086237400,3.139237548828125,-0.00640676636248827,-0.0023760723415762186,-0.001145425601862371
1761479804096273400,3.1492734375,-0.006927680689841509,-0.0034762241411954165,-0.001782187377102673
1761479804106309400,3.159309326171875,-0.004021905828267336,-0.0034586472902446985,-0.002656769473105669
1761479804116345300,3.169345458984375,-0.006591590121388435,-0.0028943235520273447,-0.0029145635198801756
1761479804126381300,3.17938134765625,-0.005862150341272354,-0.0022413162514567375,-0.0007691209320910275
1761479804136417300,3.189417236328125,-0.006418218370527029,-0.001942243310622871,-0.002927879337221384
1761479804146452500,3.199452392578125,-0.005566272884607315,-0.0038061898667365313,-0.00270683690905571
1761479804156488400,3.209488525390625,-0.005208876915276051,-0.0016050871927291155,-0.0010934938909485936
1761479804166524400,3.2195244140625,-0.0035457327030599117,-0.004747883416712284,-0.0007155913626775146
1761479804176560400,3.229560302734375,-0.006939931306988001,-0.005238703917711973,-0.002466087229549885
1761479804186596400,3.239596435546875,-0.006392118986696005,-0.0067628310061991215,-0.000844754686113447
1761479804196632300,3.24963232421875,-0.007769505959004164,-0.002688993699848652,-0.0014282532501965761
1761479804206668300,3.259668212890625,-0.0039292280562222,-0.00558278476819396,-0.0016218650853261352
1761479804216704300,3.269704345703125,-0.006788664031773806,-0.002438922878354788,-0.001680720946751535
1761479804226739500,3.279739501953125,-0.007504521403461695,-0.003069559345021844,-0.0025595640763640404
1761479804236775400,3.289775390625,-0.004477306269109249,-0.0031933963764458895,-0.0013688647886738181
1761479804246811400,3.299811279296875,-0.006542054936289787,-0.0037233654875308275,-0.0006370281334966421
1761479804256847400,3.309847412109375,-0.006909837480634451,-0.0030210898257791996,-0.0011385013349354267
1761479804266883300,3.31988330078125,-0.005281048361212015,-0.0011065434664487839,-0.0020956413354724646
1761479804276919300,3.329919189453125,-0.006463491823524237,-0.005351355765014887,-0.00070520507870242
1761479804286955300,3.339955322265625,-0.005428054835647345,-0.003293797606602311,-0.0022362563759088516
1761479804296991200,3.3499912109375,-0.00572979124262929,-0.004223241005092859,-0.0009214537567459047
1761479804307026400,3.3600263671875,-0.005023520905524492,-0.002401106059551239,-0.00261895265430212
1761479804317062400,3.3700625,-0.006101035512983799,-0.0030280142091214657,-0.0008476841612718999
1761479804327098400,3.380098388671875,-0.005406217183917761,-0.004221642855554819,-0.0027425233274698257
1761479804337134300,3.39013427734375,-0.00717695290222764,-0.0039145806804299355,-0.0008199872681871057
1761479804347170600,3.400170654296875,-0.0038195056840777397,-0.003722566645592451,-0.0015132081462070346
1761479804357206500,3.41020654296875,-0.008312524296343327,-0.0032618397381156683,-0.0005336974863894284
1761479804367242500,3.420242431640625,-0.0049345712177455425,-0.0020415792241692543,-0.002020540414378047
1761479804377278500,3.430278564453125,-0.004779575392603874,-0.003925499506294727,-0.0017478326335549355
1761479804387313700,3.440313720703125,-0.004341751337051392,-0.0008918926469050348,-0.002947852946817875
1761479804397349600,3.450349609375,-0.006876281928271055,-0.0037910097744315863,-0.0016189356101676822
1761479804407385600,3.460385498046875,-0.007803061977028847,-0.004656004719436169,-0.0018823222490027547
1761479804417421600,3.470421630859375,-0.003885019337758422,-0.002718554809689522,-0.002316950121894479
1761479804427457500,3.48045751953125,-0.008527708239853382,-0.004415254574269056,-0.0006625944515690207
1761479804437493500,3.490493408203125,-0.003787015099078417,-0.0035633095540106297,0.000502804818097502
1761479804447529500,3.500529541015625,-0.004028031136840582,-0.0035260252188891172,-0.0013901700731366873
1761479804457565400,3.5105654296875,-0.007411843631416559,-0.0034461303148418665,-0.0018671422731131315
1761479804467600600,3.5206005859375,-0.0052048820070922375,-0.003964381758123636,-0.0012183962389826775
1761479804477636600,3.53063671875,-0.004483165219426155,-0.001814411603845656,-0.0016176040517166257
1761479804487672600,3.540672607421875,-0.006708502769470215,-0.0038152446504682302,-0.001856223214417696
1761479804497708500,3.55070849609375,-0.003450657706707716,-0.0015957661671563983,-0.0001984054979402572
1761479804507744500,3.56074462890625,-0.0029952572658658028,-0.0036903421860188246,-0.0038059235084801912
1761479804517780500,3.570780517578125,-0.006307696923613548,-0.0020610203500837088,-0.00007882956560933962
1761479804527816400,3.58081640625,-0.0067875985987484455,-0.0011233213590458035,-0.0015355786308646202
1761479804537852400,3.590852294921875,-0.005246427375823259,-0.0029531794134527445,-0.001419198582880199
1761479804547887600,3.6008876953125,-0.005723133217543364,-0.0024106933269649744,-0.000687361869495362
1761479804557923600,3.610923583984375,-0.004079962614923716,-0.0017243968322873116,0.00041278995922766626
1761479804567959600,3.62095947265625,-0.007282414007931948,-0.006191583350300789,-0.00023542344570159912
1761479804577995500,3.63099560546875,-0.00612234091386199,-0.001255946815945208,-0.0030605047941207886
1761479804588031500,3.641031494140625,-0.006869091186672449,-0.003229881636798382,-0.001773132593370974
1761479804598067500,3.6510673828125,-0.004795021377503872,-0.0024469124618917704,-0.0021310613956302404
1761479804608103400,3.661103515625,-0.006326871924102306,-0.004229099955409765,-0.0023307986557483673
1761479804618139400,3.671139404296875,-0.0034820830915123224,-0.0026024410035461187,-0.002528138691559434
1761479804628174600,3.681174560546875,-0.007783886976540089,-0.0033625070936977863,-0.0022865901701152325
1761479804638210600,3.69121044921875,-0.006167881190776825,-0.002883404493331909,-0.0014564828015863895
1761479804648246500,3.70124658203125,-0.005563609767705202,-0.002879942301660776,-0.002025067573413253
1761479804658282500,3.711282470703125,-0.004803011193871498,-0.00315930787473917,-0.0006788397440686822
1761479804668318500,3.721318359375,-0.005456816870719194,-0.0021547635551542044,-0.0025632926262915134
1761479804678354400,3.7313544921875,-0.00680118054151535,0.0002487392339389771,-0.0033337450586259365
1761479804688390400,3.741390380859375,-0.006096774712204933,-0.00472577940672636,-0.0012010856298729777
1761479804698426400,3.75142626953125,-0.007062969263643026,-0.0008900284301489592,-0.003195260651409626
1761479804708461600,3.761461669921875,-0.006281331647187471,-0.002673813607543707,-0.0004892227007076144
1761479804718497500,3.77149755859375,-0.005366003140807152,-0.001936384360305965,-0.0020061591640114784
1761479804728533500,3.781533447265625,-0.0052115400321781635,-0.00011877698125317693,-0.002201635157689452
1761479804738569500,3.791569580078125,-0.006361226551234722,-0.0044232443906366825,0.00044554684427566826
1761479804748605400,3.80160546875,-0.004263454582542181,-0.0030059099663048983,-0.003156644757837057
1761479804758641400,3.811641357421875,-0.005059206858277321,-0.0044109937734901905,-0.0006799050024710596
1761479804768677400,3.821677490234375,-0.0070736221969127655,-0.005222458858042955,-0.0033840788528323174
1761479804778713300,3.83171337890625,-0.006426207721233368,-0.00126766471657902,-0.0033997914288192987
1761479804788748500,3.84174853515625,-0.0065135592594742775,-0.0035145736765116453,-0.0008189220097847283
1761479804798784500,3.851784423828125,-0.005620867945253849,-0.004192081745713949,-0.0006918892613612115
1761479804808820500,3.861820556640625,-0.004434163216501474,-0.004478638060390949,-0.003166232258081436
1761479804818856400,3.8718564453125,-0.005607285536825657,-0.003081809962168336,-0.0004748416249640286
1761479804828892400,3.881892333984375,-0.006142048165202141,-0.004719121381640434,0.0005792375304736197
1761479804838928400,3.891928466796875,-0.00612260727211833,-0.004033890087157488,-0.0023470439482480288
1761479804848964600,3.901964599609375,-0.0062155514024198055,-0.0016820525052025914,-0.003163036424666643
1761479804859000600,3.91200048828125,-0.005903695244342089,-0.00421232171356678,-0.002040247665718198
1761479804869035500,3.922035400390625,-0.005121258553117514,-0.0037063213530927896,-0.0014998923288658261
1761479804879071500,3.932071533203125,-0.006952980998903513,-0.004550276789814234,-0.0013853764394298196
1761479804889107500,3.942107421875,-0.0038003309164196253,-0.00333241350017488,-0.001109739183448255
1761479804899143400,3.952143310546875,-0.0035430695861577988,-0.0017209346406161785,-0.0009470200748182833
1761479804909179600,3.9621796875,-0.005970807280391455,-0.004706870764493942,-0.0025188177824020386
1761479804919215600,3.972215576171875,-0.006423011887818575,-0.0027830032631754875,0.0000881506348378025
1761479804929251600,3.98225146484375,-0.0054608117789030075,-0.0029377329628914595,-0.0010716560063883662
1761479804939286500,3.99228662109375,-0.005607818253338337,-0.0032892702147364616,-0.0016245282022282481
1761479804949321500,4.002321533203125,-0.0062818643637001514,-0.0041699777357280254,-0.003492203075438738
1761479804959357400,4.012357421875,-0.005576659459620714,-0.004408597014844418,-0.0034876756835728884
1761479804969393400,4.022393310546875,-0.0034077810123562813,-0.007060572504997253,-0.0012386362068355083
1761479804979429400,4.032429443359375,-0.007216900121420622,-0.004114849958568811,-0.003576092654839158
1761479804989464600,4.042464599609375,-0.005948702804744244,-0.003346528159454465,-0.002386192325502634
1761479804999500500,4.05250048828125,-0.004480768460780382,-0.001984054921194911,-0.0025619608350098133
1761479805009536500,4.06253662109375,-0.006671485025435686,-0.0032410670537501574,-0.001064731739461422
1761479805019572500,4.072572509765625,-0.00646615494042635,-0.0052016861736774445,-0.002357163932174444
1761479805029608400,4.0826083984375,-0.007348992861807346,-0.0012519520241767168,-0.0022714100778102875
1761479805039644400,4.09264453125,-0.005066131241619587,-0.0019017633749172091,0.00045833003241568804
1761479805049680400,4.102680419921875,-0.007811584044247866,-0.004593153949826956,-0.0016069513512775302
1761479805059716400,4.11271630859375,-0.005350823048502207,-0.00318940170109272,0.00010333064710721374
1761479805069751600,4.12275146484375,-0.005603291094303131,-0.000669518718495965,-0.0009518137667328119
1761479805079787500,4.13278759765625,-0.0041068606078624725,-0.002472745021805167,-0.0029033781029284
1761479805089823500,4.142823486328125,-0.006896521896123886,-0.0013970943400636315,-0.00196408131159842
1761479805099859500,4.152859375,-0.006223274860531092,-0.00046152580762282014,-0.0007747135823592544
1761479805109895400,4.1628955078125,-0.009133843705058098,-0.0035001926589757204,-0.0013499563792720437
1761479805119931400,4.172931396484375,-0.0031758195254951715,-0.0018024274613708258,0.0003281014505773783
1761479805129967600,4.182967529296875,-0.00569916469976306,-0.0011611381778493524,-0.0023132218047976494
1761479805140002600,4.19300244140625,-0.003742007538676262,-0.0059865196235477924,-0.002496979897841811
1761479805150038500,4.20303857421875,-0.007513043470680714,-0.0029441246297210455,-0.002496180823072791
1761479805160074500,4.213074462890625,-0.0070792147889733315,-0.003320695599541068,-0.003372893435880542
1761479805170110500,4.2231103515625,-0.0056829191744327545,-0.0010229201288893819,-0.0005249090609140694
1761479805180146400,4.233146484375,-0.004620051942765713,-0.003620034782215953,-0.001291100517846644
1761479805190182700,4.2431826171875,-0.0038922098465263844,-0.00481419637799263,-0.00008229167724493891
1761479805200218600,4.253218505859375,-0.007216101046651602,-0.0022623552940785885,-0.0009912285022437572
1761479805210254600,4.263254638671875,-0.0037209687288850546,-0.002281530061736703,-0.002347310073673725
1761479805220289500,4.27328955078125,-0.00529676117002964,-0.0035952674224972725,-0.0006570018595084548
1761479805230325500,4.283325439453125,-0.005410744342952967,-0.003192597534507513,0.0005526058957912028
1761479805240361700,4.29336181640625,-0.004809402395039797,-0.0035079156514257193,-0.0035337484441697598
1761479805250397700,4.303397705078125,-0.005361475981771946,-0.0009052084642462432,-0.002522812457755208
1761479805260433700,4.31343359375,-0.006532734259963036,-0.003960386849939823,-0.0020546286832541227
1761479805270469600,4.3234697265625,-0.0070741549134254456,-0.003615241264924407,-0.001517735538072884
1761479805280505600,4.333505615234375,-0.002670884132385254,-0.0013275857781991363,-0.0015590144321322441
1761479805290540500,4.34354052734375,-0.004025101661682129,-0.0046240463852882385,-0.0010455570882186294
1761479805300576800,4.35357666015625,-0.007436877116560936,-0.004489556886255741,-0.002494050422683358
1761479805310612700,4.36361279296875,-0.00498117646202445,-0.002314287004992366,-0.003561977995559573
1761479805320648700,4.373648681640625,-0.006914365105330944,-0.0029385320376604795,-0.0015805860748514533
1761479805330684700,4.3836845703125,-0.0062887887470424175,-0.0020295949652791023,-0.0030365362763404846
1761479805340720600,4.393720703125,-0.007398527581244707,-0.0017177389236167073,-0.0011952266795560718
1761479805350756600,4.403756591796875,-0.004454935900866985,-0.005170261021703482,-0.001407214323990047
1761479805360792600,4.41379248046875,-0.005910619627684355,-0.0005619269795715809,0.0014924354618415236
1761479805370827800,4.423827880859375,-0.005789978429675102,-0.0011685950448736548,-0.0035603800788521767
1761479805380863700,4.43386376953125,-0.005712214391678572,-0.0006482133758254349,-0.0016460998449474573
1761479805390899700,4.443899658203125,-0.007059773895889521,-0.0028418591246008873,0.0004037352045997977
1761479805400935700,4.453935791015625,-0.006623547989875078,-0.003010703483596444,-0.0031502533238381147
1761479805410971600,4.4639716796875,-0.006296245381236076,0.00040719733806326985,-0.002481267089024186
1761479805421007600,4.474007568359375,-0.005897836294025183,-0.003552390495315194,-0.002758235903456807
1761479805431043600,4.484043701171875,-0.007702927105128765,-0.0020634171087294817,-0.0018413095967844129
1761479805441078800,4.494078857421875,-0.006477074231952429,-0.001240766723640263,-0.0017004283145070076
1761479805451114800,4.50411474609375,-0.006190784275531769,-0.0020069582387804985,-0.0037646444980055094
1761479805461150700,4.514150634765625,-0.005868541542440653,-0.0017923073610290885,-0.001955292886123061
1761479805471186700,4.524186767578125,-0.00580862071365118,-0.004830707795917988,-0.0005619269795715809
1761479805481222700,4.53422265625,-0.005166532471776009,-0.005058674607425928,-0.0025798040442168713
1761479805491258600,4.544258544921875,-0.004090082831680775,-0.0028727517928928137,-0.0018157431622967124
1761479805501294600,4.554294677734375,-0.0057138120755553246,-0.005989182740449905,-0.0007286408799700439
1761479805511330600,4.56433056640625,-0.0067870658822357655,-0.0027654264122247696,-0.0007499461644329131
1761479805521365800,4.57436572265625,-0.004050667863339186,-0.004229099955409765,-0.0011808456620201468
1761479805531402500,4.584402587890625,-0.005299424286931753,-0.00347462622448802,-0.002877545543015003
1761479805541438500,4.5944384765625,-0.006185458041727543,-0.005321794655174017,-0.00025592977181077003
1761479805551474700,4.604474609375,-0.006557235028594732,-0.0034818167332559824,0.0008018778171390295
1761479805561510700,4.6145107421875,-0.00624058535322547,-0.003695135936141014,-0.0023302659392356873
1761479805571546600,4.624546630859375,-0.006879211403429508,-0.002692189533263445,-0.002415753435343504
1761479805581582600,4.63458251953125,-0.004004861693829298,-0.004825381562113762,-0.0010167949367314577
1761479805591617500,4.644617431640625,-0.007931958884000778,-0.0017536915838718414,-0.0024884575977921486
1761479805601653500,4.654653564453125,-0.005319131538271904,-0.002314020646736026,-0.0041465419344604015
1761479805611689500,4.664689453125,-0.0064863949082791805,-0.0027047062758356333,-0.0009898969437927008
1761479805621725400,4.674725341796875,-0.004759601317346096,-0.003099653171375394,-0.0018967032665386796
1761479805631761700,4.68476171875,-0.005339371506124735,-0.002846386516466737,-0.0002961435238830745
1761479805641797600,4.694797607421875,-0.004634166602045298,-0.0022684806026518345,-0.0009398295660503209
1761479805651833600,4.70483349609375,-0.006012352649122477,-0.0021233384031802416,-0.0004857605672441423
1761479805661869600,4.71486962890625,-0.007291468791663647,-0.0022181468084454536,-0.002597114769741893
1761479805671904500,4.724904541015625,-0.00433189794421196,-0.001913481275551021,-0.0012458267156034708
1761479805681940500,4.7349404296875,-0.007804127410054207,-0.0036693033762276173,0.00004207794336252846
1761479805691976400,4.7449765625,-0.003877029987052083,-0.001201618229970336,-0.0007669904152862728
1761479805702012400,4.755012451171875,-0.008022506721317768,-0.00259418529458344,-0.002956641372293234
1761479805712048600,4.765048583984375,-0.006665891967713833,-0.0031220237724483013,-0.001163002452813089
1761479805722084600,4.775084716796875,-0.005245361942797899,-0.0010554107138887048,-0.0009707222343422472
1761479805732120600,4.78512060546875,-0.006562827620655298,-0.003350256709381938,-0.0010516822803765535
1761479805742156500,4.795156494140625,-0.007830225862562656,-0.002838130807504058,-0.0005723133217543364
1761479805752191500,4.80519140625,-0.006866428069770336,-0.00333267985843122,-0.0005787048721686006
1761479805762227500,4.8152275390625,-0.004894091282039881,-0.0031515848822891712,-0.0007707187905907631
1761479805772263400,4.825263427734375,-0.005161472596228123,-0.004083957523107529,-0.0010985539993271232
1761479805782299400,4.83529931640625,-0.006649380549788475,-0.004381699021905661,-0.0030341395176947117
1761479805792335600,4.845335693359375,-0.0080336919054389,-0.0024743429385125637,-0.0017089504981413484
1761479805802371600,4.85537158203125,-0.00632048025727272,-0.003751062322407961,-0.0012812467757612467
1761479805812407600,4.865407470703125,-0.005149754695594311,-0.003790477057918906,-0.0008503473363816738
1761479805822443500,4.875443603515625,-0.006258961278945208,-0.0014120079576969147,-0.00245090713724494
1761479805832478500,4.885478515625,-0.005084773525595665,-0.002201635157689452,-0.003513242118060589
1761479805842514400,4.895514404296875,-0.0059998356737196445,-0.0051878378726542,-0.002180063631385565
1761479805852550400,4.90555029296875,-0.006527940277010202,-0.002936401404440403,-0.0011470235185697675
1761479805862586600,4.915586669921875,-0.006019010208547115,-0.0007866977830417454,-0.0022543659433722496
1761479805872622600,4.92562255859375,-0.006701578386127949,-0.0028184233233332634,-0.000761664065066725
1761479805882658600,4.935658447265625,-0.003960919566452503,-0.00395665830001235,0.0002825613773893565
1761479805892694500,4.945694580078125,-0.005638711154460907,-0.0034346787724643946,-0.00216594897210598
1761479805902730500,4.95573046875,-0.006177468225359917,-0.002121474128216505,-0.0024567660875618458
1761479805912765400,4.965765380859375,-0.007715177722275257,-0.0041345576755702496,0.00039068571641109884
1761479805922801400,4.975801513671875,-0.003864779369905591,-0.0037563887890428305,-0.003487143199890852
1761479805932837400,4.98583740234375,-0.005929261911660433,-0.0036783581599593163,-0.002621615771204233
1761479805942873600,4.99587353515625,-0.004994226153939962,-0.0024586303625255823,-0.004650411661714315
1761479805952909600,5.00590966796875,-0.007639809977263212,-0.0034671693574637175,0.0012261193478479981
1761479805962945500,5.015945556640625,-0.005942311137914658,-0.0010985539993271232,-0.0007787083159200847
1761479805972981800,5.025981689453125,-0.005459746345877647,-0.0024676851462572813,-0.002266349969431758
1761479805983017700,5.036017822265625,-0.00566853815689683,0.0002812298189383,-0.0026871294248849154
1761479805993052400,5.046052490234375,-0.005891977343708277,-0.0020453077740967274,-0.0025917883031070232
1761479806003088400,5.05608837890625,-0.006053365301340818,-0.005947371479123831,0.000333161442540586
1761479806013124400,5.066124267578125,-0.005313006229698658,-0.0036008600145578384,-0.0017270599491894245
1761479806023160600,5.07616064453125,-0.005662146955728531,-0.0029755497816950083,-0.004531901329755783
1761479806033196800,5.08619677734375,-0.005087170284241438,-0.0035449336282908916,-0.0038962047547101974
1761479806043232800,5.096232666015625,-0.006222742144018412,-0.005341502372175455,-0.0022655511274933815
1761479806053268700,5.106268798828125,-0.005461877211928368,-0.0033103092573583126,-0.005388640332967043
1761479806063304700,5.1163046875,-0.005982791539281607,-0.005008340813219547,0.00015632755821570754
1761479806073339400,5.12633935546875,-0.0067828050814569,-0.002522812457755208,-0.001035436987876892
1761479806083375600,5.136375732421875,-0.0068901302292943,-0.0032948628067970276,-0.003498328384011984
1761479806093411600,5.14641162109375,-0.006016613449901342,-0.0036272252909839153,-0.0008844357798807323
1761479806103447600,5.156447509765625,-0.005949768237769604,-0.001086037140339613,0.00014221279707271606
1761479806113483800,5.16648388671875,-0.007335943635553122,-0.005578789860010147,-0.0007984156836755574
1761479806123519700,5.176519775390625,-0.0038717035204172134,-0.0022053637076169252,-0.002545981900766492
1761479806133555700,5.1865556640625,-0.005300223361700773,-0.0006551376427523792,-0.0018034926615655422
1761479806143590700,5.196590576171875,-0.004987834487110376,-0.003766775131225586,-0.0016993631143122911
1761479806153626600,5.206626708984375,-0.005408880300819874,-0.001898301183246076,-0.001445830101147294
1761479806163662600,5.21666259765625,-0.005932990461587906,-0.002266349969431758,-0.0024607607629150152
1761479806173698600,5.226698486328125,-0.005310343112796545,-0.0019084211671724916,-0.004332430195063353
1761479806183734500,5.236734619140625,-0.00785685796290636,-0.004482366610318422,-0.0026943201664835215
1761479806193770800,5.246770751953125,-0.0051963599398732185,-0.003168362658470869,-0.0020101540721952915
1761479806203806700,5.256806640625,-0.0067753479816019535,-0.002778209513053298,-0.0009001484140753746
1761479806213842700,5.2668427734375,-0.007604124024510384,-0.0034384073223918676,-0.000014647385796706658
1761479806223878700,5.276878662109375,-0.006104231346398592,-0.0036125779151916504,-0.0022069616243243217
1761479806233913600,5.28691357421875,-0.005657619331032038,-0.0027688886038959026,-0.0014181332662701607
1761479806243949600,5.296949462890625,-0.004531102254986763,-0.0032083101104944944,-0.004236822947859764
1761479806253985500,5.306985595703125,-0.006771353539079428,-0.0031792817171663046,-0.00162399560213089
1761479806264021800,5.317021728515625,-0.004905542824417353,-0.005921272095292807,-0.0029816750902682543
1761479806274057700,5.3270576171875,-0.00788348913192749,-0.002938798163086176,-0.0009685916593298316
1761479806284093700,5.33709375,-0.00689172837883234,-0.002900448627769947,-0.0007281082216650248
1761479806294129700,5.347129638671875,-0.0038434739690274,-0.004260791465640068,-0.003486344125121832
1761479806304164600,5.35716455078125,-0.006877081003040075,-0.003796602366492152,-0.0032234902027994394
1761479806314200600,5.36720068359375,-0.005349491722881794,-0.004768922459334135,-0.0005688511882908642
1761479806324236500,5.377236572265625,-0.004886634182184935,-0.004059722647070885,-0.0011347729014232755
1761479806334272500,5.3872724609375,-0.005107143893837929,-0.0012389025650918484,-0.0033569145016372204
1761479806344308700,5.397308837890625,-0.006785201840102673,-0.0023489079903811216,-0.0017486315919086337
1761479806354344200,5.40734423828125,-0.005131645128130913,-0.0041579934768378735,-0.0007344998302869499
1761479806364380200,5.417380126953125,-0.005604089703410864,-0.003029612125828862,-0.0013025520602241158
1761479806374416100,5.427416015625,-0.006650978233665228,-0.002927612978965044,-0.0005374259199015796
1761479806384451000,5.437451171875,-0.0044317664578557014,-0.0009544769418425858,-0.0003123887872789055
1761479806394487000,5.447487060546875,-0.0073079802095890045,-0.004721251782029867,-0.003242398612201214
1761479806404523000,5.45752294921875,-0.006178533658385277,-0.003991013392806053,-0.0010972223244607449
1761479806414559200,5.467559326171875,-0.006174006499350071,-0.0012668657582253218,-0.0020269318483769894
1761479806424595200,5.47759521484375,-0.007028614636510611,-0.0028245486319065094,-0.0018618159228935838
1761479806434631200,5.487631103515625,-0.006327936891466379,-0.005723665934056044,-0.0008471515611745417
1761479806444667100,5.497667236328125,-0.005408347584307194,-0.003394198836758733,-0.0025960493367165327
1761479806454703000,5.507703125,-0.007288805674761534,-0.0018599516479298472,0.00029587719473056495
1761479806464738000,5.517738037109375,-0.0051934304647147655,-0.004246676806360483,-0.0036429380998015404
1761479806474774000,5.52777392578125,-0.007473628968000412,-0.0010721886064857244,-0.0018314558546990156
1761479806484810200,5.537810302734375,-0.006473878398537636,-0.0023121563717722893,-0.0008988168556243181
1761479806494846200,5.54784619140625,-0.004806472919881344,-0.0019805929623544216,-0.004065048880875111
1761479806504882200,5.557882080078125,-0.005415804218500853,-0.003100185887888074,-0.0019382486352697015
1761479806514918100,5.567918212890625,-0.005147890187799931,-0.004517520312219858,-0.0029467877466231585
1761479806524954000,5.5779541015625,-0.005065065808594227,0.00034967303508892655,-0.0018559569725766778
1761479806534990300,5.587990234375,-0.004987834487110376,-0.0022746059112250805,-0.0021550299134105444
1761479806545025000,5.59802490234375,-0.004090082831680775,-0.0026812704745680094,-0.00017736652807798237
1761479806555061000,5.60806103515625,-0.004875448998063803,-0.003305515507236123,-0.002414954360574484
1761479806565097200,5.61809716796875,-0.00532632227987051,-0.002913231961429119,-0.000027430558475316502
1761479806575133200,5.62813330078125,-0.007358047645539045,-0.0032442628871649504,-0.0007784419576637447
1761479806585169400,5.63816943359375,-0.005945240613073111,-0.0019888486713171005,-0.0006370281334966421
1761479806595205400,5.648205322265625,-0.007157777901738882,-0.0054299188777804375,-0.0032506543211638927
1761479806605241300,5.658241455078125,-0.006414223462343216,-0.0025952504947781563,-0.0033712955191731453
1761479806615277300,5.66827734375,-0.0079748360440135,-0.004040281753987074,-0.0008676578872837126
1761479806625312000,5.67831201171875,-0.0029851372819393873,-0.0034413367975503206,-0.0008266451768577099
1761479806635348000,5.688347900390625,-0.005672266706824303,-0.002490055514499545,-0.0016756609547883272
1761479806645384200,5.69838427734375,-0.007215834688395262,-0.0006026733317412436,-0.001116130850277841
1761479806655420400,5.70842041015625,-0.005245628301054239,-0.001073786523193121,-0.002779541304334998
1761479806665456400,5.718456298828125,-0.005074653308838606,-0.0021638183388859034,-0.0020447750575840473
1761479806675492400,5.728492431640625,-0.004223241005092859,-0.004028031136840582,-0.00026285400963388383
1761479806685528300,5.7385283203125,-0.005873069167137146,-0.0034229608718305826,-0.001892175991088152
1761479806695563300,5.748563232421875,-0.005055745132267475,-0.003965979442000389,-0.0037081853952258825
1761479806705599200,5.75859912109375,-0.0041334922425448895,0.0002932140196207911,0.00044128578156232834
1761479806715635200,5.76863525390625,-0.004489024169743061,-0.0031736891251057386,-0.0005664543714374304
1761479806725671200,5.778671142578125,-0.005124188028275967,-0.0029414615128189325,0.000008788431841821875
1761479806735707400,5.788707275390625,-0.00498064374551177,-0.0017158746486529708,-0.0017510283505544066
1761479806745743400,5.798743408203125,-0.004567321389913559,-0.0019683423452079296,-0.003062102710828185
1761479806755779300,5.808779296875,-0.008045409806072712,-0.001892175991088152,0.0004676510870922357
1761479806765815300,5.818815185546875,-0.00765871861949563,-0.0035401401109993458,-0.0012450277572497725
1761479806775850200,5.828850341796875,-0.003930559381842613,-0.0017385114915668964,0.0003563309437595308
1761479806785886200,5.83888623046875,-0.004915129859000444,-0.0020929782185703516,-0.0019981698133051395
1761479806795922200,5.848922119140625,-0.0049550775438547134,-0.0004727110790554434,-0.0011225224006921053
1761479806805958100,5.858958251953125,-0.005663744639605284,-0.0026117621455341578,0.0012599414912983775
1761479806815994400,5.868994384765625,-0.006155364215373993,-0.00446825148537755,-0.001743038883432746
1761479806826030300,5.8790302734375,-0.008364723064005375,-0.004599279258400202,-0.0009590042755007744
1761479806836066300,5.88906640625,-0.005331914871931076,-0.00267674308270216,-0.002877545543015003
1761479806846102300,5.899102294921875,-0.0059931776486337185,0.00013795174891129136,-0.002552906284108758
1761479806856137200,5.90913720703125,-0.008479504846036434,-0.003921770956367254,0.0004093278548680246
1761479806866173200,5.919173095703125,-0.006055229343473911,-0.002225337317213416,-0.0005965480813756585
1761479806876209200,5.929209228515625,-0.006969226058572531,-0.0002596582053229213,-0.0009187905816361308
1761479806886245400,5.939245361328125,-0.005678392015397549,-0.0008386294357478619,0.0002002697146963328
1761479806896281300,5.94928125,-0.006617955397814512,-0.004585430957376957,-0.0011720572365447879
1761479806906317300,5.9593173828125,-0.005783320404589176,-0.0020234698895365,0.00016484966909047216
1761479806916353300,5.969353271484375,-0.005390770733356476,-0.00307541829533875,-0.0016295883106067777
1761479806926388200,5.97938818359375,-0.005653358530253172,-0.0065324679017066956,0.0013201289111748338
1761479806936424200,5.989424072265625,-0.005738845560699701,-0.0012069445801898837,-0.0026234800461679697
1761479806946460200,5.999460205078125,-0.0031366711482405663,-0.004278634674847126,-0.0004319647268857807
1761479806956496100,6.00949609375,-0.005894108209758997,-0.003108175238594413,0.0005123922019265592
1761479806966532400,6.019532470703125,-0.005618470720946789,-0.004994492046535015,-0.0007906925166025758
1761479806976568300,6.029568359375,-0.0046690539456903934,-0.004018443636596203,-0.0015595471486449242
1761479806986604300,6.039604248046875,-0.006921821739524603,-0.001350755337625742,-0.0012964267516508698
1761479806996640300,6.04964013671875,-0.005275988485664129,-0.006846987176686525,-0.002020007697865367
1761479807006675200,6.05967529296875,-0.009014267474412918,-0.003614708548411727,-0.001820536912418902
1761479807016711200,6.069711181640625,-0.0030181603506207466,-0.004876248072832823,-0.002597380895167589
1761479807026747100,6.0797470703125,-0.0051963599398732185,-0.00003222424857085571,-0.0013353090034797788
1761479807036783000,6.089783203125,-0.005875998642295599,-0.003774764481931925,-0.001365668955259025
1761479807046819300,6.0998193359375,-0.006382798310369253,-0.002557966159656644,-0.0015422365395352244
1761479807056855300,6.109855224609375,-0.008014783263206482,-0.003281813347712159,-0.0030043120495975018
1761479807066891300,6.119891357421875,-0.0041734399273991585,0.0000023968450477696024,-0.0012724583502858877
1761479807076926200,6.12992626953125,-0.007081078831106424,-0.004185956437140703,-0.0003962783666793257
1761479807086962200,6.139962158203125,-0.00794181227684021,-0.005426190793514252,-0.0024474449455738068
1761479807096998100,6.149998046875,-0.005015531089156866,-0.004165982827544212,-0.0005696501466445625
1761479807107034000,6.1600341796875,-0.004870389122515917,-0.0032112395856529474,-0.000544350128620863
1761479807117070000,6.170070068359375,-0.005590774118900299,-0.0017952368361875415,-0.003680754918605089
1761479807127106300,6.180106201171875,-0.007814779877662659,-0.004850947763770819,-0.003867975203320384
1761479807137142300,6.190142333984375,-0.006567088887095451,-0.001755289500579238,-0.0006340986583381891
1761479807147178200,6.20017822265625,-0.006584133021533489,-0.001172323478385806,-0.0022024342324584723
1761479807157213200,6.210213134765625,-0.0046570696868002415,-0.004698615055531263,-0.0019233349012210965
1761479807167249200,6.220249267578125,-0.0072837453335523605,-0.002412557601928711,-0.00018908442871179432
1761479807177285000,6.23028515625,-0.004280232358723879,0.0005779059720225632,-0.0018967032665386796
1761479807187321000,6.240321044921875,-0.0068057081662118435,-0.000014647385796706658,-0.0025598304346203804
1761479807197357000,6.250357177734375,-0.008872054517269135,-0.0037462685722857714,-0.00005166532355360687
1761479807207393300,6.260393310546875,-0.004600078333169222,-0.003067961661145091,-0.0010159959783777595
1761479807217429200,6.27042919921875,-0.00307648372836411,0.0013185309944674373,-0.0026088326703757048
1761479807227464200,6.280464111328125,-0.004848284646868706,-0.00216594897210598,-0.0024021712597459555
1761479807237500200,6.290500244140625,-0.007232612930238247,-0.0005081311101093888,-0.0011837751371785998
1761479807247536000,6.3005361328125,-0.006584932096302509,-0.0035364115610718727,0.00031851406674832106
1761479807257572000,6.310572021484375,-0.006864297669380903,-0.001820803270675242,0.00014407701382879168
1761479807267608000,6.320608154296875,-0.0021491709630936384,-0.0007257114048115909,-0.0023374564480036497
1761479807277644000,6.33064404296875,-0.007137537933886051,-0.005307946354150772,-0.003008040366694331
1761479807287680300,6.34068017578125,-0.004042412154376507,-0.0007813714328221977,-0.0016192019684240222
1761479807297715200,6.350715087890625,-0.0055060856975615025,-0.0037230991292744875,-0.0008197209681384265
1761479807307751200,6.360751220703125,-0.008465656079351902,-0.0036221654154360294,-0.0006854976527392864
1761479807317787100,6.370787109375,-0.004569718148559332,-0.001065264455974102,0.0003834952076431364
1761479807327823000,6.380822998046875,-0.006672283634543419,-0.0010197244118899107,-0.0014777880860492587
1761479807337859000,6.390859130859375,-0.004731105640530586,-0.0017057546647265553,-0.00037976677413098514
1761479807347895000,6.40089501953125,-0.006234460044652224,-0.005005144979804754,-0.0029225528705865145
1761479807357931000,6.410930908203125,-0.006487993057817221,0.00043223105603829026,-0.0019315907265990973
1761479807367967000,6.420967041015625,-0.006746852304786444,-0.0032120386604219675,-0.0015387744642794132
1761479807378002000,6.431001953125,-0.005275722127407789,-0.002100168727338314,0.0006303702248260379
1761479807388038000,6.441037841796875,-0.005770004820078611,-0.0016764599131420255,-0.0028807413764297962
1761479807398073900,6.451073974609375,-0.006686664652079344,-0.0028722193092107773,-0.0024730113800615072
1761479807408109800,6.46110986328125,-0.0038011297583580017,-0.004321777727454901,-0.0012516856659203768
1761479807418145800,6.471145751953125,-0.005332713946700096,-0.00415453128516674,-0.004560130648314953
1761479807428181800,6.481181640625,-0.005263205152004957,-0.0027920580469071865,-0.00014088122406974435
1761479807438218000,6.491218017578125,-0.007023288402706385,-0.0014895059866830707,-0.0007107976707629859
1761479807448253000,6.5012529296875,-0.00683233980089426,-0.0015419702976942062,-0.0014527543680742383
1761479807458289000,6.511288818359375,-0.00683207344263792,-0.0013305152533575892,-0.0016679377295076847
1761479807468324900,6.521324951171875,-0.00691995769739151,-0.0028519791085273027,-0.0024197481106966734
1761479807478360800,6.53136083984375,-0.005006476305425167,-0.0020069582387804985,-0.0005829659639857709
1761479807488396800,6.541396728515625,-0.006650712341070175,-0.0012314456980675459,-0.00210709311068058
1761479807498432800,6.551432861328125,-0.005579322576522827,-0.003631486324593425,-0.0038059235084801912
1761479807508469000,6.561468994140625,-0.006644054315984249,-0.004382497631013393,-0.0030959248542785645
1761479807518504000,6.57150390625,-0.006103166379034519,-0.0036850159522145987,-0.0016676714876666665
1761479807528540000,6.581539794921875,-0.0049460227601230145,-0.0062789348885416985,-0.0015611450653523207
1761479807538576000,6.591575927734375,-0.006312756799161434,-0.003858121344819665,-0.0008298410102725029
1761479807548611800,6.60161181640625,-0.005112470127642155,-0.002898051869124174,0.0000045273736759554595
1761479807558647800,6.611647705078125,-0.005111405160278082,0.0007744472241029143,-0.0008111988427117467
1761479807568683800,6.621683837890625,-0.005796636454761028,-0.002444781828671694,-0.0032647692132741213
1761479807578719700,6.6317197265625,-0.004172374494373798,-0.003141997382044792,0.0004037352045997977
1761479807588756000,6.641755859375,-0.003644003299996257,-0.0018977685831487179,-0.0008452873444184661
1761479807598791000,6.651791015625,-0.005056011490523815,-0.0016799219883978367,-0.0018365158466622233
1761479807608827000,6.661826904296875,-0.004024835303425789,-0.0027827369049191475,-0.0008543420699425042
1761479807618862800,6.67186279296875,-0.005776396486908197,-0.0016045545926317573,-0.0015566176734864712
1761479807628898800,6.68189892578125,-0.0039041941054165363,-0.0010077401529997587,-0.0006298375665210187
1761479807638934800,6.691934814453125,-0.0067961206659674644,-0.002665557898581028,-0.0017638115677982569
1761479807648970800,6.701970703125,-0.004775846842676401,-0.005106344819068909,-0.0006838997360318899
1761479807659006700,6.7120068359375,-0.004890096373856068,-0.0018748653819784522,-0.0010034791193902493
1761479807669042000,6.7220419921875,-0.007638212293386459,-0.0031318773981183767,-0.0013467605458572507
1761479807679078000,6.732077880859375,-0.006616090890020132,-0.001088966615498066,-0.0019678096286952496
1761479807689113900,6.74211376953125,-0.004119643941521645,-0.0023497070651501417,-0.0001347559446003288
1761479807699149800,6.75214990234375,-0.006885070353746414,0.0002689792599994689,-0.0005757753970101476
1761479807709185800,6.762185791015625,-0.00768748065456748,-0.0032527849543839693,-0.000559263804461807
1761479807719221800,6.7722216796875,-0.006019542925059795,-0.0028722193092107773,-0.0034344124142080545
1761479807729258000,6.782258056640625,-0.0052208611741662025,-0.003575826296582818,-0.002516953507438302
1761479807739293000,6.79229296875,-0.008837433531880379,-0.0008402272942475975,-0.0024048343766480684
1761479807749329000,6.802328857421875,-0.004907673224806786,-0.001398159540258348,-0.00043516053119674325
1761479807759364900,6.81236474609375,-0.007713579572737217,-0.0036037894897162914,-0.002433863002806902
1761479807769400800,6.82240087890625,-0.005020857788622379,-0.0033625070936977863,0.003237072378396988
1761479807779437000,6.83243701171875,-0.00887738075107336,-0.0057769292034208775,-0.002469016704708338
1761479807789473000,6.84247314453125,-0.00549197057262063,-0.001891909632831812,-0.0011499529937282205
1761479807799509000,6.852509033203125,-0.006477074231952429,-0.003620301140472293,-0.0013464941876009107
1761479807809544000,6.8625439453125,-0.0057068876922130585,-0.0036479979753494263,-0.0014556838432326913
1761479807819580000,6.872579833984375,-0.005407548509538174,-0.0020985708106309175,-0.0032650355715304613
1761479807829615900,6.882615966796875,-0.00780545873567462,-0.00177952426020056,-0.0010090717114508152
1761479807839652000,6.892652099609375,-0.004031759686768055,-0.004574511665850878,-0.0014540859265252948
1761479807849688000,6.90268798828125,-0.0075545888394117355,-0.0020762004423886538,-0.0012088088551536202
1761479807859724000,6.91272412109375,-0.007738347165286541,-0.0025936525780707598,-0.0014660701854154468
1761479807869760000,6.922760009765625,-0.004874916281551123,-0.0037521275226026773,-0.0028879318851977587
1761479807879795000,6.932794921875,-0.004728176165372133,-0.001841575838625431,-0.0006479470757767558
1761479807889831200,6.9428310546875,-0.007407316006720066,-0.0024402544368058443,-0.0010426276130601764
1761479807899867100,6.9528671875,-0.005758020561188459,-0.0035835495218634605,0.0007827030494809151
1761479807909903000,6.962903076171875,-0.0051931641064584255,-0.0016932378057390451,-0.002389654517173767
1761479807919939000,6.97293896484375,-0.005717274267226458,-0.002781671704724431,-0.0031345405150204897
1761479807929975000,6.98297509765625,-0.00686243362724781,-0.0017899106023833156,-0.0011443602852523327
1761479807940011000,6.993010986328125,-0.004881041590124369,-0.0036695697344839573,-0.00008495483780279756
1761479807950046000,7.0030458984375,-0.004976915195584297,-0.00341523764654994,-0.0014825817197561264
1761479807960082200,7.013082275390625,-0.007616906892508268,-0.0024109596852213144,-0.002085787709802389
1761479807970118100,7.0231181640625,-0.007257912773638964,-0.0019765980541706085,-0.003153448924422264
1761479807980154000,7.033154052734375,-0.005014998838305473,-0.005389971658587456,-0.0011787151452153921
1761479807990190000,7.043190185546875,-0.005621133837848902,-0.004138019867241383,-0.00039015308720991015
1761479808000226000,7.05322607421875,-0.006556968670338392,-0.0020791299175471067,-0.0010934938909485936
1761479808010262000,7.063261962890625,-0.00794527493417263,-0.0025395904667675495,-0.00036511936923488975
1761479808020297000,7.073296875,-0.005455485545098782,-0.0007028082036413252,-0.002213353058323264
1761479808030333000,7.0833330078125,-0.005762547720223665,-0.0038922098465263844,-0.0000655137628200464
1761479808040369200,7.093369140625,-0.004887433256953955,-0.004196609370410442,-0.0036373452749103308
1761479808050405000,7.103405029296875,-0.005544435232877731,-0.0013201289111748338,-0.0014594122767448425
1761479808060441000,7.113441162109375,-0.005944175645709038,-0.003228283952921629,-0.0033510555513203144
1761479808070477000,7.12347705078125,-0.006427273154258728,-0.00005699164830730297,-0.0005888249143026769
1761479808080513000,7.133512939453125,-0.00774660287424922,-0.0009350358741357923,-0.0014000238152220845
1761479808090548000,7.1435478515625,-0.00544376764446497,-0.0026871294248849154,-0.003531617810949683
1761479808100584000,7.153583984375,-0.0065100970678031445,-0.0015243934467434883,-0.00003781688792514615
1761479808110620000,7.163619873046875,-0.003850398352369666,-0.0031372036319226027,-0.002261290093883872
1761479808120656100,7.17365625,-0.005340170580893755,-0.004539624322205782,0.00038003307417966425
1761479808130692000,7.183692138671875,-0.005277319811284542,-0.0018221348291262984,-0.0009882990270853043
1761479808140728000,7.19372802734375,-0.005327387247234583,-0.0034149715211242437,-0.002749447477981448
1761479808150764000,7.203763916015625,-0.00637906976044178,-0.0022559636272490025,-0.00015286543930415064
1761479808160799000,7.213799072265625,-0.006744189187884331,-0.0005688511882908642,-0.001472728094086051
1761479808170835000,7.2238349609375,-0.005390504375100136,-0.002675145398825407,-0.0038546593859791756
1761479808180871000,7.233870849609375,-0.00439048744738102,-0.0025622271932661533,-0.00041278995922766626
1761479808190907000,7.243906982421875,-0.007852330803871155,-0.0020274645648896694,-0.002067944500595331
1761479808200943000,7.253943115234375,-0.006101568229496479,-0.005535646807402372,-0.0004873584839515388
1761479808210979000,7.26397900390625,-0.004869057331234217,-0.004179831128567457,-0.001175252953544259
1761479808221015000,7.27401513671875,-0.006200904026627541,-0.0018306568963453174,-0.0014325142838060856
1761479808231050000,7.284050048828125,-0.006968427449464798,-0.004333229269832373,-0.002005093963816762
1761479808241086000,7.2940859375,-0.004886367823928595,-0.005565740168094635,-0.0015606123488396406
1761479808251122000,7.304121826171875,-0.007517837453633547,-0.0021283982787281275,-0.003328684950247407
1761479808261158000,7.314157958984375,-0.005588909611105919,-0.0016636766958981752,-0.0015907060587778687
1761479808271193900,7.32419384765625,-0.0075780246406793594,-0.0012570120161399245,-0.002840527566149831
1761479808281230000,7.33422998046875,-0.006461894139647484,-0.002228533150628209,-0.001110005541704595
1761479808291265000,7.34426513671875,-0.005636313930153847,-0.0016189356101676822,0.00019414443522691727
1761479808301301000,7.354301025390625,-0.005185441114008427,-0.0022325278259813786,-0.0025451830588281155
1761479808311337000,7.3643369140625,-0.007366303354501724,-0.004887433256953955,0.001216798322275281
1761479808321373000,7.374373046875,-0.004905542824417353,-0.0033814155030995607,-0.00036378781078383327
1761479808331409000,7.384408935546875,-0.005859220866113901,-0.0013667342718690634,0.0005645901546813548
1761479808341444900,7.39444482421875,-0.004253068007528782,-0.0054674698039889336,-0.0028269453905522823
1761479808351480800,7.404480712890625,-0.005308745428919792,-0.0030660973861813545,-0.0004426173691172153
1761479808361515500,7.414515625,-0.007997739128768444,-0.003947603516280651,-0.000996554852463305
1761479808371551500,7.424551513671875,-0.007305849809199572,-0.0010058758780360222,-0.000964064325671643
1761479808381587500,7.43458740234375,-0.00637800432741642,-0.0014524880098178983,-0.001967277145013213
1761479808391623400,7.44462353515625,-0.0035931370221078396,-0.00330311874859035,-0.003040530951693654
1761479808401659600,7.45465966796875,-0.007570834364742041,-0.003397394670173526,-0.001127316034398973
1761479808411695600,7.464695556640625,-0.0041763694025576115,-0.0057465690188109875,-0.0013187973527237773
1761479808421731600,7.474731689453125,-0.0068086376413702965,-0.0041462755762040615,0.00011078749957960099
1761479808431766500,7.4847666015625,-0.006637929007411003,-0.004787564743310213,-0.0014642059104517102
1761479808441802500,7.494802490234375,-0.005726329050958157,-0.0022237394005060196,-0.003073554253205657
1761479808451838700,7.504838623046875,-0.006296245381236076,-0.003225354477763176,-0.001936917076818645
1761479808461874700,7.514874755859375,-0.0054552191868424416,-0.00032916670897975564,-0.0007358313887380064
1761479808471910700,7.52491064453125,-0.003973436541855335,-0.002323608146980405,-0.0013691311469301581
1761479808481946600,7.534946533203125,-0.004984105937182903,-0.003790477057918906,-0.002800047630444169
1761479808491982600,7.544982666015625,-0.005230181850492954,-0.0035396073944866657,-0.0026170883793383837
1761479808502017500,7.555017578125,-0.00632048025727272,-0.004704207647591829,-0.0008740494376979768
1761479808512053800,7.5650537109375,-0.008762598969042301,-0.003968642558902502,-0.00047084689140319824
1761479808522089700,7.57508984375,-0.004856273997575045,-0.0015105449128895998,-0.0014530207263305783
1761479808532125700,7.585125732421875,-0.004723382648080587,-0.0037579864729195833,-0.0016250609187409282
1761479808542161700,7.59516162109375,-0.004697283264249563,-0.003594468580558896,-0.0028535770252346992
1761479808552197600,7.60519775390625,-0.00458756135776639,-0.0021254688035696745,-0.002344913315027952
1761479808562232800,7.61523291015625,-0.006683735176920891,-0.0018895127577707171,-0.0012812467757612467
1761479808572268800,7.625268798828125,-0.007788947317749262,-0.0019627497531473637,-0.0006271744496189058
1761479808582304800,7.6353046875,-0.006346579175442457,-0.0033800839446485043,-0.0007358313887380064
1761479808592340700,7.6453408203125,-0.00501020485535264,-0.0035390746779739857,-0.0036509274505078793
1761479808602376700,7.655376708984375,-0.006111688446253538,-0.0018365158466622233,-0.002252235310152173
1761479808612412700,7.66541259765625,-0.00649651512503624,-0.0036184368655085564,-0.0029800771735608578
1761479808622448600,7.67544873046875,-0.005530852824449539,-0.0007462177309207618,-0.002017078222706914
1761479808632483800,7.68548388671875,-0.00680118054151535,-0.006395314820110798,-0.002240517409518361
1761479808642519800,7.695519775390625,-0.00529542937874794,-0.003290601773187518,-0.0011001517996191978
1761479808652555800,7.7055556640625,-0.0073141055181622505,-0.004579039290547371,0.00046152580762282014
1761479808662591700,7.715591796875,-0.007056311704218388,-0.0037268276792019606,-0.0006769755273126066
1761479808672627700,7.725627685546875,-0.005285309627652168,0.000556600687559694,-0.004734301473945379
1761479808682663700,7.73566357421875,-0.005898102652281523,-0.003322825999930501,-0.002073537092655897
1761479808692699600,7.74569970703125,-0.0065228804014623165,0.00010359696898376569,-0.0007795072160661221
1761479808702734600,7.755734619140625,-0.006083991378545761,-0.00207726564258337,-0.0018498316640034318
1761479808712770800,7.765770751953125,-0.005873601883649826,-0.0015877765836194158,-0.0004655205411836505
1761479808722806800,7.775806884765625,-0.005736448802053928,-0.0009499495499767363,-0.00001864212754298933
1761479808732842800,7.7858427734375,-0.005270928610116243,-0.0031345405150204897,-0.0011174624087288976
1761479808742878700,7.795878662109375,-0.009004946798086166,-0.0028064390644431114,0.0011622034944593906
1761479808752914700,7.805914794921875,-0.006104764062911272,-0.005337507463991642,-0.0007518103811889887
1761479808762949600,7.81594970703125,-0.00708800321444869,-0.0021608888637274504,-0.0007227819296531379
1761479808772985600,7.825985595703125,-0.006573480553925037,-0.0009890979854390025,-0.0035334820859134197
1761479808783021600,7.836021484375,-0.005197159014642239,-0.0034788872580975294,-0.0006580671179108322
1761479808793057800,7.846057861328125,-0.006717024836689234,-0.003567037871107459,-0.0018298579379916191
1761479808803093800,7.85609375,-0.003856523660942912,-0.0027513117529451847,-0.00009028115891851485
1761479808813129700,7.866129638671875,-0.00535508431494236,-0.0006793724023737013,-0.00310497940517962
1761479808823165700,7.876165771484375,-0.0057103498838841915,-0.0031670311000198126,-0.00130920996889472
1761479808833200600,7.88620068359375,-0.006057892460376024,-0.00296303303912282,-0.0015622102655470371
1761479808843236600,7.896236572265625,-0.006895456463098526,-0.0019568908028304577,-0.001094559207558632
1761479808853272600,7.9062724609375,-0.005417402368038893,-0.002454369328916073,-0.00016218650853261352
1761479808863308500,7.91630859375,-0.005410211626440287,-0.0021917815320193768,-0.003228283952921629
1761479808873344800,7.9263447265625,-0.006360427476465702,-0.003031742526218295,-0.0028362665325403214
1761479808883380700,7.936380615234375,-0.005368399899452925,-0.0034439999144524336,-0.001561944023706019
1761479808893415700,7.946415771484375,-0.004877313040196896,0.0002711098059080541,-0.0011470235185697675
1761479808903451600,7.95645166015625,-0.0062616243958473206,-0.0021137509029358625,-0.001050084363669157
1761479808913487600,7.966487548828125,-0.0051843756809830666,-0.003166232258081436,-0.0020514330826699734
1761479808923523600,7.976523681640625,-0.0056890444830060005,-0.0015563513152301311,0.0020354539155960083
1761479808933559600,7.9865595703125,-0.005614209920167923,-0.0036613137926906347,-0.0022069616243243217
1761479808943595500,7.996595458984375,-0.007865379564464092,0.0004492752777878195,-0.0028754149097949266
1761479808953630700,8.006630615234375,-0.005603556986898184,-0.0038011297583580017,-0.0025595640763640404
1761479808963665700,8.016665771484375,-0.005169728305190802,-0.004793690051883459,-0.0014953649369999766
1761479808973701600,8.02670166015625,-0.006645119283348322,-0.007041930686682463,-0.0025864620693027973
1761479808983737600,8.036737548828125,-0.0029648973140865564,-0.003690076060593128,-0.0007752461824566126
1761479808993773800,8.04677392578125,-0.00800359807908535,-0.0017417073249816895,-0.001981125446036458
1761479809003809800,8.056809814453125,-0.0037915424909442663,-0.0031965922098606825,-0.0015504923649132252
1761479809013845800,8.066845703125,-0.005873601883649826,-0.001163268811069429,-0.001913481275551021
1761479809023881700,8.0768818359375,-0.004317782819271088,-0.002519882982596755,0.0001816275907913223
1761479809033916700,8.086916748046875,-0.007479221560060978,-0.003870105603709817,-0.0010066748363897204
1761479809043952600,8.09695263671875,-0.005537244491279125,-0.0017030915478244424,-0.001728657865896821
1761479809053988600,8.106988525390625,-0.0067881313152611256,-0.0028192223981022835,-0.0006620618514716625
1761479809064024600,8.117024658203125,-0.006887733470648527,-0.000606668065302074,0.0001310275256400928
1761479809074060800,8.127060791015625,-0.0065071675926446915,-0.0028128307312726974,-0.0006740460521541536
1761479809084096800,8.1370966796875,-0.0072925337590277195,-0.0025981799699366093,-0.0011118697002530098
1761479809094131700,8.147131591796875,-0.00506932707503438,-0.0054759918712079525,-0.0006916229031048715
1761479809104167700,8.157167724609375,-0.004433896858245134,-0.002701510675251484,-0.0020876519847661257
1761479809114203600,8.16720361328125,-0.008581237867474556,-0.004706338047981262,-0.00020160128769930452
1761479809124239600,8.177239501953125,-0.0060357884503901005,-0.0037846181076020002,-0.0012863067677244544
1761479809134275600,8.187275634765625,-0.006128732580691576,-0.0028881982434540987,-0.0009741843095980585
1761479809144311600,8.1973115234375,-0.005756688769906759,-0.002454102970659733,-0.001094825565814972
1761479809154347800,8.20734765625,-0.006483998149633408,-0.002663427498191595,-0.002368615474551916
1761479809164382700,8.2173828125,-0.004249872639775276,-0.005912217777222395,-0.002442118711769581
1761479809174418700,8.227418701171874,-0.007803594693541527,-0.0018844527658075094,-0.0004966795677319169
1761479809184454700,8.23745458984375,-0.007425159215927124,-0.002674612682312727,-0.0023734092246741056
1761479809194490600,8.24749072265625,-0.006794522982090712,-0.0016652746126055717,-0.0011619371362030506
1761479809204526600,8.257526611328124,-0.006845655385404825,-0.0029433255549520254,-0.002654106356203556
1761479809214562600,8.2675625,-0.007772701792418957,-0.002752110594883561,-0.0007257114048115909
1761479809224597800,8.27759765625,-0.007322094868868589,-0.0024197481106966734,0.0017028251895681024
1761479809234633700,8.2876337890625,-0.006582535337656736,-0.004279433749616146,-0.0013901700731366873
1761479809244669700,8.297669677734374,-0.006337790749967098,-0.003674895968288183,-0.003029345767572522
1761479809254705700,8.30770556640625,-0.004474376793950796,-0.0035270904190838337,-0.002168878447264433
1761479809264741600,8.31774169921875,-0.006433132104575634,-0.0009110674145631492,-0.000966727442573756
1761479809274777600,8.327777587890624,-0.005977198481559753,-0.0034461303148418665,-0.001630387152545154
1761479809284813600,8.3378134765625,-0.00555322365835309,-0.004861600697040558,-0.0009835053933784366
1761479809294848800,8.347848876953124,-0.007326888851821423,-0.002570749493315816,-0.001600559800863266
1761479809304884700,8.357884765625,-0.005323392804712057,-0.0018239989876747131,-0.0020695424173027277
1761479809314920700,8.367920654296874,-0.006049636751413345,-0.002116147894412279,-0.0010636665392667055
1761479809324956700,8.377956787109374,-0.0033633061684668064,-0.0025989788118749857,-0.0015518239233642817
1761479809334992600,8.38799267578125,-0.006046174559742212,-0.003495931625366211,-0.0009526127250865102
1761479809345028600,8.398028564453124,-0.007134075742214918,-0.004689293913543224,-0.0036828855518251657
1761479809355064600,8.408064697265624,-0.00794127956032753,-0.003622964257374406,-0.0006593986763618886
1761479809365100500,8.4181005859375,-0.005863748025149107,-0.0032764871139079332,0.0004655205411836505
1761479809375136800,8.42813671875,-0.005613410845398903,-0.00418489146977663,-0.000014913702216290403
1761479809385172700,8.4381728515625,-0.00771890627220273,-0.0051926313899457455,-0.002139050979167223
1761479809395209000,8.448208984375,-0.0030690268613398075,-0.003340402850881219,-0.00049108691746369
1761479809405245000,8.458244873046874,-0.006265352945774794,-0.003472229465842247,-0.001841842196881771
1761479809415281000,8.468281005859374,-0.005210474599152803,-0.0017933726776391268,-0.004204332362860441
1761479809425315800,8.47831591796875,-0.007413707673549652,-0.0031313446816056967,-0.00034461304312571883
1761479809435351800,8.488351806640624,-0.0054301852360367775,-0.0007459514308720827,-0.002326004905626178
1761479809445387800,8.4983876953125,-0.006302903406322002,-0.0034756914246827364,-0.0020868529099971056
1761479809455423700,8.508423828125,-0.006441654171794653,-0.0037734329234808683,-0.00304692261852324
1761479809465459700,8.518459716796874,-0.004238686989992857,-0.000595216522924602,-0.0003217098710592836
1761479809475496000,8.528495849609374,-0.006060555577278137,-0.0005960154230706394,-0.002276203827932477
1761479809485531000,8.53853076171875,-0.004208060912787914,-0.0036818201187998056,-0.0046818372793495655
1761479809495566800,8.54856689453125,-0.005136971361935139,-0.002900714986026287,-0.0013555489713326097
1761479809505602800,8.558602783203124,-0.005015797447413206,-0.0029606360476464033,-0.0035752938129007816
1761479809515638800,8.568638671875,-0.00657694274559617,-0.004483697935938835,-0.004237888380885124
1761479809525674800,8.5786748046875,-0.007454986684024334,-0.004972654394805431,-0.0005848301807418466
1761479809535710700,8.588710693359374,-0.007366569712758064,-0.0006202502408996224,-0.002516687149181962
1761479809545746700,8.59874658203125,-0.006120210513472557,-0.0013973605819046497,-0.002394448034465313
1761479809555782000,8.608781982421876,-0.003980360459536314,-0.005340703297406435,-0.001528920722194016
1761479809565817900,8.61881787109375,-0.0065412563271820545,0.004924184642732143,0.0116763636469841
1761479809575853800,8.628853759765626,-0.006068279035389423,0.012899819761514664,0.021228322759270668
1761479809585889800,8.638889892578124,-0.005679457448422909,-0.0022540995851159096,0.005750829819589853
1761479809595925800,8.64892578125,-0.0051710596308112144,-0.008079231716692448,-0.010965299792587757
1761479809605961700,8.658961669921876,-0.004859203472733498,-0.006908506155014038,-0.010433732531964779
1761479809615997000,8.668996826171876,-0.005857622716575861,-0.005380916874855757,-0.005336974747478962
1761479809626033000,8.679032958984376,-0.005546565633267164,-0.004483431577682495,-0.006330067757517099
1761479809636068900,8.68906884765625,-0.0048829056322574615,-0.0035065840929746628,-0.0008543420699425042
