time,seconds_elapsed,z,y,x
1761505739742358300,0.085358154296875,-0.5464324951171875,-0.1302642822265625,-0.0886077880859375
1761505739752394200,0.095394287109375,-0.537841796875,-0.1443328857421875,-0.0803680419921875
1761505739762430200,0.10543017578125,-0.5855255126953125,-0.15625,-0.0522613525390625
1761505739772466200,0.115466064453125,-0.639862060546875,-0.162139892578125,-0.025421142578125
1761505739782502100,0.125502197265625,-0.6547698974609375,-0.1542816162109375,-0.0199127197265625
1761505739792538000,0.1355380859375,-0.672637939453125,-0.140350341796875,-0.04132080078125
1761505739802574000,0.145573974609375,-0.71563720703125,-0.1353759765625,-0.066192626953125
1761505739812610300,0.1556103515625,-0.7952117919921875,-0.1417388916015625,-0.0865478515625
1761505739822646300,0.165646240234375,-0.87896728515625,-0.1525726318359375,-0.1031951904296875
1761505739832682500,0.1756826171875,-0.942291259765625,-0.1586761474609375,-0.0986785888671875
1761505739842718500,0.185718505859375,-1.024627685546875,-0.1577301025390625,-0.1111907958984375
1761505739852753200,0.195753173828125,-1.1190338134765625,-0.175201416015625,-0.14642333984375
1761505739862789000,0.2057890625,-1.265960693359375,-0.196868896484375,-0.1977386474609375
1761505739872825000,0.2158251953125,-1.4246063232421875,-0.2016754150390625,-0.2565460205078125
1761505739882861000,0.225861083984375,-1.611053466796875,-0.2360382080078125,-0.247161865234375
1761505739892897000,0.23589697265625,-1.8277130126953125,-0.28118896484375,-0.217987060546875
1761505739902933200,0.245933349609375,-1.9798126220703125,-0.2692108154296875,-0.2390289306640625
1761505739912969200,0.25596923828125,-2.0727691650390625,-0.2379913330078125,-0.3030548095703125
1761505739923005400,0.26600537109375,-2.12677001953125,-0.2076568603515625,-0.4138031005859375
1761505739933042200,0.276042236328125,-2.0738677978515625,-0.163116455078125,-0.514190673828125
1761505739943078400,0.286078369140625,-2.001678466796875,-0.1488800048828125,-0.555816650390625
1761505739953114400,0.2961142578125,-1.9618988037109375,-0.195037841796875,-0.5116729736328125
1761505739963150300,0.306150390625,-1.929107666015625,-0.2457427978515625,-0.43084716796875
1761505739973186300,0.316186279296875,-1.8751068115234375,-0.271209716796875,-0.380035400390625
1761505739983222300,0.32622216796875,-1.80767822265625,-0.2756500244140625,-0.3645172119140625
1761505739993258200,0.33625830078125,-1.742431640625,-0.2821044921875,-0.3828125
1761505740003294200,0.346294189453125,-1.6100311279296875,-0.279327392578125,-0.3968048095703125
1761505740013330200,0.356330078125,-1.446014404296875,-0.2694091796875,-0.392059326171875
1761505740023366100,0.3663662109375,-1.2452392578125,-0.23944091796875,-0.3288726806640625
1761505740033402000,0.376402099609375,-1.03167724609375,-0.2016448974609375,-0.3241424560546875
1761505740043438000,0.38643798828125,-0.815826416015625,-0.1833038330078125,-0.3523712158203125
1761505740053474300,0.396474365234375,-0.6599884033203125,-0.1875762939453125,-0.2893829345703125
1761505740063510300,0.40651025390625,-0.5457916259765625,-0.201171875,-0.196929931640625
1761505740073546200,0.416546142578125,-0.49127197265625,-0.2132415771484375,-0.137969970703125
1761505740083582200,0.426582275390625,-0.5194244384765625,-0.223114013671875,-0.092803955078125
1761505740093618200,0.4366181640625,-0.526153564453125,-0.2203369140625,-0.0554656982421875
1761505740103654100,0.446654052734375,-0.4803619384765625,-0.196563720703125,-0.0515289306640625
1761505740113690000,0.456690185546875,-0.40850830078125,-0.160614013671875,-0.0651397705078125
1761505740123726000,0.46672607421875,-0.2682037353515625,-0.1274566650390625,-0.0785064697265625
1761505740133763300,0.476763427734375,-0.125579833984375,-0.099029541015625,-0.0885009765625
1761505740143799300,0.48679931640625,-0.004791259765625,-0.0987396240234375,-0.0985107421875
1761505740153835300,0.496835205078125,0.0614471435546875,-0.1092681884765625,-0.0614013671875
1761505740163871200,0.506871337890625,0.0233612060546875,-0.0897369384765625,-0.0303802490234375
1761505740173907200,0.5169072265625,-0.045257568359375,-0.0585479736328125,-0.0083770751953125
1761505740183943200,0.526943115234375,-0.1176300048828125,-0.0414886474609375,-0.0021820068359375
1761505740193979100,0.536979248046875,-0.19384765625,-0.03564453125,-0.0134429931640625
1761505740204015400,0.547015380859375,-0.21954345703125,-0.0421905517578125,-0.0236053466796875
1761505740214051300,0.55705126953125,-0.2382965087890625,-0.062408447265625,0.0109710693359375
1761505740224087300,0.56708740234375,-0.2281036376953125,-0.0724945068359375,0.0592498779296875
1761505740234123300,0.577123291015625,-0.2144775390625,-0.05181884765625,0.0662994384765625
1761505740244159200,0.5871591796875,-0.231170654296875,-0.02490234375,0.0254669189453125
1761505740254195200,0.5971953125,-0.254730224609375,-0.0397491455078125,0.02105712890625
1761505740264231200,0.607231201171875,-0.28173828125,-0.0777130126953125,0.0458831787109375
1761505740274267100,0.61726708984375,-0.301849365234375,-0.0966644287109375,0.0329742431640625
1761505740284303000,0.62730322265625,-0.3104248046875,-0.09844970703125,0.00091552734375
1761505740294339000,0.637339111328125,-0.305908203125,-0.09722900390625,-0.023529052734375
1761505740304375300,0.647375244140625,-0.31976318359375,-0.1029815673828125,-0.0303192138671875
1761505740314411300,0.657411376953125,-0.318634033203125,-0.1098480224609375,-0.0189666748046875
1761505740324448300,0.6674482421875,-0.324981689453125,-0.1063385009765625,-0.02783203125
1761505740334484200,0.677484130859375,-0.38983154296875,-0.1061859130859375,-0.047760009765625
1761505740344520400,0.6875205078125,-0.48291015625,-0.1165313720703125,-0.0760040283203125
1761505740354556400,0.697556396484375,-0.59832763671875,-0.1285858154296875,-0.1199951171875
1761505740364592400,0.70759228515625,-0.7521820068359375,-0.1288299560546875,-0.1715545654296875
1761505740374628400,0.71762841796875,-0.968017578125,-0.08087158203125,-0.2098236083984375
1761505740384664300,0.727664306640625,-1.1967926025390625,-0.026336669921875,-0.1908111572265625
1761505740394700300,0.7377001953125,-1.4555511474609375,-0.0157470703125,-0.1196746826171875
1761505740404736300,0.747736328125,-1.703125,-0.0921173095703125,-0.028656005859375
1761505740414772200,0.757772216796875,-1.974945068359375,-0.2270355224609375,0.0454559326171875
1761505740424808200,0.76780810546875,-2.3338775634765625,-0.3263397216796875,0.028839111328125
1761505740434844200,0.77784423828125,-2.5595245361328125,-0.3118133544921875,-0.0912628173828125
1761505740444880100,0.787880126953125,-2.5814971923828125,-0.1832122802734375,-0.262969970703125
1761505740454916400,0.797916259765625,-2.5396575927734375,-0.0803375244140625,-0.37835693359375
1761505740464952300,0.807952392578125,-2.4886474609375,-0.10748291015625,-0.4230499267578125
1761505740474988300,0.81798828125,-2.48004150390625,-0.209320068359375,-0.4294586181640625
1761505740485024300,0.828024169921875,-2.4995574951171875,-0.2789154052734375,-0.4403533935546875
1761505740495060200,0.838060302734375,-2.5498809814453125,-0.2958831787109375,-0.4559173583984375
1761505740505097200,0.84809716796875,-2.5654754638671875,-0.31121826171875,-0.4222869873046875
1761505740515133200,0.85813330078125,-2.4939422607421875,-0.30731201171875,-0.349029541015625
1761505740525169200,0.868169189453125,-2.3478240966796875,-0.2802581787109375,-0.2736053466796875
1761505740535205000,0.878205078125,-2.1044769287109375,-0.2507476806640625,-0.2074127197265625
1761505740545241000,0.888240966796875,-1.75970458984375,-0.245452880859375,-0.119140625
1761505740555277000,0.898277099609375,-1.4535064697265625,-0.2756805419921875,-0.0118255615234375
1761505740565313300,0.908313232421875,-1.22161865234375,-0.3109588623046875,0.05218505859375
1761505740575349200,0.918349365234375,-1.0352020263671875,-0.3059234619140625,0.0489654541015625
1761505740585385200,0.92838525390625,-0.9339752197265625,-0.2825927734375,0.0178070068359375
1761505740595421400,0.93842138671875,-0.8348236083984375,-0.2870941162109375,-0.02520751953125
1761505740605457400,0.94845751953125,-0.7063140869140625,-0.3105926513671875,-0.0584259033203125
1761505740615493400,0.958493408203125,-0.6048583984375,-0.334747314453125,-0.057861328125
1761505740625529300,0.968529296875,-0.5375213623046875,-0.3549957275390625,-0.03363037109375
1761505740635565300,0.9785654296875,-0.490814208984375,-0.35888671875,-0.006439208984375
1761505740645601300,0.988601318359375,-0.4389495849609375,-0.326141357421875,-0.013397216796875
1761505740655637200,0.99863720703125,-0.376312255859375,-0.2738189697265625,-0.067352294921875
1761505740665673200,1.008673095703125,-0.27020263671875,-0.22296142578125,-0.1306915283203125
1761505740675710200,1.018710205078125,-0.175567626953125,-0.1846923828125,-0.146881103515625
1761505740685746200,1.02874609375,-0.1175689697265625,-0.1590576171875,-0.139801025390625
1761505740695782100,1.0387822265625,-0.07666015625,-0.1399383544921875,-0.130615234375
1761505740705818000,1.048818115234375,-0.0671539306640625,-0.1313934326171875,-0.107696533203125
1761505740715854000,1.05885400390625,-0.0941009521484375,-0.1272735595703125,-0.07513427734375
1761505740725890000,1.06889013671875,-0.136993408203125,-0.11810302734375,-0.0486297607421875
1761505740735926300,1.07892626953125,-0.1644287109375,-0.11053466796875,-0.0285186767578125
1761505740745962200,1.088962158203125,-0.1826019287109375,-0.10247802734375,-0.017303466796875
1761505740755998200,1.098998291015625,-0.1833953857421875,-0.0978240966796875,-0.013916015625
1761505740766034200,1.1090341796875,-0.1747894287109375,-0.09674072265625,-0.0112457275390625
1761505740776070100,1.119070068359375,-0.1607818603515625,-0.1007232666015625,-0.0052947998046875
1761505740786106000,1.129106201171875,-0.1630401611328125,-0.1083526611328125,0.0014190673828125
1761505740796142300,1.139142333984375,-0.194366455078125,-0.1168060302734375,0.005035400390625
1761505740806178300,1.14917822265625,-0.2491302490234375,-0.132049560546875,0.0124053955078125
1761505740816214300,1.15921435546875,-0.283966064453125,-0.1534881591796875,0.0348052978515625
1761505740826250200,1.169250244140625,-0.3030242919921875,-0.1543426513671875,0.0368804931640625
1761505740836286200,1.1792861328125,-0.30072021484375,-0.1465911865234375,0.0265350341796875
1761505740846324200,1.18932421875,-0.2939453125,-0.136810302734375,0.0206298828125
1761505740856360200,1.199360107421875,-0.329010009765625,-0.113922119140625,0.0078125
1761505740866396200,1.209396240234375,-0.45758056640625,-0.08477783203125,0.0046539306640625
1761505740876432100,1.21943212890625,-0.6785888671875,-0.067047119140625,0.00543212890625
1761505740886468000,1.229468017578125,-0.8880157470703125,-0.0537109375,-0.0336456298828125
1761505740896504000,1.239504150390625,-1.009918212890625,-0.043670654296875,-0.1195220947265625
1761505740906540000,1.2495400390625,-1.138641357421875,-0.043792724609375,-0.182464599609375
1761505740916576300,1.259576171875,-1.282379150390625,-0.075042724609375,-0.195709228515625
1761505740926612200,1.2696123046875,-1.502685546875,-0.151336669921875,-0.120635986328125
1761505740936648200,1.279648193359375,-1.8717041015625,-0.2736968994140625,0.0055694580078125
1761505740946684200,1.28968408203125,-2.274444580078125,-0.3529052734375,0.1013946533203125
1761505740956720000,1.29972021484375,-2.6168365478515625,-0.32965087890625,0.117340087890625
1761505740966756400,1.30975634765625,-2.860443115234375,-0.2375640869140625,0.028411865234375
1761505740976792300,1.319792236328125,-2.884765625,-0.14605712890625,-0.137969970703125
1761505740986828300,1.329828369140625,-2.7373046875,-0.0899505615234375,-0.328369140625
1761505740996864300,1.3398642578125,-2.4832611083984375,-0.0569610595703125,-0.4946136474609375
1761505741006901200,1.3499013671875,-2.24298095703125,-0.0528106689453125,-0.5685882568359375
1761505741016937200,1.359937255859375,-2.09844970703125,-0.0823211669921875,-0.5298919677734375
1761505741026973200,1.36997314453125,-2.0425872802734375,-0.129730224609375,-0.4107208251953125
1761505741037009200,1.380009033203125,-1.99981689453125,-0.18017578125,-0.2825469970703125
1761505741047045000,1.390045166015625,-1.94317626953125,-0.206756591796875,-0.2144927978515625
1761505741057081300,1.400081298828125,-1.7866973876953125,-0.217559814453125,-0.19940185546875
1761505741067117300,1.410117431640625,-1.530670166015625,-0.2206573486328125,-0.1896209716796875
1761505741077153300,1.4201533203125,-1.2855224609375,-0.2275238037109375,-0.16839599609375
1761505741087189200,1.430189208984375,-1.106903076171875,-0.248565673828125,-0.1219024658203125
1761505741097225200,1.44022509765625,-0.9948577880859375,-0.2647857666015625,-0.0715179443359375
1761505741107261200,1.45026123046875,-0.9018096923828125,-0.258697509765625,-0.042633056640625
1761505741117297200,1.460297119140625,-0.84613037109375,-0.2493133544921875,-0.0324249267578125
1761505741127333000,1.4703330078125,-0.7932586669921875,-0.2498321533203125,-0.0330963134765625
1761505741137369000,1.480369140625,-0.7338104248046875,-0.2466278076171875,-0.0411376953125
1761505741147405000,1.490405029296875,-0.6589813232421875,-0.2422637939453125,-0.0294952392578125
1761505741157442300,1.5004423828125,-0.6129150390625,-0.239501953125,0.0200042724609375
1761505741167477200,1.510477294921875,-0.5367279052734375,-0.2227325439453125,0.060791015625
1761505741177514200,1.52051416015625,-0.447784423828125,-0.19854736328125,0.0624237060546875
1761505741187550200,1.53055029296875,-0.348480224609375,-0.1837310791015625,0.0313262939453125
1761505741197586200,1.540586181640625,-0.259063720703125,-0.175201416015625,-0.0167999267578125
1761505741207622400,1.550622314453125,-0.1845245361328125,-0.1642913818359375,-0.0654296875
1761505741217658400,1.560658447265625,-0.1173248291015625,-0.1520843505859375,-0.086700439453125
1761505741227694300,1.5706943359375,-0.0561981201171875,-0.148651123046875,-0.078704833984375
1761505741237730300,1.580730224609375,-0.00762939453125,-0.1393280029296875,-0.0456085205078125
1761505741247766300,1.590766357421875,-0.0111236572265625,-0.1252593994140625,-0.014923095703125
1761505741257802200,1.60080224609375,-0.057281494140625,-0.106689453125,-0.0055694580078125
1761505741267838200,1.610838134765625,-0.072540283203125,-0.101806640625,-0.0006103515625
1761505741277874200,1.620874267578125,-0.084991455078125,-0.1094970703125,-0.0029144287109375
1761505741287910100,1.63091015625,-0.1279144287109375,-0.10833740234375,-0.000518798828125
1761505741297946000,1.640946044921875,-0.1771087646484375,-0.108428955078125,0.0153350830078125
1761505741307982000,1.650982177734375,-0.217987060546875,-0.1121063232421875,0.028289794921875
1761505741318018300,1.661018310546875,-0.253265380859375,-0.1215667724609375,0.02947998046875
1761505741328055000,1.671054931640625,-0.274566650390625,-0.130401611328125,0.0245361328125
1761505741338091000,1.681091064453125,-0.315185546875,-0.136138916015625,0.0200958251953125
1761505741348127200,1.691127197265625,-0.39471435546875,-0.1573333740234375,0.0118255615234375
1761505741358163200,1.7011630859375,-0.4704742431640625,-0.1910247802734375,0.0012054443359375
1761505741368199200,1.71119921875,-0.5584869384765625,-0.2100982666015625,-0.0306549072265625
1761505741378235400,1.7212353515625,-0.68023681640625,-0.2008056640625,-0.0611114501953125
1761505741388271400,1.731271240234375,-0.86322021484375,-0.18182373046875,-0.1026763916015625
1761505741398307300,1.741307373046875,-1.02154541015625,-0.1764068603515625,-0.1656341552734375
1761505741408343300,1.75134326171875,-1.1359100341796875,-0.151824951171875,-0.2415313720703125
1761505741418379300,1.761379150390625,-1.1903533935546875,-0.09967041015625,-0.274078369140625
1761505741428415200,1.771415283203125,-1.2702484130859375,-0.0552825927734375,-0.2426605224609375
1761505741438451200,1.781451171875,-1.454315185546875,-0.0652923583984375,-0.159332275390625
1761505741448487200,1.791487060546875,-1.711944580078125,-0.125,-0.0671844482421875
1761505741458523400,1.8015234375,-1.9856414794921875,-0.1776885986328125,-0.0220489501953125
1761505741468559400,1.811559326171875,-2.2596588134765625,-0.2061309814453125,-0.010955810546875
1761505741478595300,1.82159521484375,-2.445404052734375,-0.1912689208984375,-0.026824951171875
1761505741488632300,1.83163232421875,-2.484222412109375,-0.1277008056640625,-0.09326171875
1761505741498668300,1.841668212890625,-2.3674468994140625,-0.062286376953125,-0.196258544921875
1761505741508704300,1.851704345703125,-2.174041748046875,-0.03515625,-0.2952423095703125
1761505741518740200,1.861740234375,-2.022216796875,-0.05206298828125,-0.3616180419921875
1761505741528776200,1.871776123046875,-1.94671630859375,-0.078033447265625,-0.4023895263671875
1761505741538812200,1.881812255859375,-1.9759521484375,-0.1068878173828125,-0.41864013671875
1761505741548848000,1.89184814453125,-2.0221710205078125,-0.14373779296875,-0.417694091796875
1761505741558884000,1.901884033203125,-1.9861602783203125,-0.1678009033203125,-0.4033050537109375
1761505741568920000,1.911920166015625,-1.889373779296875,-0.1504364013671875,-0.4155426025390625
1761505741578956000,1.9219560546875,-1.709381103515625,-0.13275146484375,-0.4427032470703125
1761505741588992000,1.931991943359375,-1.47711181640625,-0.13739013671875,-0.429931640625
1761505741599028200,1.9420283203125,-1.31561279296875,-0.1452178955078125,-0.3650360107421875
1761505741609064400,1.952064453125,-1.1634521484375,-0.1483001708984375,-0.28424072265625
1761505741619100400,1.962100341796875,-1.022552490234375,-0.1503143310546875,-0.21441650390625
1761505741629136400,1.972136474609375,-0.937164306640625,-0.1555938720703125,-0.158721923828125
1761505741639172400,1.98217236328125,-0.86212158203125,-0.16705322265625,-0.124237060546875
1761505741649209300,1.992209228515625,-0.758575439453125,-0.16748046875,-0.122222900390625
1761505741659245300,2.002245361328125,-0.6318817138671875,-0.1534423828125,-0.1207733154296875
1761505741669281300,2.01228125,-0.5123748779296875,-0.1402740478515625,-0.116363525390625
1761505741679317200,2.022317138671875,-0.4041748046875,-0.1441192626953125,-0.1004486083984375
1761505741689353200,2.032353271484375,-0.3325347900390625,-0.1574859619140625,-0.0660858154296875
1761505741699389200,2.04238916015625,-0.29638671875,-0.169525146484375,-0.0219879150390625
1761505741709425200,2.052425048828125,-0.281890869140625,-0.1744537353515625,0.0073089599609375
1761505741719461000,2.062461181640625,-0.27471923828125,-0.1824951171875,0.013153076171875
1761505741729497000,2.0724970703125,-0.22601318359375,-0.1703643798828125,-0.0108184814453125
1761505741739533300,2.082533203125,-0.1834716796875,-0.151275634765625,-0.03582763671875
1761505741749569300,2.0925693359375,-0.22607421875,-0.1522064208984375,-0.0474090576171875
1761505741759605200,2.102605224609375,-0.2419586181640625,-0.150604248046875,-0.051177978515625
1761505741769641200,2.11264111328125,-0.24090576171875,-0.1464996337890625,-0.043792724609375
1761505741779677200,2.12267724609375,-0.22406005859375,-0.128692626953125,-0.043853759765625
1761505741789713200,2.132713134765625,-0.2049407958984375,-0.1141204833984375,-0.0471038818359375
1761505741799749000,2.1427490234375,-0.17901611328125,-0.1155853271484375,-0.0450439453125
1761505741809785000,2.15278515625,-0.17236328125,-0.13201904296875,-0.0298614501953125
1761505741819821000,2.162821044921875,-0.199676513671875,-0.1505279541015625,-0.004119873046875
1761505741829858300,2.1728583984375,-0.240264892578125,-0.159912109375,-0.00244140625
1761505741839894300,2.182894287109375,-0.303314208984375,-0.16424560546875,-0.0325164794921875
1761505741849929700,2.1929296875,-0.403717041015625,-0.172119140625,-0.071990966796875
1761505741859965700,2.202965576171875,-0.53179931640625,-0.192108154296875,-0.105133056640625
1761505741870002000,2.213001953125,-0.6336517333984375,-0.21600341796875,-0.1190338134765625
1761505741880038000,2.223037841796875,-0.7003631591796875,-0.2129974365234375,-0.12615966796875
1761505741890073900,2.233073974609375,-0.7921142578125,-0.1876220703125,-0.1414337158203125
1761505741900109800,2.24310986328125,-0.9087371826171875,-0.1515045166015625,-0.154632568359375
1761505741910145800,2.253145751953125,-1.01702880859375,-0.1124725341796875,-0.169281005859375
1761505741920181800,2.263181640625,-1.1308135986328125,-0.0868377685546875,-0.1980133056640625
1761505741930217700,2.2732177734375,-1.3297271728515625,-0.0879669189453125,-0.204986572265625
1761505741940253700,2.283253662109375,-1.5558929443359375,-0.1136322021484375,-0.194183349609375
1761505741950289700,2.29328955078125,-1.748016357421875,-0.1483612060546875,-0.1875152587890625
1761505741960325600,2.30332568359375,-1.9008636474609375,-0.18353271484375,-0.1859588623046875
1761505741970361600,2.313361572265625,-2.0213165283203125,-0.200408935546875,-0.173187255859375
1761505741980397800,2.323397705078125,-2.0787506103515625,-0.193511962890625,-0.185211181640625
1761505741990433800,2.333433837890625,-2.13055419921875,-0.19598388671875,-0.22723388671875
1761505742000470800,2.343470703125,-2.170806884765625,-0.201080322265625,-0.2860565185546875
1761505742010506800,2.3535068359375,-2.1641387939453125,-0.1805419921875,-0.3481597900390625
1761505742020543000,2.36354296875,-2.1371002197265625,-0.1251220703125,-0.4044189453125
1761505742030579000,2.373578857421875,-2.06396484375,-0.0858154296875,-0.44146728515625
1761505742040615000,2.383614990234375,-1.9997100830078125,-0.108856201171875,-0.4258270263671875
1761505742050651000,2.39365087890625,-1.9628753662109375,-0.1872100830078125,-0.3570098876953125
1761505742060686800,2.403686767578125,-1.89947509765625,-0.238006591796875,-0.30157470703125
1761505742070722800,2.413722900390625,-1.8168487548828125,-0.2196502685546875,-0.2930145263671875
1761505742080758800,2.4237587890625,-1.7332763671875,-0.1957550048828125,-0.2882080078125
1761505742090794800,2.433794677734375,-1.595245361328125,-0.1962738037109375,-0.269195556640625
1761505742100830700,2.443830810546875,-1.3956298828125,-0.19091796875,-0.2596893310546875
1761505742110866700,2.45386669921875,-1.2039337158203125,-0.1956024169921875,-0.25433349609375
1761505742120902700,2.463902587890625,-1.030670166015625,-0.218841552734375,-0.242034912109375
1761505742130939000,2.47393896484375,-0.892547607421875,-0.2494659423828125,-0.2249603271484375
1761505742140974800,2.483974853515625,-0.7971649169921875,-0.2646636962890625,-0.2225799560546875
1761505742151010800,2.4940107421875,-0.7183837890625,-0.2576446533203125,-0.2186431884765625
1761505742161046800,2.504046875,-0.6349334716796875,-0.2417449951171875,-0.2092132568359375
1761505742171082800,2.514082763671875,-0.542205810546875,-0.226654052734375,-0.178192138671875
1761505742181119700,2.52411962890625,-0.4626312255859375,-0.2076416015625,-0.1373138427734375
1761505742191155700,2.53415576171875,-0.376495361328125,-0.1858978271484375,-0.112152099609375
1761505742201191700,2.544191650390625,-0.306640625,-0.17034912109375,-0.094512939453125
1761505742211227600,2.5542275390625,-0.2617340087890625,-0.1705169677734375,-0.0706634521484375
1761505742221264000,2.564263916015625,-0.2133941650390625,-0.178558349609375,-0.0446929931640625
1761505742231299800,2.5742998046875,-0.200408935546875,-0.1910400390625,-0.033935546875
1761505742241335800,2.584335693359375,-0.1879119873046875,-0.1987152099609375,-0.0275726318359375
1761505742251371800,2.594371826171875,-0.14483642578125,-0.187225341796875,-0.0308380126953125
1761505742261407700,2.60440771484375,-0.1192779541015625,-0.1587066650390625,-0.0362396240234375
1761505742271444000,2.61444384765625,-0.128173828125,-0.1374664306640625,-0.0320892333984375
1761505742281480000,2.62447998046875,-0.1530609130859375,-0.1240081787109375,-0.016937255859375
1761505742291516000,2.634515869140625,-0.16363525390625,-0.114349365234375,0.0026397705078125
1761505742301551900,2.6445517578125,-0.17877197265625,-0.1121978759765625,0.019439697265625
1761505742311587800,2.654587890625,-0.1929931640625,-0.1156005859375,0.0252838134765625
1761505742321623800,2.664623779296875,-0.24407958984375,-0.1355133056640625,0.027679443359375
1761505742331659800,2.67465966796875,-0.3152313232421875,-0.1774139404296875,0.03387451171875
1761505742341695700,2.68469580078125,-0.3925018310546875,-0.214935302734375,0.0351409912109375
1761505742351731700,2.694731689453125,-0.485198974609375,-0.23199462890625,0.0328369140625
1761505742361767700,2.704767578125,-0.578582763671875,-0.2436981201171875,0.01904296875
1761505742371803600,2.7148037109375,-0.6963653564453125,-0.2406768798828125,-0.0316314697265625
1761505742381840600,2.724840576171875,-0.7967376708984375,-0.2252655029296875,-0.0871429443359375
1761505742391876600,2.734876708984375,-0.9173583984375,-0.2092437744140625,-0.1538238525390625
1761505742401912600,2.74491259765625,-1.046844482421875,-0.1975555419921875,-0.216278076171875
1761505742411948800,2.75494873046875,-1.18829345703125,-0.208251953125,-0.2305755615234375
1761505742421984800,2.76498486328125,-1.3208465576171875,-0.1988677978515625,-0.2372589111328125
1761505742432020700,2.775020751953125,-1.3633575439453125,-0.1640167236328125,-0.21356201171875
1761505742442056700,2.785056640625,-1.3949127197265625,-0.1383514404296875,-0.1474609375
1761505742452093000,2.795093017578125,-1.47998046875,-0.1331787109375,-0.079803466796875
1761505742462129000,2.80512890625,-1.574005126953125,-0.1326751708984375,-0.0544586181640625
1761505742472164900,2.815164794921875,-1.714385986328125,-0.112518310546875,-0.0575103759765625
1761505742482200800,2.825200927734375,-1.8693084716796875,-0.067718505859375,-0.079986572265625
1761505742492236800,2.83523681640625,-1.9687042236328125,-0.042816162109375,-0.0833282470703125
1761505742502272800,2.845272705078125,-2.077362060546875,-0.03533935546875,-0.06640625
1761505742512308700,2.855308837890625,-2.1948699951171875,-0.0168609619140625,-0.0461883544921875
1761505742522344700,2.8653447265625,-2.261566162109375,0.0048675537109375,-0.054443359375
1761505742532381000,2.875380859375,-2.2944183349609375,0.017486572265625,-0.0710296630859375
1761505742542417000,2.8854169921875,-2.3058624267578125,0.0035247802734375,-0.0964508056640625
1761505742552452900,2.895452880859375,-2.266387939453125,-0.0293426513671875,-0.13787841796875
1761505742562488800,2.90548876953125,-2.15447998046875,-0.053802490234375,-0.19158935546875
1761505742572524800,2.91552490234375,-1.943328857421875,-0.071075439453125,-0.2425689697265625
1761505742582560800,2.925560791015625,-1.667144775390625,-0.083831787109375,-0.285125732421875
1761505742592597800,2.93559765625,-1.3627777099609375,-0.094268798828125,-0.2945404052734375
1761505742602633700,2.9456337890625,-1.1156768798828125,-0.11712646484375,-0.301422119140625
1761505742612669700,2.955669677734375,-0.9110260009765625,-0.1642913818359375,-0.298065185546875
1761505742622705700,2.96570556640625,-0.7446441650390625,-0.21240234375,-0.26171875
1761505742632741600,2.97574169921875,-0.709747314453125,-0.249053955078125,-0.2060699462890625
1761505742642777600,2.985777587890625,-0.770477294921875,-0.2734527587890625,-0.0985107421875
1761505742652813600,2.9958134765625,-0.7649383544921875,-0.26318359375,-0.0303497314453125
1761505742662849800,3.005849853515625,-0.717529296875,-0.241363525390625,0.00830078125
1761505742672885800,3.0158857421875,-0.6500396728515625,-0.2202606201171875,0.037750244140625
1761505742682922000,3.025921875,-0.5685882568359375,-0.2093048095703125,0.0487060546875
1761505742692958000,3.0359580078125,-0.484130859375,-0.2046661376953125,0.0423431396484375
1761505742702994000,3.045993896484375,-0.41339111328125,-0.2079925537109375,0.0279541015625
1761505742713030000,3.05602978515625,-0.35296630859375,-0.217041015625,0.00775146484375
1761505742723065900,3.06606591796875,-0.2989349365234375,-0.220367431640625,-0.0031585693359375
1761505742733101800,3.076101806640625,-0.2787017822265625,-0.2160491943359375,-0.0113067626953125
1761505742743137800,3.0861376953125,-0.285186767578125,-0.21136474609375,-0.022552490234375
1761505742753173800,3.096173828125,-0.30572509765625,-0.2127838134765625,-0.0255126953125
1761505742763209700,3.106209716796875,-0.3165435791015625,-0.209716796875,-0.04388427734375
1761505742773245700,3.11624560546875,-0.28863525390625,-0.190155029296875,-0.070556640625
1761505742783282000,3.126281982421875,-0.248748779296875,-0.162200927734375,-0.0761871337890625
1761505742793318000,3.13631787109375,-0.2126312255859375,-0.1436920166015625,-0.0707244873046875
1761505742803353900,3.146353759765625,-0.1829833984375,-0.1377716064453125,-0.060821533203125
1761505742813389800,3.156389892578125,-0.181671142578125,-0.1404876708984375,-0.052520751953125
1761505742823426800,3.1664267578125,-0.204254150390625,-0.1468505859375,-0.048675537109375
1761505742833462800,3.176462890625,-0.2581939697265625,-0.164794921875,-0.0471649169921875
1761505742843498800,3.186498779296875,-0.326690673828125,-0.19158935546875,-0.0457916259765625
1761505742853534500,3.196534423828125,-0.4178466796875,-0.2110443115234375,-0.04595947265625
1761505742863570400,3.2065703125,-0.5997161865234375,-0.221771240234375,-0.05572509765625
1761505742873606400,3.2166064453125,-0.767303466796875,-0.2357330322265625,-0.0706939697265625
1761505742883642400,3.226642333984375,-0.8310089111328125,-0.227264404296875,-0.1129913330078125
1761505742893678300,3.23667822265625,-0.898895263671875,-0.17877197265625,-0.176055908203125
1761505742903714300,3.24671435546875,-0.919708251953125,-0.12530517578125,-0.2074127197265625
1761505742913750500,3.25675048828125,-0.9375,-0.075286865234375,-0.2234954833984375
1761505742923786500,3.266786376953125,-1.037139892578125,-0.0211944580078125,-0.229736328125
1761505742933822500,3.276822509765625,-1.1992340087890625,0.028350830078125,-0.20501708984375
1761505742943858400,3.2868583984375,-1.3677825927734375,0.0322113037109375,-0.1645965576171875
1761505742953894400,3.296894287109375,-1.6158905029296875,-0.0308837890625,-0.1344451904296875
1761505742963930400,3.306930419921875,-1.8412017822265625,-0.1000213623046875,-0.128173828125
1761505742973966300,3.31696630859375,-1.9770660400390625,-0.120758056640625,-0.1513519287109375
1761505742984002600,3.32700244140625,-2.042938232421875,-0.0985565185546875,-0.1844635009765625
1761505742994038500,3.33703857421875,-2.068328857421875,-0.075103759765625,-0.2018280029296875
1761505743004074500,3.347074462890625,-2.0852203369140625,-0.08319091796875,-0.2101898193359375
1761505743014110500,3.3571103515625,-2.117279052734375,-0.0818939208984375,-0.2397003173828125
1761505743024146400,3.367146484375,-2.1208953857421875,-0.0591583251953125,-0.2713470458984375
1761505743034182700,3.3771826171875,-2.1138153076171875,-0.0648040771484375,-0.2704010009765625
1761505743044218600,3.387218505859375,-2.0958251953125,-0.121978759765625,-0.2318572998046875
1761505743054254600,3.397254638671875,-2.0577392578125,-0.1730499267578125,-0.194366455078125
1761505743064291600,3.40729150390625,-1.9877166748046875,-0.19793701171875,-0.1864776611328125
1761505743074327600,3.41732763671875,-1.84747314453125,-0.177581787109375,-0.2117767333984375
1761505743084363500,3.427363525390625,-1.6724395751953125,-0.145782470703125,-0.2342987060546875
1761505743094399500,3.4373994140625,-1.50537109375,-0.1421051025390625,-0.244415283203125
1761505743104435500,3.447435546875,-1.3353729248046875,-0.165252685546875,-0.2360076904296875
1761505743114471400,3.457471435546875,-1.16796875,-0.1881103515625,-0.2202301025390625
1761505743124507400,3.46750732421875,-1.042999267578125,-0.201263427734375,-0.197784423828125
1761505743134543400,3.47754345703125,-0.923980712890625,-0.208648681640625,-0.1576385498046875
1761505743144579300,3.487579345703125,-0.7999267578125,-0.2104644775390625,-0.1184234619140625
1761505743154615300,3.497615234375,-0.7398529052734375,-0.2248382568359375,-0.0550537109375
1761505743164651500,3.507651611328125,-0.7105865478515625,-0.239776611328125,0.02984619140625
1761505743174687500,3.5176875,-0.6360015869140625,-0.2201995849609375,0.0859832763671875
1761505743184723500,3.527723388671875,-0.5428619384765625,-0.196502685546875,0.105926513671875
1761505743194759400,3.537759521484375,-0.469085693359375,-0.201263427734375,0.08599853515625
1761505743204795400,3.54779541015625,-0.3849029541015625,-0.2155303955078125,0.0352630615234375
1761505743214831600,3.55783154296875,-0.2961883544921875,-0.21380615234375,-0.005523681640625
1761505743224867600,3.56786767578125,-0.244720458984375,-0.2055816650390625,-0.02362060546875
1761505743234903600,3.577903564453125,-0.1955413818359375,-0.1923370361328125,-0.02557373046875
1761505743244939500,3.587939453125,-0.174774169921875,-0.178680419921875,-0.000823974609375
1761505743254975500,3.5979755859375,-0.1866607666015625,-0.1637420654296875,0.01849365234375
1761505743265011500,3.608011474609375,-0.2019500732421875,-0.1441497802734375,0.002349853515625
1761505743275047400,3.61804736328125,-0.184783935546875,-0.1305999755859375,-0.00970458984375
1761505743285083600,3.628083740234375,-0.1775665283203125,-0.126220703125,-0.0130767822265625
1761505743295119600,3.63811962890625,-0.1825408935546875,-0.12506103515625,-0.0240325927734375
1761505743305155600,3.648155517578125,-0.15948486328125,-0.1338653564453125,-0.027099609375
1761505743315191600,3.658191650390625,-0.1414794921875,-0.1505889892578125,-0.0105743408203125
1761505743325227500,3.6682275390625,-0.1571502685546875,-0.1652984619140625,0.022430419921875
1761505743335263500,3.678263427734375,-0.2000274658203125,-0.1702117919921875,0.0457916259765625
1761505743345300500,3.688300537109375,-0.26031494140625,-0.1801300048828125,0.0599212646484375
1761505743355336400,3.69833642578125,-0.3640899658203125,-0.1915130615234375,0.05029296875
1761505743365372400,3.708372314453125,-0.485198974609375,-0.217071533203125,0.04058837890625
1761505743375408400,3.718408447265625,-0.607696533203125,-0.2371978759765625,0.0370635986328125
1761505743385444400,3.7284443359375,-0.7012481689453125,-0.2131500244140625,-0.0079345703125
1761505743395480300,3.738480224609375,-0.7583770751953125,-0.174957275390625,-0.0827178955078125
1761505743405516300,3.748516357421875,-0.8310546875,-0.132232666015625,-0.1543121337890625
1761505743415552300,3.75855224609375,-1.0116119384765625,-0.1234283447265625,-0.226715087890625
1761505743425588500,3.76858837890625,-1.228363037109375,-0.146240234375,-0.2443084716796875
1761505743435624400,3.77862451171875,-1.3654632568359375,-0.142181396484375,-0.183380126953125
1761505743445660700,3.78866064453125,-1.5596160888671875,-0.11981201171875,-0.0834197998046875
1761505743455696600,3.798696533203125,-1.8090362548828125,-0.1501007080078125,0.06927490234375
1761505743465732600,3.808732666015625,-2.0323333740234375,-0.186431884765625,0.145904541015625
1761505743475768600,3.8187685546875,-2.1634521484375,-0.1655120849609375,0.111541748046875
1761505743485804500,3.828804443359375,-2.1932373046875,-0.088592529296875,0.009674072265625
1761505743495840500,3.838840576171875,-2.2038116455078125,-0.041412353515625,-0.0667877197265625
1761505743505876500,3.84887646484375,-2.1547698974609375,-0.0518798828125,-0.089874267578125
1761505743515912400,3.858912353515625,-2.1077880859375,-0.0821380615234375,-0.095123291015625
1761505743525948400,3.868948486328125,-2.1128997802734375,-0.0977783203125,-0.1219635009765625
1761505743535984600,3.878984619140625,-2.0946502685546875,-0.1218414306640625,-0.169891357421875
1761505743546020600,3.8890205078125,-2.1355133056640625,-0.1508941650390625,-0.233673095703125
1761505743556056600,3.899056640625,-2.1654052734375,-0.180908203125,-0.29364013671875
1761505743566092500,3.909092529296875,-2.15252685546875,-0.1824493408203125,-0.3477020263671875
1761505743576128500,3.91912841796875,-2.051910400390625,-0.168426513671875,-0.3870086669921875
1761505743586164500,3.92916455078125,-1.8462371826171875,-0.15570068359375,-0.4007568359375
1761505743596200400,3.939200439453125,-1.597442626953125,-0.174407958984375,-0.3712158203125
1761505743606236400,3.949236328125,-1.3624725341796875,-0.2113037109375,-0.2923583984375
1761505743616272400,3.9592724609375,-1.1711273193359375,-0.2362823486328125,-0.2035980224609375
1761505743626308400,3.969308349609375,-1.0272979736328125,-0.2430419921875,-0.1458282470703125
1761505743636344300,3.97934423828125,-0.922882080078125,-0.2274017333984375,-0.121429443359375
1761505743646380500,3.989380615234375,-0.80035400390625,-0.2105560302734375,-0.1067962646484375
1761505743656417300,3.999417236328125,-0.723907470703125,-0.1999664306640625,-0.09149169921875
1761505743666451500,4.009451416015625,-0.6811065673828125,-0.205291748046875,-0.0585784912109375
1761505743676487400,4.0194873046875,-0.588592529296875,-0.194580078125,-0.054473876953125
1761505743686523400,4.0295234375,-0.4803314208984375,-0.1771240234375,-0.0787353515625
1761505743696559400,4.039559326171875,-0.39093017578125,-0.1617584228515625,-0.0819091796875
1761505743706595300,4.04959521484375,-0.3343963623046875,-0.15777587890625,-0.0597991943359375
1761505743716631300,4.05963134765625,-0.2718658447265625,-0.169769287109375,-0.0307769775390625
1761505743726667500,4.06966748046875,-0.197357177734375,-0.1868743896484375,-0.010223388671875
1761505743736703500,4.079703369140625,-0.1494293212890625,-0.185028076171875,0.002532958984375
1761505743746739500,4.089739501953125,-0.1914825439453125,-0.1778106689453125,0.009429931640625
1761505743756775400,4.099775390625,-0.2393035888671875,-0.189483642578125,0.0059814453125
1761505743766811400,4.109811279296875,-0.220458984375,-0.19512939453125,-0.005218505859375
1761505743776847400,4.119847412109375,-0.1761016845703125,-0.16888427734375,-0.0201263427734375
1761505743786883600,4.129883544921875,-0.1321258544921875,-0.1236114501953125,-0.051361083984375
1761505743796919600,4.13991943359375,-0.0989990234375,-0.100738525390625,-0.072235107421875
1761505743806955500,4.14995556640625,-0.097259521484375,-0.1102142333984375,-0.058441162109375
1761505743816991500,4.159991455078125,-0.111572265625,-0.1236572265625,-0.031097412109375
1761505743827028500,4.170028564453125,-0.1421051025390625,-0.1324005126953125,-0.0001220703125
1761505743837063400,4.1800634765625,-0.215179443359375,-0.1419677734375,0.040374755859375
1761505743847099600,4.190099609375,-0.31732177734375,-0.1625518798828125,0.0811004638671875
1761505743857136400,4.200136474609375,-0.43377685546875,-0.17376708984375,0.0645599365234375
1761505743867172600,4.210172607421875,-0.61077880859375,-0.18914794921875,0.0253143310546875
1761505743877208800,4.220208740234375,-0.73419189453125,-0.20721435546875,-0.016845703125
1761505743887244800,4.230244873046875,-0.8316802978515625,-0.2059783935546875,-0.037994384765625
1761505743897280800,4.24028076171875,-0.8974609375,-0.1676177978515625,-0.043304443359375
1761505743907316700,4.250316650390625,-0.9900360107421875,-0.1447296142578125,-0.0189056396484375
1761505743917352700,4.260352783203125,-1.164764404296875,-0.1563873291015625,0.004852294921875
1761505743927388700,4.270388671875,-1.333648681640625,-0.171173095703125,-0.036712646484375
1761505743937424600,4.280424560546875,-1.5025482177734375,-0.19586181640625,-0.1058349609375
1761505743947460600,4.290460693359375,-1.663330078125,-0.21624755859375,-0.134124755859375
1761505743957496600,4.30049658203125,-1.7975006103515625,-0.2186431884765625,-0.1049346923828125
1761505743967532500,4.310532470703125,-1.8499603271484375,-0.204498291015625,-0.034820556640625
1761505743977568500,4.320568603515625,-1.8245086669921875,-0.1733245849609375,0.01666259765625
1761505743987604700,4.330604736328125,-1.7854156494140625,-0.1462860107421875,0.0247802734375
1761505743997640700,4.340640625,-1.8089447021484375,-0.1226959228515625,0.008575439453125
1761505744007676700,4.3506767578125,-1.911376953125,-0.1057891845703125,-0.0125732421875
1761505744017712600,4.360712646484375,-1.992767333984375,-0.1069183349609375,-0.0367889404296875
1761505744027748600,4.37074853515625,-2.0125732421875,-0.1093902587890625,-0.08673095703125
1761505744037784600,4.38078466796875,-2.014404296875,-0.123321533203125,-0.145477294921875
1761505744047820500,4.390820556640625,-1.9617156982421875,-0.1575469970703125,-0.1993255615234375
1761505744057856500,4.4008564453125,-1.8632965087890625,-0.177154541015625,-0.2011260986328125
1761505744067892500,4.410892578125,-1.75335693359375,-0.1799774169921875,-0.183746337890625
1761505744077928400,4.420928466796875,-1.65087890625,-0.1978607177734375,-0.214569091796875
1761505744087964400,4.43096435546875,-1.4543304443359375,-0.2190093994140625,-0.2882843017578125
1761505744098000600,4.441000732421875,-1.2331695556640625,-0.2410125732421875,-0.3316650390625
1761505744108036600,4.45103662109375,-1.0241241455078125,-0.2457122802734375,-0.3473358154296875
1761505744118072600,4.461072509765625,-0.847869873046875,-0.2378082275390625,-0.3299102783203125
1761505744128108500,4.471108642578125,-0.7736663818359375,-0.239898681640625,-0.2471771240234375
1761505744138144500,4.48114453125,-0.722869873046875,-0.2227325439453125,-0.133087158203125
1761505744148180500,4.491180419921875,-0.6316070556640625,-0.1877593994140625,-0.05377197265625
1761505744158216700,4.501216796875,-0.5620269775390625,-0.1854095458984375,-0.0027923583984375
1761505744168252700,4.511252685546875,-0.5217132568359375,-0.196868896484375,0.00372314453125
1761505744178288600,4.52128857421875,-0.494140625,-0.2120819091796875,-0.017059326171875
1761505744188324600,4.53132470703125,-0.4646759033203125,-0.21685791015625,-0.0501251220703125
1761505744198360600,4.541360595703125,-0.4474639892578125,-0.2138519287109375,-0.0860137939453125
1761505744208396800,4.551396728515625,-0.396453857421875,-0.2080841064453125,-0.11602783203125
1761505744218432800,4.561432861328125,-0.3369598388671875,-0.197540283203125,-0.1397247314453125
1761505744228468700,4.57146875,-0.298919677734375,-0.1908111572265625,-0.13690185546875
1761505744238506500,4.581506591796875,-0.273345947265625,-0.1767578125,-0.105865478515625
1761505744248542500,4.59154248046875,-0.287689208984375,-0.163177490234375,-0.0697021484375
1761505744258578400,4.601578369140625,-0.2506103515625,-0.1526336669921875,-0.0306854248046875
1761505744268614700,4.61161474609375,-0.19342041015625,-0.145263671875,-0.0033721923828125
1761505744278650600,4.621650634765625,-0.16729736328125,-0.1417999267578125,0.0087738037109375
1761505744288686600,4.6316865234375,-0.1795806884765625,-0.1452178955078125,0.024078369140625
1761505744298722600,4.64172265625,-0.2814483642578125,-0.1674346923828125,0.03021240234375
1761505744308758500,4.651758544921875,-0.36322021484375,-0.1973724365234375,0.0336456298828125
1761505744318794500,4.66179443359375,-0.411590576171875,-0.207550048828125,0.0184326171875
1761505744328830700,4.671830810546875,-0.4656524658203125,-0.2117767333984375,0.0046844482421875
1761505744338866700,4.68186669921875,-0.540252685546875,-0.221160888671875,-0.011260986328125
1761505744348902700,4.691902587890625,-0.6439971923828125,-0.2371826171875,-0.03399658203125
1761505744358938600,4.701938720703125,-0.720367431640625,-0.259552001953125,-0.0463714599609375
1761505744368974600,4.711974609375,-0.7894439697265625,-0.268707275390625,-0.0920867919921875
1761505744379010600,4.722010498046875,-0.88372802734375,-0.2607269287109375,-0.1316070556640625
1761505744389046800,4.732046875,-0.9911651611328125,-0.238311767578125,-0.1292266845703125
1761505744399082800,4.742082763671875,-1.1351776123046875,-0.207275390625,-0.132171630859375
1761505744409118700,4.75211865234375,-1.27838134765625,-0.199371337890625,-0.1371002197265625
1761505744419154700,4.76215478515625,-1.401611328125,-0.2197418212890625,-0.139923095703125
1761505744429190700,4.772190673828125,-1.469818115234375,-0.2563018798828125,-0.13177490234375
1761505744439226600,4.7822265625,-1.5529632568359375,-0.285797119140625,-0.0954437255859375
1761505744449262600,4.7922626953125,-1.681182861328125,-0.25347900390625,-0.0462188720703125
1761505744459298600,4.802298583984375,-1.783233642578125,-0.1783294677734375,-0.06622314453125
1761505744469334500,4.81233447265625,-1.825592041015625,-0.1381988525390625,-0.125823974609375
1761505744479370500,4.82237060546875,-1.8888702392578125,-0.1326446533203125,-0.197662353515625
1761505744489406500,4.832406494140625,-2.0059356689453125,-0.148834228515625,-0.2545928955078125
1761505744499442700,4.842442626953125,-2.11920166015625,-0.1497955322265625,-0.2777862548828125
1761505744509478700,4.852478759765625,-2.199127197265625,-0.1243896484375,-0.287384033203125
1761505744519514600,4.8625146484375,-2.2794189453125,-0.1277923583984375,-0.258331298828125
1761505744529550600,4.872550537109375,-2.35455322265625,-0.1715850830078125,-0.2018280029296875
1761505744539586600,4.882586669921875,-2.4255828857421875,-0.2018890380859375,-0.1873779296875
1761505744549622500,4.89262255859375,-2.426910400390625,-0.19549560546875,-0.252777099609375
1761505744559658500,4.902658447265625,-2.2061004638671875,-0.1567230224609375,-0.350341796875
1761505744569694500,4.912694580078125,-1.785614013671875,-0.1023101806640625,-0.412750244140625
1761505744579730400,4.92273046875,-1.386962890625,-0.111297607421875,-0.4096221923828125
1761505744589766400,4.932766357421875,-1.0461883544921875,-0.1777801513671875,-0.3535614013671875
1761505744599802400,4.94280224609375,-0.7932586669921875,-0.2263641357421875,-0.26715087890625
1761505744609838600,4.952838623046875,-0.7012481689453125,-0.2455596923828125,-0.161834716796875
1761505744619875600,4.96287548828125,-0.6958160400390625,-0.2350921630859375,-0.069610595703125
1761505744629911600,4.97291162109375,-0.6671600341796875,-0.2143707275390625,-0.033721923828125
1761505744639947800,4.98294775390625,-0.62066650390625,-0.21051025390625,-0.0278167724609375
1761505744649983700,4.992983642578125,-0.551177978515625,-0.20294189453125,-0.0459442138671875
1761505744660019700,5.003019775390625,-0.48919677734375,-0.180694580078125,-0.083282470703125
1761505744670055700,5.0130556640625,-0.4691619873046875,-0.1553955078125,-0.1107330322265625
1761505744680091600,5.023091552734375,-0.40667724609375,-0.1430206298828125,-0.1169891357421875
1761505744690127600,5.033127685546875,-0.3278350830078125,-0.156951904296875,-0.0959930419921875
1761505744700163600,5.04316357421875,-0.2785797119140625,-0.1839599609375,-0.0464324951171875
1761505744710199600,5.053199462890625,-0.2413482666015625,-0.1932220458984375,-0.0114898681640625
1761505744720235500,5.063235595703125,-0.231689453125,-0.1844482421875,-0.0020904541015625
1761505744730271500,5.073271484375,-0.23150634765625,-0.1663055419921875,0.00140380859375
1761505744740307500,5.083307373046875,-0.2357940673828125,-0.16046142578125,0.0076141357421875
1761505744750343700,5.09334375,-0.2403411865234375,-0.171295166015625,0.0052337646484375
1761505744760379600,5.103379638671875,-0.25634765625,-0.17901611328125,-0.0058135986328125
1761505744770415600,5.11341552734375,-0.2959136962890625,-0.18231201171875,-0.0168609619140625
1761505744780451600,5.12345166015625,-0.3579864501953125,-0.1889495849609375,-0.0105133056640625
1761505744790487600,5.133487548828125,-0.4212799072265625,-0.180206298828125,-0.0001373291015625
1761505744800523500,5.1435234375,-0.4437713623046875,-0.16119384765625,0.0048370361328125
1761505744810559500,5.1535595703125,-0.446136474609375,-0.1541748046875,0.0111083984375
1761505744820595500,5.163595458984375,-0.4270477294921875,-0.1396942138671875,-0.0068817138671875
1761505744830631400,5.17363134765625,-0.53955078125,-0.1593017578125,0.004241943359375
1761505744840667400,5.18366748046875,-0.7093048095703125,-0.2009124755859375,0.037109375
1761505744850704100,5.1937041015625,-0.8572235107421875,-0.2226409912109375,0.01019287109375
1761505744860740000,5.203739990234375,-0.9362640380859375,-0.2149200439453125,-0.08331298828125
1761505744870776000,5.213776123046875,-0.971710205078125,-0.196319580078125,-0.1855316162109375
1761505744880812300,5.223812255859375,-1.0050811767578125,-0.1785736083984375,-0.2532196044921875
1761505744890848300,5.23384814453125,-1.05633544921875,-0.17730712890625,-0.2456207275390625
1761505744900884200,5.24388427734375,-1.07000732421875,-0.1751861572265625,-0.19036865234375
1761505744910920200,5.253920166015625,-1.095245361328125,-0.1607666015625,-0.143768310546875
1761505744920956200,5.2639560546875,-1.165771484375,-0.16290283203125,-0.106536865234375
1761505744930992000,5.2739921875,-1.2993011474609375,-0.177093505859375,-0.117218017578125
1761505744941028000,5.284028076171875,-1.4779510498046875,-0.18035888671875,-0.1660614013671875
1761505744951064000,5.29406396484375,-1.646514892578125,-0.1799163818359375,-0.186920166015625
1761505744961100000,5.30410009765625,-1.8059844970703125,-0.1640472412109375,-0.200103759765625
1761505744971136000,5.314135986328125,-1.9115142822265625,-0.1134185791015625,-0.215087890625
1761505744981172000,5.324171875,-1.973724365234375,-0.0684356689453125,-0.2310791015625
1761505744991208200,5.334208251953125,-1.988922119140625,-0.05706787109375,-0.266693115234375
1761505745001245200,5.3442451171875,-1.943023681640625,-0.0536346435546875,-0.3194427490234375
1761505745011281200,5.35428125,-1.8824310302734375,-0.07122802734375,-0.3607025146484375
1761505745021317000,5.364317138671875,-1.82513427734375,-0.1271514892578125,-0.365203857421875
1761505745031353300,5.374353271484375,-1.7406768798828125,-0.1629791259765625,-0.3374786376953125
1761505745041389300,5.384389404296875,-1.6522216796875,-0.1490478515625,-0.2953338623046875
1761505745051425300,5.39442529296875,-1.5638275146484375,-0.113250732421875,-0.2563323974609375
1761505745061461200,5.404461181640625,-1.457183837890625,-0.097625732421875,-0.2149200439453125
1761505745071497200,5.414497314453125,-1.3614044189453125,-0.1128692626953125,-0.182769775390625
1761505745081533200,5.424533203125,-1.26885986328125,-0.1456756591796875,-0.1851959228515625
1761505745091569200,5.434569091796875,-1.15106201171875,-0.1780853271484375,-0.204498291015625
1761505745101605000,5.444605224609375,-1.0287322998046875,-0.2059478759765625,-0.223663330078125
1761505745111641000,5.45464111328125,-0.9294891357421875,-0.2220458984375,-0.2284393310546875
1761505745121677000,5.464677001953125,-0.8585357666015625,-0.241424560546875,-0.2023162841796875
1761505745131713000,5.474713134765625,-0.7860260009765625,-0.2497100830078125,-0.16802978515625
1761505745141749200,5.484749267578125,-0.707305908203125,-0.2396240234375,-0.152740478515625
1761505745151785200,5.49478515625,-0.658966064453125,-0.229522705078125,-0.1409912109375
1761505745161821200,5.5048212890625,-0.6064300537109375,-0.215911865234375,-0.1245880126953125
1761505745171857200,5.514857177734375,-0.5130157470703125,-0.1815185546875,-0.1167755126953125
1761505745181893000,5.52489306640625,-0.3871917724609375,-0.15093994140625,-0.111297607421875
1761505745191929000,5.53492919921875,-0.2752838134765625,-0.1545562744140625,-0.0921783447265625
1761505745201965000,5.544965087890625,-0.2050018310546875,-0.179168701171875,-0.0674285888671875
1761505745212001000,5.5550009765625,-0.1994476318359375,-0.20648193359375,-0.043609619140625
1761505745222037000,5.565037109375,-0.23468017578125,-0.221405029296875,-0.0360260009765625
1761505745232073000,5.575072998046875,-0.2620849609375,-0.213653564453125,-0.046051025390625
1761505745242109200,5.585109130859375,-0.2702484130859375,-0.1943817138671875,-0.049407958984375
1761505745252145200,5.595145263671875,-0.271484375,-0.1837005615234375,-0.0333251953125
1761505745262181000,5.60518115234375,-0.2934722900390625,-0.1834869384765625,-0.0013275146484375
1761505745272217000,5.615217041015625,-0.34912109375,-0.1936187744140625,0.0330657958984375
1761505745282253000,5.625253173828125,-0.3825225830078125,-0.2139739990234375,0.0509033203125
1761505745292289300,5.635289306640625,-0.409881591796875,-0.24420166015625,0.0518035888671875
1761505745302325200,5.6453251953125,-0.4536590576171875,-0.264984130859375,0.0382537841796875
1761505745312361200,5.655361328125,-0.5293731689453125,-0.2573089599609375,0.00872802734375
1761505745322397200,5.665397216796875,-0.61883544921875,-0.2317352294921875,-0.0237274169921875
1761505745332433200,5.67543310546875,-0.673553466796875,-0.196563720703125,-0.0174407958984375
1761505745342469000,5.68546923828125,-0.7472076416015625,-0.170257568359375,0.0028533935546875
1761505745352505000,5.695505126953125,-0.87445068359375,-0.1489715576171875,-0.0273284912109375
1761505745362541300,5.705541259765625,-1.011383056640625,-0.1323394775390625,-0.0861053466796875
1761505745372577300,5.715577392578125,-1.104339599609375,-0.119293212890625,-0.15411376953125
1761505745382613200,5.72561328125,-1.1754608154296875,-0.094573974609375,-0.2189178466796875
1761505745392649200,5.735649169921875,-1.2515716552734375,-0.07684326171875,-0.252288818359375
1761505745402685200,5.745685302734375,-1.317230224609375,-0.0844268798828125,-0.237640380859375
1761505745412721200,5.75572119140625,-1.3833160400390625,-0.12847900390625,-0.178466796875
1761505745422757000,5.765757080078125,-1.4994964599609375,-0.1884613037109375,-0.10565185546875
1761505745432793000,5.77579296875,-1.6702880859375,-0.23114013671875,-0.0636138916015625
1761505745442829000,5.7858291015625,-1.8310089111328125,-0.257110595703125,-0.0571441650390625
1761505745452865000,5.795864990234375,-1.9594879150390625,-0.238128662109375,-0.063323974609375
1761505745462901000,5.80590087890625,-2.0101318359375,-0.1807098388671875,-0.085052490234375
1761505745472937200,5.815937255859375,-1.998199462890625,-0.1226959228515625,-0.129119873046875
1761505745482973200,5.82597314453125,-1.9292755126953125,-0.102203369140625,-0.1444244384765625
1761505745493009200,5.836009033203125,-1.9078216552734375,-0.100982666015625,-0.134033203125
1761505745503046100,5.846046142578125,-1.9145660400390625,-0.1091766357421875,-0.12701416015625
1761505745513082000,5.85608203125,-1.908233642578125,-0.1500396728515625,-0.0823974609375
1761505745523118300,5.866118408203125,-1.94256591796875,-0.219970703125,-0.0046844482421875
1761505745533154300,5.876154296875,-1.9539794921875,-0.2627105712890625,0.0217742919921875
1761505745543190300,5.886190185546875,-1.9161224365234375,-0.25537109375,-0.019561767578125
1761505745553226200,5.896226318359375,-1.818267822265625,-0.2081146240234375,-0.1069183349609375
1761505745563262200,5.90626220703125,-1.66632080078125,-0.151275634765625,-0.1864776611328125
1761505745573298200,5.916298095703125,-1.4535064697265625,-0.119964599609375,-0.2393951416015625
1761505745583334100,5.926334228515625,-1.2469635009765625,-0.13153076171875,-0.2564239501953125
1761505745593370000,5.9363701171875,-1.08807373046875,-0.1524200439453125,-0.2638397216796875
1761505745603406000,5.946406005859375,-0.982208251953125,-0.1984405517578125,-0.253814697265625
1761505745613442300,5.9564423828125,-0.896820068359375,-0.2430572509765625,-0.2266387939453125
1761505745623478300,5.966478271484375,-0.792388916015625,-0.25506591796875,-0.1699676513671875
1761505745633514200,5.97651416015625,-0.6890106201171875,-0.256072998046875,-0.08270263671875
1761505745643550200,5.98655029296875,-0.57916259765625,-0.251007080078125,-0.028594970703125
1761505745653586200,5.996586181640625,-0.4820098876953125,-0.2209320068359375,-0.0184783935546875
1761505745663622100,6.0066220703125,-0.491607666015625,-0.22930908203125,0.029815673828125
1761505745673658000,6.016658203125,-0.5030670166015625,-0.209381103515625,0.0319061279296875
1761505745683694000,6.026694091796875,-0.5130462646484375,-0.25848388671875,0.0470428466796875
1761505745693730000,6.03672998046875,-0.4796905517578125,-0.269500732421875,0.0598297119140625
1761505745703766000,6.04676611328125,-0.4122161865234375,-0.237091064453125,-0.014251708984375
1761505745713802000,6.056802001953125,-0.298065185546875,-0.2079620361328125,-0.059906005859375
1761505745723838200,6.066838134765625,-0.2145843505859375,-0.1821136474609375,-0.0614471435546875
1761505745733874200,6.076874267578125,-0.1791229248046875,-0.125213623046875,-0.056121826171875
