time,seconds_elapsed,z,y,x
1761505739762430200,0.10543017578125,0.4256744980812073,0.4082522690296173,0.2283991128206253
1761505739772466200,0.115466064453125,0.46187496185302734,0.42447254061698914,0.26192259788513184
1761505739782502100,0.125502197265625,0.4839440584182739,0.3638762831687927,0.3561556339263916
1761505739792538000,0.1355380859375,0.4947091341018677,0.23636779189109802,0.4898390769958496
1761505739802574000,0.145573974609375,0.5038856267929077,0.0884944424033165,0.6578944325447083
1761505739812610300,0.1556103515625,0.49655452370643616,-0.014810819178819656,0.87598717212677
1761505739822646300,0.165646240234375,0.47831135988235474,0.0014352626167237759,1.063429832458496
1761505739832682500,0.1756826171875,0.45321378111839294,0.0076188985258340836,1.1103978157043457
1761505739842718500,0.185718505859375,0.42284655570983887,-0.11716032028198242,0.982020378112793
1761505739852753200,0.195753173828125,0.38994866609573364,-0.3382917046546936,0.7732952237129211
1761505739862789000,0.2057890625,0.33423107862472534,-0.5816096067428589,0.59136563539505
1761505739872825000,0.2158251953125,0.25083237886428833,-0.7804737687110901,0.48809537291526794
1761505739882861000,0.225861083984375,0.1557639241218567,-0.9864405393600464,0.4513631761074066
1761505739892897000,0.23589697265625,0.05844026058912277,-1.2061043977737427,0.42340192198753357
1761505739902933200,0.245933349609375,-0.06076362729072571,-1.3208138942718506,0.36377403140068054
1761505739912969200,0.25596923828125,-0.17218650877475739,-1.3436369895935059,0.24712644517421722
1761505739923005400,0.26600537109375,-0.24179913103580475,-1.2038333415985107,0.12945814430713654
1761505739933042200,0.276042236328125,-0.27290189266204834,-0.8293258547782898,0.05294838175177574
1761505739943078400,0.286078369140625,-0.2630402147769928,-0.43507444858551025,0.0053052278235554695
1761505739953114400,0.2961142578125,-0.1729055494070053,-0.22575585544109344,-0.042741045355796814
1761505739963150300,0.306150390625,-0.06729923188686371,-0.27305734157562256,-0.11220961064100266
1761505739973186300,0.316186279296875,-0.0051610469818115234,-0.45456647872924805,-0.20637448132038116
1761505739983222300,0.32622216796875,-0.03680445998907089,-0.7192002534866333,-0.3077423870563507
1761505739993258200,0.33625830078125,-0.13834135234355927,-0.9231653809547424,-0.37395423650741577
1761505740003294200,0.346294189453125,-0.2748754918575287,-0.9784757494926453,-0.37936151027679443
1761505740013330200,0.356330078125,-0.413286954164505,-0.9290722608566284,-0.32635602355003357
1761505740023366100,0.3663662109375,-0.5256475806236267,-0.8782956600189209,-0.26852548122406006
1761505740033402000,0.376402099609375,-0.655495285987854,-0.7819796204566956,-0.24724982678890228
1761505740043438000,0.38643798828125,-0.7018934488296509,-0.7434722185134888,-0.30281561613082886
1761505740053474300,0.396474365234375,-0.5923927426338196,-0.8292940855026245,-0.4507667124271393
1761505740063510300,0.40651025390625,-0.3720763325691223,-1.0087168216705322,-0.6686010360717773
1761505740073546200,0.416546142578125,-0.1458825170993805,-1.2640196084976196,-0.855624794960022
1761505740083582200,0.426582275390625,0.038481466472148895,-1.462132453918457,-0.8930017352104187
1761505740093618200,0.4366181640625,0.16484329104423523,-1.4098316431045532,-0.7744931578636169
1761505740103654100,0.446654052734375,0.20839263498783112,-1.2030086517333984,-0.5755651593208313
1761505740113690000,0.456690185546875,0.15979477763175964,-0.7548532485961914,-0.3781970143318176
1761505740123726000,0.46672607421875,0.04164256528019905,-0.0892544537782669,-0.2627630829811096
1761505740133763300,0.476763427734375,-0.07779271900653839,0.6136407852172852,-0.2825721502304077
1761505740143799300,0.48679931640625,-0.12922048568725586,1.2678313255310059,-0.46056851744651794
1761505740153835300,0.496835205078125,-0.12473917007446289,1.6905908584594727,-0.7239677309989929
1761505740163871200,0.506871337890625,-0.12621749937534332,1.833802580833435,-0.9768673777580261
1761505740173907200,0.5169072265625,-0.1532939225435257,1.8271976709365845,-1.1207956075668335
1761505740183943200,0.526943115234375,-0.2213696390390396,1.7596763372421265,-1.0923689603805542
1761505740193979100,0.536979248046875,-0.32004860043525696,1.6814888715744019,-0.9349904656410217
1761505740204015400,0.547015380859375,-0.36628907918930054,1.5925153493881226,-0.710142195224762
1761505740214051300,0.55705126953125,-0.3148215115070343,1.466865062713623,-0.4684424102306366
1761505740224087300,0.56708740234375,-0.17849215865135193,1.348676323890686,-0.24737370014190674
1761505740234123300,0.577123291015625,-0.03133074939250946,1.2523350715637207,-0.056592270731925964
1761505740244159200,0.5871591796875,0.10774963349103928,1.1148440837860107,0.09228348731994629
1761505740254195200,0.5971953125,0.28116631507873535,0.9236438274383545,0.2223862111568451
1761505740264231200,0.607231201171875,0.43487465381622314,0.7068169713020325,0.34233975410461426
1761505740274267100,0.61726708984375,0.48921263217926025,0.5522569417953491,0.4846879839897156
1761505740284303000,0.62730322265625,0.4356772303581238,0.4887501299381256,0.6544764637947083
1761505740294339000,0.637339111328125,0.3217543363571167,0.48823100328445435,0.8285572528839111
1761505740304375300,0.647375244140625,0.20309294760227203,0.502463698387146,0.9847974181175232
1761505740314411300,0.657411376953125,0.11298201233148575,0.5292370915412903,1.090421199798584
1761505740324448300,0.6674482421875,0.08168933540582657,0.4560595154762268,1.11664617061615
1761505740334484200,0.677484130859375,0.09366609901189804,0.24764569103717804,1.0490566492080688
1761505740344520400,0.6875205078125,0.11032417416572571,-0.0025979671627283096,0.8819626569747925
1761505740354556400,0.697556396484375,0.05342216417193413,-0.11889467388391495,0.6742364168167114
1761505740364592400,0.70759228515625,-0.16244594752788544,-0.11451270431280136,0.5006363987922668
1761505740374628400,0.71762841796875,-0.4614829123020172,0.03816315159201622,0.3370787799358368
1761505740384664300,0.727664306640625,-0.6501331925392151,0.28910189867019653,0.15915513038635254
1761505740394700300,0.7377001953125,-0.5251657962799072,0.532645583152771,0.020601900294423103
1761505740404736300,0.747736328125,-0.06200988590717316,0.6604807376861572,-0.036247000098228455
1761505740414772200,0.757772216796875,0.5427379012107849,0.3790249228477478,0.051517076790332794
1761505740424808200,0.76780810546875,1.0226725339889526,-0.1710589975118637,0.2998177111148834
1761505740434844200,0.77784423828125,1.2113076448440552,-0.4586779773235321,0.5384986996650696
1761505740444880100,0.787880126953125,1.112835168838501,-0.4210781455039978,0.5846081376075745
1761505740454916400,0.797916259765625,0.8901708722114563,-0.25804367661476135,0.3620503544807434
1761505740464952300,0.807952392578125,0.657291054725647,-0.13774947822093964,-0.07471474260091782
1761505740474988300,0.81798828125,0.4047482907772064,-0.058295998722314835,-0.5205833911895752
1761505740485024300,0.828024169921875,0.09588020294904709,-0.010721555911004543,-0.8333445191383362
1761505740495060200,0.838060302734375,-0.24650095403194427,0.02934524416923523,-0.9319034218788147
1761505740505097200,0.84809716796875,-0.5372243523597717,0.1426590234041214,-0.8610519170761108
1761505740515133200,0.85813330078125,-0.7435369491577148,0.2994175851345062,-0.7372774481773376
1761505740525169200,0.868169189453125,-0.8465876579284668,0.4994433522224426,-0.616136372089386
1761505740535205000,0.878205078125,-0.8293425440788269,0.7971335649490356,-0.5722896456718445
1761505740545241000,0.888240966796875,-0.6087108254432678,0.9466740489006042,-0.6638203859329224
1761505740555277000,0.898277099609375,-0.240304097533226,0.8033040165901184,-0.8383904695510864
1761505740565313300,0.908313232421875,0.12292709946632385,0.5088239312171936,-0.9672017097473145
1761505740575349200,0.918349365234375,0.3804864287376404,0.13695812225341797,-0.9622388482093811
1761505740585385200,0.92838525390625,0.4989560842514038,-0.25203144550323486,-0.8175562620162964
1761505740595421400,0.93842138671875,0.5187960863113403,-0.5377362966537476,-0.6146234273910522
1761505740605457400,0.94845751953125,0.4948561191558838,-0.7812413573265076,-0.4344903826713562
1761505740615493400,0.958493408203125,0.46946051716804504,-1.010116696357727,-0.29110708832740784
1761505740625529300,0.968529296875,0.46880272030830383,-1.2189940214157104,-0.16663332283496857
1761505740635565300,0.9785654296875,0.4814550578594208,-1.3470171689987183,-0.026526523754000664
1761505740645601300,0.988601318359375,0.45359811186790466,-1.3114314079284668,0.13217312097549438
1761505740655637200,0.99863720703125,0.34910839796066284,-1.0336931943893433,0.26061344146728516
1761505740665673200,1.008673095703125,0.20524205267429352,-0.5558443069458008,0.30604565143585205
1761505740675710200,1.018710205078125,0.07277006655931473,-0.03198402374982834,0.2716020941734314
1761505740685746200,1.02874609375,-0.05811551213264465,0.38743826746940613,0.1586417257785797
1761505740695782100,1.0387822265625,-0.19205354154109955,0.6563992500305176,-0.001157851773314178
1761505740705818000,1.048818115234375,-0.30390578508377075,0.8133484125137329,-0.14712810516357422
1761505740715854000,1.05885400390625,-0.38850319385528564,0.8580127358436584,-0.22686979174613953
1761505740725890000,1.06889013671875,-0.43865877389907837,0.8572031259536743,-0.2359418421983719
1761505740735926300,1.07892626953125,-0.44766607880592346,0.8504367470741272,-0.18318292498588562
1761505740745962200,1.088962158203125,-0.4283483028411865,0.835735559463501,-0.09518754482269287
1761505740755998200,1.098998291015625,-0.3876190185546875,0.831925094127655,0.009315053932368755
1761505740766034200,1.1090341796875,-0.32653090357780457,0.8559657335281372,0.10639579594135284
1761505740776070100,1.119070068359375,-0.2644013464450836,0.8699628114700317,0.19182026386260986
1761505740786106000,1.129106201171875,-0.19790993630886078,0.8266388177871704,0.26734697818756104
1761505740796142300,1.139142333984375,-0.14112302660942078,0.6852636933326721,0.36137300729751587
1761505740806178300,1.14917822265625,-0.08850722759962082,0.478491872549057,0.48331382870674133
1761505740816214300,1.15921435546875,-0.04221173748373985,0.2692388594150543,0.6146940588951111
1761505740826250200,1.169250244140625,0.0056351469829678535,0.08625677973031998,0.7160659432411194
1761505740836286200,1.1792861328125,0.06689758598804474,-0.020964831113815308,0.7671191096305847
1761505740846324200,1.18932421875,0.11208689957857132,-0.05477152764797211,0.7704145312309265
1761505740856360200,1.199360107421875,0.12017566710710526,-0.13128934800624847,0.7344914078712463
1761505740866396200,1.209396240234375,0.1127273365855217,-0.4221813976764679,0.7271610498428345
1761505740876432100,1.21943212890625,0.09913745522499084,-0.8054578304290771,0.7743398547172546
1761505740886468000,1.229468017578125,0.03712654113769531,-0.9391847252845764,0.7885832786560059
1761505740896504000,1.239504150390625,-0.09028970450162888,-0.7101978063583374,0.6661624312400818
1761505740906540000,1.2495400390625,-0.2364988476037979,-0.15063200891017914,0.37807926535606384
1761505740916576300,1.259576171875,-0.2686951458454132,0.5512250661849976,-0.020973583683371544
1761505740926612200,1.2696123046875,-0.0815846174955368,0.9563915133476257,-0.3474787175655365
1761505740936648200,1.279648193359375,0.27595463395118713,0.7863892912864685,-0.4428164064884186
1761505740946684200,1.28968408203125,0.6132979989051819,0.1671803742647171,-0.2319587618112564
1761505740956720000,1.29972021484375,0.7685736417770386,-0.7145349979400635,0.25932520627975464
1761505740966756400,1.30975634765625,0.7247110605239868,-1.4702816009521484,0.8607441782951355
1761505740976792300,1.319792236328125,0.5573269724845886,-1.8424263000488281,1.3044434785842896
1761505740986828300,1.329828369140625,0.32077857851982117,-1.6867358684539795,1.4086891412734985
1761505740996864300,1.3398642578125,0.09115900099277496,-1.072792649269104,1.1154487133026123
1761505741006901200,1.3499013671875,-0.0796460285782814,-0.29127559065818787,0.5654539465904236
1761505741016937200,1.359937255859375,-0.1798325628042221,0.35823512077331543,-0.0364239476621151
1761505741026973200,1.36997314453125,-0.18221396207809448,0.8075066804885864,-0.4906178116798401
1761505741037009200,1.380009033203125,-0.13089224696159363,1.078589916229248,-0.6939783692359924
1761505741047045000,1.390045166015625,-0.10528329759836197,1.234616756439209,-0.7176805138587952
1761505741057081300,1.400081298828125,-0.12374112755060196,1.3722662925720215,-0.7140341401100159
1761505741067117300,1.410117431640625,-0.19305415451526642,1.3862422704696655,-0.8145151734352112
1761505741077153300,1.4201533203125,-0.27734747529029846,1.1981658935546875,-1.0235536098480225
1761505741087189200,1.430189208984375,-0.34969624876976013,0.8234295845031738,-1.2413932085037231
1761505741097225200,1.44022509765625,-0.3832334280014038,0.3896425664424896,-1.3635755777359009
1761505741107261200,1.45026123046875,-0.37492597103118896,-0.08121148496866226,-1.3655234575271606
1761505741117297200,1.460297119140625,-0.3281390964984894,-0.5242705941200256,-1.2398416996002197
1761505741127333000,1.4703330078125,-0.2691601812839508,-0.8736845254898071,-1.0252686738967896
1761505741137369000,1.480369140625,-0.21756242215633392,-1.0309550762176514,-0.7848417162895203
1761505741147405000,1.490405029296875,-0.15002119541168213,-1.0668244361877441,-0.5441617369651794
1761505741157442300,1.5004423828125,-0.03807138651609421,-1.0400781631469727,-0.32655569911003113
1761505741167477200,1.510477294921875,0.12514150142669678,-0.9619919061660767,-0.16253109276294708
1761505741177514200,1.52051416015625,0.3131190538406372,-0.8453906774520874,-0.04137738421559334
1761505741187550200,1.53055029296875,0.46725988388061523,-0.6531197428703308,0.042648810893297195
1761505741197586200,1.540586181640625,0.5262051224708557,-0.3755514621734619,0.1100185438990593
1761505741207622400,1.550622314453125,0.49315181374549866,-0.05342373996973038,0.14172402024269104
1761505741217658400,1.560658447265625,0.423267126083374,0.23569513857364655,0.10519716143608093
1761505741227694300,1.5706943359375,0.364846408367157,0.4691438674926758,-0.0018832134082913399
1761505741237730300,1.580730224609375,0.31432485580444336,0.6054006218910217,-0.15098825097084045
1761505741247766300,1.590766357421875,0.25437602400779724,0.5674713253974915,-0.2852102220058441
1761505741257802200,1.60080224609375,0.1961098313331604,0.47813880443573,-0.35027238726615906
1761505741267838200,1.610838134765625,0.14973832666873932,0.4704616963863373,-0.3358764052391052
1761505741277874200,1.620874267578125,0.12371793389320374,0.4980899691581726,-0.24344046413898468
1761505741287910100,1.63091015625,0.15007683634757996,0.460070937871933,-0.10097520798444748
1761505741297946000,1.640946044921875,0.2128615379333496,0.3709988296031952,0.07217853516340256
1761505741307982000,1.650982177734375,0.2805987596511841,0.25401759147644043,0.25957798957824707
1761505741318018300,1.661018310546875,0.32207220792770386,0.14969167113304138,0.4446301758289337
1761505741328055000,1.671054931640625,0.33107101917266846,0.039801400154829025,0.595271646976471
1761505741338091000,1.681091064453125,0.2809549868106842,-0.13704124093055725,0.7112646698951721
1761505741348127200,1.691127197265625,0.1837943196296692,-0.3446511924266815,0.8069131374359131
1761505741358163200,1.7011630859375,0.06419654935598373,-0.495399534702301,0.8995954394340515
1761505741368199200,1.71119921875,-0.04372859001159668,-0.4949641227722168,0.9824793934822083
1761505741378235400,1.7212353515625,-0.12062816321849823,-0.4910711646080017,1.038133978843689
1761505741388271400,1.731271240234375,-0.2131570279598236,-0.46519750356674194,1.0502172708511353
1761505741398307300,1.741307373046875,-0.353585809469223,-0.3380080759525299,0.9946892857551575
1761505741408343300,1.75134326171875,-0.5517982840538025,-0.02942146360874176,0.8577434420585632
1761505741418379300,1.761379150390625,-0.691939115524292,0.4077765941619873,0.5756515264511108
1761505741428415200,1.771415283203125,-0.6850385665893555,0.6856047511100769,0.16694526374340057
1761505741438451200,1.781451171875,-0.5187127590179443,0.7101718187332153,-0.22419297695159912
1761505741448487200,1.791487060546875,-0.25856292247772217,0.5776598453521729,-0.42103442549705505
1761505741458523400,1.8015234375,-0.019113510847091675,0.22723737359046936,-0.34457746148109436
1761505741468559400,1.811559326171875,0.13864175975322723,-0.3078385591506958,-0.004481948912143707
1761505741478595300,1.82159521484375,0.19781187176704407,-0.8549695611000061,0.47166329622268677
1761505741488632300,1.83163232421875,0.18683086335659027,-1.2643011808395386,0.8560476899147034
1761505741498668300,1.841668212890625,0.13321317732334137,-1.4123553037643433,0.9312872886657715
1761505741508704300,1.851704345703125,0.08499584347009659,-1.4107342958450317,0.6665648221969604
1761505741518740200,1.861740234375,0.052377648651599884,-1.3388878107070923,0.18024931848049164
1761505741528776200,1.871776123046875,-0.012954218313097954,-1.3796072006225586,-0.3366774618625641
1761505741538812200,1.881812255859375,-0.09587762504816055,-1.5265558958053589,-0.712800145149231
1761505741548848000,1.89184814453125,-0.18332119286060333,-1.5485442876815796,-0.8959723711013794
1761505741558884000,1.901884033203125,-0.30834662914276123,-1.3123692274093628,-0.9110060334205627
1761505741568920000,1.911920166015625,-0.46712005138397217,-0.9311538934707642,-0.8641958832740784
1761505741578956000,1.9219560546875,-0.5778402090072632,-0.45130425691604614,-0.8587787747383118
1761505741588992000,1.931991943359375,-0.6222918033599854,-0.0447080172598362,-0.900536298751831
1761505741599028200,1.9420283203125,-0.600013256072998,0.20906788110733032,-0.9598857164382935
1761505741609064400,1.952064453125,-0.5142663717269897,0.3585319519042969,-1.0080461502075195
1761505741619100400,1.962100341796875,-0.38519126176834106,0.33210545778274536,-1.0109447240829468
1761505741629136400,1.972136474609375,-0.2411712408065796,0.11504529416561127,-0.9532957673072815
1761505741639172400,1.98217236328125,-0.15113332867622375,-0.15220235288143158,-0.8564288020133972
1761505741649209300,1.992209228515625,-0.12550120055675507,-0.33252739906311035,-0.7418705224990845
1761505741659245300,2.002245361328125,-0.14329618215560913,-0.3702266216278076,-0.6357201337814331
1761505741669281300,2.01228125,-0.17293183505535126,-0.28114521503448486,-0.558099091053009
1761505741679317200,2.022317138671875,-0.17369024455547333,-0.11070723086595535,-0.4996156096458435
1761505741689353200,2.032353271484375,-0.13791440427303314,0.0342630036175251,-0.46212440729141235
1761505741699389200,2.04238916015625,-0.07216926664113998,0.0970345214009285,-0.4400901198387146
1761505741709425200,2.052425048828125,0.008100010454654694,0.05016288533806801,-0.41574618220329285
1761505741719461000,2.062461181640625,0.052928946912288666,0.03921932727098465,-0.3843490481376648
1761505741729497000,2.0724970703125,0.06269023567438126,0.16361477971076965,-0.3414095640182495
1761505741739533300,2.082533203125,0.07656348496675491,0.2826368808746338,-0.242244154214859
1761505741749569300,2.0925693359375,0.09948291629552841,0.37032702565193176,-0.0722375437617302
1761505741759605200,2.102605224609375,0.1313268393278122,0.4474935233592987,0.15643472969532013
1761505741769641200,2.11264111328125,0.15930147469043732,0.5131849050521851,0.39277884364128113
1761505741779677200,2.12267724609375,0.1700029969215393,0.517494261264801,0.572232723236084
1761505741789713200,2.132713134765625,0.162288099527359,0.47591033577919006,0.662560224533081
1761505741799749000,2.1427490234375,0.1555432379245758,0.39941805601119995,0.6554538607597351
1761505741809785000,2.15278515625,0.16615460813045502,0.2199729084968567,0.5777885913848877
1761505741819821000,2.162821044921875,0.1850542575120926,-0.0035220212303102016,0.46815910935401917
1761505741829858300,2.1728583984375,0.17117705941200256,-0.16874586045742035,0.39289548993110657
1761505741839894300,2.182894287109375,0.11947125941514969,-0.2484244853258133,0.4061007797718048
1761505741849929700,2.1929296875,0.04499277099967003,-0.29487696290016174,0.5261701941490173
1761505741859965700,2.202965576171875,-0.03293697163462639,-0.29508158564567566,0.7277004718780518
1761505741870002000,2.213001953125,-0.09534122794866562,-0.1516897976398468,0.9391093850135803
1761505741880038000,2.223037841796875,-0.14661362767219543,0.09883236140012741,1.09569251537323
1761505741890073900,2.233073974609375,-0.20478211343288422,0.2793608605861664,1.1052939891815186
1761505741900109800,2.24310986328125,-0.24234530329704285,0.44710272550582886,0.9294386506080627
1761505741910145800,2.253145751953125,-0.2282063215970993,0.7652854919433594,0.6658634543418884
1761505741920181800,2.263181640625,-0.1799878180027008,1.1376994848251343,0.4355153739452362
1761505741930217700,2.2732177734375,-0.11449029296636581,1.3328285217285156,0.3414058983325958
1761505741940253700,2.283253662109375,-0.021410532295703888,1.2579635381698608,0.3994078040122986
1761505741950289700,2.29328955078125,0.09101534634828568,0.8963358998298645,0.5564472079277039
1761505741960325600,2.30332568359375,0.20071861147880554,0.32355645298957825,0.7430552244186401
1761505741970361600,2.313361572265625,0.2734551429748535,-0.2615213692188263,0.8790423274040222
1761505741980397800,2.323397705078125,0.2965737581253052,-0.7022144794464111,0.9234461784362793
1761505741990433800,2.333433837890625,0.27099356055259705,-0.9853684306144714,0.8504438400268555
1761505742000470800,2.343470703125,0.23853586614131927,-1.0311379432678223,0.6462774276733398
1761505742010506800,2.3535068359375,0.18397168815135956,-0.9210204482078552,0.3772169351577759
1761505742020543000,2.36354296875,0.11840847879648209,-0.6707950830459595,0.09944070875644684
1761505742030579000,2.373578857421875,0.08278949558734894,-0.38516920804977417,-0.18713407218456268
1761505742040615000,2.383614990234375,0.1165831908583641,-0.2365906685590744,-0.46802547574043274
1761505742050651000,2.39365087890625,0.1791357845067978,-0.21261157095432281,-0.717247486114502
1761505742060686800,2.403686767578125,0.17797917127609253,-0.19959083199501038,-0.9059740304946899
1761505742070722800,2.413722900390625,0.10010407865047455,-0.2288491278886795,-1.0311554670333862
1761505742080758800,2.4237587890625,0.01741158589720726,-0.2809753119945526,-1.0477328300476074
1761505742090794800,2.433794677734375,-0.021384812891483307,-0.26166287064552307,-1.0069360733032227
1761505742100830700,2.443830810546875,-0.03844895213842392,-0.2954466938972473,-0.9544771909713745
1761505742110866700,2.45386669921875,-0.027593908831477165,-0.4427996575832367,-0.9032547473907471
1761505742120902700,2.463902587890625,-0.01237837690860033,-0.6370063424110413,-0.8369605541229248
1761505742130939000,2.47393896484375,-0.016585107892751694,-0.8013366460800171,-0.7615869641304016
1761505742140974800,2.483974853515625,-0.07351004332304001,-0.8904402256011963,-0.6653944253921509
1761505742151010800,2.4940107421875,-0.16300691664218903,-0.8667705655097961,-0.5699893236160278
1761505742161046800,2.504046875,-0.2560165822505951,-0.7074839472770691,-0.48139119148254395
1761505742171082800,2.514082763671875,-0.3207833170890808,-0.44579964876174927,-0.40499362349510193
1761505742181119700,2.52411962890625,-0.3498065173625946,-0.15180739760398865,-0.351762056350708
1761505742191155700,2.53415576171875,-0.35816219449043274,0.1761145442724228,-0.3269033133983612
1761505742201191700,2.544191650390625,-0.3440338671207428,0.47878497838974,-0.31346848607063293
1761505742211227600,2.5542275390625,-0.29737499356269836,0.7648478746414185,-0.30652695894241333
1761505742221264000,2.564263916015625,-0.23400773108005524,0.9752646088600159,-0.2979702055454254
1761505742231299800,2.5742998046875,-0.1883092224597931,1.0735187530517578,-0.2802279591560364
1761505742241335800,2.584335693359375,-0.15393275022506714,1.1290030479431152,-0.2770581841468811
1761505742251371800,2.594371826171875,-0.15232285857200623,1.15726637840271,-0.2929378151893616
1761505742261407700,2.60440771484375,-0.18894857168197632,1.1597020626068115,-0.29674822092056274
1761505742271444000,2.61444384765625,-0.24049484729766846,1.113398551940918,-0.2538151443004608
1761505742281480000,2.62447998046875,-0.27515891194343567,1.0411741733551025,-0.18217356503009796
1761505742291516000,2.634515869140625,-0.2708011865615845,0.9470175504684448,-0.0800570547580719
1761505742301551900,2.6445517578125,-0.22092092037200928,0.824093759059906,0.018908077850937843
1761505742311587800,2.654587890625,-0.10531629621982574,0.6101776957511902,0.0950278788805008
1761505742321623800,2.664623779296875,0.056081391870975494,0.31825074553489685,0.16672737896442413
1761505742331659800,2.67465966796875,0.20809009671211243,0.042506780475378036,0.25347238779067993
1761505742341695700,2.68469580078125,0.3135385513305664,-0.17214109003543854,0.34267839789390564
1761505742351731700,2.694731689453125,0.36135801672935486,-0.2400413155555725,0.43639102578163147
1761505742361767700,2.704767578125,0.3326791524887085,-0.15382523834705353,0.5244894623756409
1761505742371803600,2.7148037109375,0.2244831919670105,0.04442260414361954,0.5970134735107422
1761505742381840600,2.724840576171875,0.06562590599060059,0.30767858028411865,0.6721218228340149
1761505742391876600,2.734876708984375,-0.1577422022819519,0.5436384081840515,0.8019549250602722
1761505742401912600,2.74491259765625,-0.38229629397392273,0.6756300330162048,0.9638011455535889
1761505742411948800,2.75494873046875,-0.5665396451950073,0.704914391040802,1.1312834024429321
1761505742421984800,2.76498486328125,-0.6716078519821167,0.8262567520141602,1.2411116361618042
1761505742432020700,2.775020751953125,-0.693482518196106,1.1368579864501953,1.1909528970718384
1761505742442056700,2.785056640625,-0.6311603784561157,1.3309262990951538,0.9457070231437683
1761505742452093000,2.795093017578125,-0.5173203945159912,1.2948380708694458,0.5784088969230652
1761505742462129000,2.80512890625,-0.4198880195617676,1.0912351608276367,0.24668873846530914
1761505742472164900,2.815164794921875,-0.3769424259662628,0.7169668078422546,0.022193042561411858
1761505742482200800,2.825200927734375,-0.35453203320503235,0.3507780134677887,-0.11992964148521423
1761505742492236800,2.83523681640625,-0.29586073756217957,0.027098484337329865,-0.22374765574932098
1761505742502272800,2.845272705078125,-0.20085090398788452,-0.44994163513183594,-0.31457602977752686
1761505742512308700,2.855308837890625,-0.07415367662906647,-1.047292947769165,-0.3910670578479767
1761505742522344700,2.8653447265625,0.058271944522857666,-1.6247963905334473,-0.4321225881576538
1761505742532381000,2.875380859375,0.17732003331184387,-2.0766053199768066,-0.4130285382270813
1761505742542417000,2.8854169921875,0.2643733322620392,-2.2601985931396484,-0.3302067518234253
1761505742552452900,2.895452880859375,0.3123352825641632,-2.1436989307403564,-0.20516148209571838
1761505742562488800,2.90548876953125,0.3310891389846802,-1.7625818252563477,-0.12095650285482407
1761505742572524800,2.91552490234375,0.32885634899139404,-1.238194465637207,-0.12281325459480286
1761505742582560800,2.925560791015625,0.30458974838256836,-0.6408165097236633,-0.2178594321012497
1761505742592597800,2.93559765625,0.24291492998600006,-0.1084391176700592,-0.4057933986186981
1761505742602633700,2.9456337890625,0.1226954236626625,0.29710713028907776,-0.6467123031616211
1761505742612669700,2.955669677734375,-0.018634270876646042,0.6090937852859497,-0.9086443185806274
1761505742622705700,2.96570556640625,-0.18852116167545319,0.7034391164779663,-1.1679788827896118
1761505742632741600,2.97574169921875,-0.37132692337036133,0.4298248887062073,-1.318458914756775
1761505742642777600,2.985777587890625,-0.5049070715904236,-0.002125565195456147,-1.3218376636505127
1761505742652813600,2.9958134765625,-0.5675776600837708,-0.3388015925884247,-1.1829564571380615
1761505742662849800,3.005849853515625,-0.5431586503982544,-0.5224031209945679,-0.9524132609367371
1761505742672885800,3.0158857421875,-0.4336412250995636,-0.5694065690040588,-0.6881400942802429
1761505742682922000,3.025921875,-0.28829002380371094,-0.5015419125556946,-0.4425210952758789
1761505742692958000,3.0359580078125,-0.1258782297372818,-0.3801366090774536,-0.2444887012243271
1761505742702994000,3.045993896484375,0.03165280818939209,-0.235670268535614,-0.10116030275821686
1761505742713030000,3.05602978515625,0.17453086376190186,-0.05852824077010155,-0.008957939222455025
1761505742723065900,3.06606591796875,0.2662622332572937,0.09276282787322998,0.057528845965862274
1761505742733101800,3.076101806640625,0.28973373770713806,0.163743257522583,0.12527060508728027
1761505742743137800,3.0861376953125,0.25915753841400146,0.15331409871578217,0.2229725420475006
1761505742753173800,3.096173828125,0.20111395418643951,0.10322003066539764,0.3562627136707306
1761505742763209700,3.106209716796875,0.10683415830135345,0.13095426559448242,0.5156847238540649
1761505742773245700,3.11624560546875,0.018874473869800568,0.23888713121414185,0.6687754988670349
1761505742783282000,3.126281982421875,-0.03719351440668106,0.3749563694000244,0.765315055847168
1761505742793318000,3.13631787109375,-0.03686967119574547,0.5090494751930237,0.7708341479301453
1761505742803353900,3.146353759765625,0.0058532883413136005,0.6064732670783997,0.7061611413955688
1761505742813389800,3.156389892578125,0.061229195445775986,0.6536506414413452,0.6223294138908386
1761505742823426800,3.1664267578125,0.10712642967700958,0.6213517785072327,0.5452734231948853
1761505742833462800,3.176462890625,0.13358519971370697,0.5018349885940552,0.48326781392097473
1761505742843498800,3.186498779296875,0.12852168083190918,0.3532022535800934,0.4352646768093109
1761505742853534500,3.196534423828125,0.06992840021848679,0.13600441813468933,0.46292027831077576
1761505742863570400,3.2065703125,-0.04938158392906189,-0.1623186618089676,0.6299932599067688
1761505742873606400,3.2166064453125,-0.20890013873577118,-0.3213014006614685,0.8916270136833191
1761505742883642400,3.226642333984375,-0.42211270332336426,-0.4059681296348572,1.1297619342803955
1761505742893678300,3.23667822265625,-0.633427083492279,-0.4920806586742401,1.2281221151351929
1761505742903714300,3.24671435546875,-0.7800241112709045,-0.44638508558273315,1.1509779691696167
1761505742913750500,3.25675048828125,-0.8779959678649902,-0.2783582806587219,0.8874080777168274
1761505742923786500,3.266786376953125,-0.8984867930412292,0.015906207263469696,0.5228010416030884
1761505742933822500,3.276822509765625,-0.7798035740852356,0.576682984828949,0.15326693654060364
1761505742943858400,3.2868583984375,-0.5419621467590332,1.1109161376953125,-0.10726968944072723
1761505742953894400,3.296894287109375,-0.2749791741371155,1.342571496963501,-0.20298369228839874
1761505742963930400,3.306930419921875,-0.059725675731897354,1.1841472387313843,-0.174535870552063
1761505742973966300,3.31696630859375,0.04410058632493019,0.7407154440879822,-0.13167628645896912
1761505742984002600,3.32700244140625,0.05364014580845833,0.19657766819000244,-0.11412295699119568
1761505742994038500,3.33703857421875,0.03143816813826561,-0.24966692924499512,-0.15258966386318207
1761505743004074500,3.347074462890625,0.012790927663445473,-0.5668468475341797,-0.2269517183303833
1761505743014110500,3.3571103515625,-0.012095780111849308,-0.7572870850563049,-0.3064260482788086
1761505743024146400,3.367146484375,-0.0370158851146698,-0.9049481153488159,-0.417343407869339
1761505743034182700,3.3771826171875,-0.023921919986605644,-1.043850302696228,-0.5416222214698792
1761505743044218600,3.387218505859375,0.04046069458127022,-1.1657298803329468,-0.6752184629440308
1761505743054254600,3.397254638671875,0.12130654603242874,-1.2801635265350342,-0.8080670833587646
1761505743064291600,3.40729150390625,0.16318947076797485,-1.2084534168243408,-0.8901838064193726
1761505743074327600,3.41732763671875,0.1561581939458847,-0.9881548285484314,-0.9468910098075867
1761505743084363500,3.427363525390625,0.1463032364845276,-0.7473872900009155,-0.9935586452484131
1761505743094399500,3.4373994140625,0.16072584688663483,-0.49987685680389404,-0.9998655915260315
1761505743104435500,3.447435546875,0.19362740218639374,-0.16073691844940186,-0.9445874691009521
1761505743114471400,3.457471435546875,0.21225035190582275,0.1592749059200287,-0.8425130248069763
1761505743124507400,3.46750732421875,0.22167228162288666,0.38834232091903687,-0.7349079251289368
1761505743134543400,3.47754345703125,0.21938996016979218,0.5812124013900757,-0.6539792418479919
1761505743144579300,3.487579345703125,0.22306272387504578,0.6969746947288513,-0.6049683094024658
1761505743154615300,3.497615234375,0.2596324682235718,0.6698879599571228,-0.532032310962677
1761505743164651500,3.507651611328125,0.342966228723526,0.5636045932769775,-0.44317489862442017
1761505743174687500,3.5176875,0.47049570083618164,0.453182190656662,-0.3544812500476837
1761505743184723500,3.527723388671875,0.6090778112411499,0.33982688188552856,-0.25614774227142334
1761505743194759400,3.537759521484375,0.6908634901046753,0.30599460005760193,-0.1380506455898285
1761505743204795400,3.54779541015625,0.6889510750770569,0.4267309010028839,-0.020753640681505203
1761505743214831600,3.55783154296875,0.6210082769393921,0.5891699194908142,0.07406500726938248
1761505743224867600,3.56786767578125,0.5301790833473206,0.6974045634269714,0.13437676429748535
1761505743234903600,3.577903564453125,0.45684391260147095,0.729630708694458,0.15489456057548523
1761505743244939500,3.587939453125,0.4117313027381897,0.6295739412307739,0.1592933088541031
1761505743254975500,3.5979755859375,0.35898712277412415,0.4688498079776764,0.16810090839862823
1761505743265011500,3.608011474609375,0.2768470346927643,0.3892744481563568,0.191768616437912
1761505743275047400,3.61804736328125,0.2034931778907776,0.4571842551231384,0.22653432190418243
1761505743285083600,3.628083740234375,0.1386248618364334,0.5680854916572571,0.26240748167037964
1761505743295119600,3.63811962890625,0.08208063244819641,0.6916305422782898,0.29953089356422424
1761505743305155600,3.648155517578125,0.04809790104627609,0.7903347611427307,0.321627676486969
1761505743315191600,3.658191650390625,0.04013212025165558,0.7966440320014954,0.33214691281318665
1761505743325227500,3.6682275390625,0.04694277048110962,0.6535577178001404,0.3383074104785919
1761505743335263500,3.678263427734375,0.07880056649446487,0.37732794880867004,0.3523542582988739
1761505743345300500,3.688300537109375,0.12773515284061432,0.01459603663533926,0.35756227374076843
1761505743355336400,3.69833642578125,0.1634896844625473,-0.3427237272262573,0.39645907282829285
1761505743365372400,3.708372314453125,0.18793654441833496,-0.5860203504562378,0.5064688324928284
1761505743375408400,3.718408447265625,0.14841923117637634,-0.6438953280448914,0.6623090505599976
1761505743385444400,3.7284443359375,0.010157179087400436,-0.5209462642669678,0.7833009958267212
1761505743395480300,3.738480224609375,-0.17505821585655212,-0.2973487973213196,0.7863242626190186
1761505743405516300,3.748516357421875,-0.3763794004917145,-0.09899098426103592,0.6945539116859436
1761505743415552300,3.75855224609375,-0.5949804782867432,0.07206598669290543,0.6125013828277588
1761505743425588500,3.76858837890625,-0.7431976199150085,0.5197135210037231,0.5644121766090393
1761505743435624400,3.77862451171875,-0.7468757033348083,1.1000216007232666,0.48965373635292053
1761505743445660700,3.78866064453125,-0.5815922021865845,1.4320226907730103,0.3831693232059479
1761505743455696600,3.798696533203125,-0.2826230227947235,1.3152822256088257,0.29586851596832275
1761505743465732600,3.808732666015625,0.0003635021857917309,0.9233207702636719,0.30423736572265625
1761505743475768600,3.8187685546875,0.15142838656902313,0.5272496342658997,0.4211983382701874
1761505743485804500,3.828804443359375,0.17033809423446655,0.13340415060520172,0.5831732153892517
1761505743495840500,3.838840576171875,0.17875635623931885,-0.20843841135501862,0.7224416136741638
1761505743505876500,3.84887646484375,0.25498661398887634,-0.52103590965271,0.735274076461792
1761505743515912400,3.858912353515625,0.3601452708244324,-1.0412380695343018,0.5625446438789368
1761505743525948400,3.868948486328125,0.4565610885620117,-1.5492560863494873,0.2194216102361679
1761505743535984600,3.878984619140625,0.5225656628608704,-1.8660590648651123,-0.22512760758399963
1761505743546020600,3.8890205078125,0.5227010250091553,-1.8195970058441162,-0.6449888348579407
1761505743556056600,3.899056640625,0.46931231021881104,-1.3609514236450195,-0.9253302216529846
1761505743566092500,3.909092529296875,0.37552890181541443,-0.6516857743263245,-1.0084409713745117
1761505743576128500,3.91912841796875,0.2707740068435669,0.10158665478229523,-0.9495293498039246
1761505743586164500,3.92916455078125,0.17445896565914154,0.6664980053901672,-0.842332661151886
1761505743596200400,3.939200439453125,0.11356605589389801,0.9641249179840088,-0.7491009831428528
1761505743606236400,3.949236328125,0.0870494470000267,0.985310435295105,-0.7042410373687744
1761505743616272400,3.9592724609375,0.0821569561958313,0.8405261039733887,-0.6688670516014099
1761505743626308400,3.969308349609375,0.08649882674217224,0.5869633555412292,-0.6346570253372192
1761505743636344300,3.97934423828125,0.09238334745168686,0.2953898310661316,-0.5962214469909668
1761505743646380500,3.989380615234375,0.10808688402175903,0.06704182177782059,-0.5599491596221924
1761505743656417300,3.999417236328125,0.11444491893053055,-0.14742758870124817,-0.482909232378006
1761505743666451500,4.009451416015625,0.10768958926200867,-0.23391014337539673,-0.3690011203289032
1761505743676487400,4.0194873046875,0.08224175870418549,-0.13605256378650665,-0.27335208654403687
1761505743686523400,4.0295234375,0.049608077853918076,0.17172707617282867,-0.20181307196617126
1761505743696559400,4.039559326171875,0.0648655891418457,0.5835069417953491,-0.13794301450252533
1761505743706595300,4.04959521484375,0.14279910922050476,1.019862174987793,-0.08063055574893951
1761505743716631300,4.05963134765625,0.24711060523986816,1.371860384941101,-0.03644631803035736
1761505743726667500,4.06966748046875,0.37025389075279236,1.5478352308273315,-0.020468471571803093
1761505743736703500,4.079703369140625,0.4587872326374054,1.418540120124817,-0.02815621718764305
1761505743746739500,4.089739501953125,0.4658951461315155,0.9959524869918823,-0.002999954391270876
1761505743756775400,4.099775390625,0.37842440605163574,0.6073557138442993,0.07989493012428284
1761505743766811400,4.109811279296875,0.23690903186798096,0.4297820031642914,0.22249926626682281
1761505743776847400,4.119847412109375,0.07850422710180283,0.44451406598091125,0.38942834734916687
1761505743786883600,4.129883544921875,-0.06202109903097153,0.5277812480926514,0.5414068698883057
1761505743796919600,4.13991943359375,-0.14448988437652588,0.5380187034606934,0.6745705008506775
1761505743806955500,4.14995556640625,-0.16011090576648712,0.4100766181945801,0.764711320400238
1761505743816991500,4.159991455078125,-0.14678284525871277,0.160715252161026,0.7616037130355835
1761505743827028500,4.170028564453125,-0.11956251412630081,-0.2003597766160965,0.6709181070327759
1761505743837063400,4.1800634765625,-0.07776527106761932,-0.644490122795105,0.5558101534843445
1761505743847099600,4.190099609375,-0.04693939536809921,-1.02120041847229,0.49182844161987305
1761505743857136400,4.200136474609375,-0.07567170262336731,-1.3301899433135986,0.5486863851547241
1761505743867172600,4.210172607421875,-0.165243998169899,-1.4474035501480103,0.7406479120254517
1761505743877208800,4.220208740234375,-0.26890408992767334,-1.2240540981292725,0.9997314214706421
1761505743887244800,4.230244873046875,-0.3359220027923584,-0.8359804153442383,1.1614019870758057
1761505743897280800,4.24028076171875,-0.2801692485809326,-0.4077848196029663,1.0867162942886353
1761505743907316700,4.250316650390625,-0.07366975396871567,-0.05344051122665405,0.8307310938835144
1761505743917352700,4.260352783203125,0.14896199107170105,0.35393017530441284,0.5325849056243896
1761505743927388700,4.270388671875,0.23185394704341888,0.817004919052124,0.3652437925338745
1761505743937424600,4.280424560546875,0.1327742338180542,1.1464887857437134,0.38132956624031067
1761505743947460600,4.290460693359375,-0.06881971657276154,1.156361699104309,0.5450935959815979
1761505743957496600,4.30049658203125,-0.2257840484380722,0.8215778470039368,0.7103222012519836
1761505743967532500,4.310532470703125,-0.22926419973373413,0.2822442650794983,0.7530067563056946
1761505743977568500,4.320568603515625,-0.08758749067783356,-0.26230961084365845,0.6474853754043579
1761505743987604700,4.330604736328125,0.0665813609957695,-0.752915620803833,0.44957679510116577
1761505743997640700,4.340640625,0.16052037477493286,-1.2887839078903198,0.23114486038684845
1761505744007676700,4.3506767578125,0.22340820729732513,-1.785986065864563,0.03462013974785805
1761505744017712600,4.360712646484375,0.30094829201698303,-2.0298359394073486,-0.14121666550636292
1761505744027748600,4.37074853515625,0.4033259153366089,-2.0417027473449707,-0.2854496240615845
1761505744037784600,4.38078466796875,0.48330411314964294,-1.878780722618103,-0.3970552384853363
1761505744047820500,4.390820556640625,0.5268332958221436,-1.626937985420227,-0.4934718608856201
1761505744057856500,4.4008564453125,0.5747339725494385,-1.4476526975631714,-0.5937854051589966
1761505744067892500,4.410892578125,0.6078023314476013,-1.4131603240966797,-0.6667879223823547
1761505744077928400,4.420928466796875,0.5542237758636475,-1.3123564720153809,-0.6674033999443054
1761505744087964400,4.43096435546875,0.41258490085601807,-1.0289820432662964,-0.6166213750839233
1761505744098000600,4.441000732421875,0.207457035779953,-0.7448208928108215,-0.5827667713165283
1761505744108036600,4.45103662109375,-0.03280024603009224,-0.5215285420417786,-0.6042273640632629
1761505744118072600,4.461072509765625,-0.2622707188129425,-0.4736800789833069,-0.675277054309845
1761505744128108500,4.471108642578125,-0.42834174633026123,-0.6780053377151489,-0.7607479691505432
1761505744138144500,4.48114453125,-0.48102203011512756,-0.9864055514335632,-0.8856696486473083
1761505744148180500,4.491180419921875,-0.4004186987876892,-1.280100703239441,-1.0092310905456543
1761505744158216700,4.501216796875,-0.23410454392433167,-1.4753050804138184,-1.065710425376892
1761505744168252700,4.511252685546875,-0.053269997239112854,-1.5455939769744873,-1.0192891359329224
1761505744178288600,4.52128857421875,0.09568166732788086,-1.428255319595337,-0.8738059401512146
1761505744188324600,4.53132470703125,0.16906368732452393,-1.139424204826355,-0.6614145040512085
1761505744198360600,4.541360595703125,0.15908348560333252,-0.6671176552772522,-0.40373584628105164
1761505744208396800,4.551396728515625,0.06845548003911972,-0.07696007192134857,-0.1742144078016281
1761505744218432800,4.561432861328125,-0.07653553038835526,0.46374231576919556,-0.014489192515611649
1761505744228468700,4.57146875,-0.2420588731765747,0.8729479908943176,0.06083368882536888
1761505744238506500,4.581506591796875,-0.388744980096817,1.0488280057907104,0.06557490676641464
1761505744248542500,4.59154248046875,-0.4984402060508728,1.035133957862854,0.025388497859239578
1761505744258578400,4.601578369140625,-0.5309827327728271,1.0048424005508423,-0.06083426997065544
1761505744268614700,4.61161474609375,-0.48130595684051514,0.9330669045448303,-0.18172021210193634
1761505744278650600,4.621650634765625,-0.3683543801307678,0.8658844232559204,-0.2993946373462677
1761505744288686600,4.6316865234375,-0.20590683817863464,0.7265376448631287,-0.36170655488967896
1761505744298722600,4.64172265625,-0.022935152053833008,0.553236722946167,-0.3286482095718384
1761505744308758500,4.651758544921875,0.09424962848424911,0.4909779727458954,-0.20756208896636963
1761505744318794500,4.66179443359375,0.1181752011179924,0.5120307803153992,-0.00887029804289341
1761505744328830700,4.671830810546875,0.09138060361146927,0.5490959882736206,0.23295484483242035
1761505744338866700,4.68186669921875,0.015658942982554436,0.5349678993225098,0.49295127391815186
1761505744348902700,4.691902587890625,-0.049021296203136444,0.5207511186599731,0.7196617126464844
1761505744358938600,4.701938720703125,-0.09495975077152252,0.6711627244949341,0.8810343742370605
1761505744368974600,4.711974609375,-0.12658601999282837,0.9525647759437561,0.9487837553024292
1761505744379010600,4.722010498046875,-0.1008891761302948,1.2146633863449097,0.9025278091430664
1761505744389046800,4.732046875,-0.04789872467517853,1.3232131004333496,0.7998390793800354
1761505744399082800,4.742082763671875,-0.030205747112631798,1.2672345638275146,0.7140210866928101
1761505744409118700,4.75211865234375,-0.051630932837724686,1.1764562129974365,0.6997026205062866
1761505744419154700,4.76215478515625,-0.09541516751050949,1.1614124774932861,0.7188832759857178
1761505744429190700,4.772190673828125,-0.15647947788238525,1.1376545429229736,0.7122374773025513
1761505744439226600,4.7822265625,-0.19492299854755402,0.9608312249183655,0.6803730130195618
1761505744449262600,4.7922626953125,-0.18647907674312592,0.5549685955047607,0.6228366494178772
1761505744459298600,4.802298583984375,-0.1496475636959076,0.14202947914600372,0.5220019221305847
1761505744469334500,4.81233447265625,-0.09021373838186264,-0.19624866545200348,0.35195693373680115
1761505744479370500,4.82237060546875,-0.05121786892414093,-0.5198594927787781,0.14263592660427094
1761505744489406500,4.832406494140625,-0.0106833316385746,-0.8606215119361877,-0.102650947868824
1761505744499442700,4.842442626953125,0.07109435647726059,-1.151938557624817,-0.4223346710205078
1761505744509478700,4.852478759765625,0.21864770352840424,-1.3281651735305786,-0.7400879859924316
1761505744519514600,4.8625146484375,0.4674130380153656,-1.3744322061538696,-0.9783612489700317
1761505744529550600,4.872550537109375,0.7440369725227356,-1.3778953552246094,-1.0604695081710815
1761505744539586600,4.882586669921875,0.8795170187950134,-1.3386178016662598,-0.9512772560119629
1761505744549622500,4.89262255859375,0.8081792593002319,-1.0382801294326782,-0.7011497616767883
1761505744559658500,4.902658447265625,0.612568736076355,-0.2575020492076874,-0.47926849126815796
1761505744569694500,4.912694580078125,0.4213657081127167,0.6201882362365723,-0.4112955331802368
1761505744579730400,4.92273046875,0.302987664937973,1.1482032537460327,-0.49727725982666016
1761505744589766400,4.932766357421875,0.2478218823671341,1.203505039215088,-0.663150429725647
1761505744599802400,4.94280224609375,0.2062552571296692,0.8189051747322083,-0.8252929449081421
1761505744609838600,4.952838623046875,0.13700972497463226,0.07255641371011734,-0.8964961171150208
1761505744619875600,4.96287548828125,0.04653840512037277,-0.7335895895957947,-0.8803999423980713
1761505744629911600,4.97291162109375,-0.039257247000932693,-1.434779167175293,-0.8134888410568237
1761505744639947800,4.98294775390625,-0.10523972660303116,-1.9179799556732178,-0.7248894572257996
1761505744649983700,4.992983642578125,-0.18258078396320343,-2.0653421878814697,-0.6138249635696411
1761505744660019700,5.003019775390625,-0.2556011974811554,-1.9182623624801636,-0.4362981617450714
1761505744670055700,5.0130556640625,-0.2888859212398529,-1.4874510765075684,-0.20951882004737854
1761505744680091600,5.023091552734375,-0.2732510268688202,-0.8110129833221436,-0.0023065158165991306
1761505744690127600,5.033127685546875,-0.21558523178100586,-0.052373722195625305,0.1544118970632553
1761505744700163600,5.04316357421875,-0.14563918113708496,0.625160813331604,0.25137385725975037
1761505744710199600,5.053199462890625,-0.1252993941307068,1.127736210823059,0.29092028737068176
1761505744720235500,5.063235595703125,-0.1356431096792221,1.3908271789550781,0.28318434953689575
1761505744730271500,5.073271484375,-0.14708863198757172,1.421902060508728,0.22763246297836304
1761505744740307500,5.083307373046875,-0.14878453314304352,1.2740540504455566,0.14799755811691284
1761505744750343700,5.09334375,-0.15689407289028168,1.0591472387313843,0.09393852949142456
1761505744760379600,5.103379638671875,-0.17810560762882233,0.8321080803871155,0.10065928846597672
1761505744770415600,5.11341552734375,-0.20409540832042694,0.5944222807884216,0.17691996693611145
1761505744780451600,5.12345166015625,-0.2045516073703766,0.32484856247901917,0.310055673122406
1761505744790487600,5.133487548828125,-0.16736680269241333,0.0957493707537651,0.4676770865917206
1761505744800523500,5.1435234375,-0.09473440051078796,-0.07404126226902008,0.6103269457817078
1761505744810559500,5.1535595703125,-0.03711659461259842,-0.06765373796224594,0.7043771743774414
1761505744820595500,5.163595458984375,-0.011855981312692165,-0.015552982687950134,0.7807409167289734
1761505744830631400,5.17363134765625,0.03306366875767708,-0.01196913979947567,0.8825899362564087
1761505744840667400,5.18366748046875,0.11536785960197449,0.02937563695013523,1.0401670932769775
1761505744850704100,5.1937041015625,0.17997412383556366,0.21984708309173584,1.2380157709121704
1761505744860740000,5.203739990234375,0.1685883104801178,0.48806440830230713,1.434903860092163
1761505744870776000,5.213776123046875,0.05103371664881706,0.6648849844932556,1.544446587562561
1761505744880812300,5.223812255859375,-0.14074663817882538,0.5879449248313904,1.4942675828933716
1761505744890848300,5.23384814453125,-0.30787110328674316,0.38654565811157227,1.2727596759796143
1761505744900884200,5.24388427734375,-0.38579919934272766,0.31858232617378235,0.9103676676750183
1761505744910920200,5.253920166015625,-0.32293522357940674,0.4882347285747528,0.4879918396472931
1761505744920956200,5.2639560546875,-0.1601646989583969,0.7114286422729492,0.09450285881757736
1761505744930992000,5.2739921875,0.0015200618654489517,0.7538394331932068,-0.20237116515636444
1761505744941028000,5.284028076171875,0.10630932450294495,0.5872661471366882,-0.32680922746658325
1761505744951064000,5.29406396484375,0.152960866689682,0.18817980587482452,-0.2717061936855316
1761505744961100000,5.30410009765625,0.15463973581790924,-0.3108302354812622,-0.10843657702207565
1761505744971136000,5.314135986328125,0.14948438107967377,-0.7474982738494873,0.09360095113515854
1761505744981172000,5.324171875,0.1461929827928543,-1.012392520904541,0.24727360904216766
1761505744991208200,5.334208251953125,0.14222034811973572,-1.0929136276245117,0.27831992506980896
1761505745001245200,5.3442451171875,0.13647644221782684,-1.1031745672225952,0.1332237273454666
1761505745011281200,5.35428125,0.15561237931251526,-1.1238176822662354,-0.18616284430027008
1761505745021317000,5.364317138671875,0.17673790454864502,-1.0216857194900513,-0.6162799000740051
1761505745031353300,5.374353271484375,0.19932492077350616,-0.7322967052459717,-1.0677130222320557
1761505745041389300,5.384389404296875,0.23243147134780884,-0.41090402007102966,-1.4397457838058472
1761505745051425300,5.39442529296875,0.31163984537124634,-0.1908201426267624,-1.6929296255111694
1761505745061461200,5.404461181640625,0.42777472734451294,-0.05707141011953354,-1.7949336767196655
1761505745071497200,5.414497314453125,0.5329026579856873,-0.01950906030833721,-1.7493523359298706
1761505745081533200,5.424533203125,0.5825597047805786,-0.051902152597904205,-1.6028326749801636
1761505745091569200,5.434569091796875,0.5638877153396606,-0.10055329650640488,-1.409586787223816
1761505745101605000,5.444605224609375,0.49048885703086853,-0.19014495611190796,-1.2086899280548096
1761505745111641000,5.45464111328125,0.3844544589519501,-0.3190094828605652,-1.0115878582000732
1761505745121677000,5.464677001953125,0.2724597454071045,-0.48397234082221985,-0.8062256574630737
1761505745131713000,5.474713134765625,0.16987232863903046,-0.6441179513931274,-0.620464026927948
1761505745141749200,5.484749267578125,0.05557877942919731,-0.766228437423706,-0.44378137588500977
1761505745151785200,5.49478515625,-0.056709468364715576,-0.8076907396316528,-0.2613678276538849
1761505745161821200,5.5048212890625,-0.15017522871494293,-0.7116931080818176,-0.10232972353696823
1761505745171857200,5.514857177734375,-0.21589022874832153,-0.4339870810508728,-0.02882073074579239
1761505745181893000,5.52489306640625,-0.22259074449539185,0.015043467283248901,-0.03334331139922142
1761505745191929000,5.53492919921875,-0.17500734329223633,0.5350863933563232,-0.08094507455825806
1761505745201965000,5.544965087890625,-0.10143379867076874,0.9808553457260132,-0.13734577596187592
1761505745212001000,5.5550009765625,-0.03531666845083237,1.2408281564712524,-0.17333748936653137
1761505745222037000,5.565037109375,-0.012865418568253517,1.3241018056869507,-0.18171899020671844
1761505745232073000,5.575072998046875,-0.04339541867375374,1.2917252779006958,-0.1553991734981537
1761505745242109200,5.585109130859375,-0.10848041623830795,1.2106752395629883,-0.10906816273927689
1761505745252145200,5.595145263671875,-0.18971598148345947,1.094447374343872,-0.044639527797698975
1761505745262181000,5.60518115234375,-0.24035492539405823,0.8617031574249268,0.03886735066771507
1761505745272217000,5.615217041015625,-0.25942859053611755,0.509640634059906,0.1240028515458107
1761505745282253000,5.625253173828125,-0.2526724338531494,0.16487474739551544,0.2128317952156067
1761505745292289300,5.635289306640625,-0.24667513370513916,-0.040731899440288544,0.30939072370529175
1761505745302325200,5.6453251953125,-0.2352653592824936,-0.09558609127998352,0.41792598366737366
1761505745312361200,5.655361328125,-0.19235806167125702,0.019931064918637276,0.5508445501327515
1761505745322397200,5.665397216796875,-0.13047870993614197,0.24754904210567474,0.7116385102272034
1761505745332433200,5.67543310546875,-0.06617093086242676,0.520762026309967,0.8880831599235535
1761505745342469000,5.68546923828125,-0.030896298587322235,0.5911160707473755,1.0885651111602783
1761505745352505000,5.695505126953125,-0.04361476004123688,0.4034951627254486,1.3060535192489624
1761505745362541300,5.705541259765625,-0.11047634482383728,0.20067891478538513,1.525250792503357
1761505745372577300,5.715577392578125,-0.20224903523921967,0.24159613251686096,1.666909098625183
1761505745382613200,5.72561328125,-0.2808069586753845,0.4930555522441864,1.6571677923202515
1761505745392649200,5.735649169921875,-0.3340308666229248,0.7696594595909119,1.4732842445373535
1761505745402685200,5.745685302734375,-0.3597221374511719,0.928803026676178,1.1816580295562744
1761505745412721200,5.75572119140625,-0.36292776465415955,0.9464078545570374,0.8859376907348633
1761505745422757000,5.765757080078125,-0.33318454027175903,0.7781680226325989,0.6851457357406616
1761505745432793000,5.77579296875,-0.24682773649692535,0.62636798620224,0.5977780222892761
1761505745442829000,5.7858291015625,-0.1097540408372879,0.593407392501831,0.5643108487129211
1761505745452865000,5.795864990234375,0.021282266825437546,0.6636606454849243,0.5071415901184082
1761505745462901000,5.80590087890625,0.09623267501592636,0.6974271535873413,0.38073810935020447
1761505745472937200,5.815937255859375,0.1317366063594818,0.6344330906867981,0.16955532133579254
1761505745482973200,5.82597314453125,0.17068800330162048,0.4362563192844391,-0.08558057993650436
1761505745493009200,5.836009033203125,0.1920769214630127,-0.01936918869614601,-0.33698803186416626
1761505745503046100,5.846046142578125,0.21186180412769318,-0.5304945111274719,-0.5919684171676636
1761505745513082000,5.85608203125,0.2897803783416748,-1.0392061471939087,-0.8514639735221863
1761505745523118300,5.866118408203125,0.44780728220939636,-1.4427653551101685,-1.0976688861846924
1761505745533154300,5.876154296875,0.6207014918327332,-1.5887963771820068,-1.3103957176208496
1761505745543190300,5.886190185546875,0.7341346144676208,-1.4194374084472656,-1.4225184917449951
1761505745553226200,5.896226318359375,0.734238862991333,-0.9535249471664429,-1.391289472579956
1761505745563262200,5.90626220703125,0.6348376870155334,-0.3489067256450653,-1.2913477420806885
1761505745573298200,5.916298095703125,0.4940132796764374,0.23556824028491974,-1.2022796869277954
1761505745583334100,5.926334228515625,0.3472134470939636,0.5847504138946533,-1.1375983953475952
1761505745593370000,5.9363701171875,0.20058566331863403,0.6572293043136597,-1.0716369152069092
1761505745603406000,5.946406005859375,0.0669034942984581,0.5405151844024658,-0.9748014807701111
1761505745613442300,5.9564423828125,0.011324126273393631,0.3291531503200531,-0.8913268446922302
1761505745623478300,5.966478271484375,0.10494887828826904,0.13883090019226074,-0.8194422721862793
1761505745633514200,5.97651416015625,0.2398398518562317,0.14116090536117554,-0.765595555305481
1761505745643550200,5.98655029296875,0.27773717045783997,0.37836703658103943,-0.7645092606544495
1761505745653586200,5.996586181640625,0.18231457471847534,0.7147917747497559,-0.7923020124435425
1761505745663622100,6.0066220703125,0.026147333905100822,0.9855798482894897,-0.7358685731887817
1761505745673658000,6.016658203125,-0.09019919484853745,1.2051219940185547,-0.4608311951160431
1761505745683694000,6.026694091796875,-0.13432644307613373,1.1360970735549927,-0.21805956959724426
1761505745693730000,6.03672998046875,-0.17960450053215027,0.8319712281227112,0.02259463258087635
1761505745703766000,6.04676611328125,-0.21965764462947845,0.4567504823207855,0.20358943939208984
1761505745713802000,6.056802001953125,-0.27190208435058594,0.13892312347888947,0.31016719341278076
1761505745723838200,6.066838134765625,-0.32455116510391235,-0.10537318140268326,0.39098772406578064
1761505745733874200,6.076874267578125,-0.3691045939922333,-0.25887978076934814,0.5308287739753723
