time,seconds_elapsed,z,y,x
1761505739742358300,0.085358154296875,0.3012791574001312,-0.035530030727386475,0.4154416620731354
1761505739752394200,0.095394287109375,0.37373682856559753,0.28684374690055847,0.2790476083755493
1761505739762430200,0.10543017578125,0.41978901624679565,0.4052753150463104,0.22691065073013306
1761505739772466200,0.115466064453125,0.45598962903022766,0.4214950501918793,0.2604347765445709
1761505739782502100,0.125502197265625,0.47805872559547424,0.36089879274368286,0.3546678125858307
1761505739792538000,0.1355380859375,0.48882293701171875,0.23339304327964783,0.4883478283882141
1761505739802574000,0.145573974609375,0.4979993999004364,0.0855196937918663,0.6564031839370728
1761505739812610300,0.1556103515625,0.49066904187202454,-0.017787786200642586,0.874498724937439
1761505739822646300,0.165646240234375,0.4724258780479431,-0.0015417039394378662,1.061941385269165
1761505739832682500,0.1756826171875,0.44732797145843506,0.004642955027520657,1.1089080572128296
1761505739842718500,0.185718505859375,0.416960746049881,-0.12013626098632812,0.9805306196212769
1761505739852753200,0.195753173828125,0.3840635120868683,-0.34126970171928406,0.7718080282211304
1761505739862789000,0.2057890625,0.32834592461586,-0.584587574005127,0.5898784399032593
1761505739872825000,0.2158251953125,0.2449474334716797,-0.7834524512290955,0.4866090714931488
1761505739882861000,0.225861083984375,0.14987897872924805,-0.9894192218780518,0.4498768746852875
1761505739892897000,0.23589697265625,0.052554819732904434,-1.2090815305709839,0.42191368341445923
1761505739902933200,0.245933349609375,-0.06664906442165375,-1.3237910270690918,0.3622857928276062
1761505739912969200,0.25596923828125,-0.1780717372894287,-1.3466148376464844,0.24563905596733093
1761505739923005400,0.26600537109375,-0.24768435955047607,-1.2068111896514893,0.12797075510025024
1761505739933042200,0.276042236328125,-0.27878662943840027,-0.8323051929473877,0.05146292597055435
1761505739943078400,0.286078369140625,-0.2689249515533447,-0.43805378675460815,0.003819771809503436
1761505739953114400,0.2961142578125,-0.17879131436347961,-0.22873197495937347,-0.04423057660460472
1761505739963150300,0.306150390625,-0.07318499684333801,-0.2760334610939026,-0.11369913816452026
1761505739973186300,0.316186279296875,-0.0110457269474864,-0.4575459957122803,-0.20785972476005554
1761505739983222300,0.32622216796875,-0.042689140886068344,-0.7221797704696655,-0.3092276155948639
1761505739993258200,0.33625830078125,-0.14422695338726044,-0.9261419773101807,-0.37544313073158264
1761505740003294200,0.346294189453125,-0.28076109290122986,-0.9814523458480835,-0.3808504045009613
1761505740013330200,0.356330078125,-0.41917356848716736,-0.9320456385612488,-0.32784897089004517
1761505740023366100,0.3663662109375,-0.5315341949462891,-0.8812690377235413,-0.27001842856407166
1761505740033402000,0.376402099609375,-0.6613805890083313,-0.7849571108818054,-0.2487376481294632
1761505740043438000,0.38643798828125,-0.7077787518501282,-0.7464497089385986,-0.30430343747138977
1761505740053474300,0.396474365234375,-0.5982788801193237,-0.832269012928009,-0.45225775241851807
1761505740063510300,0.40651025390625,-0.37796247005462646,-1.011691689491272,-0.6700920462608337
1761505740073546200,0.416546142578125,-0.15176795423030853,-1.2669967412948608,-0.8571130633354187
1761505740083582200,0.426582275390625,0.03259602561593056,-1.4651095867156982,-0.8944900035858154
1761505740093618200,0.4366181640625,0.15895769000053406,-1.4128082990646362,-0.7759820222854614
1761505740103654100,0.446654052734375,0.20250703394412994,-1.2059853076934814,-0.5770540237426758
1761505740113690000,0.456690185546875,0.15391020476818085,-0.7578331232070923,-0.3796818256378174
1761505740123726000,0.46672607421875,0.03575799614191055,-0.09223432093858719,-0.2642478942871094
1761505740133763300,0.476763427734375,-0.08367891609668732,0.610666036605835,-0.2840633988380432
1761505740143799300,0.48679931640625,-0.13510668277740479,1.2648565769195557,-0.46205976605415344
1761505740153835300,0.496835205078125,-0.13062351942062378,1.6876102685928345,-0.7254517078399658
1761505740163871200,0.506871337890625,-0.1321018487215042,1.8308219909667969,-0.978351354598999
1761505740173907200,0.5169072265625,-0.15917767584323883,1.824215292930603,-1.1222771406173706
1761505740183943200,0.526943115234375,-0.22725339233875275,1.756693959236145,-1.0938504934310913
1761505740193979100,0.536979248046875,-0.3259325623512268,1.6785070896148682,-0.9364728927612305
1761505740204015400,0.547015380859375,-0.3721730411052704,1.5895335674285889,-0.7116246223449707
1761505740214051300,0.55705126953125,-0.3207082450389862,1.4638919830322266,-0.469935804605484
1761505740224087300,0.56708740234375,-0.18437889218330383,1.3457032442092896,-0.24886707961559296
1761505740234123300,0.577123291015625,-0.037215810269117355,1.249356746673584,-0.05807901546359062
1761505740244159200,0.5871591796875,0.10186457633972168,1.111865758895874,0.09079674631357193
1761505740254195200,0.5971953125,0.2752811014652252,0.920665979385376,0.2208988219499588
1761505740264231200,0.607231201171875,0.428989440202713,0.703839123249054,0.34085237979888916
1761505740274267100,0.61726708984375,0.4833272397518158,0.5492796301841736,0.48319995403289795
1761505740284303000,0.62730322265625,0.4297918379306793,0.4857728183269501,0.6529884338378906
1761505740294339000,0.637339111328125,0.315869003534317,0.4852535128593445,0.8270694613456726
1761505740304375300,0.647375244140625,0.19720761477947235,0.4994862377643585,0.9833096265792847
1761505740314411300,0.657411376953125,0.1070963591337204,0.5262606143951416,1.0889321565628052
1761505740324448300,0.6674482421875,0.07580368220806122,0.4530830681324005,1.115157127380371
1761505740334484200,0.677484130859375,0.08778098225593567,0.24466753005981445,1.0475696325302124
1761505740344520400,0.6875205078125,0.10443905740976334,-0.005576126743108034,0.8804756999015808
1761505740354556400,0.697556396484375,0.04753715917468071,-0.12187317758798599,0.6727498769760132
1761505740364592400,0.70759228515625,-0.16833095252513885,-0.1174912080168724,0.499149888753891
1761505740374628400,0.71762841796875,-0.4673674702644348,0.03518328815698624,0.33559396862983704
1761505740384664300,0.727664306640625,-0.6560177803039551,0.28612202405929565,0.15767031908035278
1761505740394700300,0.7377001953125,-0.5310508012771606,0.5296670794487,0.019115371629595757
1761505740404736300,0.747736328125,-0.06789489090442657,0.6575022339820862,-0.0377335287630558
1761505740414772200,0.757772216796875,0.5368536114692688,0.37604421377182007,0.050033338367938995
1761505740424808200,0.76780810546875,1.0167882442474365,-0.17403970658779144,0.2983339726924896
1761505740434844200,0.77784423828125,1.2054239511489868,-0.46166056394577026,0.5370173454284668
1761505740444880100,0.787880126953125,1.1069514751434326,-0.42406073212623596,0.5831267833709717
1761505740454916400,0.797916259765625,0.884285032749176,-0.26101961731910706,0.3605605959892273
1761505740464952300,0.807952392578125,0.6514052152633667,-0.14072541892528534,-0.07620448619127274
1761505740474988300,0.81798828125,0.39886295795440674,-0.0612734779715538,-0.5220711827278137
1761505740485024300,0.828024169921875,0.0899948701262474,-0.013699034228920937,-0.8348323106765747
1761505740495060200,0.838060302734375,-0.2523861825466156,0.0263674259185791,-0.9333907961845398
1761505740505097200,0.84809716796875,-0.5431095957756042,0.13968120515346527,-0.8625392913818359
1761505740515133200,0.85813330078125,-0.7494210004806519,0.2964361906051636,-0.7387603521347046
1761505740525169200,0.868169189453125,-0.8524717092514038,0.4964619576931,-0.6176192760467529
1761505740535205000,0.878205078125,-0.8352267146110535,0.7941524982452393,-0.5737729668617249
1761505740545241000,0.888240966796875,-0.6145949959754944,0.9436929821968079,-0.6653037071228027
1761505740555277000,0.898277099609375,-0.24618899822235107,0.8003251552581787,-0.8398765921592712
1761505740565313300,0.908313232421875,0.11704219877719879,0.5058450698852539,-0.9686878323554993
1761505740575349200,0.918349365234375,0.3746015727519989,0.13397911190986633,-0.9637247323989868
1761505740585385200,0.92838525390625,0.49307122826576233,-0.2550104558467865,-0.8190421462059021
1761505740595421400,0.93842138671875,0.5129120349884033,-0.5407178401947021,-0.6161060929298401
1761505740605457400,0.94845751953125,0.48897209763526917,-0.7842229008674622,-0.43597304821014404
1761505740615493400,0.958493408203125,0.4635748565196991,-1.013093113899231,-0.2925961911678314
1761505740625529300,0.968529296875,0.4629170596599579,-1.2219704389572144,-0.16812242567539215
1761505740635565300,0.9785654296875,0.4755702614784241,-1.3499963283538818,-0.028012193739414215
1761505740645601300,0.988601318359375,0.44771331548690796,-1.3144105672836304,0.13068744540214539
1761505740655637200,0.99863720703125,0.3432233929634094,-1.0366716384887695,0.2591269016265869
1761505740665673200,1.008673095703125,0.1993570476770401,-0.5588228106498718,0.3045591115951538
1761505740675710200,1.018710205078125,0.0668858215212822,-0.0349649079144001,0.2701185643672943
1761505740685746200,1.02874609375,-0.06399975717067719,0.38445737957954407,0.15715819597244263
1761505740695782100,1.0387822265625,-0.19793784618377686,0.6534185409545898,-0.002641589380800724
1761505740705818000,1.048818115234375,-0.30979007482528687,0.8103677034378052,-0.14861184358596802
1761505740715854000,1.05885400390625,-0.3943880498409271,0.8550336956977844,-0.22835567593574524
1761505740725890000,1.06889013671875,-0.44454362988471985,0.8542240858078003,-0.2374277263879776
1761505740735926300,1.07892626953125,-0.45354965329170227,0.8474538326263428,-0.18466386198997498
1761505740745962200,1.088962158203125,-0.43423187732696533,0.8327526450157166,-0.09666848927736282
1761505740755998200,1.098998291015625,-0.39350414276123047,0.8289469480514526,0.00782809592783451
1761505740766034200,1.1090341796875,-0.33241602778434753,0.8529875874519348,0.10490883886814117
1761505740776070100,1.119070068359375,-0.2702866196632385,0.8669851422309875,0.19033266603946686
1761505740786106000,1.129106201171875,-0.20379520952701569,0.8236611485481262,0.26585936546325684
1761505740796142300,1.139142333984375,-0.14700809121131897,0.6822853684425354,0.3598862588405609
1761505740806178300,1.14917822265625,-0.09439228475093842,0.4755135476589203,0.4818270802497864
1761505740816214300,1.15921435546875,-0.04809669032692909,0.26626017689704895,0.6132077574729919
1761505740826250200,1.169250244140625,-0.00024980452144518495,0.0832781121134758,0.7145796418190002
1761505740836286200,1.1792861328125,0.06101328507065773,-0.02394554577767849,0.7656353712081909
1761505740846324200,1.18932421875,0.10620260238647461,-0.05775224417448044,0.7689307928085327
1761505740856360200,1.199360107421875,0.11429115384817123,-0.13426938652992249,0.7330068349838257
1761505740866396200,1.209396240234375,0.10684282332658768,-0.4251614212989807,0.7256764769554138
1761505740876432100,1.21943212890625,0.09325271844863892,-0.808437168598175,0.7728543877601624
1761505740886468000,1.229468017578125,0.031241808086633682,-0.9421640634536743,0.7870978116989136
1761505740896504000,1.239504150390625,-0.09617340564727783,-0.713180422782898,0.664681077003479
1761505740906540000,1.2495400390625,-0.24238254129886627,-0.1536145955324173,0.37659788131713867
1761505740916576300,1.259576171875,-0.27457937598228455,0.5482441782951355,-0.022457106038928032
1761505740926612200,1.2696123046875,-0.08746886253356934,0.9534106254577637,-0.3489622473716736
1761505740936648200,1.279648193359375,0.27006983757019043,0.7834101319313049,-0.4443020820617676
1761505740946684200,1.28968408203125,0.6074132323265076,0.16420118510723114,-0.2334444373846054
1761505740956720000,1.29972021484375,0.7626888751983643,-0.717514157295227,0.25783953070640564
1761505740966756400,1.30975634765625,0.7188262939453125,-1.473260760307312,0.8592585325241089
1761505740976792300,1.319792236328125,0.5514429211616516,-1.8454078435897827,1.3029608726501465
1761505740986828300,1.329828369140625,0.31489455699920654,-1.689717411994934,1.4072065353393555
1761505740996864300,1.3398642578125,0.08527388423681259,-1.0757708549499512,1.1139616966247559
1761505741006901200,1.3499013671875,-0.08553114533424377,-0.29425373673439026,0.5639669895172119
1761505741016937200,1.359937255859375,-0.1857174038887024,0.3552561104297638,-0.03790983185172081
1761505741026973200,1.36997314453125,-0.18809880316257477,0.8045276403427124,-0.4921036958694458
1761505741037009200,1.380009033203125,-0.13677622377872467,1.0756081342697144,-0.6954607963562012
1761505741047045000,1.390045166015625,-0.11116726696491241,1.2316349744796753,-0.7191629409790039
1761505741057081300,1.400081298828125,-0.1296250969171524,1.3692845106124878,-0.7155165672302246
1761505741067117300,1.410117431640625,-0.19893813133239746,1.3832604885101318,-0.8159976005554199
1761505741077153300,1.4201533203125,-0.2832311689853668,1.195183277130127,-1.02503502368927
1761505741087189200,1.430189208984375,-0.3555799424648285,0.8204469680786133,-1.2428746223449707
1761505741097225200,1.44022509765625,-0.38911765813827515,0.38666167855262756,-1.3650591373443604
1761505741107261200,1.45026123046875,-0.3808102011680603,-0.08419237285852432,-1.3670070171356201
1761505741117297200,1.460297119140625,-0.3340224623680115,-0.5272542238235474,-1.2413218021392822
1761505741127333000,1.4703330078125,-0.2750435471534729,-0.8766681551933289,-1.026748776435852
1761505741137369000,1.480369140625,-0.22344639897346497,-1.033936858177185,-0.786324143409729
1761505741147405000,1.490405029296875,-0.15590517222881317,-1.0698062181472778,-0.5456441640853882
1761505741157442300,1.5004423828125,-0.043955739587545395,-1.0430587530136108,-0.32803964614868164
1761505741167477200,1.510477294921875,0.11925715208053589,-0.9649724364280701,-0.1640150398015976
1761505741177514200,1.52051416015625,0.307234525680542,-0.8483707308769226,-0.04286197945475578
1761505741187550200,1.53055029296875,0.46137535572052,-0.656099796295166,0.04116421565413475
1761505741197586200,1.540586181640625,0.5203217267990112,-0.37853506207466125,0.10853846371173859
1761505741207622400,1.550622314453125,0.48726844787597656,-0.05640735104680061,0.14024393260478973
1761505741217658400,1.560658447265625,0.41738179326057434,0.23271766304969788,0.10370934754610062
1761505741227694300,1.5706943359375,0.3589610755443573,0.4661663770675659,-0.003371029393747449
1761505741237730300,1.580730224609375,0.3084406554698944,0.6024195551872253,-0.15247155725955963
1761505741247766300,1.590766357421875,0.24849183857440948,0.5644902586936951,-0.2866935431957245
1761505741257802200,1.60080224609375,0.19022640585899353,0.4751553535461426,-0.35175269842147827
1761505741267838200,1.610838134765625,0.14385490119457245,0.4674782454967499,-0.33735671639442444
1761505741277874200,1.620874267578125,0.1178336888551712,0.49510908126831055,-0.24492399394512177
1761505741287910100,1.63091015625,0.14419259130954742,0.4570900499820709,-0.10245873034000397
1761505741297946000,1.640946044921875,0.2069782167673111,0.3680150508880615,0.07069867104291916
1761505741307982000,1.650982177734375,0.27471545338630676,0.25103381276130676,0.25809812545776367
1761505741318018300,1.661018310546875,0.3161872625350952,0.1467130035161972,0.4431438744068146
1761505741328055000,1.671054931640625,0.3251860737800598,0.03682272881269455,0.5937853455543518
1761505741338091000,1.681091064453125,0.275070458650589,-0.14002127945423126,0.7097800970077515
1761505741348127200,1.691127197265625,0.17790980637073517,-0.34763121604919434,0.8054285645484924
1761505741358163200,1.7011630859375,0.05831257626414299,-0.49838128685951233,0.8981130123138428
1761505741368199200,1.71119921875,-0.049612559378147125,-0.4979458749294281,0.9809969663619995
1761505741378235400,1.7212353515625,-0.12651240825653076,-0.49405205249786377,1.0366504192352295
1761505741388271400,1.731271240234375,-0.21904127299785614,-0.468178391456604,1.0487337112426758
1761505741398307300,1.741307373046875,-0.35947054624557495,-0.3409874141216278,0.9932038187980652
1761505741408343300,1.75134326171875,-0.557682991027832,-0.032400816679000854,0.856257975101471
1761505741418379300,1.761379150390625,-0.6978241205215454,0.40479809045791626,0.5741649866104126
1761505741428415200,1.771415283203125,-0.6909235715866089,0.6826262474060059,0.16545873880386353
1761505741438451200,1.781451171875,-0.5245963931083679,0.7071890830993652,-0.22567413747310638
1761505741448487200,1.791487060546875,-0.26444655656814575,0.5746771097183228,-0.4225155711174011
1761505741458523400,1.8015234375,-0.024998027831315994,0.22425733506679535,-0.3460620641708374
1761505741468559400,1.811559326171875,0.1327572464942932,-0.3108185827732086,-0.005966546013951302
1761505741478595300,1.82159521484375,0.19192735850811005,-0.8579496145248413,0.4701786935329437
1761505741488632300,1.83163232421875,0.18094635009765625,-1.267281174659729,0.8545631170272827
1761505741498668300,1.841668212890625,0.12732866406440735,-1.4153352975845337,0.9298027157783508
1761505741508704300,1.851704345703125,0.07911133021116257,-1.4137142896652222,0.6650802493095398
1761505741518740200,1.861740234375,0.04649373143911362,-1.3418697118759155,0.17876708507537842
1761505741528776200,1.871776123046875,-0.01883813552558422,-1.3825891017913818,-0.3381596803665161
1761505741538812200,1.881812255859375,-0.10176257789134979,-1.5295345783233643,-0.7142864465713501
1761505741548848000,1.89184814453125,-0.18920613825321198,-1.551522970199585,-0.8974586725234985
1761505741558884000,1.901884033203125,-0.3142316937446594,-1.3153475522994995,-0.9124927520751953
1761505741568920000,1.911920166015625,-0.47300511598587036,-0.9341322183609009,-0.8656826019287109
1761505741578956000,1.9219560546875,-0.5837255120277405,-0.454281747341156,-0.8602665662765503
1761505741588992000,1.931991943359375,-0.6281771063804626,-0.047685496509075165,-0.9020240902900696
1761505741599028200,1.9420283203125,-0.6058979034423828,0.20608818531036377,-0.9613707661628723
1761505741609064400,1.952064453125,-0.5201510190963745,0.3555522561073303,-1.0095311403274536
1761505741619100400,1.962100341796875,-0.39107561111450195,0.32912489771842957,-1.012428641319275
1761505741629136400,1.972136474609375,-0.24705559015274048,0.11206474900245667,-0.9547797441482544
1761505741639172400,1.98217236328125,-0.15701784193515778,-0.1551823914051056,-0.8579133749008179
1761505741649209300,1.992209228515625,-0.1313857138156891,-0.33550742268562317,-0.7433550953865051
1761505741659245300,2.002245361328125,-0.14918096363544464,-0.3732058107852936,-0.6372057795524597
1761505741669281300,2.01228125,-0.17881661653518677,-0.2841244041919708,-0.5595847368240356
1761505741679317200,2.022317138671875,-0.17957454919815063,-0.11368794739246368,-0.5010993480682373
1761505741689353200,2.032353271484375,-0.14379870891571045,0.03128228709101677,-0.46360814571380615
1761505741699389200,2.04238916015625,-0.07805432379245758,0.09405618906021118,-0.44157686829566956
1761505741709425200,2.052425048828125,0.0022149509750306606,0.04718455672264099,-0.4172329306602478
1761505741719461000,2.062461181640625,0.04704394191503525,0.0362408272922039,-0.38583558797836304
1761505741729497000,2.0724970703125,0.05680522695183754,0.1606362760066986,-0.34289610385894775
1761505741739533300,2.082533203125,0.07067842781543732,0.27965855598449707,-0.24373090267181396
1761505741749569300,2.0925693359375,0.09359785914421082,0.36734870076179504,-0.07372428476810455
1761505741759605200,2.102605224609375,0.12544341385364532,0.4445100724697113,0.1549544334411621
1761505741769641200,2.11264111328125,0.15341804921627045,0.5102014541625977,0.3912985324859619
1761505741779677200,2.12267724609375,0.16411755979061127,0.5145171284675598,0.5707444548606873
1761505741789713200,2.132713134765625,0.15640266239643097,0.47293320298194885,0.6610719561576843
1761505741799749000,2.1427490234375,0.14965926110744476,0.39643630385398865,0.6539714336395264
1761505741809785000,2.15278515625,0.16027063131332397,0.21699117124080658,0.576306164264679
1761505741819821000,2.162821044921875,0.17917001247406006,-0.006502906791865826,0.4666755795478821
1761505741829858300,2.1728583984375,0.16529281437397003,-0.1717267483472824,0.3914119601249695
1761505741839894300,2.182894287109375,0.11358674615621567,-0.2514045238494873,0.40461617708206177
1761505741849929700,2.1929296875,0.03910825401544571,-0.29785698652267456,0.5246856212615967
1761505741859965700,2.202965576171875,-0.03882143273949623,-0.2980617880821228,0.7262160778045654
1761505741870002000,2.213001953125,-0.10122568905353546,-0.15467000007629395,0.937624990940094
1761505741880038000,2.223037841796875,-0.15249820053577423,0.09585249423980713,1.0942076444625854
1761505741890073900,2.233073974609375,-0.210666686296463,0.2763809859752655,1.103809118270874
1761505741900109800,2.24310986328125,-0.24823004007339478,0.44412338733673096,0.9279531836509705
1761505741910145800,2.253145751953125,-0.23409105837345123,0.7623061537742615,0.6643779873847961
1761505741920181800,2.263181640625,-0.18587292730808258,1.134721279144287,0.43402841687202454
1761505741930217700,2.2732177734375,-0.12037540972232819,1.3298503160476685,0.33991894125938416
1761505741940253700,2.283253662109375,-0.027295537292957306,1.2549850940704346,0.39792126417160034
1761505741950289700,2.29328955078125,0.08513034135103226,0.8933573961257935,0.5549606680870056
1761505741960325600,2.30332568359375,0.1948339343070984,0.320576936006546,0.741569995880127
1761505741970361600,2.313361572265625,0.26757046580314636,-0.2645008862018585,0.877557098865509
1761505741980397800,2.323397705078125,0.29068776965141296,-0.7051898837089539,0.9219557642936707
1761505741990433800,2.333433837890625,0.26510757207870483,-0.9883438348770142,0.8489534258842468
1761505742000470800,2.343470703125,0.23265162110328674,-1.0341187715530396,0.6447939276695251
1761505742010506800,2.3535068359375,0.17808744311332703,-0.9240013360977173,0.3757334053516388
1761505742020543000,2.36354296875,0.11252254992723465,-0.6737706661224365,0.0979505330324173
1761505742030579000,2.373578857421875,0.0769035667181015,-0.3881448209285736,-0.18862424790859222
1761505742040615000,2.383614990234375,0.11069802194833755,-0.23956865072250366,-0.4695126414299011
1761505742050651000,2.39365087890625,0.17325061559677124,-0.21558955311775208,-0.7187346816062927
1761505742060686800,2.403686767578125,0.17209400236606598,-0.20256881415843964,-0.9074612259864807
1761505742070722800,2.413722900390625,0.094218909740448,-0.23182711005210876,-1.0326426029205322
1761505742080758800,2.4237587890625,0.01152695994824171,-0.28395500779151917,-1.0492178201675415
1761505742090794800,2.433794677734375,-0.027269437909126282,-0.2646425664424896,-1.0084210634231567
1761505742100830700,2.443830810546875,-0.04433417320251465,-0.29842451214790344,-0.9559645652770996
1761505742110866700,2.45386669921875,-0.03347913175821304,-0.4457774758338928,-0.9047421216964722
1761505742120902700,2.463902587890625,-0.018262892961502075,-0.6399863958358765,-0.8384451270103455
1761505742130939000,2.47393896484375,-0.022469623014330864,-0.8043166995048523,-0.7630715370178223
1761505742140974800,2.483974853515625,-0.07939575612545013,-0.8934165239334106,-0.6668837666511536
1761505742151010800,2.4940107421875,-0.16889262199401855,-0.8697468638420105,-0.5714786648750305
1761505742161046800,2.504046875,-0.26190245151519775,-0.7104597091674805,-0.4828811585903168
1761505742171082800,2.514082763671875,-0.32666918635368347,-0.44877541065216064,-0.40648359060287476
1761505742181119700,2.52411962890625,-0.3556917905807495,-0.15478505194187164,-0.3532496690750122
1761505742191155700,2.53415576171875,-0.36404746770858765,0.1731368899345398,-0.3283909261226654
1761505742201191700,2.544191650390625,-0.3499188721179962,0.47580647468566895,-0.3149550259113312
1761505742211227600,2.5542275390625,-0.3032599985599518,0.7618693709373474,-0.3080134987831116
1761505742221264000,2.564263916015625,-0.2398938238620758,0.972289502620697,-0.2994610071182251
1761505742231299800,2.5742998046875,-0.19419531524181366,1.070543646812439,-0.28171876072883606
1761505742241335800,2.584335693359375,-0.15981736779212952,1.1260234117507935,-0.2785432040691376
1761505742251371800,2.594371826171875,-0.1582074761390686,1.1542867422103882,-0.29442283511161804
1761505742261407700,2.60440771484375,-0.19483287632465363,1.1567213535308838,-0.29823195934295654
1761505742271444000,2.61444384765625,-0.24637915194034576,1.1104178428649902,-0.2552988827228546
1761505742281480000,2.62447998046875,-0.28104445338249207,1.03819739818573,-0.18366223573684692
1761505742291516000,2.634515869140625,-0.27668672800064087,0.9440407752990723,-0.08154572546482086
1761505742301551900,2.6445517578125,-0.22680598497390747,0.8211154341697693,0.017421334981918335
1761505742311587800,2.654587890625,-0.11120135337114334,0.6071993708610535,0.09354113787412643
1761505742321623800,2.664623779296875,0.05019605904817581,0.315273255109787,0.16523955762386322
1761505742331659800,2.67465966796875,0.20220476388931274,0.03952930122613907,0.251984566450119
1761505742341695700,2.68469580078125,0.30765262246131897,-0.17511668801307678,0.3411882221698761
1761505742351731700,2.694731689453125,0.3554720878601074,-0.24301691353321075,0.43490085005760193
1761505742361767700,2.704767578125,0.3267935514450073,-0.15680186450481415,0.5230005979537964
1761505742371803600,2.7148037109375,0.21859759092330933,0.04144597798585892,0.5955246090888977
1761505742381840600,2.724840576171875,0.05973949655890465,0.3047045171260834,0.6706297397613525
1761505742391876600,2.734876708984375,-0.16362860798835754,0.5406643152236938,0.8004628419876099
1761505742401912600,2.74491259765625,-0.3881818354129791,0.6726532578468323,0.9623124599456787
1761505742411948800,2.75494873046875,-0.5724251866340637,0.7019376158714294,1.129794716835022
1761505742421984800,2.76498486328125,-0.6774935126304626,0.8232802748680115,1.2396225929260254
1761505742432020700,2.775020751953125,-0.6993681788444519,1.1338815689086914,1.1894638538360596
1761505742442056700,2.785056640625,-0.637045681476593,1.327948808670044,0.9442192316055298
1761505742452093000,2.795093017578125,-0.5232056975364685,1.291860580444336,0.5769211053848267
1761505742462129000,2.80512890625,-0.42577341198921204,1.088257908821106,0.24520070850849152
1761505742472164900,2.815164794921875,-0.3828278183937073,0.7139894962310791,0.02070501260459423
1761505742482200800,2.825200927734375,-0.36041703820228577,0.34779950976371765,-0.12141617387533188
1761505742492236800,2.83523681640625,-0.301745742559433,0.024119984358549118,-0.22523418068885803
1761505742502272800,2.845272705078125,-0.20673693716526031,-0.4529168903827667,-0.3160666227340698
1761505742512308700,2.855308837890625,-0.08003970980644226,-1.0502681732177734,-0.39255765080451965
1761505742522344700,2.8653447265625,0.052386775612831116,-1.6277743577957153,-0.4336097538471222
1761505742532381000,2.875380859375,0.17143486440181732,-2.0795834064483643,-0.4145157039165497
1761505742542417000,2.8854169921875,0.258487731218338,-2.2631752490997314,-0.33169564604759216
1761505742552452900,2.895452880859375,0.30644968152046204,-2.1466755867004395,-0.20665037631988525
1761505742562488800,2.90548876953125,0.32520392537117004,-1.7655596733093262,-0.12244389206171036
1761505742572524800,2.91552490234375,0.3229711353778839,-1.2411723136901855,-0.12430064380168915
1761505742582560800,2.925560791015625,0.2987041473388672,-0.6437931060791016,-0.21934832632541656
1761505742592597800,2.93559765625,0.2370293289422989,-0.11141574382781982,-0.407282292842865
1761505742602633700,2.9456337890625,0.1168091744184494,0.2941325604915619,-0.6482037901878357
1761505742612669700,2.955669677734375,-0.024520521983504295,0.6061192154884338,-0.910135805606842
1761505742622705700,2.96570556640625,-0.19440676271915436,0.7004625201225281,-1.169467806816101
1761505742632741600,2.97574169921875,-0.3772125244140625,0.42684826254844666,-1.3199478387832642
1761505742642777600,2.985777587890625,-0.5107932090759277,-0.005100485868752003,-1.3233287334442139
1761505742652813600,2.9958134765625,-0.5734637975692749,-0.3417765200138092,-1.1844475269317627
1761505742662849800,3.005849853515625,-0.5490441918373108,-0.5253798961639404,-0.9539019465446472
1761505742672885800,3.0158857421875,-0.43952676653862,-0.5723833441734314,-0.6896287798881531
1761505742682922000,3.025921875,-0.2941759526729584,-0.5045174956321716,-0.44401127099990845
1761505742692958000,3.0359580078125,-0.13176415860652924,-0.38311222195625305,-0.24597887694835663
1761505742702994000,3.045993896484375,0.025766883045434952,-0.23864586651325226,-0.1026504784822464
1761505742713030000,3.05602978515625,0.16864493489265442,-0.06150384247303009,-0.010448113083839417
1761505742723065900,3.06606591796875,0.26037564873695374,0.08978927135467529,0.05603610351681709
1761505742733101800,3.076101806640625,0.2838471531867981,0.16076970100402832,0.12377786636352539
1761505742743137800,3.0861376953125,0.2532714009284973,0.15033917129039764,0.22148151695728302
1761505742753173800,3.096173828125,0.19522781670093536,0.10024511069059372,0.3547716736793518
1761505742763209700,3.106209716796875,0.10094872117042542,0.1279771327972412,0.5141964554786682
1761505742773245700,3.11624560546875,0.012989035807549953,0.23590999841690063,0.6672872304916382
1761505742783282000,3.126281982421875,-0.04308035969734192,0.37198367714881897,0.7638212442398071
1761505742793318000,3.13631787109375,-0.042756516486406326,0.5060767531394958,0.7693403363227844
1761505742803353900,3.146353759765625,-0.00003355582884978503,0.6035005450248718,0.704667329788208
1761505742813389800,3.156389892578125,0.05534235015511513,0.6506779193878174,0.6208356022834778
1761505742823426800,3.1664267578125,0.10124033689498901,0.6183766722679138,0.5437825918197632
1761505742833462800,3.176462890625,0.1276991069316864,0.49885988235473633,0.48177701234817505
1761505742843498800,3.186498779296875,0.12263564020395279,0.3502269983291626,0.43377408385276794
1761505742853534500,3.196534423828125,0.06404236704111099,0.13302916288375854,0.4614296853542328
1761505742863570400,3.2065703125,-0.055268049240112305,-0.16529256105422974,0.6285009384155273
1761505742873606400,3.2166064453125,-0.2147866040468216,-0.32427528500556946,0.8901346921920776
1761505742883642400,3.226642333984375,-0.4279992878437042,-0.40894168615341187,1.1282691955566406
1761505742893678300,3.23667822265625,-0.6393136382102966,-0.4950542151927948,1.226629376411438
1761505742903714300,3.24671435546875,-0.7859105467796326,-0.44935914874076843,1.1494858264923096
1761505742913750500,3.25675048828125,-0.8838824033737183,-0.2813323438167572,0.885915994644165
1761505742923786500,3.266786376953125,-0.904373288154602,0.0129323098808527,0.5213087201118469
1761505742933822500,3.276822509765625,-0.7856900691986084,0.5737090706825256,0.15177461504936218
1761505742943858400,3.2868583984375,-0.5478489995002747,1.1079434156417847,-0.10876350104808807
1761505742953894400,3.296894287109375,-0.28086602687835693,1.3395987749099731,-0.20447750389575958
1761505742963930400,3.306930419921875,-0.06561176478862762,1.1811721324920654,-0.17602668702602386
1761505742973966300,3.31696630859375,0.03821449726819992,0.7377403378486633,-0.13316710293293
1761505742984002600,3.32700244140625,0.047753408551216125,0.19360461831092834,-0.1156163439154625
1761505742994038500,3.33703857421875,0.025551432743668556,-0.2526399791240692,-0.1540830433368683
1761505743004074500,3.347074462890625,0.006904244888573885,-0.5698200464248657,-0.2284448891878128
1761505743014110500,3.3571103515625,-0.01798246242105961,-0.760260283946991,-0.3079192042350769
1761505743024146400,3.367146484375,-0.04290245845913887,-0.9079216718673706,-0.41883614659309387
1761505743034182700,3.3771826171875,-0.029808495193719864,-1.0468238592147827,-0.543114960193634
1761505743044218600,3.387218505859375,0.034573689103126526,-1.1687021255493164,-0.6767129302024841
1761505743054254600,3.397254638671875,0.11541953682899475,-1.2831357717514038,-0.809561550617218
1761505743064291600,3.40729150390625,0.1573030650615692,-1.2114274501800537,-0.8916758894920349
1761505743074327600,3.41732763671875,0.15027178823947906,-0.9911289215087891,-0.948383092880249
1761505743084363500,3.427363525390625,0.1404162347316742,-0.7503594756126404,-0.9950531125068665
1761505743094399500,3.4373994140625,0.15483884513378143,-0.5028490424156189,-1.0013600587844849
1761505743104435500,3.447435546875,0.18774087727069855,-0.16371063888072968,-0.9460799694061279
1761505743114471400,3.457471435546875,0.20636382699012756,0.15630118548870087,-0.8440055251121521
1761505743124507400,3.46750732421875,0.21578554809093475,0.38536927103996277,-0.7364013195037842
1761505743134543400,3.47754345703125,0.21350322663784027,0.578239381313324,-0.6554726362228394
1761505743144579300,3.487579345703125,0.21717599034309387,0.6940016746520996,-0.6064617037773132
1761505743154615300,3.497615234375,0.2537457346916199,0.6669149398803711,-0.5335257053375244
1761505743164651500,3.507651611328125,0.3370789587497711,0.5606332421302795,-0.4446704089641571
1761505743174687500,3.5176875,0.46460843086242676,0.450210839509964,-0.35597676038742065
1761505743184723500,3.527723388671875,0.603190541267395,0.33685553073883057,-0.2576432526111603
1761505743194759400,3.537759521484375,0.6849762201309204,0.30302324891090393,-0.13954617083072662
1761505743204795400,3.54779541015625,0.6830635070800781,0.4237605929374695,-0.022250443696975708
1761505743214831600,3.55783154296875,0.6151207089424133,0.5861995816230774,0.07256820797920227
1761505743224867600,3.56786767578125,0.524291455745697,0.694434404373169,0.13287974894046783
1761505743234903600,3.577903564453125,0.450956255197525,0.7266605496406555,0.1533975452184677
1761505743244939500,3.587939453125,0.40584418177604675,0.6266021132469177,0.1577984243631363
1761505743254975500,3.5979755859375,0.3531000018119812,0.4658779501914978,0.16660602390766144
1761505743265011500,3.608011474609375,0.27096012234687805,0.3863019049167633,0.19027459621429443
1761505743275047400,3.61804736328125,0.19760628044605255,0.4542117118835449,0.22504030168056488
1761505743285083600,3.628083740234375,0.13273780047893524,0.5651134848594666,0.26091280579566956
1761505743295119600,3.63811962890625,0.07619357109069824,0.6886585354804993,0.29803621768951416
1761505743305155600,3.648155517578125,0.042210571467876434,0.787363588809967,0.32013192772865295
1761505743315191600,3.658191650390625,0.03424479067325592,0.7936728596687317,0.3306511640548706
1761505743325227500,3.6682275390625,0.04105635732412338,0.6505836248397827,0.3368152976036072
1761505743335263500,3.678263427734375,0.07291415333747864,0.37435388565063477,0.35086214542388916
1761505743345300500,3.688300537109375,0.12184787541627884,0.011624698527157307,0.3560667634010315
1761505743355336400,3.69833642578125,0.15760241448879242,-0.3456950783729553,0.3949635624885559
1761505743365372400,3.708372314453125,0.18204942345619202,-0.588992178440094,0.5049739480018616
1761505743375408400,3.718408447265625,0.1425321102142334,-0.6468671560287476,0.6608141660690308
1761505743385444400,3.7284443359375,0.004269313532859087,-0.523915708065033,0.7818031311035156
1761505743395480300,3.738480224609375,-0.18094608187675476,-0.30031827092170715,0.784826397895813
1761505743405516300,3.748516357421875,-0.38226667046546936,-0.10196232050657272,0.6930583715438843
1761505743415552300,3.75855224609375,-0.600867748260498,0.06909465044736862,0.6110058426856995
1761505743425588500,3.76858837890625,-0.7490848898887634,0.5167421698570251,0.56291663646698
1761505743435624400,3.77862451171875,-0.7527629733085632,1.0970503091812134,0.4881582260131836
1761505743445660700,3.78866064453125,-0.5874792337417603,1.4290506839752197,0.3816746473312378
1761505743455696600,3.798696533203125,-0.2885100841522217,1.3123102188110352,0.29437384009361267
1761505743465732600,3.808732666015625,-0.00552339619025588,0.9203482270240784,0.3027433454990387
1761505743475768600,3.8187685546875,0.1455414891242981,0.5242770910263062,0.4197043180465698
1761505743485804500,3.828804443359375,0.1644509881734848,0.13043230772018433,0.5816783308982849
1761505743495840500,3.838840576171875,0.1728692501783371,-0.211410254240036,0.720946729183197
1761505743505876500,3.84887646484375,0.2490990310907364,-0.5240062475204468,0.7337772846221924
1761505743515912400,3.858912353515625,0.3542576730251312,-1.0442084074020386,0.5610478520393372
1761505743525948400,3.868948486328125,0.45067423582077026,-1.5522288084030151,0.21792779862880707
1761505743535984600,3.878984619140625,0.5166788101196289,-1.8690317869186401,-0.22662141919136047
1761505743546020600,3.8890205078125,0.516814649105072,-1.8225712776184082,-0.6464807391166687
1761505743556056600,3.899056640625,0.46342596411705017,-1.3639256954193115,-0.9268221259117126
1761505743566092500,3.909092529296875,0.36964115500450134,-0.6546555757522583,-1.009938359260559
1761505743576128500,3.91912841796875,0.2648862600326538,0.09861685335636139,-0.9510267972946167
1761505743586164500,3.92916455078125,0.16857223212718964,0.6635249853134155,-0.8438260555267334
1761505743596200400,3.939200439453125,0.1076793223619461,0.9611518979072571,-0.7505943775177002
1761505743606236400,3.949236328125,0.081162229180336,0.9823389053344727,-0.7057363390922546
1761505743616272400,3.9592724609375,0.0762697383761406,0.8375545740127563,-0.6703623533248901
1761505743626308400,3.969308349609375,0.08061069250106812,0.5839947462081909,-0.6361559629440308
1761505743636344300,3.97934423828125,0.08649521321058273,0.29242122173309326,-0.5977203845977783
1761505743646380500,3.989380615234375,0.10219907015562057,0.06407219171524048,-0.5614468455314636
1761505743656417300,3.999417236328125,0.10855710506439209,-0.15039722621440887,-0.48440688848495483
1761505743666451500,4.009451416015625,0.10180199146270752,-0.23688045144081116,-0.3704979121685028
1761505743676487400,4.0194873046875,0.07635416090488434,-0.13902287185192108,-0.2748488783836365
1761505743686523400,4.0295234375,0.043720051646232605,0.16875812411308289,-0.20331157743930817
1761505743696559400,4.039559326171875,0.05897756665945053,0.5805379748344421,-0.13944151997566223
1761505743706595300,4.04959521484375,0.13691124320030212,1.016892671585083,-0.08212842792272568
1761505743716631300,4.05963134765625,0.24122273921966553,1.3688908815383911,-0.037944186478853226
1761505743726667500,4.06966748046875,0.36436623334884644,1.5448651313781738,-0.02196548692882061
1761505743736703500,4.079703369140625,0.4528995752334595,1.4155700206756592,-0.029653232544660568
1761505743746739500,4.089739501953125,0.4600083529949188,0.9929795861244202,-0.004493551794439554
1761505743756775400,4.099775390625,0.37253761291503906,0.6043828129768372,0.07840133458375931
1761505743766811400,4.109811279296875,0.23102149367332458,0.4268115162849426,0.22100268304347992
1761505743776847400,4.119847412109375,0.07261668145656586,0.4415435791015625,0.387931764125824
1761505743786883600,4.129883544921875,-0.06790821254253387,0.5248094201087952,0.5399119853973389
1761505743796919600,4.13991943359375,-0.15037699043750763,0.5350468754768372,0.6730756163597107
1761505743806955500,4.14995556640625,-0.16599883139133453,0.40710732340812683,0.7632132172584534
1761505743816991500,4.159991455078125,-0.15267077088356018,0.15774595737457275,0.7601056098937988
1761505743827028500,4.170028564453125,-0.12545032799243927,-0.2033294141292572,0.6694204211235046
1761505743837063400,4.1800634765625,-0.08365308493375778,-0.6474597454071045,0.5543124675750732
1761505743847099600,4.190099609375,-0.05282752960920334,-1.0241689682006836,0.4903295040130615
1761505743857136400,4.200136474609375,-0.08155983686447144,-1.3331584930419922,0.5471874475479126
1761505743867172600,4.210172607421875,-0.17113153636455536,-1.4503740072250366,0.7391512989997864
1761505743877208800,4.220208740234375,-0.2747916281223297,-1.2270245552062988,0.9982348084449768
1761505743887244800,4.230244873046875,-0.34180954098701477,-0.8389508724212646,1.1599054336547852
1761505743897280800,4.24028076171875,-0.286056786775589,-0.41075530648231506,1.0852197408676147
1761505743907316700,4.250316650390625,-0.07955794036388397,-0.056408945471048355,0.8292319178581238
1761505743917352700,4.260352783203125,0.14307379722595215,0.35096174478530884,0.531085729598999
1761505743927388700,4.270388671875,0.22596602141857147,0.8140356540679932,0.36374571919441223
1761505743937424600,4.280424560546875,0.1268863081932068,1.1435195207595825,0.3798314929008484
1761505743947460600,4.290460693359375,-0.07470672577619553,1.1533894538879395,0.5435991287231445
1761505743957496600,4.30049658203125,-0.2316710501909256,0.8186056613922119,0.7088277339935303
1761505743967532500,4.310532470703125,-0.23515206575393677,0.2792747914791107,0.751508891582489
1761505743977568500,4.320568603515625,-0.0934753566980362,-0.265279084444046,0.6459875106811523
1761505743987604700,4.330604736328125,0.060693707317113876,-0.7558857798576355,0.44807976484298706
1761505743997640700,4.340640625,0.15463271737098694,-1.2917540073394775,0.22964784502983093
1761505744007676700,4.3506767578125,0.21751900017261505,-1.7889512777328491,0.033116940408945084
1761505744017712600,4.360712646484375,0.29505908489227295,-2.0328011512756348,-0.14271986484527588
1761505744027748600,4.37074853515625,0.3974379003047943,-2.0446717739105225,-0.28694814443588257
1761505744037784600,4.38078466796875,0.47741609811782837,-1.8817496299743652,-0.3985537588596344
1761505744047820500,4.390820556640625,0.5209462642669678,-1.6299102306365967,-0.4949663281440735
1761505744057856500,4.4008564453125,0.5688469409942627,-1.450624942779541,-0.59527987241745
1761505744067892500,4.410892578125,0.6019148826599121,-1.4161311388015747,-0.6682840585708618
1761505744077928400,4.420928466796875,0.5483363270759583,-1.3153272867202759,-0.6688995361328125
1761505744087964400,4.43096435546875,0.4066969156265259,-1.0319511890411377,-0.6181196570396423
1761505744098000600,4.441000732421875,0.201569065451622,-0.7477900385856628,-0.5842650532722473
1761505744108036600,4.45103662109375,-0.03868907317519188,-0.5244949460029602,-0.6057290434837341
1761505744118072600,4.461072509765625,-0.26815953850746155,-0.47664645314216614,-0.6767787337303162
1761505744128108500,4.471108642578125,-0.43422946333885193,-0.6809753179550171,-0.7622451782226562
1761505744138144500,4.48114453125,-0.48690974712371826,-0.9893755316734314,-0.8871668577194214
1761505744148180500,4.491180419921875,-0.40630677342414856,-1.2830694913864136,-1.0107297897338867
1761505744158216700,4.501216796875,-0.23999261856079102,-1.478273868560791,-1.0672091245651245
1761505744168252700,4.511252685546875,-0.05915786325931549,-1.5485634803771973,-1.020787000656128
1761505744178288600,4.52128857421875,0.08979380130767822,-1.4312248229980469,-0.8753038048744202
1761505744188324600,4.53132470703125,0.16317588090896606,-1.1423938274383545,-0.6629121899604797
1761505744198360600,4.541360595703125,0.15319567918777466,-0.6700872778892517,-0.4052335023880005
1761505744208396800,4.551396728515625,0.06256750971078873,-0.07992918789386749,-0.1757127046585083
1761505744218432800,4.561432861328125,-0.08242350071668625,0.46077319979667664,-0.015987489372491837
1761505744228468700,4.57146875,-0.24794748425483704,0.8699809312820435,0.05933283269405365
1761505744238506500,4.581506591796875,-0.39463359117507935,1.0458608865737915,0.06407405436038971
1761505744248542500,4.59154248046875,-0.5043275952339172,1.0321629047393799,0.02389254979789257
1761505744258578400,4.601578369140625,-0.5368701219558716,1.0018713474273682,-0.0623302198946476
1761505744268614700,4.61161474609375,-0.48719361424446106,0.9300967454910278,-0.18321722745895386
1761505744278650600,4.621650634765625,-0.37424203753471375,0.8629142642021179,-0.3008916676044464
1761505744288686600,4.6316865234375,-0.21179507672786713,0.723569393157959,-0.3632059097290039
1761505744298722600,4.64172265625,-0.02882339246571064,0.5502684712409973,-0.33014756441116333
1761505744308758500,4.651758544921875,0.08836208283901215,0.48800748586654663,-0.20905867218971252
1761505744318794500,4.66179443359375,0.11228765547275543,0.5090603232383728,-0.010366886854171753
1761505744328830700,4.671830810546875,0.08549359440803528,0.5461238026618958,0.23146039247512817
1761505744338866700,4.68186669921875,0.009771936573088169,0.5319957137107849,0.4914568066596985
1761505744348902700,4.691902587890625,-0.054909322410821915,0.5177821516990662,0.7181631922721863
1761505744358938600,4.701938720703125,-0.10084778070449829,0.6681937575340271,0.8795358538627625
1761505744368974600,4.711974609375,-0.1324741542339325,0.9495961666107178,0.9472848176956177
1761505744379010600,4.722010498046875,-0.10677731037139893,1.2116948366165161,0.9010288715362549
1761505744389046800,4.732046875,-0.0537862665951252,1.3202426433563232,0.7983424663543701
1761505744399082800,4.742082763671875,-0.03609329089522362,1.2642641067504883,0.7125244736671448
1761505744409118700,4.75211865234375,-0.05751815438270569,1.1734846830368042,0.6982073187828064
1761505744419154700,4.76215478515625,-0.1013023853302002,1.1584409475326538,0.7173879742622375
1761505744429190700,4.772190673828125,-0.1623673439025879,1.1346850395202637,0.7107396125793457
1761505744439226600,4.7822265625,-0.20081086456775665,0.9578617811203003,0.6788751482963562
1761505744449262600,4.7922626953125,-0.1923673152923584,0.5520003437995911,0.6213372945785522
1761505744459298600,4.802298583984375,-0.15553580224514008,0.13906121253967285,0.5205025672912598
1761505744469334500,4.81233447265625,-0.09610229730606079,-0.19921590387821198,0.3504562973976135
1761505744479370500,4.82237060546875,-0.05710642784833908,-0.5228267312049866,0.1411352902650833
1761505744489406500,4.832406494140625,-0.016571786254644394,-0.8635891079902649,-0.1041511669754982
1761505744499442700,4.842442626953125,0.0652059018611908,-1.154906153678894,-0.423834890127182
1761505744509478700,4.852478759765625,0.21275994181632996,-1.3311350345611572,-0.7415854334831238
1761505744519514600,4.8625146484375,0.4615252912044525,-1.3774020671844482,-0.9798586964607239
1761505744529550600,4.872550537109375,0.7381499409675598,-1.380867600440979,-1.0619639158248901
1761505744539586600,4.882586669921875,0.8736299872398376,-1.3415900468826294,-0.9527717232704163
1761505744549622500,4.89262255859375,0.8022913932800293,-1.0412496328353882,-0.7026476263999939
1761505744559658500,4.902658447265625,0.6066808700561523,-0.26047152280807495,-0.4807663559913635
1761505744569694500,4.912694580078125,0.4154784381389618,0.6172168850898743,-0.41279104351997375
1761505744579730400,4.92273046875,0.29710039496421814,1.1452319622039795,-0.4987727701663971
1761505744589766400,4.932766357421875,0.24193380773067474,1.2005362510681152,-0.6646491289138794
1761505744599802400,4.94280224609375,0.20036718249320984,0.8159363865852356,-0.8267916440963745
1761505744609838600,4.952838623046875,0.13112206757068634,0.06958626955747604,-0.8979931473731995
1761505744619875600,4.96287548828125,0.040650755167007446,-0.7365597486495972,-0.88189697265625
1761505744629911600,4.97291162109375,-0.04514457657933235,-1.4377503395080566,-0.8149845600128174
1761505744639947800,4.98294775390625,-0.11112705618143082,-1.9209511280059814,-0.7263851761817932
1761505744649983700,4.992983642578125,-0.18846897780895233,-2.0683107376098633,-0.6153241395950317
1761505744660019700,5.003019775390625,-0.2614893913269043,-1.9212307929992676,-0.43779730796813965
1761505744670055700,5.0130556640625,-0.29477304220199585,-1.4904229640960693,-0.21101370453834534
1761505744680091600,5.023091552734375,-0.27913814783096313,-0.8139848113059998,-0.0038013961166143417
1761505744690127600,5.033127685546875,-0.22147352993488312,-0.05534181743860245,0.15291231870651245
1761505744700163600,5.04316357421875,-0.15152747929096222,0.6221927404403687,0.2498742789030075
1761505744710199600,5.053199462890625,-0.1311873197555542,1.1247669458389282,0.2894222140312195
1761505744720235500,5.063235595703125,-0.14153103530406952,1.3878579139709473,0.28168627619743347
1761505744730271500,5.073271484375,-0.15297596156597137,1.4189308881759644,0.2261367291212082
1761505744740307500,5.083307373046875,-0.15467186272144318,1.271082878112793,0.146501824259758
1761505744750343700,5.09334375,-0.1627817302942276,1.0561771392822266,0.09244151413440704
1761505744760379600,5.103379638671875,-0.18399326503276825,0.829137921333313,0.0991622731089592
1761505744770415600,5.11341552734375,-0.20998306572437286,0.5914521217346191,0.17542295157909393
1761505744780451600,5.12345166015625,-0.2104392647743225,0.32187843322753906,0.3085586428642273
1761505744790487600,5.133487548828125,-0.1732546091079712,0.092779740691185,0.46617943048477173
1761505744800523500,5.1435234375,-0.10062221437692642,-0.07701089233160019,0.6088292598724365
1761505744810559500,5.1535595703125,-0.04300392419099808,-0.07062490284442902,0.7028814554214478
1761505744820595500,5.163595458984375,-0.01774330995976925,-0.01852414943277836,0.7792451977729797
1761505744830631400,5.17363134765625,0.027175428345799446,-0.014937404543161392,0.8810905814170837
1761505744840667400,5.18366748046875,0.109479621052742,0.02640737220644951,1.0386676788330078
1761505744850704100,5.1937041015625,0.1740863174200058,0.21687744557857513,1.236518144607544
1761505744860740000,5.203739990234375,0.16270050406455994,0.4850947856903076,1.4334062337875366
1761505744870776000,5.213776123046875,0.0451459065079689,0.6619153618812561,1.5429489612579346
1761505744880812300,5.223812255859375,-0.14663444459438324,0.5849753022193909,1.4927699565887451
1761505744890848300,5.23384814453125,-0.31376004219055176,0.3835796117782593,1.2712575197219849
1761505744900884200,5.24388427734375,-0.39168813824653625,0.31561627984046936,0.9088655114173889
1761505744910920200,5.253920166015625,-0.32882341742515564,0.4852662980556488,0.48649269342422485
1761505744920956200,5.2639560546875,-0.1660528928041458,0.7084602117538452,0.09300371259450912
1761505744930992000,5.2739921875,-0.004367051646113396,0.7508676052093506,-0.20386604964733124
1761505744941028000,5.284028076171875,0.1004222109913826,0.584294319152832,-0.32830411195755005
1761505744951064000,5.29406396484375,0.14707359671592712,0.18520846962928772,-0.27320170402526855
1761505744961100000,5.30410009765625,0.14875246584415436,-0.3138015866279602,-0.10993209481239319
1761505744971136000,5.314135986328125,0.14359630644321442,-0.75046706199646,0.09210222959518433
1761505744981172000,5.324171875,0.14030490815639496,-1.0153613090515137,0.24577488005161285
1761505744991208200,5.334208251953125,0.13633307814598083,-1.095884919166565,0.276824414730072
1761505745001245200,5.3442451171875,0.13058917224407196,-1.1061458587646484,0.13172820210456848
1761505745011281200,5.35428125,0.1497247815132141,-1.1267880201339722,-0.18765965104103088
1761505745021317000,5.364317138671875,0.17085030674934387,-1.024656057357788,-0.6177766919136047
1761505745031353300,5.374353271484375,0.19343684613704681,-0.7352654933929443,-1.069211721420288
1761505745041389300,5.384389404296875,0.2265433967113495,-0.4138728082180023,-1.4412444829940796
1761505745051425300,5.39442529296875,0.3057519197463989,-0.19378943741321564,-1.694427728652954
1761505745061461200,5.404461181640625,0.4218868017196655,-0.06004070118069649,-1.7964317798614502
1761505745071497200,5.414497314453125,0.5270142555236816,-0.022476812824606895,-1.750852346420288
1761505745081533200,5.424533203125,0.576671302318573,-0.05486990511417389,-1.604332685470581
1761505745091569200,5.434569091796875,0.5579999089241028,-0.10352292656898499,-1.4110844135284424
1761505745101605000,5.444605224609375,0.48460105061531067,-0.19311459362506866,-1.210187554359436
1761505745111641000,5.45464111328125,0.37856754660606384,-0.3219820261001587,-1.0130819082260132
1761505745121677000,5.464677001953125,0.26657283306121826,-0.48694488406181335,-0.8077197074890137
1761505745131713000,5.474713134765625,0.16398388147354126,-0.6470855474472046,-0.6219642162322998
1761505745141749200,5.484749267578125,0.04969032481312752,-0.7691960334777832,-0.44528159499168396
1761505745151785200,5.49478515625,-0.06259787082672119,-0.8106585144996643,-0.26286783814430237
1761505745161821200,5.5048212890625,-0.15606363117694855,-0.7146608829498291,-0.10382972657680511
1761505745171857200,5.514857177734375,-0.22177766263484955,-0.4369578957557678,-0.030316893011331558
1761505745181893000,5.52489306640625,-0.22847817838191986,0.012072641402482986,-0.03483947366476059
1761505745191929000,5.53492919921875,-0.18089628219604492,0.5321203470230103,-0.08244720846414566
1761505745201965000,5.544965087890625,-0.10732273012399673,0.9778892993927002,-0.13884790241718292
1761505745212001000,5.5550009765625,-0.04120522737503052,1.237860918045044,-0.174838125705719
1761505745222037000,5.565037109375,-0.018753979355096817,1.3211345672607422,-0.18321962654590607
1761505745232073000,5.575072998046875,-0.04928392544388771,1.2887579202651978,-0.1568996012210846
1761505745242109200,5.585109130859375,-0.11436892300844193,1.2077078819274902,-0.1105685904622078
1761505745252145200,5.595145263671875,-0.19560492038726807,1.091481328010559,-0.04614166170358658
1761505745262181000,5.60518115234375,-0.24624386429786682,0.8587371110916138,0.03736521676182747
1761505745272217000,5.615217041015625,-0.2653179466724396,0.5066759586334229,0.122499018907547
1761505745282253000,5.625253173828125,-0.25856178998947144,0.1619100719690323,0.2113279551267624
1761505745292289300,5.635289306640625,-0.25256407260894775,-0.04369794577360153,0.30788859724998474
1761505745302325200,5.6453251953125,-0.24115429818630219,-0.09855213761329651,0.41642385721206665
1761505745312361200,5.655361328125,-0.1982467770576477,0.01696433685719967,0.5493432879447937
1761505745322397200,5.665397216796875,-0.13636742532253265,0.24458231031894684,0.7101372480392456
1761505745332433200,5.67543310546875,-0.0720592811703682,0.517794132232666,0.8865833878517151
1761505745342469000,5.68546923828125,-0.03678464516997337,0.5881481766700745,1.08706533908844
1761505745352505000,5.695505126953125,-0.049502838402986526,0.40052637457847595,1.30455482006073
1761505745362541300,5.705541259765625,-0.11636442691087723,0.19771014153957367,1.5237520933151245
1761505745372577300,5.715577392578125,-0.20813748240470886,0.238628551363945,1.6654088497161865
1761505745382613200,5.72561328125,-0.2866954207420349,0.49008795619010925,1.6556675434112549
1761505745392649200,5.735649169921875,-0.33991947770118713,0.7666923999786377,1.4717833995819092
1761505745402685200,5.745685302734375,-0.3656107485294342,0.9258359670639038,1.18015718460083
1761505745412721200,5.75572119140625,-0.3688161075115204,0.9434399604797363,0.8844379186630249
1761505745422757000,5.765757080078125,-0.3390728831291199,0.7752001285552979,0.6836459636688232
1761505745432793000,5.77579296875,-0.25271719694137573,0.6234036684036255,0.5962737798690796
1761505745442829000,5.7858291015625,-0.11564350873231888,0.5904430747032166,0.5628066062927246
1761505745452865000,5.795864990234375,0.015394669026136398,0.6606903076171875,0.5056447982788086
1761505745462901000,5.80590087890625,0.09034507721662521,0.6944568157196045,0.37924131751060486
1761505745472937200,5.815937255859375,0.12584687769412994,0.6314696073532104,0.16804999113082886
1761505745482973200,5.82597314453125,0.16479827463626862,0.43329283595085144,-0.08708590269088745
1761505745493009200,5.836009033203125,0.18618878722190857,-0.022337796166539192,-0.3384869694709778
1761505745503046100,5.846046142578125,0.20597366988658905,-0.5334631204605103,-0.5934673547744751
1761505745513082000,5.85608203125,0.2838919162750244,-1.0421737432479858,-0.8529641628265381
1761505745523118300,5.866118408203125,0.44191882014274597,-1.4457329511642456,-1.099169135093689
1761505745533154300,5.876154296875,0.6148120164871216,-1.5917607545852661,-1.311900019645691
1761505745543190300,5.886190185546875,0.7282451391220093,-1.422401785850525,-1.4240227937698364
1761505745553226200,5.896226318359375,0.728350043296814,-0.9564913511276245,-1.3927911520004272
1761505745563262200,5.90626220703125,0.6289488673210144,-0.35187309980392456,-1.2928494215011597
1761505745573298200,5.916298095703125,0.48812413215637207,0.23260287940502167,-1.2037826776504517
1761505745583334100,5.926334228515625,0.3413242995738983,0.5817850828170776,-1.1391013860702515
1761505745593370000,5.9363701171875,0.1946970522403717,0.6542622447013855,-1.0731377601623535
1761505745603406000,5.946406005859375,0.06101488322019577,0.5375481247901917,-0.9763023257255554
1761505745613442300,5.9564423828125,0.005435511935502291,0.32618609070777893,-0.8928276896476746
1761505745623478300,5.966478271484375,0.09906026721000671,0.13586382567882538,-0.8209431171417236
1761505745633514200,5.97651416015625,0.23395124077796936,0.13819383084774017,-0.7670964002609253
1761505745643550200,5.98655029296875,0.27184855937957764,0.37539997696876526,-0.7660101056098938
1761505745653586200,5.996586181640625,0.17642590403556824,0.711824893951416,-0.7938030958175659
1761505745663622100,6.0066220703125,0.020258666947484016,0.9826129674911499,-0.7373696565628052
1761505745673658000,6.016658203125,-0.09608764946460724,1.2021543979644775,-0.4623314142227173
1761505745683694000,6.026694091796875,-0.14021489024162292,1.1331294775009155,-0.21955978870391846
1761505745693730000,6.03672998046875,-0.18549396097660065,0.8290069103240967,0.021090371534228325
1761505745703766000,6.04676611328125,-0.22554710507392883,0.45378613471984863,0.20208518207073212
1761505745713802000,6.056802001953125,-0.2777906060218811,0.13595570623874664,0.30866676568984985
1761505745723838200,6.066838134765625,-0.3304396867752075,-0.10834059119224548,0.38948729634284973
1761505745733874200,6.076874267578125,-0.37499332427978516,-0.26184651255607605,0.5293275117874146
