time,seconds_elapsed,z,y,x
1761505168179292000,0.1142919921875,-0.3188309718608856,-0.01963942403681576,-0.0028856384389102457
1761505168189327000,0.1243271484375,-0.23690146119296548,-0.14831607283242046,-0.02829743533208966
1761505168199363000,0.134363037109375,-0.2787894688516855,-0.29901071136444807,-0.06024623277857899
1761505168209398000,0.14439794921875,-0.38856794043183324,-0.3901217457450926,-0.16700228779762982
1761505168219433000,0.154432861328125,-0.45124914527237414,-0.3777765703696757,-0.25224486853629347
1761505168229469200,0.16446923828125,-0.4386585437685251,-0.31816717418991025,-0.21487097730115054
1761505168239504100,0.174504150390625,-0.2870131073176861,-0.2653167507510632,-0.1436453776076436
1761505168249540000,0.1845400390625,-0.20904080984294413,-0.19718940933384,-0.10252484719008206
1761505168259575000,0.194574951171875,-0.2950280714690685,-0.1501592164810747,-0.0398721377916634
1761505168269611000,0.204611083984375,-0.3299205211520195,-0.20887838582284748,0.10480901260450481
1761505168279646000,0.21464599609375,-0.4119581683695316,-0.3062224693741649,0.21518135842457412
1761505168289682000,0.224681884765625,-0.4331061703383922,-0.3414753498673439,0.08804945485293865
1761505168299716900,0.234716796875,-0.36941432715058325,-0.2573629422023892,-0.175803872282058
1761505168309752000,0.244751953125,-0.23238018437623975,-0.3255725185429677,-0.3365313175939023
1761505168319788000,0.2547880859375,-0.13322364457547664,-0.5039648364156484,-0.4751500992111861
1761505168329823000,0.264822998046875,-0.1069610760718584,-0.6903006241060793,-0.6222608148418367
1761505168339859000,0.27485888671875,-0.15223404999375342,-0.908567015999183,-0.7197096739418805
1761505168349894100,0.28489404296875,-0.19467150822877882,-1.1657051364697515,-0.7773153290838003
1761505168359930000,0.29493017578125,-0.2846270889639854,-1.3260082188896833,-0.8404637130446732
1761505168369965000,0.304965087890625,-0.37041619766950606,-1.3229567223645746,-0.7913581752225756
1761505168380001000,0.3150009765625,-0.6356944430410861,-1.0670888410255313,-0.5392836948171258
1761505168390036200,0.3250361328125,-0.6648948185622692,-0.5912648611407727,-0.24251345585584638
1761505168400071000,0.33507080078125,-0.5646686037033796,-0.22476342576220631,0.19041677339375018
1761505168410107000,0.34510693359375,-0.4795698153495788,-0.029601868994161486,0.6424272584274411
1761505168420141800,0.355141845703125,-0.17285130608677862,0.09546798748113214,1.0244964844897388
1761505168430178000,0.365177978515625,0.2181792250663042,0.2249430201128125,1.2438999906539916
1761505168440213000,0.375212890625,0.4428367062360048,0.449151296210289,1.136812657853961
1761505168450249000,0.3852490234375,0.6268231543213129,0.6798688080713152,0.8395449907645582
1761505168460284000,0.395283935546875,0.790036863490939,0.8652690684773028,0.6439134053319692
1761505168470319900,0.40531982421875,1.0116028083860873,0.9113242057528346,0.6096624684229492
1761505168480355000,0.41535498046875,1.23733814792037,0.8028858236700296,0.6702833797328174
1761505168490390000,0.42539013671875,1.195041559460759,0.6745262779995799,0.7714571045748889
1761505168500426000,0.435426025390625,0.9228057500362395,0.5808985846228897,0.8282675176858901
1761505168510461200,0.445461181640625,0.63348670386374,0.6045959788136184,0.7906843676142394
1761505168520497200,0.4554970703125,0.3612076398193836,0.6342451940808445,0.6836899737946689
1761505168530532000,0.465531982421875,0.2188981869906187,0.6181614897642285,0.5419993835166096
1761505168540568000,0.475568115234375,0.15790157423615456,0.5545556443594396,0.4456283827811479
1761505168550603000,0.48560302734375,0.1782850215733051,0.40066915098354217,0.36198651523739095
1761505168560638000,0.495637939453125,0.10726678102016449,0.22748086802735923,0.2988800707221031
1761505168570674000,0.505673828125,-0.1553992360264063,0.10505838425569236,0.20748671226873994
1761505168580708900,0.515708984375,-0.28541443994939325,0.03147051241025328,0.11717910322546958
1761505168590745000,0.5257451171875,-0.36001579968631264,-0.04156345187947154,0.012929331938922404
1761505168600780000,0.535780029296875,-0.3535264376670122,-0.21044220107346773,-0.03128054279610514
1761505168610816000,0.54581591796875,-0.29156536379456516,-0.4949040895383805,-0.017399755351245404
1761505168620851000,0.555850830078125,-0.17512451171576976,-0.7752376460269093,-0.05782762732952833
1761505168630887000,0.565886962890625,-0.029430677145719526,-1.011227691463381,-0.16593042078241704
1761505168640922000,0.575922119140625,-0.04489420373737812,-1.2014872284688054,-0.33126112210601566
1761505168650957000,0.58595703125,-0.11422551411688327,-1.288805008046329,-0.5336018497884273
1761505168660993000,0.595992919921875,-0.24657179133594034,-1.3261357907921074,-0.7104293660297989
1761505168671028000,0.606028076171875,-0.4284375940054655,-1.339910049122572,-0.8198563938237726
1761505168681064200,0.616064208984375,-0.39157121390104294,-1.2831450825884938,-0.805849495781213
1761505168691099000,0.626098876953125,-0.17538345491290092,-1.0727540271803737,-0.7254606386840343
1761505168701134800,0.636134765625,0.042431613016128536,-0.8315075225204229,-0.6299170286834239
1761505168711170000,0.646170166015625,0.3324427331060171,-0.6092054453704506,-0.4878874157093465
1761505168721206000,0.6562060546875,0.5827805989772081,-0.4600785676117986,-0.2825266095533967
1761505168731241000,0.666240966796875,0.5153706120491027,-0.3391216994132846,-0.14237988771647214
1761505168741276000,0.67627587890625,0.36250352484881876,-0.2576105602879077,-0.14375482933148742
1761505168751312100,0.68631201171875,0.11143208400607109,-0.09986308063492179,-0.2713533275015652
1761505168761347000,0.69634716796875,-0.10833294894695282,-0.08672448985949158,-0.343441827634722
1761505168771383000,0.706383056640625,-0.04833820671141147,-0.16589352283813058,-0.3223040547989309
1761505168781418000,0.71641796875,0.13563830450177192,-0.20103570949845015,-0.26718817064613104
1761505168791454000,0.726453857421875,0.2345662962436676,-0.17897994503490625,-0.20958032354712486
1761505168801489200,0.7364892578125,0.06048106444776058,-0.20099983446747063,-0.13208353462964295
1761505168811523800,0.74652392578125,0.03906652049720287,-0.3748324066765606,-0.05336144170090556
1761505168821559800,0.756559814453125,0.12947335213124753,-0.5661131764885038,-0.04195931932926178
1761505168831595000,0.766594970703125,0.2035474731236696,-0.6834160522241145,-0.10276713151335716
1761505168841631000,0.776630859375,0.3800502874553203,-0.7598129901409149,-0.13813830462396143
1761505168851666000,0.786666015625,0.5253115758270025,-0.8052349440794437,-0.15692381524518131
1761505168861702000,0.796701904296875,0.5487205084651708,-0.789106304642558,-0.14164412078782915
1761505168871737000,0.806737060546875,0.436161466255784,-0.6987927773151547,-0.07841799541562795
1761505168881773000,0.81677294921875,0.24689503194093704,-0.5962847351294011,-0.04273410309404135
1761505168891808000,0.82680810546875,0.11951076104342936,-0.5164101842299104,-0.031217852823436257
1761505168901843000,0.836843017578125,0.12151508660316467,-0.4516287191744894,0.04069119908958673
1761505168911879200,0.846879150390625,0.13616554324626923,-0.46138643533997237,0.15291121860295534
1761505168921914000,0.8569140625,0.1457172154456377,-0.5144435603320598,0.31096433013901115
1761505168931950000,0.8669501953125,0.1007522845596075,-0.5378101151332259,0.4438385767549276
1761505168941985000,0.876985107421875,0.026546646142005918,-0.5104373934306204,0.45512817866280675
1761505168952021200,0.887021240234375,-0.04942015672922134,-0.41157435668371617,0.33621801386103034
1761505168962056000,0.897055908203125,0.04114157320559025,-0.34020722962766886,0.16407953221872448
1761505168972092000,0.907091796875,0.21778233470320701,-0.4576765479713678,0.17384236295074224
1761505168982126800,0.917126953125,0.2912327708393335,-0.5352218522056937,0.2650635797075927
1761505168992162000,0.927162109375,0.3072971859335899,-0.5170854531429707,0.2754099094159901
1761505169002198000,0.937197998046875,0.23929098667800425,-0.45600320793166754,0.24566665918976066
1761505169012233000,0.94723291015625,0.15994155563116072,-0.3759104111716151,0.13692512944191693
1761505169022269000,0.95726904296875,0.07761281651258468,-0.3290559402119368,-0.03794584590420127
1761505169032304000,0.96730419921875,0.005976736322045326,-0.27209084799587724,-0.21184505360871553
1761505169042340000,0.977340087890625,0.045242578783631325,-0.2723137700315565,-0.29001433496028184
1761505169052375000,0.987375,0.16695114213228224,-0.41447358525656164,-0.1793326309300959
1761505169062411000,0.997410888671875,0.30672493900358677,-0.363313891383633,-0.23018954246416687
1761505169072446200,1.0074462890625,0.3843710732638836,-0.24830526406504214,-0.47689855031371114
1761505169082481000,1.01748095703125,0.3240677034705877,-0.32823987458869813,-0.7863949998572468
1761505169092516900,1.027516845703125,0.039459903728961944,-0.6301509105045348,-1.0585915001846848
1761505169102552000,1.037552001953125,-0.31634850739538667,-0.9937838777747005,-1.2378706473618746
1761505169112588000,1.047588134765625,-0.7619973484426736,-1.256618310190737,-1.3635146504633129
1761505169122623000,1.057623046875,-1.4268179327249526,-1.1289698353990911,-1.4515823716253042
1761505169132659000,1.067658935546875,-1.7611773131072521,-0.8677412307444959,-1.3179643209047616
1761505169142694000,1.07769384765625,-1.753719398316741,-0.44181963814795017,-0.8924110501639544
1761505169152729300,1.087729248046875,-1.622062856927514,0.00960530208274722,-0.336650413928926
1761505169162764300,1.097764404296875,-1.4808546433389187,0.3220013455253094,0.19369155728071927
1761505169172799200,1.10779931640625,-1.1574398508191108,0.48555794984847306,0.5612589413903654
1761505169182835500,1.11783544921875,-0.7838982146054506,0.7169545300148427,0.5707647286213934
1761505169192870400,1.127870361328125,-0.4100228163927793,0.9408515482060611,0.32552477041110395
1761505169202906400,1.13790625,0.0005500350981950759,1.0376192201089114,0.06155979959517717
1761505169212941300,1.14794140625,0.05580839646160602,1.0486592311698943,-0.07869988109692931
1761505169222977300,1.157977294921875,0.01168166996538639,0.9887026289876549,-0.06796878985464573
1761505169233012500,1.168012451171875,0.024025018709897993,1.0145585163865238,-0.04154489330947399
1761505169243048400,1.17804833984375,-0.037927871856093406,1.0839396572571247,-0.09685746907815336
1761505169253083400,1.18808349609375,-0.06367021587789058,1.106985017279908,-0.1913749509014189
1761505169263118600,1.19811865234375,-0.08742518547475338,1.0898151982270181,-0.3141844612292945
1761505169273154600,1.208154541015625,-0.08230769633054733,1.057360862411186,-0.33391309791952367
1761505169283189200,1.218189208984375,-0.08785480906367302,0.9760873314339668,-0.2714052038192749
1761505169293225200,1.22822509765625,-0.05047463421821594,0.8435166708745062,-0.18789295400455594
1761505169303260400,1.238260498046875,-0.04784720832407474,0.730381509277597,-0.09135960231423378
1761505169313296400,1.24829638671875,-0.21513737315237522,0.6727876907039433,-0.059966246793419116
1761505169323331300,1.258331298828125,-0.24486849454939363,0.6139275785215199,-0.089172467533499
1761505169333367300,1.2683671875,-0.21846797887980937,0.5829989179030061,-0.156728584934026
1761505169343402500,1.278402587890625,-0.12284896555542946,0.5808094450347125,-0.20587737737596035
1761505169353437400,1.2884375,-0.04840075055360794,0.5721035760097205,-0.23268413575887678
1761505169363473400,1.298473388671875,-0.033548049336671826,0.5662264276046306,-0.24176994401216506
1761505169373508400,1.30850830078125,0.03461187917590141,0.5540154000028967,-0.20710838047564029
1761505169383544300,1.31854443359375,0.11172200686335564,0.5183835301294922,-0.23306831277087328
1761505169393579500,1.32857958984375,0.06040273851454257,0.4527186333030462,-0.33189415931254623
1761505169403615500,1.338615478515625,-0.08027531372010707,0.43428025561906397,-0.476136041508615
1761505169413650200,1.348650146484375,-0.15442425351440905,0.4105060698650777,-0.5757705740846694
1761505169423686400,1.358686279296875,-0.21940438294708728,0.3357002005320042,-0.5928073413424193
1761505169433721300,1.368721435546875,-0.25813889501094817,0.22537520098499952,-0.5794559845991433
1761505169443756300,1.37875634765625,-0.14529109898805617,0.08391608137525618,-0.45871436658650633
1761505169453792300,1.388792236328125,-0.00964344213604927,-0.0223711140230298,-0.30516572686284776
1761505169463827500,1.398827392578125,0.012342764222621917,-0.08622757318802178,-0.26715587581172584
1761505169473863400,1.408863525390625,0.0467424619525671,-0.08233027348853647,-0.3479090361766517
1761505169483898400,1.4188984375,0.0352396556854248,-0.018421938005834818,-0.4456938492327928
1761505169493934300,1.428934326171875,-0.04387947373688221,0.0744690385941416,-0.5094518895246088
1761505169503969500,1.438969482421875,-0.08621814777255057,0.1516417101237923,-0.5240754581607878
1761505169514005500,1.449005615234375,-0.058629883623123165,0.19851094026118515,-0.47324514237269755
1761505169524040400,1.45904052734375,-0.0007025953114032745,0.2023423351176083,-0.3631766018047929
1761505169534075400,1.469075439453125,0.07425766086578368,0.14278751866929232,-0.22095234304144978
1761505169544111600,1.479111572265625,-0.05863572884202003,0.1367001615796238,-0.14990370735004543
1761505169554146300,1.489146240234375,-0.44254210720360276,0.19087138529345393,-0.16299188311249016
1761505169564182300,1.499182373046875,-0.7390875974982977,0.24417247510924933,-0.14663301511630414
1761505169574217200,1.50921728515625,-0.878621155872941,0.26202333522886034,-0.08646306244432926
1761505169584253200,1.519253173828125,-0.8124521089166402,0.3061914166487753,-0.010640490349382161
1761505169594288400,1.529288330078125,-0.6580594195842743,0.384868209131062,0.07441139012277126
1761505169604324400,1.539324462890625,-0.5779810897409916,0.4952507110189646,0.1071285415932536
1761505169614359300,1.549359375,-0.5343973840802908,0.574476004229486,0.16202902942970393
1761505169624394500,1.55939453125,-0.47506432062387466,0.6264420460492373,0.24480858105570077
1761505169634430500,1.569430419921875,-0.5431903468668461,0.6689998427283018,0.23974998249188065
1761505169644465400,1.57946533203125,-0.519144869890809,0.702587858749181,0.15824132758453488
1761505169654501400,1.58950146484375,-0.33754385563731193,0.7383428435456008,0.17292890136763453
1761505169664536600,1.59953662109375,-0.12694178782701493,0.7476237359795719,0.23481997874379157
1761505169674572500,1.609572509765625,0.1577116046220064,0.7005508730288594,0.3439009695790708
1761505169684607500,1.619607421875,0.3571463817298412,0.6215263630874455,0.48679435977563257
1761505169694643500,1.6296435546875,0.31547640073597427,0.5634306594062596,0.5411931817002594
1761505169704678400,1.639678466796875,0.23226327999830246,0.5358736671779304,0.5334039891287684
1761505169714713300,1.64971337890625,-0.006484685844182968,0.5219226640410721,0.5056951673395932
1761505169724749300,1.659749267578125,-0.24687691176235674,0.5708049145013093,0.4329122552014887
1761505169734784300,1.6697841796875,-0.23839900627434252,0.5682051072664559,0.3957343249298632
1761505169744820500,1.679820556640625,-0.15477262856066226,0.5469455346819013,0.3552420094132423
1761505169754855400,1.68985546875,-0.008601824128627776,0.5541369074907153,0.32499592423141
1761505169764891400,1.699891357421875,0.18710136523544788,0.5200672454327344,0.31967166046872736
1761505169774926300,1.70992626953125,0.26173253558874127,0.43488983888477084,0.340764571249485
1761505169784962300,1.71996240234375,0.15015315206646918,0.3386454602036625,0.2928704550437629
1761505169794997500,1.72999755859375,0.037330490484833716,0.29075974650010467,0.23287498215585944
1761505169805032400,1.740032470703125,-0.06297697291672229,0.2785281875669956,0.21107991445511579
1761505169815068400,1.750068359375,-0.07206044308245181,0.29587372851297256,0.13253566231131553
1761505169825103400,1.760103271484375,0.054990065816044806,0.28456491044797,0.04667816454470158
1761505169835139300,1.770139404296875,0.16837503745555876,0.21711064598672092,0.021414543950557707
1761505169845174300,1.78017431640625,0.1524479850053787,0.13121909982003271,0.022864158236980438
1761505169855210200,1.790210205078125,-0.039808278775215145,0.08104564050547779,-0.028539427394419906
1761505169865245400,1.800245361328125,-0.20483575936853884,0.04568476959317922,-0.07597732426524162
1761505169875281400,1.810281494140625,-0.25430969211161136,0.00035736207030713556,-0.05155424614846706
1761505169885316400,1.82031640625,-0.3038525984376669,-0.04332870798632502,-0.05224237454310059
1761505169895351300,1.830351318359375,-0.22948680102229116,-0.10041852256059645,-0.020163228715211153
1761505169905387500,1.840387451171875,-0.0923170491695404,-0.16477043709233402,0.04659443178400397
1761505169915422500,1.85042236328125,-0.10885141986310481,-0.16470307094454764,0.07533975701406598
1761505169925458400,1.86045849609375,-0.05459902067184448,-0.15119199359491467,0.1009514603935182
1761505169935493400,1.870493408203125,-0.016274258452653883,-0.1736328849185258,0.1351284552834928
1761505169945529300,1.880529296875,-0.04541150560975075,-0.15721856040805576,0.16008958579972385
1761505169955564500,1.890564453125,-0.08493746031224728,-0.08835998210683464,0.15704495740681887
1761505169965600500,1.9006005859375,-0.12398936776220798,-0.03359400737024844,0.10526406289562583
1761505169975635200,1.91063525390625,-0.21883973480165003,-0.0083758333530277,0.056234951310604804
1761505169985670400,1.92067041015625,-0.36133272750377654,-0.0012292495340108871,0.001719371138513088
1761505169995706400,1.930706298828125,-0.4452110341519117,-0.011889613627642393,-0.047369946201145645
1761505170005741300,1.9407412109375,-0.4993395147025585,-0.014541443310678004,-0.09568009586185217
1761505170015777300,1.95077734375,-0.6188245567828417,-0.012118307816982268,-0.11370149024277924
1761505170025812500,1.9608125,-0.5898802018493413,-0.009612973932549358,-0.11136837112009525
1761505170035848400,1.970848388671875,-0.4819190088242292,-0.006370996336638927,-0.10765285772830248
1761505170045883400,1.98088330078125,-0.31158757660388947,0.00499167080745101,-0.08033814982324838
1761505170055918300,1.99091845703125,-0.07210720483362675,-0.017400997460260987,-0.05135550870597362
1761505170065954600,2.00095458984375,0.1271434478789568,-0.07981361449249089,0.0026820786908268927
1761505170075989500,2.010989501953125,0.19844927320182323,-0.15707579093649982,0.04359554222896695
1761505170086025500,2.021025390625,0.08082476429641246,-0.1722198763154447,0.01494417889267206
1761505170096060200,2.03106005859375,-0.03301671893894672,-0.14676299817152322,-0.030861732862144706
1761505170106096400,2.041096435546875,-0.1860971566289663,-0.1121153170298785,-0.05739975730627775
1761505170116131300,2.05113134765625,-0.22616145599186419,-0.062467562089860436,-0.013266601069271564
1761505170126167300,2.061167236328125,-0.17300445082187652,-0.05110832901187241,0.03894508607462048
1761505170136202200,2.0712021484375,-0.09472820196449756,-0.04841492520943284,0.03866013165339827
1761505170146237400,2.081237548828125,-0.041108839979767796,-0.04695128239765763,0.04366758455187082
1761505170156273700,2.091273681640625,0.037809213912487025,-0.08303886014930903,0.05203706122934818
1761505170166308600,2.10130859375,0.07649521065950393,-0.11726743909604846,0.060046618553251024
1761505170176344600,2.111344482421875,0.08981295739412307,-0.1415776314228773,0.08674801686555146
1761505170186379800,2.1213798828125,0.08810907608568667,-0.1773877074074,0.1235338790796697
1761505170196415700,2.131415771484375,0.10099544566571712,-0.20171689669564366,0.1320379419222474
1761505170206450700,2.14145068359375,0.11317279019355773,-0.21984825425706803,0.11244696013703942
1761505170216485600,2.151485595703125,0.091375968927145,-0.21525259702987967,0.09675766196548938
1761505170226521900,2.16152197265625,-0.0016705635607242584,-0.18392543861307203,0.08385916355624795
1761505170236556800,2.171556884765625,-0.21782208219170568,-0.14832498679123818,0.014524053784459829
1761505170246592800,2.1815927734375,-0.32009704627394675,-0.14236242512501776,-0.06615954847559333
1761505170256627700,2.191627685546875,-0.2836053447008133,-0.14034370571374893,-0.05859305874407291
1761505170266663700,2.20166357421875,-0.1758154165893793,-0.19110329435318707,0.016375380739569664
1761505170276698600,2.21169873046875,0.003002688947319984,-0.23729126422815022,0.09493599949628115
1761505170286734600,2.221734619140625,0.10571370635926723,-0.26896584784314037,0.142271020514518
1761505170296769500,2.23176953125,0.14505612118840217,-0.31178536419831215,0.17194807363674044
1761505170306804700,2.2418046875,0.1821627397894859,-0.37366606631092725,0.11529065913036465
1761505170316840700,2.2518408203125,0.13712766627669334,-0.45346901327893135,0.09577800327837467
1761505170326875600,2.261875732421875,0.07650397848784923,-0.5085938113905489,0.10843962419182061
1761505170336911600,2.27191162109375,0.018259294790029523,-0.540358849767968,0.12753200880512594
1761505170346946800,2.28194677734375,0.008520575585961341,-0.5348640517439693,0.15288257703036068
1761505170356982800,2.291982666015625,-0.06421148314774036,-0.5182717403180896,0.1113626720316708
1761505170367017700,2.302017822265625,-0.17098901934623717,-0.48573177204541856,0.015132979463040827
1761505170377052700,2.312052734375,-0.16902210318744182,-0.46208793467283243,-0.11273293747156858
1761505170387089000,2.3220888671875,-0.09922843599319457,-0.43721893941946327,-0.20527049752399323
1761505170397123600,2.33212353515625,-0.017100187882781028,-0.4658716179300099,-0.24569369332715868
1761505170407159600,2.34215966796875,-0.0194411980509758,-0.571859391990304,-0.2328521858021617
1761505170417194500,2.352194580078125,-0.1759416733175516,-0.6644381608359515,-0.18183438461795448
1761505170427230700,2.362230712890625,-0.4533510859876871,-0.7594453989375383,-0.14318258240148424
1761505170437265700,2.372265625,-0.7589262704342603,-0.7704920589350164,-0.15727438224852083
1761505170447300600,2.382300537109375,-0.83093469106853,-0.6802851337872445,-0.11730346025750041
1761505170457336600,2.392336669921875,-0.7217974400013685,-0.5824477137610315,0.020367811376601458
1761505170467371800,2.402371826171875,-0.4510229353010654,-0.5197025768388063,0.20186697269082068
1761505170477407700,2.41240771484375,-0.08861702560782432,-0.49616417260207235,0.39203926980420944
1761505170487442700,2.422442626953125,0.1653840389460325,-0.4915700497448444,0.5317207122169435
1761505170497478700,2.432478759765625,0.3111941933721304,-0.4658996749807149,0.6375875633113086
1761505170507513900,2.442513916015625,0.2090285348832607,-0.45647762051038443,0.7041998239904642
1761505170517549800,2.4525498046875,0.038055882149934765,-0.4872358199328184,0.7086104800395667
1761505170527584800,2.462584716796875,-0.19039046990871428,-0.5275190227434039,0.6662693217858672
1761505170537619700,2.47261962890625,-0.45519057637453075,-0.5613771609425544,0.6505144110321999
1761505170547655700,2.48265576171875,-0.6546411355733871,-0.5695391323491931,0.5898217496603727
1761505170557690600,2.492690673828125,-0.7641828757882118,-0.43536783166006204,0.45357846500277516
1761505170567726600,2.5027265625,-0.8173200072139502,-0.16670659278668462,0.24744696673527358
1761505170577761500,2.512761474609375,-0.7570254052489995,0.09054952804036438,0.0969961468964815
1761505170587797800,2.5227978515625,-0.6882359466612339,0.17856120816618204,0.11296718461886048
1761505170597832700,2.532832763671875,-0.7665133645623922,0.10082206186018884,0.22995734114348887
1761505170607867600,2.54286767578125,-1.1385726532638072,-0.023273323559761045,0.32310674948394297
1761505170617903600,2.552903564453125,-1.5693103409051894,-0.06900624314360321,0.32422523211985826
1761505170627938800,2.562938720703125,-1.8757786747992038,-0.06595452742278575,0.29959669455885884
1761505170637974800,2.572974853515625,-1.9579244585663078,-0.08771861546337605,0.3244847598388791
1761505170648009700,2.583009765625,-1.6612562186747788,-0.1478545197352767,0.3922555429033935
1761505170658045700,2.593045654296875,-1.1901602171599863,-0.16763042963333427,0.433258584421128
1761505170668080600,2.60308056640625,-0.7494868264377117,-0.15952201504483818,0.49430765801519155
1761505170678115600,2.613115478515625,-0.4800888707876205,-0.15869265154860912,0.703132340889424
1761505170688151600,2.623151611328125,-0.3191401839405298,-0.1296015085555613,0.8692597455486655
1761505170698186800,2.633186767578125,-0.212205995875597,-0.04925386025160551,0.8637804373547434
1761505170708222700,2.64322265625,-0.06562310351133346,0.03551116610318422,0.7231232817776501
1761505170718257700,2.653257568359375,0.16272446434795856,0.08213190137222409,0.49360652400851246
1761505170728292600,2.663292724609375,0.3424900798678398,0.0914130860671401,0.27067601276189085
1761505170738328600,2.67332861328125,0.5042015677809715,0.014556056357920169,0.09424582527503371
1761505170748363800,2.68336376953125,0.6563081920027732,-0.08886464369334279,0.019003245025128124
1761505170758399700,2.693399658203125,0.6706535282194614,-0.14258658926971257,-0.05493555914983153
1761505170768434700,2.7034345703125,0.6699059247225523,-0.20898783754669129,-0.03918941622450948
1761505170778470700,2.713470703125,0.6280804609060288,-0.26031331644058225,0.009660539401322603
1761505170788505900,2.723505859375,0.5749567734837532,-0.24516696603931484,0.002874386392533779
1761505170798541800,2.733541748046875,0.5941495497316122,-0.19929682994186876,0.033980303274095056
1761505170808576500,2.743576416015625,0.49428632296621794,-0.18604389207176864,0.13030994908586144
1761505170818611700,2.75361181640625,0.25326807410418983,-0.16776947277784346,0.20507044490724802
1761505170828647700,2.763647705078125,-0.05600421129465103,-0.14126250105910002,0.26461364398300646
1761505170838682600,2.7736826171875,-0.46870355342030523,-0.05481573216244578,0.26805866987034677
1761505170848718600,2.783718505859375,-0.6676841570198535,0.09676306879296898,0.12318857277333736
1761505170858753800,2.79375390625,-0.6928361339330673,0.2598503020387143,-0.009884119024127721
1761505170868788700,2.803788818359375,-0.628980624616146,0.3736490421108901,-0.097299221496284
1761505170878824700,2.81382470703125,-0.47350423170030115,0.41282121493965385,-0.12161913149952888
1761505170888859600,2.823859619140625,-0.3029764001250267,0.34072365471720695,-0.1654156031280756
1761505170898895600,2.8338955078125,-0.3060124068200588,0.243280275509879,-0.16857932785600424
1761505170908930800,2.843930908203125,-0.3797808228641748,0.21711210729144512,-0.19047522558271884
1761505170918966800,2.853966796875,-0.38460605106353757,0.21767061795704065,-0.24518179828226566
1761505170929001500,2.86400146484375,-0.42499359103143214,0.20805486754551528,-0.2818941568687558
1761505170939036700,2.87403662109375,-0.440182392334938,0.15547537000253794,-0.28248773884773254
1761505170949072600,2.88407275390625,-0.36013796476125715,0.12440138262920081,-0.2615641932845115
1761505170959107600,2.894107666015625,-0.31376959681808947,0.15986140306703744,-0.2951280247122049
1761505170969143600,2.9041435546875,-0.15032909315526485,0.2573820852942765,-0.3707815238505602
1761505170979178800,2.9141787109375,0.08042085967063903,0.40131972384676334,-0.5084186009541154
1761505170989214700,2.924214599609375,0.2593938635081053,0.5257184761274606,-0.5814554878532886
1761505170999249700,2.934249755859375,0.349343599024415,0.5948013647038489,-0.6201514214724302
1761505171009284600,2.94428466796875,0.4130003708988428,0.5995148030918092,-0.6924515185296535
1761505171019320800,2.95432080078125,0.42770109642446036,0.586046980362013,-0.7259089669734239
1761505171029355800,2.964355712890625,0.26854104655981065,0.5861848544627428,-0.7574173271760344
1761505171039391700,2.974391845703125,0.0454787256270647,0.5789934085886925,-0.7907660545483232
1761505171049426700,2.9844267578125,-0.2139133843153715,0.5767893226731569,-0.7566080566197634
1761505171059463000,2.994462890625,-0.4181593610972166,0.5240736315298825,-0.6982280561044811
1761505171069497600,3.00449755859375,-0.5254939466565847,0.4362891112234443,-0.6431725238367915
1761505171079532500,3.014532470703125,-0.5715419966042041,0.3919884163998067,-0.6682517277747392
1761505171089568500,3.024568603515625,-0.5276017325907946,0.36334574782662094,-0.7248167878225446
1761505171099603700,3.034603759765625,-0.3654273033410311,0.317352277610451,-0.7735320111528039
1761505171109639700,3.0446396484375,-0.15566870061755178,0.21242036927863955,-0.7522837636798619
1761505171119674600,3.054674560546875,0.0049801265001296995,0.07317074241191149,-0.6826788970559835
1761505171129709800,3.064709716796875,0.14246844278275966,-0.044467575823143125,-0.607695552264154
1761505171139745800,3.074745849609375,0.2805897962719202,-0.09106120388954878,-0.5209200628697872
1761505171149780700,3.08478076171875,0.32739012589156624,-0.05046352830231189,-0.4991793557047844
1761505171159817200,3.094817138671875,0.3455255020409822,0.05856997012943029,-0.5500318833246827
1761505171169852200,3.10485205078125,0.392572499898076,0.20140037809237837,-0.6227595581442117
1761505171179888000,3.11488818359375,0.3729150287479162,0.3385711528584361,-0.6657552347838879
1761505171189923000,3.124923095703125,0.26884850507378577,0.4322250035896897,-0.5949857082948088
1761505171199958000,3.1349580078125,0.16251695907711983,0.48500046209618447,-0.4399012373059988
1761505171209994000,3.144993896484375,0.09775134917795658,0.5252781119488179,-0.31455314841121434
1761505171220029200,3.155029296875,-0.012678864309191703,0.573234918127209,-0.29006664966940876
1761505171230065200,3.165065185546875,-0.16894728438556195,0.6402785559609532,-0.2991276157423854
1761505171240100000,3.17510009765625,-0.2563210319340229,0.6668332392789423,-0.3202852623224258
1761505171250136000,3.185135986328125,-0.35524084036946296,0.6586310819923877,-0.372326122944057
1761505171260171300,3.195171142578125,-0.43989013139009475,0.5940186168283224,-0.34462913772314785
1761505171270206200,3.205206298828125,-0.4852490300297737,0.5081815773278474,-0.26327918050885196
1761505171280242200,3.2152421875,-0.48049686706662176,0.4710987779937684,-0.24407471382319926
1761505171290277000,3.225277099609375,-0.33225276349186894,0.4656339367166161,-0.31397973243743177
1761505171300313300,3.235313232421875,-0.17459435036182402,0.46048400660753247,-0.3722147715240717
1761505171310348000,3.24534814453125,-0.03210661835670471,0.39802112069278955,-0.3529401622116565
1761505171320383000,3.255383056640625,0.031465982365608214,0.3117433516874909,-0.33028234020173547
1761505171330419000,3.2654189453125,0.0747492437750101,0.23095701970532534,-0.3217708247050643
1761505171340454100,3.2754541015625,0.11911796233355998,0.1764513764053583,-0.33547084875553845
1761505171350490000,3.285489990234375,0.08454115447103977,0.13483634046912193,-0.4209641893848777
1761505171360525000,3.295525146484375,0.07762099981904029,0.1228242695055902,-0.4769058568373322
1761505171370560300,3.305560302734375,0.08168108886480331,0.2063259979262948,-0.4662684352278709
1761505171380596200,3.31559619140625,0.21020283935964107,0.17189619731903075,-0.4235352089166641
1761505171390631200,3.325631103515625,0.3637053018540144,0.11931845334172247,-0.31866789025366304
1761505171400667100,3.335667236328125,0.32596155439317226,0.07034647877141832,-0.22040449990034103
1761505171410702300,3.345702392578125,0.2968938653409481,0.008792816656082869,-0.11834200952500104
1761505171420738300,3.35573828125,0.26069676280021664,0.02420300562530756,-0.05254413396865129
1761505171430773200,3.365773193359375,0.19756898323595523,0.05880553245097398,-0.0036699206843972204
1761505171440808000,3.375807861328125,0.10034019662737846,0.0598635170713067,-0.011920739418268203
1761505171450844200,3.38584423828125,0.10389175162911414,0.010130056609213352,-0.030155776549875734
1761505171460879000,3.395879150390625,0.16763386369943617,-0.058770168876647946,-0.07426496738940477
1761505171470915000,3.4059150390625,0.21718846046328544,-0.15319968015551566,-0.09628624506145715
1761505171480950000,3.415949951171875,0.2589817755758762,-0.2854401589125395,-0.07185615268200636
1761505171490985200,3.425985107421875,0.3003320230960846,-0.4109425615862012,-0.07308890934735536
1761505171501021200,3.436021240234375,0.35270927606523034,-0.4389920135065913,-0.08597703249305486
1761505171511056100,3.44605615234375,0.34740298635065553,-0.4033516680657863,-0.12296703897714614
1761505171521092000,3.456092041015625,0.32496494457125663,-0.4293086777515709,-0.14382716391533612
1761505171531127300,3.466127197265625,0.27782442321181294,-0.47610067793428895,-0.11359423047602175
1761505171541163300,3.476163330078125,0.11885843461453914,-0.5354819644466042,-0.10013649074882268
1761505171551198200,3.4861982421875,-0.0772726247727871,-0.5557866474591195,-0.09362637820243835
1761505171561233200,3.496233154296875,-0.13482172742187976,-0.5728539559856057,-0.031198855862021445
1761505171571269000,3.50626904296875,-0.24922610523700714,-0.5751125485673546,0.04860211834460497
1761505171581304000,3.516303955078125,-0.22938567873537538,-0.5953701775677501,0.10633739121556282
1761505171591340000,3.526340087890625,-0.11930617838203907,-0.6263777486413717,0.16180442689359187
1761505171601375000,3.536375,0.005195230555534363,-0.6353073434196412,0.16649492279738187
1761505171611410200,3.54641015625,0.0808931533575058,-0.6679053985550999,0.11540332572460174
1761505171621446100,3.556446044921875,0.14140110581219195,-0.6517303626932204,0.07148351997733116
1761505171631481000,3.566481201171875,0.20039105491936204,-0.553264143244177,0.14172083928585053
1761505171641517000,3.57651708984375,0.2339203995555639,-0.49198549867793917,0.22465572760403155
1761505171651552300,3.58655224609375,0.2038128460615873,-0.3948850146241486,0.3109074853852391
1761505171661587200,3.596587158203125,0.26018355258107184,-0.3269309839472174,0.4218561697885394
1761505171671623200,3.606623046875,0.42081835117340083,-0.29238267152681946,0.5304606291532517
1761505171681658000,3.616658203125,0.5122352366328239,-0.28577099830210206,0.5549098646245897
1761505171691694300,3.6266943359375,0.6052379299789666,-0.2472390230730176,0.5256346703015268
1761505171701729000,3.63672900390625,0.5840495959997177,-0.18777941062748432,0.5091121361762285
1761505171711764200,3.64676416015625,0.4005564843893051,-0.16329335027709602,0.48868572648018593
1761505171721800200,3.65680029296875,0.25925182468891145,-0.13037351584136486,0.39217151788175103
1761505171731835100,3.666835205078125,0.17727204513847827,-0.08309183244556188,0.3396504725277424
1761505171741871000,3.67687109375,0.08764321213960648,-0.041872956220060584,0.3450274893909693
1761505171751906000,3.686906005859375,0.02527180390059948,0.027579496321082114,0.3715517775706947
1761505171761942300,3.6969423828125,-0.026738369321823118,0.034998540405929084,0.38438933957293625
1761505171771977200,3.706977294921875,-0.03758066585361957,-0.05954159164056182,0.38592020240202546
1761505171782012200,3.71701220703125,-0.014171733215451239,-0.22652853573858736,0.34925533621907234
1761505171792048000,3.727048095703125,0.01208908172249794,-0.3737593706175685,0.2209627183049917
1761505171802083300,3.737083251953125,0.07261632339954376,-0.44540845642015336,0.041767450018972155
1761505171812119300,3.747119384765625,0.12372867099940776,-0.5010774444110692,-0.14175138055458664
1761505171822154000,3.757154052734375,0.1850479398369789,-0.5290352725252508,-0.2433148353666067
1761505171832189200,3.767189208984375,0.14919336712360382,-0.560881778641045,-0.26008301481604573
1761505171842225200,3.77722509765625,0.110764560008049,-0.6019174072541296,-0.24239392112940547
1761505171852260000,3.787260009765625,-0.09480418981015681,-0.602788491000235,-0.24617227062433958
1761505171862296000,3.797296142578125,-0.24830314517319202,-0.5858873328208923,-0.2741910351455211
1761505171872331300,3.807331298828125,-0.32107787400484084,-0.5951683713853358,-0.2854274455614388
1761505171882366200,3.8173662109375,-0.38370004213452336,-0.6138387311942876,-0.31722675153464075
1761505171892402200,3.827402099609375,-0.2933241901606321,-0.6298069924376904,-0.3469270394019782
1761505171902437000,3.83743701171875,-0.1359264737933874,-0.6174230194218456,-0.35355303341299293
1761505171912473000,3.84747314453125,-0.0035620763957500455,-0.6285922098204493,-0.41067908834442496
1761505171922508300,3.85750830078125,0.0029810616374015804,-0.6689806265711784,-0.5057723242290317
1761505171932543000,3.86754296875,-0.023920389291644095,-0.732633160661906,-0.5476411887958645
1761505171942579000,3.877578857421875,-0.008735679641366005,-0.7237561728537082,-0.6480185025632381
1761505171952614100,3.8876142578125,-0.04417641085684299,-0.5982526011362671,-0.7482122764572501
1761505171962650000,3.897650146484375,-0.3112748573929071,-0.38761385457739234,-0.9253468128211796
1761505171972685000,3.90768505859375,-0.5097311448574066,-0.2520335638731718,-1.0711617895528673
1761505171982720300,3.91772021484375,-0.6467629495441913,-0.33031127403527494,-1.0958655843071639
1761505171992756200,3.927756103515625,-0.8149719827830791,-0.5567109226971865,-0.9740369017101824
1761505172002791200,3.937791259765625,-0.9674076928287744,-0.7828639031216502,-0.8382309855565429
1761505172012827100,3.9478271484375,-1.0898808108091353,-0.8400776363365352,-0.7825077831603586
1761505172022862000,3.957862060546875,-1.1199369263768195,-0.6651693977199494,-0.8281940140582621
1761505172032897300,3.967897216796875,-1.046672952723503,-0.3808728558845818,-0.9040640785567462
1761505172042933200,3.977933349609375,-0.9826105226576328,-0.23583573165759442,-0.8899009670391679
1761505172052968000,3.987968017578125,-0.9557534953922032,-0.2600746853791177,-0.6984637645564973
1761505172063004200,3.998004150390625,-0.9445505488544702,-0.331745398491621,-0.3483139637157321
1761505172073039000,4.0080390625,-0.8819505925565958,-0.3783424606241286,-0.016648936983942986
1761505172083073000,4.018072998046875,-0.7170797638297081,-0.3968609908722341,0.16790508185625075
1761505172093109200,4.028109130859375,-0.5497247170716524,-0.34560733510553837,0.1968416918747127
1761505172103144200,4.038144287109375,-0.39986557951569557,-0.25307898127287626,0.10755173544138669
1761505172113179100,4.04817919921875,-0.1969254246354103,-0.1593304379954934,-0.027907997623085976
1761505172123215000,4.058215087890625,0.021295886006951332,-0.07858677611127496,-0.13199088791012764
1761505172133250300,4.068250244140625,0.21677403444349763,-0.002897036615759134,-0.18880656171813606
1761505172143286300,4.078286376953125,0.429490317928791,0.04259045683965087,-0.2028350870706141
1761505172153321000,4.088321044921875,0.6272755742639303,0.08657046834155917,-0.1701243653409183
1761505172163355400,4.09835546875,0.6965338194072246,0.13945610922425986,-0.13331877551302312
1761505172173391400,4.108391357421875,0.7024982807695865,0.20199001454859972,-0.08986234949380159
1761505172183426300,4.11842626953125,0.600580459561944,0.30767814807519317,-0.045803719797730444
1761505172193462300,4.128462158203125,0.3706856622606516,0.42728491683900355,-0.042578181879967446
1761505172203497500,4.13849755859375,0.0642751960337162,0.5146837988287211,-0.0691622374229133
1761505172213532400,4.148532470703125,-0.18099661861956118,0.5895525773301721,-0.08672025207579136
1761505172223568400,4.158568359375,-0.3685340371847152,0.6364085826598107,-0.13963716487959027
1761505172233603600,4.168603515625,-0.4971399588316679,0.705701460725069,-0.18811068840846418
1761505172243639600,4.1786396484375,-0.46620004616677757,0.711766459852457,-0.21113091398999093
1761505172253674500,4.188674560546875,-0.4678694406837225,0.68773968757689,-0.26668869669139383
1761505172263709400,4.19870947265625,-0.4104594542443752,0.6655828008264303,-0.32542773977741596
1761505172273745700,4.20874560546875,-0.2191986312419176,0.6468018202498554,-0.3534650628685951
1761505172283780400,4.2187802734375,-0.010811316871643066,0.6620638329200447,-0.3241999515481293
1761505172293816300,4.22881640625,0.09450316103696822,0.705929862653464,-0.3372783365689218
1761505172303851300,4.238851318359375,0.17627075914144516,0.721632312567532,-0.3610017419837415
1761505172313886500,4.248886474609375,0.26352584874629975,0.707113373349607,-0.3019584552541375
1761505172323922400,4.25892236328125,0.3006435732632875,0.6819817085720599,-0.24537293694019316
1761505172333957400,4.268957275390625,0.25490122826397416,0.6280158712372184,-0.2097419438496232
1761505172343993300,4.278993408203125,0.14025135125517843,0.5637552882507443,-0.19186609541922806
1761505172354028500,4.289028564453125,0.07891980745792389,0.5536525580398738,-0.12702172119542957
1761505172364063500,4.2990634765625,0.014316110122203827,0.5898372394904494,-0.0743576141089201
1761505172374099500,4.309099365234375,-0.1679851613551378,0.6054039341956376,-0.04750979306325316
1761505172384134700,4.319134765625,-0.2430973932236433,0.5737313233420253,0.009348550842702388
1761505172394170600,4.329170654296875,-0.2006248636752367,0.5330921467006207,0.13209157180562614
1761505172404205300,4.339205322265625,-0.21918694080412388,0.5357882539168,0.19236235450357198
1761505172414240300,4.349240234375,-0.1900502781689167,0.510297254307568,0.1495078399002552
1761505172424276200,4.359276123046875,-0.10381751734912395,0.48545872725769873,0.07422478150948882
1761505172434311400,4.3693115234375,-0.02807984705865383,0.5028276490792631,0.032388650168478486
1761505172444347400,4.379347412109375,0.013901684102416038,0.4926531688064337,0.029194238041341303
1761505172454382300,4.38938232421875,-0.05240355645418167,0.4588289328768849,-0.001084726496785879
1761505172464417500,4.39941748046875,-0.13259586806595325,0.4276695322424173,-0.01643193323239684
1761505172474453500,4.40945361328125,-0.2172691244840622,0.43934557618461545,0.008398264380544423
1761505172484488400,4.419488525390625,-0.40910336346030235,0.5150603770561516,-0.008283113568276166
1761505172494524400,4.4295244140625,-0.5364186607748269,0.609680734732002,-0.03999547191038728
1761505172504559600,4.4395595703125,-0.5832476319670676,0.7069662199638783,-0.027507746259123084
1761505172514594300,4.44959423828125,-0.5713637174278497,0.7725145777385681,0.06873524418249725
1761505172524630500,4.459630615234375,-0.47373394880294795,0.7784487900931387,0.17753464159741997
1761505172534665500,4.46966552734375,-0.31657062571346756,0.7217791006270796,0.24952406527027488
1761505172544701400,4.479701416015625,-0.20254852521419525,0.6460756979323923,0.4030233128942549
1761505172554736400,4.489736328125,-0.2164098773062229,0.5472923753581941,0.5148825362712145
1761505172564771300,4.499771240234375,-0.270528420984745,0.49260728383809327,0.5360657556839287
1761505172574807300,4.509807373046875,-0.2890501661032438,0.5110651699401438,0.4894629944629967
1761505172584842500,4.519842529296875,-0.30347499729692934,0.5535560388628393,0.3998031818039715
1761505172594878500,4.52987841796875,-0.20786007562577724,0.5480268271125853,0.3817236274950206
1761505172604913400,4.539913330078125,0.0279635272026062,0.5216542223632336,0.425276353495568
1761505172614948600,4.549948486328125,0.21446984915435313,0.527204038510099,0.4485809489764273
1761505172624984600,4.559984619140625,0.377076240080595,0.5319529866028577,0.4624614441603422
1761505172635019500,4.57001953125,0.4482599003285169,0.538691866403818,0.42504502895772456
1761505172645055500,4.580055419921875,0.3689613226860761,0.5609592277914285,0.3590539689168334
1761505172655091500,4.590091552734375,0.2935007157713175,0.5348299302786589,0.2670394098252058
1761505172665126400,4.60012646484375,0.15651684187948703,0.4255645227871835,0.1362524908773601
1761505172675162400,4.610162353515625,0.04711889404952526,0.3022131606675684,0.0139729957729578
1761505172685197300,4.620197265625,0.009319032487273216,0.20050715557970106,-0.09005962563157081
1761505172695232500,4.630232421875,-0.030803719064593314,0.1362464995279908,-0.10165712444484233
1761505172705268500,4.6402685546875,-0.07630290295779704,0.09990998851656913,-0.058269087486714125
1761505172715303400,4.650303466796875,-0.17300620438754558,0.06372457641363144,-0.0528479392208159
1761505172725339400,4.66033935546875,-0.3200590523511171,0.014450330961123107,-0.12733823979869485
1761505172735374300,4.670374267578125,-0.3674462419480085,-0.008286109242960811,-0.20325944996252654
1761505172745409500,4.680409423828125,-0.3887444660425186,-0.006400222431123257,-0.2252880341582
1761505172755445500,4.690445556640625,-0.3853238439440727,-0.04475464913621545,-0.18715645642355083
1761505172765480400,4.70048046875,-0.3689104692816734,-0.13363003341928123,-0.13056056284606457
1761505172775516400,4.710516357421875,-0.3038134354710579,-0.19258973351866004,-0.07999503547400236
1761505172785551600,4.720551513671875,-0.2655050398647785,-0.19889212159849703,-0.046485564582049846
1761505172795586300,4.73058642578125,-0.30931787810623645,-0.1753429767720401,-0.060275605003535744
1761505172805622300,4.740622314453125,-0.3862292683511972,-0.13547171576321124,-0.08158595792725681
1761505172815657500,4.750657470703125,-0.4553273544967174,-0.10337759156189859,-0.09662556001842021
1761505172825693400,4.760693359375,-0.4616384373396635,-0.11061302270814775,-0.06849120629355311
1761505172835728400,4.770728271484375,-0.39206513489782807,-0.13141330721788108,-0.03084507398828864
1761505172845763300,4.780763427734375,-0.33263153367638587,-0.16477343276701867,0.01602802860662341
1761505172855799600,4.790799560546875,-0.1904728874951601,-0.21335823465064166,0.0970103215523064
1761505172865834500,4.80083447265625,0.00542670122385025,-0.23950638299435376,0.11614128461033105
1761505172875870500,4.810870361328125,0.1368289755910635,-0.21164558551385998,0.09307283597290515
1761505172885905400,4.820905517578125,0.1651186660081148,-0.20251571892313658,0.04793751695603132
1761505172895940600,4.830940673828125,0.15641688863635062,-0.24704649617560206,0.037148558046668764
1761505172905976600,4.8409765625,0.08797463605105876,-0.30450799360647796,0.0440367101252079
1761505172916011300,4.85101123046875,-0.03537701832950115,-0.34057474776580926,0.03841477859020233
1761505172926047200,4.861047119140625,-0.16818799045085905,-0.36713498404175043,0.007008125196397304
1761505172936082400,4.87108251953125,-0.30019875210523606,-0.3766248430512845,-0.018540888210386037
1761505172946117400,4.881117431640625,-0.3693903617531061,-0.36627325264587995,-0.018670359808951615
1761505172956153300,4.8911533203125,-0.35308453911840915,-0.3848669670220464,-0.009776274735480546
1761505172966188500,4.9011884765625,-0.29050270299911496,-0.426592623725906,-0.011099632293730973
1761505172976224500,4.911224609375,-0.18174305307269095,-0.4714630081962794,-0.016722294481098653
1761505172986259500,4.921259521484375,-0.06010813948214054,-0.5133463396798819,0.0024304420173168182
1761505172996294400,4.93129443359375,-0.04652911146283149,-0.5312332209609448,-0.005090601137280464
1761505173006330400,4.941330322265625,-0.10386778623163699,-0.495416861366108,-0.03630392391607165
1761505173016365600,4.951365478515625,-0.17076222485303877,-0.4567590678002685,-0.06666589056253433
1761505173026401500,4.961401611328125,-0.21008067428469657,-0.4178543137360364,-0.06522109858170151
1761505173036436200,4.971436279296875,-0.23785890804827212,-0.4003882882155478,-0.10499167569503187
1761505173046471400,4.981471435546875,-0.2483867318034172,-0.39711394271999595,-0.16875629185810684
1761505173056507400,4.99150732421875,-0.3111100222200155,-0.38064306571669876,-0.20618118262812493
1761505173066542300,5.001542236328125,-0.30600656160116196,-0.38038719125948844,-0.2057745015233755
1761505173076578300,5.011578369140625,-0.15896481955349445,-0.4061475093293935,-0.1153456041879952
1761505173086613500,5.021613525390625,-0.04282674981355667,-0.42998949962258337,0.020340777239203453
1761505173096648400,5.0316484375,-0.04760404721796512,-0.47908042439743875,0.05798413306549191
1761505173106684400,5.041684326171875,-0.0963736310839653,-0.4756196164190769,0.039111528682708736
1761505173116719400,5.05171923828125,-0.14052198489010334,-0.43804450352340935,0.03818038531243801
1761505173126755600,5.061755615234375,-0.1366103644043207,-0.3796810157515108,0.0707837011449039
1761505173136790500,5.07179052734375,-0.060689154240489006,-0.34000016274824735,0.11229016214013099
1761505173146825500,5.081825439453125,-0.04435176742374897,-0.32602585180103777,0.16506357482001185
1761505173156861700,5.09186181640625,-0.004078793746232986,-0.3208864430859685,0.2456108373492956
1761505173166897000,5.10189697265625,-0.02762976520359516,-0.3430727751266211,0.3485654542587697
1761505173176932900,5.111932861328125,-0.14029460587501524,-0.377898662379384,0.436158689776808
1761505173186967800,5.1219677734375,-0.2534147890985012,-0.39883704018555577,0.5018205178633331
1761505173197003000,5.1320029296875,-0.286364288020134,-0.38990876058153806,0.4959994104944169
1761505173207039000,5.1420390625,-0.19947744720578192,-0.36716223737485704,0.4966927995860576
1761505173217074000,5.152073974609375,-0.030532500907778738,-0.3729176590964198,0.5367635286897421
1761505173227110000,5.16210986328125,0.16688567568063736,-0.37431422802135345,0.6092885205440223
1761505173237144800,5.172144775390625,0.2548071202397346,-0.3888436886332929,0.6261502234958112
1761505173247180000,5.182179931640625,0.2175122855901718,-0.40581856963597235,0.6161496384851635
1761505173257216000,5.192216064453125,0.10504033714234828,-0.39125023831836875,0.5721579365454614
1761505173267250700,5.202250732421875,0.004759761747717857,-0.3268300077907741,0.49222763687074184
1761505173277287000,5.212286865234375,-0.07732289365530014,-0.29485066907554863,0.40556525246202946
1761505173287321900,5.22232177734375,-0.18704525113403797,-0.31446620078012344,0.32635581440776584
1761505173297356800,5.232356689453125,-0.1599549996346235,-0.37505817825645205,0.27235066797584295
1761505173307392800,5.242392822265625,-0.03953472253084182,-0.43549350386634467,0.2651633868202567
1761505173317428000,5.252427978515625,-0.0017085574835538863,-0.4826595980584621,0.27741145849674936
1761505173327463000,5.262462890625,-0.015907178705930707,-0.5220704019486904,0.230205178424716
1761505173337499000,5.272498779296875,0.05310030654668808,-0.5120257586006075,0.22717998538464307
1761505173347533800,5.282533935546875,0.15767477974295616,-0.5095777078613638,0.17704598129764199
1761505173357570000,5.292570068359375,0.23528584268987177,-0.5696425196584314,0.11114493762776255
1761505173367605000,5.30260498046875,0.2421381928026676,-0.6352804554127156,0.023848493099212643
1761505173377640000,5.312639892578125,0.20450433545708654,-0.6894222338363528,0.01224456454515457
1761505173387676000,5.322676025390625,0.1315133335262537,-0.7530959568455815,0.03868555835559964
1761505173397710800,5.3327109375,-0.022530980759859084,-0.8022220990642904,0.07794190233647823
1761505173407746800,5.342746826171875,-0.20131986020207404,-0.8394942104253917,0.0832756645798683
1761505173417781800,5.35278173828125,-0.4174094195127487,-0.8503241589322685,0.047396834208071226
1761505173427817000,5.36281689453125,-0.5438976183533668,-0.8840656850144266,0.004175385988503694
1761505173437853000,5.37285302734375,-0.47080666317939757,-0.9470246838830411,0.05602408503890037
1761505173447888000,5.382887939453125,-0.3256055805623531,-1.0177115735899656,0.14694558819681405
1761505173457923800,5.392923828125,-0.15338322002887725,-1.1065192994643003,0.3008171762645244
1761505173467959000,5.402958984375,-0.13422142344117163,-1.1467431733030826,0.4542720002248883
1761505173477994000,5.412993896484375,-0.161309921374917,-1.139599804354459,0.5828767528280615
1761505173488030000,5.423030029296875,-0.27114275349080563,-1.0737361700855195,0.6658167557127773
1761505173498065000,5.43306494140625,-0.43528234533369536,-0.8706892668951303,0.5922692889429628
1761505173508100900,5.443100830078125,-0.4992389769375324,-0.4623799033567309,0.413998588155955
1761505173518135800,5.4531357421875,-0.45330490875840185,-0.045290728774294256,0.34149273939356206
1761505173528170800,5.463170654296875,-0.5062848037958145,0.015763897777721286,0.5261071101188659
1761505173538206700,5.473206787109375,-0.8923024752229451,-0.271454449788481,0.8299354508981108
1761505173548242000,5.483241943359375,-1.4745868151158092,-0.5752475731238722,1.0068760721251369
1761505173558278000,5.49327783203125,-2.072260447320342,-0.6312899244718253,0.9878377557866275
1761505173568312800,5.503312744140625,-2.5647832677453755,-0.49591187834143635,0.8320598957061767
1761505173578348000,5.51334814453125,-2.7256156347364184,-0.4214093758691102,0.6461382417745888
1761505173588384000,5.523384033203125,-2.528652800700068,-0.4301164139378816,0.5863929442554712
1761505173598419000,5.5334189453125,-2.1183353852748867,-0.5021998725697397,0.5999123510420322
1761505173608455000,5.543454833984375,-1.5553502046138048,-0.6519606643177569,0.6368043039791286
1761505173618489900,5.55348974609375,-1.0519587841719389,-0.7768069411702454,0.6823090408302843
1761505173628524800,5.56352490234375,-0.7100052953988313,-0.7957778913609683,0.6627011079102754
1761505173638561000,5.57356103515625,-0.48705111101567744,-0.7170357785575091,0.5787501744173467
1761505173648595700,5.583595703125,-0.2674181800097227,-0.5993313362836837,0.49101446168869733
1761505173658631000,5.593630859375,-0.0330003523260355,-0.4671783896796405,0.37891441529318687
1761505173668667000,5.6036669921875,0.17748305754065513,-0.3492321745391935,0.2679508255816996
1761505173678701800,5.613701904296875,0.3960200100034475,-0.25634360909201204,0.1933481506705284
1761505173688737800,5.62373779296875,0.5360404751121998,-0.14751447412595153,0.13749153115302323
1761505173698773000,5.63377294921875,0.6013017595738173,-0.060081982127577066,0.029443828888237475
1761505173708808000,5.643807861328125,0.6501128444939851,-0.022358619867637753,-0.05684489990249276
1761505173718844000,5.653843994140625,0.7127583934992552,0.04417772603109479,-0.11554375710859895
1761505173728878800,5.66387890625,0.7739560817837715,0.16915259769931434,-0.1562690045982599
1761505173738915000,5.6739150390625,0.7372188810169696,0.32143370170518754,-0.2353872572377324
1761505173748950000,5.683949951171875,0.620633067509532,0.46215880795195696,-0.3149498926438391
1761505173758984700,5.693984619140625,0.40848318573534487,0.546378110057488,-0.33335005720928307
1761505173769020700,5.704020751953125,0.18256196824014187,0.6003665976155549,-0.27958368796929717
1761505173779055900,5.714055908203125,-0.07444412334859371,0.6494764462865888,-0.211964442204684
1761505173789091800,5.724091796875,-0.5169359616696835,0.7075855939712375,-0.21159823924079535
1761505173799126800,5.734126708984375,-0.8599567874133587,0.7709722436673939,-0.2769448638983071
1761505173809162000,5.744161865234375,-1.1228998678356408,0.8467953272189944,-0.313483181092143
1761505173819198000,5.754197998046875,-1.2309405558377504,0.8658717105455697,-0.33397023493424055
1761505173829233000,5.76423291015625,-1.1476859340459107,0.8301986318789422,-0.33684462132677434
1761505173839268900,5.774268798828125,-0.9250351165235042,0.7425799696587025,-0.3799732766963541
1761505173849304000,5.784303955078125,-0.61867842631042,0.6984170028053224,-0.4841512979209423
1761505173859339000,5.794339111328125,-0.31640169888734815,0.6867730345018208,-0.6525095303721725
1761505173869375000,5.804375,-0.10640578027665615,0.6990288510933518,-0.8062380567073821
1761505173879409700,5.81440966796875,-0.04741816925704479,0.7125108484789728,-0.9326235258258878
1761505173889444900,5.82444482421875,-0.008627543091773986,0.7507464711099863,-1.0692273143589497
1761505173899480800,5.834480712890625,0.047181437891721724,0.8155529975414275,-1.1962471358582376
1761505173909515800,5.844515869140625,0.16537877824902533,0.8818797192774712,-1.2654206253275275
1761505173919551700,5.8545517578125,0.24365093545317648,0.9158844263404607,-1.2674987467758356
1761505173929587000,5.8645869140625,0.21289573170542717,0.9397517702706157,-1.3055514140553772
1761505173939622000,5.874621826171875,0.22636720769703386,0.9917983299806713,-1.322742641222477
1761505173949657900,5.884657958984375,0.2768646382689476,1.0158531593069433,-1.3173228081308304
1761505173959693000,5.894693115234375,0.4030845415621996,0.9389341702774167,-1.291130528384447
1761505173969729000,5.90472900390625,0.4906552729874849,0.8192939376354217,-1.2446812041595579
1761505173979764000,5.914763916015625,0.5184598102360963,0.6366475059822201,-1.152952476271987
1761505173989799000,5.924798828125,0.33861353069543837,0.43169601127952334,-1.10052568507269
1761505173999835000,5.9348349609375,0.15005378334522246,0.3057593088418245,-1.040776734291762
1761505174009869800,5.944869873046875,-0.08453063307702541,0.33219679552093145,-0.9786768364705145
1761505174019905800,5.95490576171875,-0.3029144408047199,0.3946989905327558,-0.9039543345719575
1761505174029940700,5.964940673828125,-0.3709796767711639,0.44544484290778635,-0.730590841179341
1761505174039976000,5.974975830078125,-0.41809506368935107,0.49101957625523207,-0.5597605195261538
1761505174050012000,5.985011962890625,-0.3485930729180574,0.5477507866501807,-0.4203939882814884
1761505174060046800,5.995046875,-0.2066238118290901,0.5807951242484152,-0.2365774899356067
1761505174070082000,6.00508203125,-0.16341770730912683,0.5886990292407572,-0.07498042218238114
1761505174080118000,6.015117919921875,-0.22517536756396292,0.5798411845244467,0.04214870442152023
1761505174090153000,6.025153076171875,-0.2202747360408306,0.5769691362194717,0.1459622762478888
1761505174100189000,6.03518896484375,-0.20632044496834276,0.5715412659518421,0.19133593406528232
1761505174110224100,6.04522412109375,-0.16573592112362384,0.5888453058436512,0.1746205077163875
1761505174120258800,6.0552587890625,-0.1168254674822092,0.6310141762703657,0.10190817659646272
1761505174130294800,6.065294677734375,0.0012993921607732772,0.648255526189506,-0.0024555764585733413
1761505174140329700,6.075329833984375,0.12729308548271656,0.6438613828837871,-0.0935395767018199
1761505174150366000,6.085365966796875,0.22982465467453,0.6102274088293314,-0.21852920754775404
1761505174160401400,6.0954013671875,0.36152386616170407,0.5870408867701887,-0.3839451029367745
1761505174170436400,6.105436279296875,0.4371808724313974,0.5709351167522371,-0.5193476989865303
1761505174180472300,6.115472412109375,0.4321978233218193,0.5757321417704224,-0.5811093047641217
1761505174190507300,6.12550732421875,0.4287199180781841,0.6062587974593043,-0.5677960880741477
1761505174200542200,6.135542236328125,0.26517244690954683,0.6652785571828485,-0.5661047739863395
1761505174210578200,6.145578125,0.06295826821625232,0.698601273331046,-0.5544460465051233
1761505174220613000,6.155613037109375,-0.05858312187194824,0.6471294447690248,-0.47727191367074845
1761505174230649300,6.1656494140625,-0.16891981185674668,0.5561255240246653,-0.3864531402349472
1761505174240684300,6.175684326171875,-0.12228957810699939,0.49472515277490015,-0.3420439435355365
1761505174250719200,6.18571923828125,-0.027822072905302045,0.4913362409889698,-0.3725757137909531
1761505174260755200,6.195755126953125,0.07354805129170418,0.5122174087151885,-0.37232203129082914
1761505174270790400,6.205790283203125,0.14011223504543305,0.5565338125646114,-0.39160438551828264
1761505174280826400,6.215826416015625,0.15023790774047374,0.6146817578896879,-0.4359206432372331
1761505174290861300,6.225861328125,0.13311784611344338,0.6194236917197704,-0.555335250429809
1761505174300896300,6.235896240234375,0.12892623964250086,0.584698123036325,-0.5919169683739542
1761505174310932200,6.24593212890625,0.13979367061555384,0.4875736735850572,-0.540308946211636
1761505174320967200,6.25596728515625,0.16653087089359758,0.353901700720191,-0.4534720820188522
1761505174331003100,6.266003173828125,0.1673328349262476,0.24366949402317403,-0.3254858997054398
1761505174341038300,6.276038330078125,0.15134557672142981,0.160590082667768,-0.2489982878305018
1761505174351073300,6.2860732421875,0.17811667926907537,0.10582301195263862,-0.21015417791232466
1761505174361109200,6.296109130859375,0.11297522179484366,0.031589754875749346,-0.21921119846254586
1761505174371144200,6.306144287109375,0.18465689469277857,-0.08641863878071307,-0.1782943739235401
1761505174381179400,6.316179443359375,0.26167466792166233,-0.2294742338016629,-0.07978957602977753
1761505174391215400,6.32621533203125,0.3160767047166824,-0.2999130670316517,0.029827129117399452
1761505174401250300,6.336250244140625,0.47138300176262854,-0.23050284619703887,0.11781769338995218
1761505174411286300,6.346286376953125,0.5069003053456544,-0.21335954982489347,0.18397125051617622
1761505174421321200,6.3563212890625,0.42539398852586746,-0.1842959524258971,0.1557343131996691
1761505174431356200,6.366356201171875,0.19257541273236273,-0.1781573035404086,0.09931874462515115
1761505174441392000,6.37639208984375,-0.032817981496453284,-0.23431261374354362,0.07066226672232151
1761505174451427300,6.38642724609375,-0.23523440476357935,-0.3024108751967549,0.06411109151318668
1761505174461462300,6.396462158203125,-0.24759938081800936,-0.4177420124679804,0.11016294085308909
1761505174471498200,6.406498291015625,-0.1570680460214615,-0.5323980269566178,0.1925948480851948
1761505174481533200,6.416533203125,-0.10421440771222114,-0.6232943956732749,0.32313027649000287
1761505174491569400,6.4265693359375,-0.1548357569247484,-0.6726578537791967,0.2963318475440144
1761505174501604400,6.436604248046875,-0.28608605560064315,-0.6485616695292293,0.16654504554942248
1761505174511639300,6.446639404296875,-0.4568967957705259,-0.564744299288094,0.015628654025495053
1761505174521675300,6.45667529296875,-0.5293628970444202,-0.5494115594692528,-0.06677958007007836
1761505174531710200,6.466710205078125,-0.5400695844978094,-0.5580221514262259,-0.05405760727152228
1761505174541746400,6.476746337890625,-0.40964579977393145,-0.5861822241142391,-0.004885872345417737
1761505174551781000,6.486781005859375,-0.24334347693920133,-0.6382960038416087,0.07252806059420108
1761505174561816300,6.49681640625,-0.048913376250863075,-0.7136822303459048,0.10425240163505077
1761505174571852300,6.506852294921875,0.09712591075599193,-0.7674296026244759,0.10857274905219673
1761505174581887200,6.51688720703125,0.22205752780437468,-0.7536290408089756,0.03429462992027402
1761505174591922200,6.526922119140625,0.27201135301887985,-0.6661315207503735,0.01865121671706438
1761505174601958400,6.53695849609375,0.28492402608394624,-0.5163648837834597,0.017917641745507716
1761505174611993300,6.546993408203125,0.21916239088475703,-0.3776077166087925,0.050888914107531304
1761505174622029300,6.557029296875,0.09005904110968112,-0.26761267966851593,0.1038191247843206
1761505174632064300,6.567064208984375,0.015310966378450393,-0.19327976160943508,0.09900237215235828
1761505174642099500,6.577099365234375,0.057334583115577695,-0.13063245903849602,0.07643105938211082
1761505174652135400,6.587135498046875,0.14835925438702105,-0.034171149671077726,0.08301219133809208
1761505174662170000,6.597170166015625,0.07387304546236992,0.11084259368032216,0.022562252680957316
1761505174672206000,6.6072060546875,0.03533668631911278,0.1479787306368351,0.005180325247347355
1761505174682241300,6.6172412109375,0.009981295788288116,0.09558438040241599,0.041482641728222365
1761505174692276200,6.627276123046875,0.04630056340396404,0.030467472847551105,0.05135097866132855
1761505174702312200,6.637312255859375,0.06976736370921134,0.03496259230971336,0.018966858537495135
1761505174712347400,6.647347412109375,0.06551029078662395,0.07682385809198021,-0.02431611061096191
1761505174722382300,6.65738232421875,0.11310673922002315,0.08104469065740703,0.00015475217029452322
1761505174732418300,6.667418212890625,0.14749357746839523,0.077265318249166,0.03536298980414867
1761505174742453200,6.677453369140625,0.08665244753658771,0.061276306478679175,0.055552960395812985
1761505174752489200,6.6874892578125,0.0872322932511568,0.030717940477281807,0.026962971857935187
1761505174762524400,6.6975244140625,0.1179278757661581,-0.0037567221850156782,-0.03728694360405206
1761505174772559000,6.70755908203125,0.16165186668038367,-0.07452478736937046,-0.08151742273569107
1761505174782595000,6.717594970703125,0.2743149537861347,-0.21244389628469942,-0.10369272192567586
1761505174792630300,6.72763037109375,0.39615678812563415,-0.37890930072665213,-0.0804483321994543
1761505174802665200,6.737665283203125,0.3983025679826736,-0.5075841959565878,-0.05728957493007183
1761505174812701200,6.747701171875,0.3735936586618423,-0.5963276244230568,-0.09084420013800262
1761505174822736400,6.757736328125,0.3531523436576128,-0.6425982310801744,-0.1851850102201104
1761505174832772400,6.7677724609375,0.260843477794528,-0.6457540647625922,-0.26328765607625243
1761505174842807300,6.777807373046875,0.16150106003284453,-0.6717449767179787,-0.3092535806983709
1761505174852842200,6.78784228515625,0.15304828898608683,-0.7226195700392126,-0.30388211679309607
1761505174862878200,6.797878173828125,0.22263854256272314,-0.7552648253172636,-0.26332535773813726
1761505174872913400,6.807913330078125,0.3386369115710258,-0.8073515709072351,-0.16103168895542622
1761505174882948000,6.817947998046875,0.4854080199837684,-0.9008413171179592,-0.006139964059740304
1761505174892984000,6.827984130859375,0.5984814414560794,-0.9709510645240544,0.1120262505069375
1761505174903019300,6.838019287109375,0.5814449664592742,-0.992174908208102,0.1645414506420493
1761505174913055200,6.84805517578125,0.44966099929809566,-0.9715693425528704,0.13975845317170024
1761505174923090200,6.858090087890625,0.22518471991419792,-0.9490214106582104,0.08979790595546364
1761505174933125400,6.86812548828125,-0.007111877831816673,-0.934670083092153,0.0524044332370162
1761505174943161300,6.878161376953125,-0.18257599676549432,-0.9230534411869943,0.037290596865862606
1761505174953196300,6.8881962890625,-0.2900876924574375,-0.8912743012189864,0.011395546500384808
1761505174963231200,6.898231201171875,-0.3901087401330471,-0.7910029320441186,-0.07141849191710352
1761505174973267200,6.90826708984375,-0.6285539236366748,-0.5963425297312438,-0.2004594439804554
1761505174983302400,6.918302490234375,-0.9277350231319665,-0.40144115826934573,-0.33646278240233657
1761505174993338400,6.92833837890625,-1.194469312530756,-0.37890857007429,-0.3550184297904372
1761505175003373300,6.938373291015625,-1.449760416895151,-0.44271030337736006,-0.29842604334428907
1761505175013408300,6.948408203125,-1.7942577449321746,-0.509768408127874,-0.28317221398055553
1761505175023444200,6.9584443359375,-2.0769693556636573,-0.46158831458762284,-0.3835464590080082
1761505175033479200,6.968479248046875,-2.137564986401796,-0.2943041411086917,-0.6172219438917934
1761505175043514400,6.978514404296875,-1.9789397740662096,-0.10469780731499194,-0.8397014965005218
1761505175053550300,6.98855029296875,-1.7241741548806429,-0.06645195555090903,-0.9321271206110715
1761505175063585300,6.998585205078125,-1.4665759426176548,-0.15683160691708325,-0.8612908124960958
1761505175073621200,7.008621337890625,-1.1920359479039906,-0.2708085531003773,-0.7902370622381567
1761505175083656200,7.01865625,-0.8472019352585077,-0.3436592697776854,-0.6820004132725298
1761505175093691400,7.02869140625,-0.4862076459288597,-0.3756444537118077,-0.5319951452441514
1761505175103727400,7.038727294921875,-0.16151450403630732,-0.3612846505783498,-0.37765652418658135
1761505175113762300,7.04876220703125,0.1067214220970869,-0.3232650087855756,-0.2605719673767686
1761505175123797200,7.05879736328125,0.341068522632122,-0.2795904099710286,-0.18246493760645388
1761505175133833200,7.068833251953125,0.5069301159620285,-0.2220800318971276,-0.12301862303391098
1761505175143868200,7.0788681640625,0.616595190295577,-0.14007526403591036,-0.12437456768751144
1761505175153904000,7.088904052734375,0.615215134114027,-0.07163827214762568,-0.1688829869776964
1761505175163938800,7.098938720703125,0.6084738431602716,-0.02183028514459729,-0.19064064527750013
1761505175173973800,7.108973876953125,0.6043453650534153,0.013115063769370317,-0.16147212619930504
1761505175184009700,7.119009765625,0.5808341410845518,0.02594561150893569,-0.1053705920100212
1761505175194045000,7.129044921875,0.47776948792934415,0.07887830640375613,-0.08787102954611181
1761505175204079900,7.139079833984375,0.35652971113622184,0.14086846024021504,-0.09632613868042826
1761505175214115800,7.14911572265625,0.19644494764208792,0.19742723667770623,-0.11454553985148667
1761505175224150800,7.15915087890625,-0.023732173243165015,0.23495734138786792,-0.1292773911677301
1761505175234187000,7.16918701171875,-0.21373335157334802,0.30287966175228354,-0.17376929771453142
1761505175244222000,7.179221923828125,-0.31661504937708373,0.4205943331591785,-0.24525325608327983
1761505175254256600,7.189256591796875,-0.36194179931282994,0.5497954442203045,-0.3195991797544062
1761505175264292600,7.199292724609375,-0.3732634037941694,0.6460238216146826,-0.4103263293839991
1761505175274327800,7.209327880859375,-0.3255956436902284,0.6632771542325615,-0.48693537568151946
1761505175284362800,7.21936279296875,-0.2646095523297787,0.6597212153166532,-0.5119435602098703
1761505175294398700,7.229398681640625,-0.2598287477940321,0.6688838881984353,-0.5072933963164686
1761505175304434000,7.239433837890625,-0.3086784111589193,0.7407736508890986,-0.5296268086776137
1761505175314470000,7.249469970703125,-0.3591892857342958,0.8520255560226738,-0.5463086250178516
1761505175324504800,7.2595048828125,-0.37212533967494965,0.950919060973078,-0.5055250714696944
1761505175334539800,7.269539794921875,-0.330971491509676,1.0249722853079437,-0.4419985018461942
1761505175344576000,7.279575927734375,-0.3063619509100914,1.053068937370926,-0.37307548000663515
1761505175354611000,7.28961083984375,-0.30380642120838164,1.036959952482581,-0.2765203548759222
1761505175364645600,7.299645751953125,-0.35186347289085385,0.9874605930373072,-0.1755453674763441
1761505175374681600,7.309681640625,-0.38398236620724197,0.9574379413478076,-0.11949819382280111
1761505175384716800,7.319716796875,-0.3725105396002531,0.9230421891406178,-0.09996011126860975
1761505175394751700,7.329751708984375,-0.3492284482121467,0.9177288851633667,-0.07852057900726794
1761505175404787700,7.33978759765625,-0.2581359724014997,0.9320110930159687,-0.04432181067690253
1761505175414823000,7.349822998046875,-0.11608663181364536,0.9927936246283352,-0.07067118068113923
1761505175424859000,7.35985888671875,0.04110241023898124,1.0538730933606624,-0.08787468280792236
1761505175434893800,7.369893798828125,0.14389350714981555,1.101750404562056,-0.10754077565595507
1761505175444928800,7.3799287109375,0.12083002694845199,1.1465388098374008,-0.014035247354209423
1761505175454965000,7.389965087890625,0.07952887926697731,1.2059385087892411,0.08083835443034768
1761505175465000000,7.4,0.02329670443534851,1.2317360901296137,0.16978665781915186
1761505175475034600,7.41003466796875,-0.012794599643349646,1.2001270460315048,0.21477789219021795
1761505175485070600,7.420070556640625,0.027371991050243377,1.1469462215945123,0.22320786688327787
1761505175495105800,7.430105712890625,0.07560498382151126,1.131672372356057,0.15810703368037937
1761505175505141800,7.440141845703125,0.11579846252202987,1.1364517155870795,0.07992796158716083
1761505175515176700,7.4501767578125,0.18386837466359138,1.1062941854715347,0.04267345894798636
1761505175525212000,7.4602119140625,0.25186580609083176,1.0374278622552753,0.09062339699417352
1761505175535248000,7.470247802734375,0.2776443904697895,0.9252019975230097,0.18069149819314478
1761505175545282800,7.48028271484375,0.2109679785132408,0.7781755991749465,0.21103519853055475
1761505175555317800,7.49031787109375,0.03534311605989933,0.604394464892149,0.1476562206842005
1761505175565354000,7.50035400390625,-0.21152678143978118,0.48298532288149,0.038292028993368143
1761505175575389000,7.510388916015625,-0.44475276899039745,0.4103502947814762,-0.04792100421264767
1761505175585423600,7.520423583984375,-0.6117138479948043,0.36436084315329786,-0.08826952734440564
1761505175595459600,7.53045947265625,-0.6196838039606809,0.30726138396784664,-0.11119798298925161
1761505175605494800,7.540494873046875,-0.5408534283518791,0.25880466544330116,-0.09854220729470252
1761505175615530800,7.55053076171875,-0.30452012243568893,0.20912001255899668,-0.06562602612078189
1761505175625565700,7.560565673828125,-0.027697569742798803,0.19443214651495216,-0.03514890866205096
1761505175635601000,7.570600830078125,0.21016952161192892,0.1742572273619473,-0.029166034860163927
1761505175645636900,7.580636962890625,0.40854046888053414,0.15880875220894813,-0.009524053540080785
1761505175655671800,7.590671875,0.4795347440361976,0.1734849278151989,0.0022316315095871684
1761505175665706800,7.600706787109375,0.377359733197093,0.2134920901633799,-0.03970386855266988
1761505175675743000,7.610742919921875,0.18276713542342185,0.27790252994932235,-0.056013855905830856
1761505175685778000,7.62077783203125,-0.08337854043245314,0.3265451995000243,-0.0600086246304214
1761505175695814000,7.63081396484375,-0.2675233939498663,0.3300772460836917,-0.06477379320561885
1761505175705848600,7.6408486328125,-0.3408656935364008,0.3186221514157951,-0.0035756665296852587
1761505175715883800,7.6508837890625,-0.35512627407908437,0.26400062665119767,0.057927872833609576
1761505175725919700,7.660919677734375,-0.2775350848764181,0.1837376609560102,0.10058438064679504
1761505175735954700,7.67095458984375,-0.21068156278729439,0.10484233035221695,0.12938260510787367
1761505175745990000,7.680989990234375,-0.18519757744073867,0.004513824162632227,0.13293869015425444
1761505175756025900,7.69102587890625,-0.15292553938925266,-0.06972776235118508,0.11998276246935129
1761505175766060800,7.701060791015625,-0.18668927730321883,-0.09493965275809169,0.06945698258578777
1761505175776095700,7.711095703125,-0.19753449644446372,-0.09546908345967531,0.03357099182084203
1761505175786132000,7.721132080078125,-0.24352877037823198,-0.05440313277356326,0.019055851995199918
1761505175796167000,7.7311669921875,-0.2954734771490097,-0.021771979086101054,0.004153174156695604
1761505175806203000,7.741202880859375,-0.27786826235353945,-0.017738704982027412,0.0902155468456447
1761505175816237800,7.75123779296875,-0.20894436373114586,-0.03517097436338663,0.18784473094865678
1761505175826272800,7.761272705078125,-0.07304945411980152,-0.1104579782769084,0.2791970267392695
1761505175836308700,7.771308837890625,0.04871873046159744,-0.19525632237941026,0.31437501536533236
1761505175846343700,7.78134375,0.13323767310082912,-0.30679376645609735,0.25345760532692074
1761505175856379000,7.79137890625,0.10927578275501727,-0.40188115712180733,0.1534990284282714
1761505175866414800,7.801414794921875,-0.010569909331202507,-0.4493342515617609,0.13352058169543743
1761505175876449800,7.81144970703125,-0.05783727194070816,-0.4325672411561012,0.08528108611814678
1761505175886484700,7.821484619140625,-0.12715513831675052,-0.3877969560593366,0.10893252227529883
1761505175896521000,7.83152099609375,-0.15857728154063225,-0.4050375753261149,0.16625789917111397
1761505175906556000,7.841555908203125,-0.0966524480253458,-0.5158481664329767,0.23440379915833473
1761505175916591900,7.851591796875,-0.11951894434988498,-0.5900228982556611,0.24628376817479727
1761505175926626800,7.861626708984375,-0.1845084261327982,-0.6135434015095234,0.19115955458506942
1761505175936661800,7.871661865234375,-0.24780337895750998,-0.6349713163983076,0.11876330367699264
1761505175946697700,7.88169775390625,-0.26861937249302864,-0.6810413589820266,0.05576616475507617
1761505175956732700,7.891732666015625,-0.29835750815272327,-0.7293082540228962,-0.012369213838130236
1761505175966767900,7.901767822265625,-0.2804945192039013,-0.7620301547337323,-0.029373540131002664
1761505175976803800,7.911803955078125,-0.26669103477895256,-0.7876522333767264,0.001440700327605009
1761505175986838800,7.9218388671875,-0.244556359860301,-0.7785274082873016,-0.019385083949565885
1761505175996873700,7.931873779296875,-0.23272505229115484,-0.7083761598270386,-0.02494812490418553
1761505176006910000,7.941909912109375,-0.2557663206607103,-0.673236018993333,-0.011965893734246492
1761505176016945000,7.95194482421875,-0.2685346168190241,-0.6490413428049534,0.009492635488510131
1761505176026980900,7.96198095703125,-0.2806318818479776,-0.6491533518120646,0.03886179170534015
1761505176037015800,7.972015869140625,-0.27118308550119397,-0.6595958353713154,0.0697515085529536
1761505176047050800,7.98205078125,-0.21364918042123315,-0.6955179934281855,0.08771993063762784
1761505176057086700,7.992086669921875,-0.10881225689649582,-0.7550818699657916,0.09927673211432993
1761505176067121700,8.00212158203125,0.006751812347769737,-0.8006110106058418,0.1275634268566966
1761505176077156900,8.012156982421875,0.0913672010987997,-0.8215882591176777,0.16613989881463348
1761505176087191800,8.02219189453125,0.08817688062489032,-0.8711389834240079,0.20491803082451224
1761505176097226800,8.032226806640624,0.03877016789913177,-0.8956695405032485,0.20422844112515448
1761505176107263000,8.042262939453124,-0.03068330755531788,-0.8758877853862941,0.18997450951896608
1761505176117298000,8.0522978515625,-0.14356208323836325,-0.7973167183008044,0.15752558053061366
1761505176127332900,8.062332763671876,-0.1304407358586788,-0.6979305344626308,0.1461357331186533
1761505176137368800,8.072368896484376,-0.15847674377560614,-0.6349864409022032,0.10083236405849456
1761505176147403800,8.08240380859375,-0.12305763987004756,-0.6425503002852201,0.09987696302980184
1761505176157438700,8.092438720703125,-0.05623977361619472,-0.6986925318110734,0.04807692542672157
1761505176167474700,8.102474609375,-0.0630377631932497,-0.7678400831215083,-0.009017711453139782
1761505176177510000,8.112510009765625,-0.10493278511464595,-0.7621302541073411,0.08955036093518137
1761505176187544600,8.122544677734375,-0.1326291858136654,-0.6567122427590191,0.17105127092748879
1761505176197580500,8.13258056640625,-0.22367431535124777,-0.5601575560197234,0.21214739755615591
1761505176207615500,8.142615478515625,-0.3274930017441511,-0.5145988239590078,0.1695842671148479
1761505176217651700,8.152651611328125,-0.32043489992618557,-0.5119191564209759,0.11574833976998924
1761505176227686700,8.162686767578125,-0.22042963434159754,-0.49530127216242253,0.11829100999012589
1761505176237721600,8.1727216796875,-0.06996727019548415,-0.49750031657665966,0.1969220636345446
1761505176247757600,8.182757568359374,0.05204582905769348,-0.5328395601790398,0.28704087210744617
1761505176257792800,8.192792724609374,0.1198357552140951,-0.5630781196415424,0.3407638405971229
1761505176267827700,8.20282763671875,0.07823240971565246,-0.564529414428398,0.35292131138071414
1761505176277863700,8.21286376953125,-0.007789338701963424,-0.5552963797241449,0.24517566080242395
1761505176287899000,8.22289892578125,-0.07237374681532383,-0.5348096181429922,0.08377060848996043
1761505176297933600,8.23293359375,-0.06748772833943367,-0.4800536533437669,0.02830269602909684
1761505176307969500,8.242969482421875,-0.00969488006234169,-0.4183126519627869,0.1341752462118864
1761505176318004700,8.253004638671875,0.09842413387298583,-0.40119704731516537,0.26118410792574287
1761505176328039700,8.263039794921875,0.1495768134832382,-0.3949680167324841,0.3402773722544312
1761505176338075600,8.27307568359375,0.12684826432466506,-0.4031744118027389,0.3909676950499415
1761505176348110600,8.283110595703125,0.05391629910469055,-0.4611543070845306,0.4261220105394721
1761505176358146600,8.293146484375,-0.04402443516552448,-0.5538175393432379,0.4092394109301269
1761505176368181800,8.303181640625,-0.11653554462492466,-0.6256959038570523,0.3550217907913029
1761505176378216700,8.313216796875,-0.12864800722301006,-0.667603200738132,0.27505861176028845
1761505176388252700,8.323252685546874,-0.12025076575577258,-0.6464912199307232,0.3203764477372169
1761505176398288000,8.333287841796874,-0.06876549319028855,-0.5826843720611184,0.41212914102226494
1761505176408322600,8.343322509765626,-0.061768766170740126,-0.606325944411382,0.4870043492645025
1761505176418358500,8.353358642578126,-0.19393968682289123,-0.6998630368951708,0.46006125115081664
1761505176428393700,8.363393798828126,-0.3871405379772186,-0.8127706733465194,0.37687107289731503
1761505176438428700,8.3734287109375,-0.45034956608414645,-0.8133823024388402,0.35169571510851383
1761505176448464600,8.383464599609376,-0.41134675847291946,-0.6825726602025329,0.40720702831968664
1761505176458499600,8.39349951171875,-0.3099637747943401,-0.4850849255092442,0.3512275130748749
1761505176468535600,8.40353564453125,-0.18541092793047428,-0.17999460197016595,0.10285744014531373
1761505176478570800,8.41357080078125,-0.06574702215194701,0.18416611550115047,-0.16942951494455336
1761505176488605700,8.423605712890625,0.04067337117195129,0.3596987696263939,-0.15678016899079084
1761505176498641700,8.4336416015625,-0.12026420975923538,0.2647999603353441,0.08546075353398919
1761505176508676900,8.4436767578125,-0.6598071400344372,0.043928135184198615,0.3007251140668988
1761505176518711600,8.453711669921875,-1.344773855766654,0.04876519995182752,0.22031638322547076
1761505176528747800,8.463747802734375,-1.8748855253517627,0.32363552259840067,-0.04901055301502347
1761505176538782700,8.47378271484375,-2.1782120540887115,0.47294192164242266,-0.20395897653400896
1761505176548817700,8.483817626953124,-1.7775883496820926,0.3937105640172958,-0.1113302310667932
1761505176558853600,8.493853515625,-1.263403148025274,0.4556608242347836,0.06508724306896328
1761505176568888600,8.503888671875,-1.6325111857056618,0.8907719046548008,0.3450945632778108
1761505176578923800,8.513923828125,-2.1659107909202575,-0.07962766346633433,1.2628928604155778
1761505176588959700,8.523959716796876,-1.5529115792900323,-0.5314507361691445,1.3031598427437245
1761505176598994700,8.53399462890625,-0.9105752140164375,-0.33023806266859174,1.34957877183035
1761505176609030700,8.54403076171875,-0.0738040718793869,-0.036276086061075324,0.9342451356783509
1761505176619065900,8.55406591796875,0.23190204547047613,0.1327090461168438,0.33555954995229836
1761505176629100800,8.564100830078125,0.22818974694907665,0.15279044176749884,-0.0642353024147451
1761505176639136800,8.57413671875,0.18333645974397658,0.4407796275757253,-0.48389045502766964
