time,seconds_elapsed,z,y,x
1761505762472515600,0.076515625,-0.94097900390625,-0.036773681640625,-0.2297821044921875
1761505762482550500,0.086550537109375,-0.92828369140625,-0.0435028076171875,-0.233306884765625
1761505762492586500,0.09658642578125,-0.905059814453125,-0.061981201171875,-0.234954833984375
1761505762502622700,0.106622802734375,-0.8835906982421875,-0.0729522705078125,-0.2305755615234375
1761505762512658700,0.11665869140625,-0.87823486328125,-0.0804595947265625,-0.23004150390625
1761505762522694700,0.126694580078125,-0.86651611328125,-0.0942535400390625,-0.2091522216796875
1761505762532730600,0.136730712890625,-0.8610076904296875,-0.118072509765625,-0.170440673828125
1761505762542766600,0.1467666015625,-0.8543853759765625,-0.1388702392578125,-0.1346588134765625
1761505762552802600,0.156802490234375,-0.8382110595703125,-0.151214599609375,-0.111907958984375
1761505762562838500,0.166838623046875,-0.8398590087890625,-0.1545562744140625,-0.09979248046875
1761505762572874500,0.17687451171875,-0.8466644287109375,-0.1578521728515625,-0.0966644287109375
1761505762582910500,0.186910400390625,-0.836212158203125,-0.1661224365234375,-0.0950927734375
1761505762592946400,0.196946533203125,-0.860198974609375,-0.1722412109375,-0.095245361328125
1761505762602982400,0.206982421875,-0.8912506103515625,-0.1710205078125,-0.09967041015625
1761505762613018600,0.2170185546875,-0.8934173583984375,-0.1713104248046875,-0.0987091064453125
1761505762623054600,0.2270546875,-0.8939971923828125,-0.1754150390625,-0.08526611328125
1761505762633089500,0.237089599609375,-0.9175872802734375,-0.175048828125,-0.084503173828125
1761505762643125500,0.24712548828125,-0.9306793212890625,-0.1623992919921875,-0.09552001953125
1761505762653161500,0.257161376953125,-1.006439208984375,-0.15679931640625,-0.1123504638671875
1761505762663197400,0.267197509765625,-1.1082763671875,-0.1530303955078125,-0.1524505615234375
1761505762673233400,0.2772333984375,-1.18316650390625,-0.1483154296875,-0.1890869140625
1761505762683269400,0.287269287109375,-1.2469635009765625,-0.168304443359375,-0.219635009765625
1761505762693305600,0.2973056640625,-1.281341552734375,-0.211883544921875,-0.228607177734375
1761505762703341600,0.307341552734375,-1.3617401123046875,-0.240692138671875,-0.2451019287109375
1761505762713377500,0.31737744140625,-1.4654998779296875,-0.225189208984375,-0.27996826171875
1761505762723413500,0.32741357421875,-1.5821990966796875,-0.1591033935546875,-0.3225860595703125
1761505762733449500,0.337449462890625,-1.7169342041015625,-0.0912322998046875,-0.34002685546875
1761505762743485400,0.3474853515625,-1.8054656982421875,-0.0680389404296875,-0.3467559814453125
1761505762753521400,0.357521484375,-1.8608856201171875,-0.0865936279296875,-0.348114013671875
1761505762763557600,0.3675576171875,-1.8330230712890625,-0.1149444580078125,-0.3691558837890625
1761505762773592600,0.377592529296875,-1.740570068359375,-0.1547393798828125,-0.39263916015625
1761505762783628500,0.387628662109375,-1.6709442138671875,-0.1959381103515625,-0.4144439697265625
1761505762793664500,0.39766455078125,-1.653533935546875,-0.2107086181640625,-0.3779754638671875
1761505762803700500,0.407700439453125,-1.639373779296875,-0.2126922607421875,-0.266998291015625
1761505762813736700,0.41773681640625,-1.6274261474609375,-0.231903076171875,-0.1602935791015625
1761505762823772700,0.427772705078125,-1.570343017578125,-0.250396728515625,-0.1332244873046875
1761505762833808600,0.43780859375,-1.4552459716796875,-0.226409912109375,-0.145294189453125
1761505762843844600,0.4478447265625,-1.3233489990234375,-0.179718017578125,-0.164825439453125
1761505762853880600,0.457880615234375,-1.2126312255859375,-0.1307373046875,-0.1840057373046875
1761505762863916500,0.46791650390625,-1.1526947021484375,-0.13427734375,-0.181060791015625
1761505762873952500,0.477952392578125,-1.0909576416015625,-0.1636962890625,-0.164154052734375
1761505762883988700,0.48798876953125,-0.995574951171875,-0.1816558837890625,-0.1381378173828125
1761505762894024700,0.498024658203125,-0.8997650146484375,-0.180450439453125,-0.1073455810546875
1761505762904060700,0.508060791015625,-0.826385498046875,-0.17974853515625,-0.06658935546875
1761505762914096600,0.5180966796875,-0.7693328857421875,-0.1966094970703125,-0.0056610107421875
1761505762924132600,0.528132568359375,-0.692779541015625,-0.2216033935546875,0.0222930908203125
1761505762934167600,0.53816748046875,-0.5928192138671875,-0.220672607421875,-0.006927490234375
1761505762944203500,0.54820361328125,-0.50518798828125,-0.2007598876953125,-0.052154541015625
1761505762954239500,0.558239501953125,-0.369598388671875,-0.1786651611328125,-0.1197052001953125
1761505762964275700,0.568275634765625,-0.2010040283203125,-0.1598968505859375,-0.144012451171875
1761505762974311700,0.578311767578125,-0.10955810546875,-0.154144287109375,-0.1008758544921875
1761505762984347600,0.58834765625,-0.07305908203125,-0.1661376953125,-0.0602264404296875
1761505762994383600,0.598383544921875,-0.049041748046875,-0.1740264892578125,-0.0303192138671875
1761505763004419600,0.608419677734375,-0.041748046875,-0.180511474609375,-0.02520751953125
1761505763014455600,0.61845556640625,-0.06561279296875,-0.17742919921875,-0.03448486328125
1761505763024491500,0.628491455078125,-0.109710693359375,-0.1669921875,-0.03509521484375
1761505763034527500,0.638527587890625,-0.1579437255859375,-0.1593475341796875,-0.025970458984375
1761505763044563500,0.6485634765625,-0.2092132568359375,-0.1562957763671875,-0.0118408203125
1761505763054599400,0.658599365234375,-0.2538299560546875,-0.14495849609375,-0.0021820068359375
1761505763064635400,0.668635498046875,-0.29022216796875,-0.1680145263671875,-0.005401611328125
1761505763074670600,0.678670654296875,-0.30804443359375,-0.1881561279296875,-0.021270751953125
1761505763084706600,0.68870654296875,-0.2998504638671875,-0.18646240234375,-0.0326385498046875
1761505763094742500,0.698742431640625,-0.2793731689453125,-0.169036865234375,-0.0362396240234375
1761505763104778500,0.708778564453125,-0.2967681884765625,-0.1450347900390625,-0.0426177978515625
1761505763114814500,0.718814453125,-0.32720947265625,-0.1446990966796875,-0.050750732421875
1761505763124850400,0.728850341796875,-0.3470458984375,-0.1562652587890625,-0.0501251220703125
1761505763134886400,0.738886474609375,-0.38568115234375,-0.1613311767578125,-0.0485687255859375
1761505763144922400,0.74892236328125,-0.4675140380859375,-0.1673736572265625,-0.0453948974609375
1761505763154958600,0.75895849609375,-0.57476806640625,-0.176849365234375,-0.0384979248046875
1761505763164994600,0.76899462890625,-0.679290771484375,-0.1721954345703125,-0.048858642578125
1761505763175030500,0.779030517578125,-0.8022918701171875,-0.1365814208984375,-0.1243133544921875
1761505763185066500,0.78906640625,-0.9862518310546875,-0.09161376953125,-0.2232208251953125
1761505763195102500,0.7991025390625,-1.200164794921875,-0.0611724853515625,-0.2877349853515625
1761505763205138400,0.809138427734375,-1.457763671875,-0.05987548828125,-0.3083953857421875
1761505763215174700,0.819174560546875,-1.6826171875,-0.1121368408203125,-0.2740936279296875
1761505763225210600,0.829210693359375,-1.8663787841796875,-0.176910400390625,-0.2213287353515625
1761505763235245600,0.83924560546875,-2.1293487548828125,-0.18115234375,-0.2177276611328125
1761505763245281500,0.849281494140625,-2.4715728759765625,-0.1451568603515625,-0.24346923828125
1761505763255317500,0.8593173828125,-2.810821533203125,-0.1057891845703125,-0.2968902587890625
1761505763265353500,0.869353515625,-2.998382568359375,-0.084991455078125,-0.39300537109375
1761505763275389700,0.8793896484375,-2.988677978515625,-0.1015472412109375,-0.4736175537109375
1761505763285425700,0.88942578125,-2.7920684814453125,-0.155364990234375,-0.5224456787109375
1761505763295461600,0.899461669921875,-2.4719696044921875,-0.2121124267578125,-0.559783935546875
1761505763305497600,0.90949755859375,-2.1712799072265625,-0.271820068359375,-0.5542755126953125
1761505763315533600,0.919533447265625,-1.92730712890625,-0.328521728515625,-0.518280029296875
1761505763325569500,0.929569580078125,-1.7322845458984375,-0.352203369140625,-0.4512939453125
1761505763335605500,0.93960546875,-1.5919342041015625,-0.3443603515625,-0.36126708984375
1761505763345641700,0.949641845703125,-1.4890899658203125,-0.317474365234375,-0.265838623046875
1761505763355677700,0.959677734375,-1.3669586181640625,-0.283416748046875,-0.181976318359375
1761505763365713700,0.969713623046875,-1.2195281982421875,-0.25323486328125,-0.1268463134765625
1761505763375749600,0.97974951171875,-1.082000732421875,-0.233856201171875,-0.083587646484375
1761505763385785600,0.98978564453125,-0.9767913818359375,-0.2268524169921875,-0.053436279296875
1761505763395820500,0.999820556640625,-0.8813934326171875,-0.2229461669921875,-0.061279296875
1761505763405856500,1.0098564453125,-0.7562408447265625,-0.2170257568359375,-0.0973968505859375
1761505763415892500,1.019892578125,-0.6137542724609375,-0.21966552734375,-0.137481689453125
1761505763425928700,1.0299287109375,-0.496917724609375,-0.2251129150390625,-0.159576416015625
1761505763435964700,1.039964599609375,-0.433135986328125,-0.2348175048828125,-0.161590576171875
1761505763446000600,1.050000732421875,-0.38653564453125,-0.25555419921875,-0.1447601318359375
1761505763456036600,1.06003662109375,-0.353790283203125,-0.2722625732421875,-0.114654541015625
1761505763466072600,1.070072509765625,-0.3300628662109375,-0.2820281982421875,-0.0882415771484375
1761505763476108500,1.080108642578125,-0.3126068115234375,-0.2819671630859375,-0.0825042724609375
1761505763486144500,1.09014453125,-0.25787353515625,-0.256988525390625,-0.0987396240234375
1761505763496180500,1.100180419921875,-0.1956787109375,-0.2043914794921875,-0.1175079345703125
1761505763506216400,1.110216552734375,-0.17303466796875,-0.1478729248046875,-0.1102752685546875
1761505763516252400,1.12025244140625,-0.151824951171875,-0.102569580078125,-0.08636474609375
1761505763526288400,1.130288330078125,-0.1432037353515625,-0.079132080078125,-0.05615234375
1761505763536324600,1.14032470703125,-0.1341552734375,-0.06915283203125,-0.0207061767578125
1761505763546360600,1.150360595703125,-0.1235504150390625,-0.065765380859375,0.018035888671875
1761505763556396500,1.160396484375,-0.1303558349609375,-0.074127197265625,0.044921875
1761505763566432500,1.1704326171875,-0.1240234375,-0.0856781005859375,0.0471954345703125
1761505763576467500,1.180467529296875,-0.1281890869140625,-0.0945892333984375,0.03570556640625
1761505763586503400,1.19050341796875,-0.1775970458984375,-0.112579345703125,0.0208587646484375
1761505763596539400,1.200539306640625,-0.2643585205078125,-0.1262054443359375,-0.000885009765625
1761505763606575600,1.21057568359375,-0.3302764892578125,-0.1361083984375,-0.0105133056640625
1761505763616611600,1.220611572265625,-0.3459930419921875,-0.13507080078125,-0.0297088623046875
1761505763626647600,1.2306474609375,-0.33673095703125,-0.128936767578125,-0.08453369140625
1761505763636683500,1.24068359375,-0.355316162109375,-0.140869140625,-0.1361846923828125
1761505763646719500,1.250719482421875,-0.4183502197265625,-0.1735382080078125,-0.1809234619140625
1761505763656755500,1.26075537109375,-0.4954681396484375,-0.2168731689453125,-0.222320556640625
1761505763666791400,1.27079150390625,-0.6271514892578125,-0.2331085205078125,-0.2629547119140625
1761505763676827600,1.28082763671875,-0.717742919921875,-0.21478271484375,-0.3193359375
1761505763686863600,1.290863525390625,-0.8185272216796875,-0.177642822265625,-0.34912109375
1761505763696899600,1.300899658203125,-1.0039825439453125,-0.14068603515625,-0.34356689453125
1761505763706935600,1.310935546875,-1.26153564453125,-0.13287353515625,-0.3204345703125
1761505763716971500,1.320971435546875,-1.6253204345703125,-0.1634063720703125,-0.28985595703125
1761505763727007700,1.3310078125,-2.035980224609375,-0.245758056640625,-0.290618896484375
1761505763737043700,1.341043701171875,-2.4447174072265625,-0.36688232421875,-0.28436279296875
1761505763747078700,1.35107861328125,-2.76025390625,-0.4245452880859375,-0.27734375
1761505763757114600,1.361114501953125,-2.9480743408203125,-0.3737640380859375,-0.3405914306640625
1761505763767150600,1.371150634765625,-2.9103851318359375,-0.3442230224609375,-0.4366912841796875
1761505763777186600,1.3811865234375,-2.6931304931640625,-0.33721923828125,-0.565032958984375
1761505763787222500,1.391222412109375,-2.41094970703125,-0.3563995361328125,-0.642120361328125
1761505763797258500,1.401258544921875,-2.1111297607421875,-0.3890228271484375,-0.6418304443359375
1761505763807294700,1.411294677734375,-1.85650634765625,-0.43206787109375,-0.5773773193359375
1761505763817330700,1.42133056640625,-1.6804351806640625,-0.4737396240234375,-0.464691162109375
1761505763827366700,1.43136669921875,-1.5163421630859375,-0.4854583740234375,-0.3555145263671875
1761505763837402600,1.441402587890625,-1.3639068603515625,-0.4569091796875,-0.2787628173828125
1761505763847438600,1.4514384765625,-1.2581634521484375,-0.392913818359375,-0.2221832275390625
1761505763857474600,1.461474609375,-1.188201904296875,-0.3334808349609375,-0.1649322509765625
1761505763867510500,1.471510498046875,-1.12225341796875,-0.3264923095703125,-0.083099365234375
1761505763877546500,1.48154638671875,-1.046051025390625,-0.3351898193359375,-0.0109405517578125
1761505763887582500,1.49158251953125,-0.9600372314453125,-0.3253936767578125,0.002777099609375
1761505763897618400,1.501618408203125,-0.8592987060546875,-0.311553955078125,-0.019287109375
1761505763907654400,1.511654296875,-0.7534942626953125,-0.29718017578125,-0.0332489013671875
1761505763917690600,1.521690673828125,-0.667999267578125,-0.284912109375,-0.0148773193359375
1761505763927726600,1.5317265625,-0.582550048828125,-0.2670135498046875,0.0150909423828125
1761505763937761500,1.541761474609375,-0.5009002685546875,-0.2537078857421875,0.0243988037109375
1761505763947797500,1.551797607421875,-0.400543212890625,-0.25860595703125,0.022979736328125
1761505763957833500,1.56183349609375,-0.317596435546875,-0.248870849609375,-0.001129150390625
1761505763967869400,1.571869384765625,-0.274627685546875,-0.22039794921875,-0.0546875
1761505763977905400,1.581905517578125,-0.2044525146484375,-0.2044525146484375,-0.11346435546875
1761505763987941400,1.59194140625,-0.113800048828125,-0.19573974609375,-0.160125732421875
1761505763997977600,1.6019775390625,-0.0544586181640625,-0.1885528564453125,-0.1839141845703125
1761505764008013600,1.612013671875,-0.0249786376953125,-0.184661865234375,-0.1811370849609375
1761505764018049500,1.622049560546875,-0.027587890625,-0.167877197265625,-0.164154052734375
1761505764028085500,1.63208544921875,-0.071014404296875,-0.1505889892578125,-0.141937255859375
1761505764038121500,1.64212158203125,-0.115509033203125,-0.1491546630859375,-0.1145782470703125
1761505764048157400,1.652157470703125,-0.16510009765625,-0.1563873291015625,-0.077362060546875
1761505764058193400,1.662193359375,-0.221771240234375,-0.156341552734375,-0.04608154296875
1761505764068229400,1.6722294921875,-0.27490234375,-0.1497344970703125,-0.0279388427734375
1761505764078265300,1.682265380859375,-0.3036956787109375,-0.1434326171875,-0.0356597900390625
1761505764088301300,1.69230126953125,-0.326202392578125,-0.1321563720703125,-0.0630645751953125
1761505764098337500,1.702337646484375,-0.3533782958984375,-0.1290740966796875,-0.0988922119140625
1761505764108373500,1.71237353515625,-0.3649139404296875,-0.1305389404296875,-0.1273345947265625
1761505764118408400,1.722408447265625,-0.38909912109375,-0.1356353759765625,-0.1503753662109375
1761505764128444400,1.7324443359375,-0.41876220703125,-0.13482666015625,-0.140045166015625
1761505764138480400,1.74248046875,-0.43280029296875,-0.1197357177734375,-0.103515625
1761505764148516400,1.752516357421875,-0.4713287353515625,-0.09539794921875,-0.0735626220703125
1761505764158552300,1.76255224609375,-0.5626678466796875,-0.0771484375,-0.069793701171875
1761505764168588300,1.77258837890625,-0.7077484130859375,-0.0811309814453125,-0.102752685546875
1761505764178624500,1.78262451171875,-0.913665771484375,-0.0883636474609375,-0.1585693359375
1761505764188660500,1.792660400390625,-1.1609954833984375,-0.1027679443359375,-0.186676025390625
1761505764198696400,1.802696533203125,-1.4530792236328125,-0.1177978515625,-0.156585693359375
1761505764208732400,1.812732421875,-1.731781005859375,-0.159759521484375,-0.07952880859375
1761505764218768400,1.822768310546875,-1.988128662109375,-0.258575439453125,-0.014068603515625
1761505764228804400,1.832804443359375,-2.1707916259765625,-0.341461181640625,-0.0120849609375
1761505764238840300,1.84284033203125,-2.3105316162109375,-0.344879150390625,-0.10791015625
1761505764248876300,1.852876220703125,-2.406005859375,-0.29229736328125,-0.2695465087890625
1761505764258912300,1.862912353515625,-2.38702392578125,-0.2493438720703125,-0.41558837890625
1761505764268948200,1.8729482421875,-2.282867431640625,-0.25067138671875,-0.5027313232421875
1761505764278984400,1.882984375,-2.1947174072265625,-0.2709197998046875,-0.5162506103515625
1761505764289020400,1.8930205078125,-2.1235809326171875,-0.281494140625,-0.4820404052734375
1761505764299055400,1.903055419921875,-2.0496978759765625,-0.2728424072265625,-0.4478759765625
1761505764309091300,1.91309130859375,-1.9723052978515625,-0.2562103271484375,-0.40576171875
1761505764319127300,1.923127197265625,-1.916412353515625,-0.2611846923828125,-0.3368988037109375
1761505764329163500,1.93316357421875,-1.8691253662109375,-0.284454345703125,-0.2535247802734375
1761505764339199500,1.943199462890625,-1.7759552001953125,-0.299224853515625,-0.1873016357421875
1761505764349235500,1.9532353515625,-1.6722259521484375,-0.3033905029296875,-0.1494140625
1761505764359271400,1.963271484375,-1.5440673828125,-0.3165435791015625,-0.13409423828125
1761505764369307400,1.973307373046875,-1.3462066650390625,-0.3328704833984375,-0.1278533935546875
1761505764379343600,1.983343505859375,-1.12945556640625,-0.3462677001953125,-0.1264190673828125
1761505764389379600,1.993379638671875,-0.9510040283203125,-0.368988037109375,-0.1173858642578125
1761505764399415600,2.00341552734375,-0.7830352783203125,-0.3732147216796875,-0.102691650390625
1761505764409451500,2.013451416015625,-0.6498260498046875,-0.3530426025390625,-0.089569091796875
1761505764419487500,2.023487548828125,-0.5709381103515625,-0.327117919921875,-0.079559326171875
1761505764429523500,2.0335234375,-0.5090179443359375,-0.3085784912109375,-0.0674285888671875
1761505764439559400,2.043559326171875,-0.44549560546875,-0.286376953125,-0.0569000244140625
1761505764449595400,2.053595458984375,-0.4011077880859375,-0.2604522705078125,-0.0469970703125
1761505764459631400,2.06363134765625,-0.3458404541015625,-0.2440185546875,-0.0343780517578125
1761505764469667300,2.073667236328125,-0.291778564453125,-0.232421875,-0.0286712646484375
1761505764479702500,2.08370263671875,-0.2573089599609375,-0.2235870361328125,-0.027191162109375
1761505764489738500,2.093738525390625,-0.2348785400390625,-0.2188568115234375,-0.0235443115234375
1761505764499774500,2.1037744140625,-0.2147674560546875,-0.2162017822265625,-0.021087646484375
1761505764509810400,2.113810546875,-0.192108154296875,-0.206787109375,-0.0294036865234375
1761505764519846400,2.123846435546875,-0.1707916259765625,-0.196075439453125,-0.0311279296875
1761505764529882400,2.13388232421875,-0.1717681884765625,-0.1799774169921875,-0.0208587646484375
1761505764539918300,2.14391845703125,-0.1810150146484375,-0.1697845458984375,-0.012786865234375
1761505764549954300,2.153954345703125,-0.1803436279296875,-0.165863037109375,-0.0047607421875
1761505764559990500,2.163990478515625,-0.1880035400390625,-0.16375732421875,0.0041656494140625
1761505764570026500,2.174026611328125,-0.1985931396484375,-0.158203125,0.01092529296875
1761505764580062500,2.1840625,-0.22637939453125,-0.158203125,0.0186309814453125
1761505764590098400,2.194098388671875,-0.26171875,-0.154937744140625,0.0188140869140625
1761505764600134400,2.204134521484375,-0.3283233642578125,-0.1517486572265625,0.0183563232421875
1761505764610170400,2.21417041015625,-0.4113616943359375,-0.151611328125,0.0128021240234375
1761505764620206300,2.224206298828125,-0.476043701171875,-0.1531982421875,0.003173828125
1761505764630242300,2.2342421875,-0.5430145263671875,-0.149993896484375,-0.0020751953125
1761505764640278300,2.2442783203125,-0.64166259765625,-0.133026123046875,-0.0191497802734375
1761505764650313500,2.2543134765625,-0.819061279296875,-0.1054229736328125,-0.088470458984375
1761505764660349400,2.264349365234375,-1.0225982666015625,-0.0884246826171875,-0.196990966796875
1761505764670385400,2.274385498046875,-1.2237091064453125,-0.09637451171875,-0.2428436279296875
1761505764680421400,2.28442138671875,-1.4617462158203125,-0.1220245361328125,-0.22125244140625
1761505764690457300,2.294457275390625,-1.7385711669921875,-0.1472625732421875,-0.1431427001953125
1761505764700493300,2.304493408203125,-1.9991455078125,-0.1606292724609375,-0.0832366943359375
1761505764710529300,2.314529296875,-2.2123565673828125,-0.1725311279296875,-0.0941314697265625
1761505764720565200,2.324565185546875,-2.3167724609375,-0.1744384765625,-0.17901611328125
1761505764730601500,2.3346015625,-2.35809326171875,-0.1450958251953125,-0.315826416015625
1761505764740637400,2.344637451171875,-2.411163330078125,-0.097381591796875,-0.4269561767578125
1761505764750673400,2.35467333984375,-2.4246063232421875,-0.101226806640625,-0.4684906005859375
1761505764760709600,2.364709716796875,-2.381866455078125,-0.161529541015625,-0.4713592529296875
1761505764770745600,2.37474560546875,-2.29168701171875,-0.2105560302734375,-0.458038330078125
1761505764780781600,2.384781494140625,-2.146697998046875,-0.227203369140625,-0.46551513671875
1761505764790817500,2.394817626953125,-1.96966552734375,-0.2479248046875,-0.472930908203125
1761505764800853500,2.404853515625,-1.8110198974609375,-0.28338623046875,-0.45819091796875
1761505764810888400,2.414888427734375,-1.6577911376953125,-0.304931640625,-0.4373626708984375
1761505764820924400,2.42492431640625,-1.5123443603515625,-0.2724151611328125,-0.408782958984375
1761505764830960600,2.434960693359375,-1.4436187744140625,-0.23980712890625,-0.3474884033203125
1761505764840996600,2.44499658203125,-1.3559112548828125,-0.2458038330078125,-0.2604827880859375
1761505764851032600,2.455032470703125,-1.24542236328125,-0.2580718994140625,-0.1754608154296875
1761505764861068500,2.465068603515625,-1.1275634765625,-0.26385498046875,-0.109466552734375
1761505764871105000,2.47510498046875,-1.002166748046875,-0.26849365234375,-0.064971923828125
1761505764881141000,2.48514111328125,-0.8855133056640625,-0.25885009765625,-0.043670654296875
1761505764891177000,2.495177001953125,-0.771636962890625,-0.22705078125,-0.0706787109375
1761505764901213000,2.505212890625,-0.64105224609375,-0.1926116943359375,-0.1188507080078125
1761505764911249000,2.515248779296875,-0.501373291015625,-0.16741943359375,-0.162139892578125
1761505764921284900,2.525284912109375,-0.403656005859375,-0.1665496826171875,-0.1715240478515625
1761505764931320800,2.53532080078125,-0.3158111572265625,-0.180084228515625,-0.150177001953125
1761505764941356800,2.545356689453125,-0.24456787109375,-0.2051239013671875,-0.1170196533203125
1761505764951392800,2.555392822265625,-0.2249908447265625,-0.2269439697265625,-0.0795135498046875
1761505764961429000,2.565428955078125,-0.1883697509765625,-0.227081298828125,-0.0631561279296875
1761505764971465000,2.57546484375,-0.1654205322265625,-0.2039031982421875,-0.06488037109375
1761505764981500000,2.5855,-0.1609039306640625,-0.1695404052734375,-0.0773162841796875
1761505764991535900,2.595535888671875,-0.1228790283203125,-0.1343994140625,-0.077972412109375
1761505765001571800,2.60557177734375,-0.082275390625,-0.104583740234375,-0.0614013671875
1761505765011607800,2.61560791015625,-0.070404052734375,-0.07489013671875,-0.045013427734375
1761505765021643800,2.625643798828125,-0.07110595703125,-0.058502197265625,-0.0281524658203125
1761505765031679700,2.6356796875,-0.07122802734375,-0.0656280517578125,-0.0017852783203125
1761505765041716000,2.645716064453125,-0.0862274169921875,-0.071685791015625,0.026275634765625
1761505765051752200,2.655752197265625,-0.1588134765625,-0.0671234130859375,0.045501708984375
1761505765061788200,2.6657880859375,-0.2507476806640625,-0.065826416015625,0.062286376953125
1761505765071824100,2.67582421875,-0.3167572021484375,-0.0735626220703125,0.07830810546875
1761505765081860000,2.685860107421875,-0.3542938232421875,-0.084503173828125,0.081329345703125
1761505765091896000,2.69589599609375,-0.3760223388671875,-0.091766357421875,0.074859619140625
1761505765101932000,2.70593212890625,-0.3593902587890625,-0.0930328369140625,0.0391082763671875
1761505765111968000,2.715968017578125,-0.3498687744140625,-0.0959625244140625,-0.00030517578125
1761505765122004000,2.72600390625,-0.3755340576171875,-0.118988037109375,-0.0291595458984375
1761505765132039200,2.7360390625,-0.4737091064453125,-0.152923583984375,-0.0398712158203125
1761505765142075100,2.7460751953125,-0.6288299560546875,-0.1846466064453125,-0.023101806640625
1761505765152111000,2.756111083984375,-0.87493896484375,-0.1831207275390625,-0.0495147705078125
1761505765162147000,2.76614697265625,-1.1302337646484375,-0.1714019775390625,-0.0827484130859375
1761505765172183000,2.77618310546875,-1.3372650146484375,-0.1584320068359375,-0.1022796630859375
1761505765182219000,2.786218994140625,-1.4792938232421875,-0.1610870361328125,-0.13201904296875
1761505765192255000,2.7962548828125,-1.5608978271484375,-0.198211669921875,-0.128143310546875
1761505765202291000,2.806291015625,-1.63031005859375,-0.2486724853515625,-0.1010589599609375
1761505765212327000,2.816326904296875,-1.74322509765625,-0.28277587890625,-0.0597076416015625
1761505765222363000,2.82636279296875,-1.925506591796875,-0.2659912109375,-0.046478271484375
1761505765232399000,2.836399169921875,-2.1152496337890625,-0.2274017333984375,-0.0728607177734375
1761505765242435000,2.84643505859375,-2.270843505859375,-0.211883544921875,-0.1219024658203125
1761505765252471000,2.856470947265625,-2.3457489013671875,-0.19873046875,-0.1794586181640625
1761505765262507000,2.866507080078125,-2.3238983154296875,-0.1706695556640625,-0.241180419921875
1761505765272543000,2.87654296875,-2.242095947265625,-0.136962890625,-0.273651123046875
1761505765282579000,2.886578857421875,-2.1463470458984375,-0.130157470703125,-0.2676544189453125
1761505765292614000,2.89661376953125,-2.0714569091796875,-0.15557861328125,-0.2245941162109375
1761505765302649900,2.90664990234375,-2.031036376953125,-0.2003631591796875,-0.1793212890625
1761505765312686000,2.91668603515625,-2.0404510498046875,-0.23736572265625,-0.1427154541015625
1761505765322722000,2.92672216796875,-2.040069580078125,-0.2696380615234375,-0.1303253173828125
1761505765332758000,2.936758056640625,-1.9575958251953125,-0.296844482421875,-0.167938232421875
1761505765342794000,2.9467939453125,-1.7454986572265625,-0.300567626953125,-0.2261199951171875
1761505765352830000,2.956829833984375,-1.4581756591796875,-0.286102294921875,-0.254150390625
1761505765362866000,2.966865966796875,-1.1975555419921875,-0.2978057861328125,-0.23260498046875
1761505765372902000,2.97690185546875,-0.9514007568359375,-0.3335113525390625,-0.1859893798828125
1761505765382937900,2.986937744140625,-0.71966552734375,-0.3424530029296875,-0.1480865478515625
1761505765392973800,2.996973876953125,-0.546722412109375,-0.3248748779296875,-0.1261749267578125
1761505765403009800,3.007009765625,-0.4332275390625,-0.3157806396484375,-0.1060791015625
1761505765413045800,3.017045654296875,-0.37945556640625,-0.321136474609375,-0.0579071044921875
1761505765423082000,3.02708203125,-0.3886566162109375,-0.3105010986328125,0.0085601806640625
1761505765433117000,3.037116943359375,-0.4077911376953125,-0.2738037109375,0.0480804443359375
1761505765443153000,3.04715283203125,-0.4040069580078125,-0.235870361328125,0.053375244140625
1761505765453188900,3.05718896484375,-0.3704833984375,-0.2092742919921875,0.0191192626953125
1761505765463224800,3.067224853515625,-0.3124237060546875,-0.1823577880859375,-0.04071044921875
1761505765473260800,3.0772607421875,-0.2380218505859375,-0.15753173828125,-0.0883941650390625
1761505765483296800,3.087296875,-0.223876953125,-0.1538543701171875,-0.103607177734375
1761505765493332700,3.097332763671875,-0.1922607421875,-0.1699676513671875,-0.08404541015625
1761505765503369200,3.107369140625,-0.150299072265625,-0.177093505859375,-0.056640625
1761505765513405200,3.1174052734375,-0.1258697509765625,-0.1683197021484375,-0.0329132080078125
1761505765523441200,3.127441162109375,-0.118072509765625,-0.1495361328125,-0.01043701171875
1761505765533477000,3.13747705078125,-0.1226654052734375,-0.1307525634765625,0.003326416015625
1761505765543513000,3.14751318359375,-0.14605712890625,-0.13409423828125,0.016815185546875
1761505765553549000,3.157549072265625,-0.1805267333984375,-0.1530609130859375,0.0317840576171875
1761505765563585000,3.1675849609375,-0.2298736572265625,-0.1561737060546875,0.0416717529296875
1761505765573621000,3.17762109375,-0.2926483154296875,-0.1555938720703125,0.033294677734375
1761505765583656200,3.18765625,-0.3485870361328125,-0.1636810302734375,0.027923583984375
1761505765593692200,3.197692138671875,-0.392425537109375,-0.1673431396484375,0.0383758544921875
1761505765603728100,3.20772802734375,-0.470428466796875,-0.1670684814453125,0.039031982421875
1761505765613764000,3.21776416015625,-0.57537841796875,-0.1758575439453125,0.028228759765625
1761505765623800000,3.227800048828125,-0.674591064453125,-0.1865081787109375,0.0024261474609375
1761505765633836000,3.2378359375,-0.804168701171875,-0.1680450439453125,-0.05511474609375
1761505765643872000,3.2478720703125,-0.970733642578125,-0.121673583984375,-0.1222686767578125
1761505765653908000,3.257907958984375,-1.1873016357421875,-0.067108154296875,-0.1644287109375
1761505765663944000,3.26794384765625,-1.4491119384765625,-0.054840087890625,-0.0911712646484375
1761505765673980000,3.27797998046875,-1.7052764892578125,-0.1165008544921875,0.0090484619140625
1761505765684015900,3.288015869140625,-1.9289093017578125,-0.2002105712890625,0.03863525390625
1761505765694052000,3.298052001953125,-2.0503997802734375,-0.264129638671875,-0.0099334716796875
1761505765704088000,3.308088134765625,-2.1060791015625,-0.265960693359375,-0.0989990234375
1761505765714124000,3.3181240234375,-2.062164306640625,-0.21405029296875,-0.1828765869140625
1761505765724159000,3.328158935546875,-1.9794158935546875,-0.17156982421875,-0.236785888671875
1761505765734195000,3.33819482421875,-2.013946533203125,-0.1702728271484375,-0.2676544189453125
1761505765744231000,3.34823095703125,-2.092681884765625,-0.196807861328125,-0.27105712890625
1761505765754267000,3.358266845703125,-2.1204376220703125,-0.1845550537109375,-0.29278564453125
1761505765764302800,3.368302734375,-2.1279144287109375,-0.1296539306640625,-0.3297576904296875
1761505765774339000,3.378339111328125,-2.083038330078125,-0.089630126953125,-0.34600830078125
1761505765784375000,3.388375,-2.0393218994140625,-0.0837554931640625,-0.3167266845703125
1761505765794411000,3.398410888671875,-2.00054931640625,-0.1215667724609375,-0.252838134765625
1761505765804447000,3.408447021484375,-1.9706878662109375,-0.167449951171875,-0.199249267578125
1761505765814483000,3.41848291015625,-1.9096527099609375,-0.195953369140625,-0.161529541015625
1761505765824519000,3.428518798828125,-1.7729949951171875,-0.2080078125,-0.1437835693359375
1761505765834555000,3.438554931640625,-1.5546112060546875,-0.2140960693359375,-0.1405487060546875
1761505765844590800,3.4485908203125,-1.29803466796875,-0.2239990234375,-0.1419219970703125
1761505765854626800,3.458626708984375,-1.05615234375,-0.229034423828125,-0.153411865234375
1761505765864662000,3.468662109375,-0.85186767578125,-0.23455810546875,-0.169586181640625
1761505765874698800,3.47869873046875,-0.708160400390625,-0.2527008056640625,-0.162811279296875
1761505765884735000,3.48873486328125,-0.614227294921875,-0.277740478515625,-0.1389617919921875
1761505765894771000,3.49877099609375,-0.5531005859375,-0.290130615234375,-0.1072845458984375
1761505765904807200,3.50880712890625,-0.50152587890625,-0.28350830078125,-0.0824737548828125
1761505765914843100,3.518843017578125,-0.4543914794921875,-0.271759033203125,-0.0644989013671875
1761505765924879000,3.528879150390625,-0.415740966796875,-0.2532806396484375,-0.0514984130859375
1761505765934915000,3.5389150390625,-0.3941802978515625,-0.232177734375,-0.0391082763671875
1761505765944951000,3.548950927734375,-0.397216796875,-0.2212982177734375,-0.02978515625
1761505765954987000,3.558987060546875,-0.374786376953125,-0.210205078125,-0.030609130859375
1761505765965023000,3.56902294921875,-0.3449249267578125,-0.20037841796875,-0.0345916748046875
1761505765975059000,3.579058837890625,-0.295166015625,-0.192291259765625,-0.0493621826171875
1761505765985095000,3.589094970703125,-0.240875244140625,-0.1727447509765625,-0.0720977783203125
1761505765995130000,3.599130126953125,-0.1992340087890625,-0.150421142578125,-0.08502197265625
1761505766005166000,3.609166015625,-0.15814208984375,-0.143035888671875,-0.083648681640625
1761505766015202000,3.6192021484375,-0.1348876953125,-0.1423797607421875,-0.069244384765625
1761505766025238000,3.629238037109375,-0.151458740234375,-0.1417236328125,-0.0365447998046875
1761505766035274000,3.63927392578125,-0.18060302734375,-0.1323394775390625,-0.017730712890625
1761505766045310000,3.64931005859375,-0.201812744140625,-0.1187286376953125,-0.024017333984375
1761505766055346000,3.659345947265625,-0.2006072998046875,-0.116241455078125,-0.0350799560546875
1761505766065382000,3.6693818359375,-0.1821441650390625,-0.118499755859375,-0.052978515625
1761505766075418000,3.679418212890625,-0.1542510986328125,-0.114288330078125,-0.075439453125
1761505766085454000,3.6894541015625,-0.1595611572265625,-0.1191253662109375,-0.09063720703125
1761505766095490000,3.699489990234375,-0.19879150390625,-0.13336181640625,-0.0973052978515625
1761505766105526000,3.709526123046875,-0.2623748779296875,-0.144012451171875,-0.0890045166015625
1761505766115562000,3.71956201171875,-0.4022064208984375,-0.1361846923828125,-0.0519561767578125
1761505766125597000,3.729596923828125,-0.58538818359375,-0.1243438720703125,-0.0279541015625
1761505766135633000,3.7396328125,-0.7881927490234375,-0.0995941162109375,-0.0774078369140625
1761505766145668900,3.7496689453125,-0.9497222900390625,-0.081024169921875,-0.1714324951171875
1761505766155705000,3.759705078125,-1.0517120361328125,-0.0328826904296875,-0.3019561767578125
1761505766165741000,3.769740966796875,-1.192626953125,0.012939453125,-0.4010162353515625
1761505766175777000,3.779777099609375,-1.322418212890625,0.004638671875,-0.4017333984375
1761505766185813000,3.78981298828125,-1.4659576416015625,-0.040252685546875,-0.352874755859375
1761505766195849000,3.799848876953125,-1.6734466552734375,-0.093048095703125,-0.2979583740234375
1761505766205885000,3.809885009765625,-1.93817138671875,-0.1274871826171875,-0.26611328125
1761505766215921000,3.8199208984375,-2.166168212890625,-0.1304473876953125,-0.2664337158203125
1761505766225956900,3.829956787109375,-2.2774200439453125,-0.1071929931640625,-0.29376220703125
1761505766235992800,3.839992919921875,-2.2588958740234375,-0.08319091796875,-0.32763671875
1761505766246028800,3.85002880859375,-2.1925811767578125,-0.07562255859375,-0.3372955322265625
1761505766256064000,3.86006396484375,-2.10400390625,-0.0719757080078125,-0.3466796875
1761505766266100000,3.870099853515625,-2.033050537109375,-0.073394775390625,-0.357574462890625
1761505766276136000,3.880135986328125,-1.9929351806640625,-0.1035919189453125,-0.3484344482421875
1761505766286172000,3.890171875,-1.9433135986328125,-0.1496124267578125,-0.329864501953125
1761505766296208000,3.900207763671875,-1.8625335693359375,-0.18389892578125,-0.3094329833984375
1761505766306243800,3.910243896484375,-1.7885589599609375,-0.17694091796875,-0.2929229736328125
1761505766316279800,3.92027978515625,-1.6944427490234375,-0.146392822265625,-0.2711029052734375
1761505766326315800,3.930315673828125,-1.5585784912109375,-0.1350250244140625,-0.2396087646484375
1761505766336351700,3.940351806640625,-1.3982696533203125,-0.1500244140625,-0.2063140869140625
1761505766346388000,3.950387939453125,-1.2594757080078125,-0.1634979248046875,-0.200469970703125
1761505766356424200,3.960424072265625,-1.1224212646484375,-0.18426513671875,-0.1922454833984375
1761505766366460200,3.970460205078125,-1.0161590576171875,-0.21844482421875,-0.152435302734375
1761505766376494800,3.980494873046875,-0.929473876953125,-0.24420166015625,-0.10284423828125
1761505766386530800,3.99053076171875,-0.860107421875,-0.2532958984375,-0.056182861328125
1761505766396566800,4.00056689453125,-0.7848968505859375,-0.263763427734375,-0.017486572265625
1761505766406602000,4.01060205078125,-0.675628662109375,-0.2692718505859375,-0.00421142578125
1761505766416638000,4.020637939453125,-0.569732666015625,-0.2555389404296875,-0.01812744140625
1761505766426674000,4.030673828125,-0.4681854248046875,-0.2483062744140625,-0.0170440673828125
1761505766436710000,4.0407099609375,-0.3685760498046875,-0.2551727294921875,-0.006744384765625
1761505766446744800,4.050744873046875,-0.3043060302734375,-0.262481689453125,-0.0061798095703125
1761505766456780800,4.06078076171875,-0.2689971923828125,-0.2600555419921875,-0.01214599609375
1761505766466817000,4.070817138671875,-0.250732421875,-0.2477569580078125,-0.0354156494140625
1761505766476853000,4.08085302734375,-0.24652099609375,-0.243377685546875,-0.05804443359375
1761505766486889000,4.090888916015625,-0.24591064453125,-0.2455291748046875,-0.0698394775390625
1761505766496925000,4.100925048828125,-0.2298583984375,-0.2322845458984375,-0.0819091796875
1761505766506961000,4.1109609375,-0.24853515625,-0.2211761474609375,-0.0677947998046875
1761505766516996900,4.120996826171875,-0.2696075439453125,-0.2157135009765625,-0.0389862060546875
1761505766527033000,4.131033203125,-0.25982666015625,-0.20672607421875,-0.0210113525390625
1761505766537069000,4.141069091796875,-0.242706298828125,-0.1901092529296875,-0.0228271484375
1761505766547105000,4.15110498046875,-0.21820068359375,-0.1734619140625,-0.035430908203125
1761505766557141000,4.16114111328125,-0.1985626220703125,-0.1686553955078125,-0.0483245849609375
1761505766567176000,4.171176025390625,-0.2255096435546875,-0.176361083984375,-0.0385589599609375
1761505766577212000,4.1812119140625,-0.2804718017578125,-0.1959686279296875,0.0011138916015625
1761505766587248000,4.191248046875,-0.3608245849609375,-0.2081756591796875,0.027618408203125
1761505766597284000,4.2012841796875,-0.4604949951171875,-0.2102813720703125,0.015777587890625
1761505766607320000,4.211320068359375,-0.587738037109375,-0.204315185546875,-0.0320281982421875
1761505766617356000,4.22135595703125,-0.717559814453125,-0.206298828125,-0.082122802734375
1761505766627392000,4.23139208984375,-0.84808349609375,-0.2078094482421875,-0.12689208984375
1761505766637428000,4.241427978515625,-0.950042724609375,-0.1823272705078125,-0.158599853515625
1761505766647464000,4.2514638671875,-1.05047607421875,-0.1318511962890625,-0.1851806640625
1761505766657500000,4.2615,-1.2046661376953125,-0.093292236328125,-0.200775146484375
1761505766667536100,4.2715361328125,-1.437225341796875,-0.1086273193359375,-0.171356201171875
1761505766677572000,4.281572021484375,-1.6945343017578125,-0.1370391845703125,-0.1722259521484375
1761505766687607000,4.29160693359375,-1.8947296142578125,-0.159423828125,-0.2227325439453125
1761505766697643000,4.30164306640625,-2.0269012451171875,-0.167755126953125,-0.28662109375
1761505766707679000,4.311678955078125,-2.083709716796875,-0.1774139404296875,-0.3212890625
1761505766717715000,4.32171484375,-2.1072998046875,-0.1999664306640625,-0.3161163330078125
1761505766727751000,4.3317509765625,-2.1187591552734375,-0.207763671875,-0.3175506591796875
1761505766737787100,4.341787109375,-2.1146392822265625,-0.2024993896484375,-0.323211669921875
1761505766747823000,4.351822998046875,-2.116363525390625,-0.18389892578125,-0.3423919677734375
1761505766757859000,4.361859130859375,-2.1266326904296875,-0.166259765625,-0.39654541015625
1761505766767895000,4.37189501953125,-2.119293212890625,-0.17706298828125,-0.4309844970703125
1761505766777931000,4.381930908203125,-2.0619049072265625,-0.213104248046875,-0.433319091796875
1761505766787967000,4.391967041015625,-1.9651336669921875,-0.25457763671875,-0.4189605712890625
1761505766798002000,4.402001953125,-1.85186767578125,-0.2663726806640625,-0.406951904296875
1761505766808038000,4.412037841796875,-1.759124755859375,-0.2327423095703125,-0.4061126708984375
1761505766818074000,4.42207421875,-1.653472900390625,-0.2069091796875,-0.38275146484375
1761505766828110000,4.432110107421875,-1.4657745361328125,-0.2003021240234375,-0.33367919921875
1761505766838146000,4.44214599609375,-1.2482147216796875,-0.1920623779296875,-0.3046112060546875
1761505766848182000,4.45218212890625,-1.033782958984375,-0.18756103515625,-0.30462646484375
1761505766858218000,4.462218017578125,-0.83349609375,-0.19757080078125,-0.28466796875
1761505766868254000,4.47225390625,-0.701202392578125,-0.2325286865234375,-0.2301788330078125
1761505766878288400,4.482288330078125,-0.6714019775390625,-0.273345947265625,-0.1285552978515625
1761505766888324600,4.49232470703125,-0.6683502197265625,-0.282196044921875,-0.050506591796875
1761505766898360600,4.502360595703125,-0.62237548828125,-0.2654266357421875,-0.0382537841796875
1761505766908396500,4.512396484375,-0.5603790283203125,-0.2495880126953125,-0.0395050048828125
1761505766918431500,4.522431396484375,-0.4919586181640625,-0.23846435546875,-0.0451202392578125
1761505766928467500,4.532467529296875,-0.409393310546875,-0.2300262451171875,-0.054534912109375
1761505766938503400,4.54250341796875,-0.3412628173828125,-0.22698974609375,-0.0571136474609375
1761505766948539400,4.552539306640625,-0.3027496337890625,-0.22552490234375,-0.0488739013671875
1761505766958575400,4.562575439453125,-0.2635955810546875,-0.2202606201171875,-0.040008544921875
1761505766968611600,4.572611572265625,-0.217987060546875,-0.2171173095703125,-0.0336151123046875
1761505766978647600,4.5826474609375,-0.1815948486328125,-0.210540771484375,-0.0394439697265625
1761505766988683500,4.59268359375,-0.17059326171875,-0.198883056640625,-0.0507049560546875
1761505766998719500,4.602719482421875,-0.1656036376953125,-0.1861724853515625,-0.0525665283203125
1761505767008755500,4.61275537109375,-0.145843505859375,-0.1676025390625,-0.0604095458984375
1761505767018791700,4.622791748046875,-0.1300048828125,-0.1519927978515625,-0.067626953125
1761505767028827600,4.63282763671875,-0.1199951171875,-0.151458740234375,-0.0604400634765625
1761505767038862600,4.642862548828125,-0.1116790771484375,-0.15509033203125,-0.0484771728515625
1761505767048898600,4.652898681640625,-0.12017822265625,-0.1631011962890625,-0.0439453125
1761505767058934500,4.6629345703125,-0.1463470458984375,-0.170684814453125,-0.028106689453125
1761505767068970500,4.672970458984375,-0.1883392333984375,-0.17071533203125,-0.0015106201171875
1761505767079006700,4.6830068359375,-0.25390625,-0.1556854248046875,0.0192413330078125
1761505767089042700,4.693042724609375,-0.363433837890625,-0.139862060546875,0.02911376953125
1761505767099078700,4.70307861328125,-0.5152435302734375,-0.135955810546875,0.0082550048828125
1761505767109114600,4.713114501953125,-0.610321044921875,-0.1392059326171875,-0.0535125732421875
1761505767119150600,4.723150634765625,-0.7083282470703125,-0.1470489501953125,-0.114654541015625
1761505767129186600,4.7331865234375,-0.84906005859375,-0.1597900390625,-0.149749755859375
1761505767139222500,4.743222412109375,-0.9841461181640625,-0.1831207275390625,-0.1453704833984375
1761505767149258500,4.753258544921875,-1.1733856201171875,-0.1975250244140625,-0.1436614990234375
1761505767159293700,4.763293701171875,-1.413116455078125,-0.1988677978515625,-0.1771392822265625
1761505767169329700,4.77332958984375,-1.6219024658203125,-0.2052459716796875,-0.21539306640625
1761505767179365600,4.78336572265625,-1.8316650390625,-0.1843414306640625,-0.2861328125
1761505767189401600,4.793401611328125,-2.014862060546875,-0.15618896484375,-0.3722686767578125
1761505767199437600,4.8034375,-2.1381683349609375,-0.149932861328125,-0.406158447265625
1761505767209473500,4.8134736328125,-2.2472076416015625,-0.169647216796875,-0.3985748291015625
1761505767219509500,4.823509521484375,-2.3023681640625,-0.2021331787109375,-0.4112548828125
1761505767229545500,4.83354541015625,-2.294464111328125,-0.210906982421875,-0.45428466796875
1761505767239581700,4.843581787109375,-2.284393310546875,-0.2046966552734375,-0.485107421875
1761505767249617700,4.85361767578125,-2.24072265625,-0.20294189453125,-0.488433837890625
1761505767259653600,4.863653564453125,-2.160308837890625,-0.217803955078125,-0.4626617431640625
1761505767269689600,4.873689697265625,-2.0948638916015625,-0.2332763671875,-0.4192657470703125
1761505767279724500,4.883724609375,-2.0245819091796875,-0.2440032958984375,-0.3545379638671875
1761505767289760500,4.893760498046875,-1.9337158203125,-0.2507476806640625,-0.30035400390625
1761505767299796500,4.90379638671875,-1.8202362060546875,-0.2582550048828125,-0.262420654296875
1761505767309832400,4.91383251953125,-1.666595458984375,-0.2646331787109375,-0.238433837890625
1761505767319868700,4.92386865234375,-1.461273193359375,-0.2748565673828125,-0.2174835205078125
1761505767329904600,4.933904541015625,-1.2351226806640625,-0.2884368896484375,-0.1964111328125
1761505767339940600,4.943940673828125,-1.04669189453125,-0.30780029296875,-0.1644744873046875
1761505767349976600,4.9539765625,-0.8788909912109375,-0.3203277587890625,-0.124267578125
1761505767360012500,4.964012451171875,-0.7393035888671875,-0.3246917724609375,-0.091339111328125
1761505767370048500,4.974048583984375,-0.621673583984375,-0.3182373046875,-0.0668487548828125
1761505767380084500,4.98408447265625,-0.5372772216796875,-0.3066864013671875,-0.0367431640625
1761505767390120400,4.994120361328125,-0.4955596923828125,-0.290374755859375,-0.0086212158203125
1761505767400155600,5.00415576171875,-0.45501708984375,-0.2720184326171875,0.0041351318359375
1761505767410191600,5.014191650390625,-0.3973846435546875,-0.255218505859375,-0.0000457763671875
1761505767420227600,5.0242275390625,-0.3499298095703125,-0.2349395751953125,-0.01055908203125
1761505767430263600,5.034263671875,-0.309722900390625,-0.22515869140625,-0.00396728515625
1761505767440299500,5.044299560546875,-0.265777587890625,-0.216796875,0.0092315673828125
1761505767450335500,5.05433544921875,-0.22686767578125,-0.2012786865234375,0.0094757080078125
1761505767460371500,5.064371337890625,-0.1944427490234375,-0.18743896484375,-0.0030670166015625
1761505767470407400,5.074407470703125,-0.174163818359375,-0.1743316650390625,-0.025848388671875
1761505767480443400,5.084443359375,-0.1480560302734375,-0.161834716796875,-0.038848876953125
1761505767490479400,5.094479248046875,-0.1148834228515625,-0.152008056640625,-0.038055419921875
1761505767500515600,5.104515625,-0.122589111328125,-0.147308349609375,-0.030731201171875
1761505767510551600,5.114551513671875,-0.1534881591796875,-0.152374267578125,-0.01422119140625
1761505767520587500,5.12458740234375,-0.1810302734375,-0.1564788818359375,0.008880615234375
1761505767530622500,5.13462255859375,-0.210662841796875,-0.150360107421875,0.01239013671875
1761505767540658400,5.144658447265625,-0.2310943603515625,-0.13970947265625,0.0041351318359375
1761505767550694400,5.1546943359375,-0.25799560546875,-0.13555908203125,0.0041961669921875
1761505767560730400,5.16473046875,-0.2967987060546875,-0.1432952880859375,0.003509521484375
1761505767570766300,5.174766357421875,-0.3236083984375,-0.1549224853515625,-0.002166748046875
1761505767580802600,5.184802490234375,-0.3647003173828125,-0.1663970947265625,-0.0039520263671875
1761505767590838800,5.1948388671875,-0.4564971923828125,-0.1742401123046875,-0.019073486328125
1761505767600874800,5.204874755859375,-0.5716094970703125,-0.17266845703125,-0.057952880859375
1761505767610910700,5.21491064453125,-0.6562347412109375,-0.1649017333984375,-0.105133056640625
1761505767620946700,5.22494677734375,-0.7848052978515625,-0.1516265869140625,-0.1367645263671875
1761505767630982700,5.234982666015625,-1.0231475830078125,-0.1418609619140625,-0.14801025390625
1761505767641018600,5.2450185546875,-1.27117919921875,-0.1533355712890625,-0.14971923828125
1761505767651053600,5.255053466796875,-1.483428955078125,-0.18499755859375,-0.16607666015625
1761505767661089500,5.265089599609375,-1.70587158203125,-0.2139739990234375,-0.1904296875
1761505767671125800,5.275125732421875,-1.8853302001953125,-0.2319183349609375,-0.2199249267578125
1761505767681161700,5.28516162109375,-2.0177001953125,-0.2316741943359375,-0.253936767578125
1761505767691197700,5.29519775390625,-2.1240234375,-0.2060546875,-0.2917938232421875
1761505767701233700,5.305233642578125,-2.1534423828125,-0.18572998046875,-0.321624755859375
1761505767711269600,5.31526953125,-2.08160400390625,-0.1789093017578125,-0.342254638671875
1761505767721305600,5.3253056640625,-1.9760894775390625,-0.151397705078125,-0.3746795654296875
1761505767731341600,5.335341552734375,-1.8950042724609375,-0.152313232421875,-0.3627471923828125
1761505767741377500,5.34537744140625,-1.8597869873046875,-0.2034912109375,-0.3146514892578125
1761505767751413500,5.35541357421875,-1.814605712890625,-0.254180908203125,-0.2751617431640625
1761505767761449500,5.365449462890625,-1.812835693359375,-0.2954864501953125,-0.22479248046875
1761505767771484700,5.375484619140625,-1.8571624755859375,-0.3121337890625,-0.172943115234375
1761505767781520600,5.385520751953125,-1.9361724853515625,-0.2666015625,-0.177947998046875
1761505767791556600,5.395556640625,-1.931854248046875,-0.1953125,-0.2269134521484375
1761505767801592600,5.405592529296875,-1.8234405517578125,-0.1504058837890625,-0.2847442626953125
1761505767811628500,5.415628662109375,-1.6445159912109375,-0.1260833740234375,-0.356689453125
1761505767821664500,5.42566455078125,-1.45831298828125,-0.1331329345703125,-0.4135284423828125
1761505767831700500,5.435700439453125,-1.2493133544921875,-0.168426513671875,-0.4358673095703125
1761505767841736400,5.445736328125,-1.0248565673828125,-0.227691650390625,-0.41949462890625
1761505767851772700,5.455772705078125,-0.87322998046875,-0.2814788818359375,-0.3570098876953125
1761505767861808600,5.46580859375,-0.7704925537109375,-0.3211822509765625,-0.264495849609375
1761505767871844600,5.4758447265625,-0.71282958984375,-0.3481903076171875,-0.1725006103515625
1761505767881879000,5.485879150390625,-0.662322998046875,-0.36712646484375,-0.098541259765625
1761505767891915000,5.4959150390625,-0.58447265625,-0.379180908203125,-0.0438079833984375
1761505767901951000,5.505950927734375,-0.504425048828125,-0.3784637451171875,-0.018707275390625
1761505767911987000,5.515987060546875,-0.4585418701171875,-0.3651275634765625,-0.0200042724609375
1761505767922023400,5.5260234375,-0.435272216796875,-0.3372955322265625,-0.0297698974609375
1761505767932059400,5.536059326171875,-0.415435791015625,-0.3029632568359375,-0.0347900390625
1761505767942095400,5.546095458984375,-0.4021148681640625,-0.2763214111328125,-0.03265380859375
1761505767952131300,5.55613134765625,-0.390716552734375,-0.26556396484375,-0.0335693359375
1761505767962167300,5.566167236328125,-0.35076904296875,-0.262969970703125,-0.049774169921875
1761505767972203300,5.576203369140625,-0.3123931884765625,-0.2593536376953125,-0.0398712158203125
1761505767982239200,5.5862392578125,-0.309356689453125,-0.24920654296875,-0.01190185546875
1761505767992275200,5.596275146484375,-0.32965087890625,-0.23065185546875,0.0094451904296875
1761505768002310400,5.606310302734375,-0.3454132080078125,-0.1985626220703125,0.015472412109375
1761505768012346400,5.616346435546875,-0.3572235107421875,-0.1775054931640625,0.0068206787109375
1761505768022382300,5.62638232421875,-0.3564910888671875,-0.1743011474609375,-0.0081024169921875
1761505768032418300,5.636418212890625,-0.3719329833984375,-0.183441162109375,-0.0382537841796875
1761505768042454300,5.646454345703125,-0.4047698974609375,-0.2003021240234375,-0.0499725341796875
1761505768052490200,5.656490234375,-0.4487762451171875,-0.212188720703125,-0.0416259765625
1761505768062526200,5.666526123046875,-0.4856719970703125,-0.2177581787109375,-0.015533447265625
1761505768072562200,5.676562255859375,-0.526580810546875,-0.2134246826171875,0.010711669921875
1761505768082598100,5.68659814453125,-0.58221435546875,-0.200469970703125,0.0056304931640625
1761505768092634000,5.696634033203125,-0.666595458984375,-0.18927001953125,-0.02716064453125
1761505768102670000,5.706670166015625,-0.7684326171875,-0.1916046142578125,-0.062713623046875
1761505768112705300,5.716705322265625,-0.8584136962890625,-0.2003021240234375,-0.1035308837890625
1761505768122741200,5.7267412109375,-0.9639434814453125,-0.2061309814453125,-0.1400604248046875
1761505768132777200,5.736777099609375,-1.0697021484375,-0.2228546142578125,-0.145111083984375
1761505768142813200,5.746813232421875,-1.1922149658203125,-0.2249908447265625,-0.1210479736328125
1761505768152849200,5.75684912109375,-1.353851318359375,-0.2033538818359375,-0.1064453125
1761505768162885000,5.766885009765625,-1.4855194091796875,-0.1622161865234375,-0.094879150390625
1761505768172921000,5.776921142578125,-1.5659942626953125,-0.1537017822265625,-0.0546112060546875
1761505768182957000,5.78695703125,-1.5948944091796875,-0.1894378662109375,-0.0311279296875
1761505768192993300,5.7969931640625,-1.6177978515625,-0.2437744140625,-0.0157318115234375
1761505768203029200,5.807029296875,-1.65985107421875,-0.306365966796875,-0.00335693359375
1761505768213065200,5.817065185546875,-1.65447998046875,-0.3674163818359375,-0.0019683837890625
1761505768223100200,5.82710009765625,-1.6536407470703125,-0.3940582275390625,-0.0181884765625
1761505768233136000,5.83713623046875,-1.7102508544921875,-0.3621063232421875,-0.0815582275390625
1761505768243172000,5.847172119140625,-1.8017120361328125,-0.3194732666015625,-0.16546630859375
1761505768253208000,5.8572080078125,-1.8957366943359375,-0.283935546875,-0.2294158935546875
1761505768263244000,5.867244140625,-1.9484100341796875,-0.2112274169921875,-0.28546142578125
1761505768273280300,5.8772802734375,-1.9323272705078125,-0.1247406005859375,-0.3458099365234375
1761505768283316200,5.887316162109375,-1.8681182861328125,-0.0773162841796875,-0.39276123046875
1761505768293352200,5.897352294921875,-1.767181396484375,-0.0559234619140625,-0.40545654296875
1761505768303388200,5.90738818359375,-1.682220458984375,-0.0533905029296875,-0.3856048583984375
1761505768313424100,5.917424072265625,-1.6111297607421875,-0.10162353515625,-0.320281982421875
1761505768323460000,5.927460205078125,-1.4874420166015625,-0.1685791015625,-0.2393341064453125
1761505768333496000,5.93749609375,-1.3369140625,-0.224395751953125,-0.161529541015625
1761505768343531000,5.947531005859375,-1.204620361328125,-0.269744873046875,-0.0974578857421875
1761505768353567200,5.957567138671875,-1.0805816650390625,-0.313446044921875,-0.03216552734375
1761505768363603200,5.967603271484375,-0.9329071044921875,-0.333160400390625,0.0194091796875
1761505768373639200,5.97763916015625,-0.752410888671875,-0.3233642578125,0.013153076171875
1761505768383675100,5.987675048828125,-0.580810546875,-0.29644775390625,-0.0215911865234375
1761505768393711000,5.997711181640625,-0.4298553466796875,-0.2700347900390625,-0.04443359375
1761505768403747000,6.0077470703125,-0.3224945068359375,-0.2587738037109375,-0.05584716796875
1761505768413783000,6.017782958984375,-0.2603912353515625,-0.2624969482421875,-0.0532379150390625
1761505768423819000,6.027819091796875,-0.2357177734375,-0.267547607421875,-0.0263519287109375
1761505768433855200,6.037855224609375,-0.22491455078125,-0.2634429931640625,-0.0072174072265625
1761505768443890200,6.04789013671875,-0.226470947265625,-0.2508392333984375,0.000244140625
1761505768453926100,6.057926025390625,-0.2357330322265625,-0.248565673828125,-0.001068115234375
1761505768463962000,6.067962158203125,-0.287200927734375,-0.2560577392578125,0.0082244873046875
1761505768473998000,6.077998046875,-0.351409912109375,-0.2507781982421875,0.0265960693359375
1761505768484034300,6.088034423828125,-0.3530426025390625,-0.228607177734375,0.0196533203125
1761505768494070300,6.0980703125,-0.309600830078125,-0.1443939208984375,0.0014495849609375
1761505768504106200,6.108106201171875,-0.3330078125,-0.1015625,-0.0164337158203125
1761505768514142200,6.11814208984375,-0.4894866943359375,-0.1820526123046875,0.0298614501953125
1761505768524178200,6.12817822265625,-0.67633056640625,-0.203521728515625,0.0528411865234375
1761505768534214100,6.138214111328125,-0.81402587890625,-0.2473297119140625,0.085601806640625
1761505768544250400,6.14825048828125,-0.766143798828125,-0.3020782470703125,0.194915771484375
1761505768554285300,6.158285400390625,-0.703369140625,-0.3275604248046875,0.24188232421875
1761505768564321300,6.1683212890625,-0.7375946044921875,-0.29156494140625,0.2156829833984375
