time,seconds_elapsed,z,y,x
1761505762498858500,0.1028583984375,0.726391782054305,0.08352781271003186,-0.2696501768454909
1761505762508894500,0.11289453125,0.9197048614114522,-0.023133915089070797,-0.25814342505559323
1761505762518930700,0.1229306640625,0.9849106162935495,-0.11098163682483136,-0.2908344191715121
1761505762528966700,0.132966552734375,1.109738188445568,-0.2817975646264851,-0.10509352863430976
1761505762539002600,0.143002685546875,1.170300501435995,-0.5405008155219256,0.22722499357014894
1761505762549038600,0.15303857421875,1.2596318127930164,-0.7524776057515293,0.5127491775043308
1761505762559074600,0.163074462890625,1.418566237208247,-0.8732806716278195,0.6853931244507432
1761505762569110500,0.173110595703125,1.3791232846140862,-0.9055300594560801,0.7663739560917019
1761505762579146500,0.183146484375,1.339172967019677,-0.938099034627527,0.7779263005889951
1761505762589182700,0.1931826171875,1.4270312832146883,-1.0006934379674495,0.7877294633314013
1761505762599218700,0.20321875,1.150488716506958,-1.0085075457844883,0.7740187717564404
1761505762609254700,0.213254638671875,0.8672884454756975,-0.9219343740291893,0.7271215576335788
1761505762619290600,0.22329052734375,0.8730869026213884,-0.8393385084070265,0.7347717801257968
1761505762629325600,0.23332568359375,0.8257511509507894,-0.7739979481641203,0.8458842767886817
1761505762639361500,0.243361572265625,0.5911462762624025,-0.6410303241763263,0.7914264181531965
1761505762649397500,0.2533974609375,0.43829438663125037,-0.3915806393165141,0.6509117397867142
1761505762659433700,0.263433837890625,-0.42162966755628584,-0.2216566919185221,0.4090001953467726
1761505762669469700,0.2734697265625,-1.3772487229138612,-0.042843116426467896,-0.028282676154375075
1761505762679505700,0.283505615234375,-2.139337841293216,0.1334954472541809,-0.4228393356069922
1761505762689541600,0.293541748046875,-2.727034269362688,0.027595570673048495,-0.7118519461788236
1761505762699577600,0.30357763671875,-3.1151988896906375,-0.2889395453356206,-0.7801644349046051
1761505762709613600,0.313613525390625,-3.983740550097823,-0.44255964286029337,-0.9249728649422526
1761505762719649500,0.3236494140625,-5.0242128946155304,-0.1622439873546362,-1.2452246633864938
1761505762729685500,0.333685546875,-6.225556184569001,0.5778901965871452,-1.604168303796649
1761505762739721500,0.343721435546875,-7.522056131032109,1.2510181520961223,-1.7617289556406437
1761505762749757400,0.35375732421875,-8.3529136652112,1.4676735285960136,-1.8532687368273735
1761505762759793400,0.36379345703125,-8.821292224460839,1.3153941781558096,-1.959288586526364
1761505762769829600,0.37382958984375,-8.439851359429955,1.0797546997226775,-2.264439408081025
1761505762779864600,0.383864501953125,-7.502239085406065,0.7059317623496055,-2.58791922866106
1761505762789900500,0.393900634765625,-6.889991568925977,0.34255379275381564,-2.843404978814721
1761505762799936500,0.4039365234375,-6.738716134831309,0.2322190024651587,-2.433487376362085
1761505762809972500,0.413972412109375,-6.5974173203498125,0.1992754948928952,-1.3159506429947911
1761505762820008400,0.424008544921875,-6.456955541214347,-0.02265314583480358,-0.3358420932207256
1761505762830044400,0.43404443359375,-5.8143093793392175,-0.1937782126508653,-0.1256692836731672
1761505762840080400,0.444080322265625,-4.637555756241083,0.046827509887516494,-0.2188448493681848
1761505762850116600,0.45411669921875,-3.32694720492661,0.4662945925824344,-0.3959377385474741
1761505762860152600,0.464152587890625,-2.3101029887557027,0.8322612634971738,-0.5539328362859786
1761505762870188500,0.4741884765625,-1.7185323496013878,0.655211921198666,-0.4712810026928782
1761505762880224500,0.484224609375,-1.0819546939849853,0.28729119360670446,-0.266486013726145
1761505762890260500,0.494260498046875,-0.0971621511131525,0.059384209121763704,0.05392448241114616
1761505762900296400,0.50429638671875,0.8054612271159887,0.01655161408931017,0.4359489925488829
1761505762910332400,0.51433251953125,1.5093448247641323,-0.058737143389880654,0.9691910691142082
1761505762920367400,0.524367431640625,2.0387305181622506,-0.30536417204439636,1.700045968057215
1761505762930403600,0.534403564453125,2.8312866709977387,-0.5800913598932326,2.043083306544274
1761505762940439600,0.544439453125,3.7712206659674643,-0.5701780147746205,1.8510484304293988
1761505762950475500,0.5544755859375,4.621756714084744,-0.39433454113453625,1.5257564458608626
1761505762960511500,0.564511474609375,6.0278755576521155,-0.19718466009348629,0.9298623905494808
1761505762970547700,0.574547607421875,7.631693732836842,-0.046667058628797525,0.8285928041175007
1761505762980583700,0.584583740234375,8.43143132160902,-0.0507714252077043,1.2568243541568518
1761505762990619600,0.59461962890625,8.779259839895367,-0.22456556510254738,1.5927825480379163
1761505763000655600,0.604655517578125,9.02711231869161,-0.35960195818841456,1.803335954400897
1761505763010691600,0.614691650390625,9.0924998598814,-0.49859863320738074,1.7570447433471679
1761505763020727600,0.6247275390625,8.846796083551645,-0.5259902057409286,1.5964456005901098
1761505763030763500,0.634763427734375,8.422770460769534,-0.49238297356292604,1.5487772559642792
1761505763040799700,0.6447998046875,7.964702283132076,-0.477780886106193,1.5961249903336165
1761505763050835700,0.654835693359375,7.4669719571918245,-0.47331937665268775,1.7077726167865097
1761505763060871700,0.66487158203125,7.049270861256122,-0.3998391299001872,1.7863789743810892
1761505763070907600,0.67490771484375,6.694633831998705,-0.6455939788300543,1.7532058958366512
1761505763080942600,0.684942626953125,6.551432983288168,-0.7859886840786784,1.6128521071203052
1761505763090978600,0.694978515625,6.651253539955616,-0.6985005894355476,1.530970673377812
1761505763101014500,0.7050146484375,6.819035872215032,-0.4490586494907737,1.504930369322747
1761505763111050500,0.715050537109375,6.596740444001555,-0.15963190516009926,1.4275170209050179
1761505763121086700,0.725086669921875,6.302964418420196,-0.11163827410265803,1.3465246449567376
1761505763131122700,0.735122802734375,6.104503454780578,-0.1419610777825117,1.3438397897869347
1761505763141158700,0.74515869140625,5.657972570201754,-0.10563552655652164,1.3521492068402468
1761505763151194600,0.755194580078125,4.794342647233605,-0.07944733846336603,1.404220900991559
1761505763161230600,0.765230712890625,3.7127690615206954,-0.07310936761349439,1.4973950053818523
1761505763171266600,0.7752666015625,2.6686434551924467,0.11075286957025528,1.3527291986852883
1761505763181302500,0.785302490234375,1.3831699296563862,0.5833816336102783,0.5309435903646051
1761505763191338500,0.79533837890625,-0.49959378172457214,1.1125913859196006,-0.43410760246589775
1761505763201374500,0.80537451171875,-2.6478999423712493,1.4736832904048263,-1.0372888921760022
1761505763211410400,0.815410400390625,-5.218211033627391,1.4965958178281784,-1.151572127829492
1761505763221446400,0.8254462890625,-7.3465505110442635,0.9471488947845995,-0.7006846554763615
1761505763231481600,0.835481689453125,-9.202838887953758,0.32588848915696145,-0.14027560891360044
1761505763241517600,0.845517578125,-11.883255198526381,0.2694325885720551,-0.107732060444355
1761505763251553500,0.855553466796875,-15.3003958845973,0.5451882426857948,-0.3504854625359177
1761505763261589500,0.865589599609375,-18.49044747843742,0.8486977267742156,-0.9303563115462661
1761505763271625500,0.87562548828125,-20.091378115487096,1.0166500087730586,-1.9275980016246437
1761505763281661400,0.885661376953125,-19.74905403983593,0.8539566702157259,-2.712871888497472
1761505763291697400,0.895697509765625,-17.61844954009652,0.3875558407798409,-3.2698730263128875
1761505763301733400,0.9057333984375,-14.42770470329523,-0.07705956654399633,-3.698330786323547
1761505763311769600,0.91576953125,-11.545479872220755,-0.6145531630739569,-3.7109859774962066
1761505763321805600,0.9258056640625,-9.1998326918751,-1.1210001716941593,-3.4224691876173017
1761505763331841500,0.935841552734375,-7.3336366689354175,-1.3263345282346009,-2.8166180941760537
1761505763341877500,0.94587744140625,-6.0045285843342535,-1.258147273323685,-1.979368959263712
1761505763351913500,0.95591357421875,-4.985204241785406,-1.039602868206799,-1.0766587795339524
1761505763361949400,0.965949462890625,-3.7264562260895966,-0.7721519549712538,-0.2760974532887339
1761505763371985700,0.975985595703125,-2.273907055258751,-0.5688578720867633,0.28152926907911896
1761505763382021600,0.986021728515625,-0.9454892910093069,-0.47420098179280756,0.783699769423902
1761505763392057600,0.9960576171875,0.03679857556521892,-0.4980426067598164,1.1587089939720927
1761505763402092500,1.006092529296875,0.989971406814456,-0.5220595882937312,1.1486503951638936
1761505763412128500,1.01612841796875,2.2407103035777807,-0.5206425611026585,0.901108443621546
1761505763422164500,1.02616455078125,3.6235733592420813,-0.5920112225286662,0.5976042202301323
1761505763432200700,1.03620068359375,4.691711709320545,-0.6737456490159034,0.48260114586949343
1761505763442236700,1.046236572265625,5.271045382714271,-0.8045137171328067,0.5286810522601008
1761505763452272600,1.056272705078125,5.707376944839954,-1.0307508687093854,0.7660609446197748
1761505763462308600,1.06630859375,6.006467443442344,-1.1977847206890582,1.1074752119496465
1761505763472344600,1.076344482421875,6.209308229601382,-1.2949141385763883,1.4089607889950275
1761505763482380500,1.086380615234375,6.390341673099995,-1.2694495885826647,1.4957412468254565
1761505763492416500,1.09641650390625,6.9560063021033995,-0.9646263915471732,1.3698201803483068
1761505763502452700,1.10645263671875,7.510094475081562,-0.3981451854638755,1.2382726522915064
1761505763512488700,1.11648876953125,7.7005919124960895,0.18941957904994486,1.3521782868042587
1761505763522524700,1.126524658203125,7.9005603580892085,0.6599886340811848,1.5831278538554905
1761505763532560600,1.136560546875,7.973942405164241,0.9146572226330637,1.8483530538655817
1761505763542596600,1.1465966796875,8.078841872531175,1.0495014541476964,2.145417161206901
1761505763552632600,1.156632568359375,8.173484149777888,1.1051147664286196,2.463961425080895
1761505763562668500,1.16666845703125,8.110010917776822,1.0238833210274576,2.639462368893623
1761505763572703500,1.176703369140625,8.208630281960964,0.9249119285352527,2.575886261039972
1761505763582739700,1.18673974609375,8.123347369211912,0.8226613682419062,2.409759587033093
1761505763592775700,1.196775634765625,7.603079632771014,0.6519824377581477,2.201823815822601
1761505763602811600,1.206811767578125,6.729144588887691,0.5498924748539924,1.9558964598700403
1761505763612847600,1.21684765625,6.1519835833579295,0.5164246511466801,1.8448786557532846
1761505763622883600,1.226883544921875,6.028302258631586,0.625663901283592,1.5748261817172169
1761505763632919600,1.23691943359375,6.1119227911263705,0.7827551820501685,0.9757365452349185
1761505763642955500,1.24695556640625,5.838635426822305,0.765642719207704,0.4326382605656981
1761505763652991500,1.256991455078125,5.179594010463357,0.5580126529455185,-0.04981178639531135
1761505763663027500,1.26702734375,4.336597125679254,0.28202494364157316,-0.47749593168497084
1761505763673063400,1.2770634765625,3.0056933898329734,0.29530718067139383,-0.9243982799246907
1761505763683099400,1.287099365234375,2.153032020124793,0.603648322699964,-1.4894510606400668
1761505763693135600,1.297135498046875,1.0548317092597483,1.034670087979734,-1.7554174344062805
1761505763703171600,1.307171630859375,-0.8345429446935653,1.3518424789786339,-1.6872354401923715
1761505763713207600,1.31720751953125,-3.4578976438730953,1.3039295119419694,-1.451383049660921
1761505763723243500,1.327243408203125,-7.0904176951587194,0.8297197623208165,-1.1704697205230592
1761505763733279500,1.337279541015625,-11.123019014537334,-0.16276333505362273,-1.178024519816786
1761505763743315500,1.3473154296875,-15.052822807264327,-1.4272352813541889,-1.0024773987747728
1761505763753351400,1.357351318359375,-18.0312494199872,-1.8431373650439082,-0.9011405923254787
1761505763763386400,1.367386474609375,-19.68028854664564,-1.2666364308580755,-1.4698910585150122
1761505763773422600,1.377422607421875,-19.064954170066116,-0.9131953333869576,-2.403095891360193
1761505763783458600,1.38745849609375,-16.83614999285936,-0.7478107099190354,-3.666536302655935
1761505763793494500,1.39749462890625,-14.041862972956896,-0.8611275847584009,-4.408905990564823
1761505763803530500,1.407530517578125,-11.103325303030013,-1.123719952046871,-4.4529134745955465
1761505763813566500,1.41756640625,-8.687228621929883,-1.55197371391803,-3.8996903940141197
1761505763823602700,1.427602783203125,-6.970018460842967,-1.9943787507385013,-2.910076714596152
1761505763833638700,1.437638671875,-5.301463901853561,-2.1758944247961045,-2.0114717782281337
1761505763843674600,1.447674560546875,-3.796775378462672,-2.0043205912992357,-1.4108634077459572
1761505763853710600,1.457710693359375,-2.7567151218771935,-1.5285411081433296,-0.976736589122936
1761505763863746600,1.46774658203125,-2.046295400458574,-1.1867783196367323,-0.4609590767733752
1761505763873782300,1.4777822265625,-1.3428355811804533,-1.3474446824111044,0.32509616973549127
1761505763883818500,1.487818603515625,-0.5597738173991441,-1.5800683201543986,0.9844566619809716
1761505763893854500,1.4978544921875,0.3178933987498283,-1.6054254642508923,1.0910520465455948
1761505763903890400,1.507890380859375,1.3369728266268968,-1.5797404033742843,0.9346703753530978
1761505763913926400,1.517926513671875,2.354715452942252,-1.519853067035973,0.9154077487394213
1761505763923962400,1.52796240234375,3.1761247752964494,-1.4450149759337305,1.2312687648788094
1761505763933997300,1.537997314453125,4.000816188061237,-1.290199969536066,1.6150500555559992
1761505763944033300,1.548033203125,4.789238602092862,-1.1887746080204844,1.7948833294846116
1761505763954069200,1.5580693359375,5.780325861194729,-1.2271586992114782,1.8659248047828674
1761505763964105500,1.56810546875,6.503899078696966,-1.0794660920396446,1.6747946224227546
1761505763974141400,1.578141357421875,6.910251097622513,-0.7654758382081985,1.195172492364049
1761505763984177400,1.588177490234375,7.638329225328564,-0.599015694463253,0.6689499391719699
1761505763994213400,1.59821337890625,8.502510352438687,-0.49355713190883393,0.24010639471411704
1761505764004249300,1.608249267578125,9.041465838214755,-0.42204497035890814,0.028195290131866932
1761505764014285300,1.618285400390625,9.313070363998413,-0.3869197348333895,0.03984291169717908
1761505764024321300,1.6283212890625,9.238440947210789,-0.224962601596117,0.17079495807886122
1761505764034357500,1.638357421875,8.803484180569649,-0.09941592138931155,0.3427554528057575
1761505764044393500,1.6483935546875,8.384661971649527,-0.12942819781526924,0.5806399336867034
1761505764054429400,1.658429443359375,7.887707890778779,-0.21278248058930038,0.9252626416690647
1761505764064465400,1.66846533203125,7.337081256431341,-0.20356851591169833,1.2054118545666337
1761505764074501600,1.678501708984375,6.828025234356522,-0.12145268889144062,1.3601017732799052
1761505764084537600,1.68853759765625,6.572741728776693,-0.014913199232518671,1.2616104193896054
1761505764094573600,1.698573486328125,6.31981501545608,0.1546973713673651,0.9800061853781342
1761505764104609500,1.708609619140625,6.066169340211153,0.25978578543514014,0.6373192677639424
1761505764114644500,1.71864453125,5.929129936739802,0.35681261973083017,0.35561624955311416
1761505764124680400,1.728680419921875,5.65227465082109,0.4331105542525649,0.1359979315944016
1761505764134716400,1.73871630859375,5.357698414772749,0.6010147593259811,0.2467760817363858
1761505764144752400,1.74875244140625,5.200156906020641,0.8941529253952205,0.5546086897209286
1761505764154788600,1.75878857421875,4.7535056099325415,1.2563979454383254,0.7537004986099899
1761505764164824600,1.768824462890625,3.7768560415059325,1.4951343669734893,0.6791497000165283
1761505764174860500,1.778860595703125,2.2785195174902677,1.5124487821288406,0.25035715509355067
1761505764184896500,1.788896484375,0.18031097444295882,1.4989720454402267,-0.33358050496429204
1761505764194932500,1.798932373046875,-2.309326743686199,1.4188102750971912,-0.5655187907919287
1761505764204968400,1.808968505859375,-5.210889896959066,1.3317720431134104,-0.18350261009111998
1761505764215004400,1.81900439453125,-7.944914463600516,0.9047565908655524,0.6465696189291775
1761505764225040400,1.829040283203125,-10.414569131886958,-0.06490384932607413,1.304733814062178
1761505764235076400,1.839076416015625,-12.137035898327827,-0.7729059882089495,1.3076254438504575
1761505764245112300,1.8491123046875,-13.496905031895636,-0.6985422366201878,0.32524668412208557
1761505764255148300,1.859148193359375,-14.346650221896171,-0.14597206698954104,-1.2202655786968768
1761505764265184500,1.8691845703125,-14.000789788812398,0.22716654138118028,-2.5843638742670416
1761505764275220500,1.879220458984375,-12.950126889669894,0.14194208082109688,-3.3784067585289477
1761505764285256400,1.88925634765625,-12.095354811418055,-0.11896657116413116,-3.46654272262156
1761505764295291400,1.89929150390625,-11.365880845439433,-0.3039484600275755,-3.1774305971980095
1761505764305327400,1.909327392578125,-10.580734676599501,-0.3351850175514817,-2.9140865347594023
1761505764315363300,1.91936328125,-9.78695395040512,-0.3491007301792502,-2.5493583195984364
1761505764325399300,1.9293994140625,-9.22646409369111,-0.6119106857411563,-1.905242523562163
1761505764335435300,1.939435302734375,-8.679507672289013,-1.0209290012665093,-1.1454931001767517
1761505764345471500,1.949471435546875,-7.696094601076841,-1.307264793844521,-0.5635469792623072
1761505764355507500,1.959507568359375,-6.643535512924194,-1.4938916734360157,-0.23515951289646325
1761505764365543400,1.96954345703125,-5.311998155349492,-1.7495114252328872,-0.08942103546708821
1761505764375579400,1.979579345703125,-3.2761002302646633,-1.998071321646124,-0.02552314831316471
1761505764385615400,1.989615478515625,-1.1913783607780932,-2.2226836484998462,0.018007219725102185
1761505764395651300,1.9996513671875,0.541575312885642,-2.5130583412051197,0.14898586185276508
1761505764405687300,2.009687255859375,2.1721546537458893,-2.5941493552222847,0.3340975145757198
1761505764415723300,2.01972314453125,3.413648752301931,-2.4464091095164417,0.5010214764401316
1761505764425759200,2.02975927734375,4.132662699064612,-2.2645387768022713,0.6522855123579502
1761505764435795500,2.03979541015625,4.750769462966919,-2.143515565369278,0.824629161183536
1761505764445831400,2.04983154296875,5.343012302294373,-1.9582868621379137,0.9742102124504745
1761505764455867600,2.05986767578125,5.773721348363161,-1.7429510438039897,1.1227341558799147
1761505764465903600,2.069903564453125,6.3276487778216595,-1.6122463963121174,1.2784677384272216
1761505764475938300,2.079938232421875,6.830750859928131,-1.5142758514255283,1.3548540818847714
1761505764485974500,2.089974609375,7.145884730836749,-1.4416156888842582,1.393740277379006
1761505764496010500,2.100010498046875,7.353891521456838,-1.4061119754351674,1.4522949038088322
1761505764506046500,2.11004638671875,7.5527932146012775,-1.3814717474363742,1.4816127682298421
1761505764516082400,2.12008251953125,7.776416092026233,-1.2852362096488474,1.4008346195541321
1761505764526118400,2.130118408203125,7.968562465691566,-1.1772282548725603,1.413208217306435
1761505764536154600,2.140154541015625,7.928056852301955,-1.0166679828211664,1.5198799550428985
1761505764546190600,2.150190673828125,7.849918550610542,-0.9234199364118277,1.6013194902367889
1761505764556226600,2.1602265625,7.851330755496025,-0.8783656467419118,1.6756911328710615
1761505764566262500,2.170262451171875,7.772334960192442,-0.8373941694062202,1.7542992440313099
1761505764576298500,2.180298583984375,7.658400537976622,-0.7676821891460567,1.8089397657573223
1761505764586334500,2.19033447265625,7.361795426449179,-0.7357156368471681,1.8731345900312064
1761505764596370400,2.200370361328125,7.004556105738878,-0.6546887741073966,1.8614714786358177
1761505764606406400,2.210406494140625,6.289985109859704,-0.5689921659909188,1.8565664631985126
1761505764616442400,2.2204423828125,5.487614249974489,-0.48634997700899835,1.7887537406884133
1761505764626478300,2.230478271484375,4.8602872377842665,-0.40319640443883836,1.6883090607732534
1761505764636514300,2.240514404296875,4.165244533717632,-0.24689729696325957,1.6186242607809602
1761505764646549500,2.250549560546875,3.12160934125483,0.049060237375646826,1.3868646925210952
1761505764656585500,2.26058544921875,1.2751876938432454,0.43241716516092416,0.589421206035465
1761505764666621400,2.270621337890625,-0.7002823582857847,0.6582837298594415,-0.4911461252443492
1761505764676657400,2.280657470703125,-2.702576704454422,0.6304464593850075,-0.9175481217689812
1761505764686693400,2.290693359375,-5.104496391642093,0.4265022420287132,-0.6805773947320878
1761505764696729300,2.300729248046875,-7.821215018695592,0.24367972315624356,0.08745748030915856
1761505764706765300,2.310765380859375,-10.374335321176051,0.17471593091487883,0.6455187947019935
1761505764716801300,2.32080126953125,-12.359352953851221,0.11278466765880583,0.530288487456739
1761505764726837500,2.33083740234375,-13.304148417377471,0.1967944917321205,-0.2865734007261693
1761505764736873500,2.34087353515625,-13.727905744612217,0.6002542963474988,-1.540600525379926
1761505764746909400,2.350909423828125,-14.285027586197852,1.1279575896166265,-2.4491262595206496
1761505764756945400,2.3609453125,-14.364031564807892,1.0787667115986346,-2.722398426255584
1761505764766981400,2.3709814453125,-13.918076434290409,0.5358202564902603,-2.662545722839236
1761505764777017300,2.381017333984375,-12.977438090443611,0.15185805628821253,-2.530060329410434
1761505764787053300,2.39105322265625,-11.50736787596941,0.02298062422350049,-2.638319628599286
1761505764797089300,2.40108935546875,-9.744981187072396,-0.2128542306512594,-2.7421926755279302
1761505764807125200,2.411125244140625,-8.202602692234516,-0.6252130887761712,-2.6516695240378376
1761505764817161200,2.4211611328125,-6.631957303333282,-0.8631361481018364,-2.560470080721378
1761505764827196400,2.431196533203125,-5.24008968795836,-0.6058322426103055,-2.3707972575627267
1761505764837232400,2.441232421875,-4.567452292445302,-0.45449294949918984,-1.8451859681367873
1761505764847268400,2.451268310546875,-3.615443244278431,-0.6626306730225682,-1.0717138704776763
1761505764857304300,2.46130419921875,-2.498229605385661,-0.8924342849090695,-0.3029676322966814
1761505764867340300,2.47134033203125,-1.3087322360485791,-1.0574857308998704,0.31277094116955995
1761505764877377000,2.481376953125,-0.07927052059173584,-1.1929153610870242,0.7828742783851921
1761505764887413000,2.4914130859375,1.052327617484331,-1.13601668517068,1.0345555216893554
1761505764897449000,2.501448974609375,2.1674042443484067,-0.8520768478184938,0.8294187335476279
1761505764907485000,2.51148486328125,3.4648329960942266,-0.5357476296454667,0.44215924536585804
1761505764917521000,2.52152099609375,4.787516600605845,-0.30435061108767986,0.11257555495277047
1761505764927556900,2.531556884765625,5.695460297074914,-0.3062660893201828,0.12309475701004266
1761505764937593000,2.541593017578125,6.555339343076944,-0.43385757322758434,0.382300112208724
1761505764947629000,2.551629150390625,7.1758198503732675,-0.677041037299484,0.7504270298972725
1761505764957665000,2.5616650390625,7.351521869716048,-0.8688743994928896,1.1254685492798686
1761505764967701000,2.571700927734375,7.725888850837945,-0.8318892153143882,1.275504650837928
1761505764977737000,2.581737060546875,7.904725076553225,-0.5824079662725329,1.2425456534355879
1761505764987772000,2.59177197265625,7.975062933626771,-0.22674846209958194,1.1032947113946079
1761505764997807900,2.601807861328125,8.38665226868391,0.12434490320160985,1.0822042848318814
1761505765007844000,2.611843994140625,8.763861195233464,0.43374373758956786,1.1856921318352223
1761505765017880000,2.621880126953125,8.862688064688443,0.7292481943987309,1.2716666801102459
1761505765027916000,2.631916015625,8.867814321660996,0.867921482682228,1.35515993296355
1761505765037952000,2.641951904296875,8.881834079185127,0.7771728518731892,1.5414241167224942
1761505765047988000,2.651988037109375,8.690030235347152,0.73344140830487,1.7247852725163102
1761505765058024000,2.66202392578125,7.934918554764986,0.7802436376206576,1.8435874468989668
1761505765068060000,2.672059814453125,7.04336309851706,0.7979264476969837,1.9617564379446206
1761505765078096000,2.682095947265625,6.451557481563091,0.7470499546796083,2.074294875757396
1761505765088131800,2.6921318359375,6.084651337841152,0.6953095383092761,2.053663006617129
1761505765098167800,2.702167724609375,5.917386307454109,0.7061366372719406,1.9065894081264734
1761505765108203800,2.712203857421875,6.090373222619295,0.7836497928023338,1.4663850962206721
1761505765118240000,2.722239990234375,6.150887604814767,0.824190769766271,1.008059655886516
1761505765128276000,2.73227587890625,5.81559065132141,0.6492994822844863,0.6531339458808303
1761505765138311000,2.742310791015625,4.776020808601379,0.3693748719230294,0.5059207927890121
1761505765148347000,2.752346923828125,3.1577047369867564,0.12006751814335584,0.5867926110975444
1761505765158382800,2.7623828125,0.6587953326433896,0.2010435274787247,0.2004325559735298
1761505765168418800,2.772418701171875,-1.7840519927382468,0.3459500110633671,-0.15370039621926843
1761505765178454800,2.782454833984375,-3.7651118276983495,0.5228180054455995,-0.4476505362585187
1761505765188490800,2.79249072265625,-5.064462487417459,0.5047058640412986,-0.7928757401786745
1761505765198527000,2.80252685546875,-5.836532317063212,0.15268924641534684,-0.7998786046780645
1761505765208563200,2.812563232421875,-6.524819117128849,-0.33295667397752404,-0.5496491676174103
1761505765218599200,2.82259912109375,-7.739286092549562,-0.6313153511740267,-0.16396248171031474
1761505765228635100,2.83263525390625,-9.549345217725634,-0.43939898687228557,-0.049960364553146064
1761505765238671000,2.842671142578125,-11.400431934338807,-0.09955226112008095,-0.2871907654395327
1761505765248707000,2.85270703125,-12.842310658073425,0.023772212992608545,-0.6960038772489875
1761505765258743000,2.862742919921875,-13.46991181102991,0.17447569241821764,-1.1920431082971394
1761505765268779000,2.872779052734375,-13.15925946944952,0.47217970509827134,-1.6899616502858696
1761505765278815000,2.88281494140625,-12.320074251908062,0.7717585717394948,-1.8868647169589996
1761505765288850200,2.89285009765625,-11.392252135014534,0.7405604465298354,-1.6916083945795892
1761505765298886100,2.90288623046875,-10.674885955458878,0.35360490973070263,-1.1600333013784139
1761505765308922000,2.912922119140625,-10.324015000736713,-0.2150597778715193,-0.6522365586496889
1761505765318958000,2.9229580078125,-10.43293714774847,-0.7058011217072606,-0.22450302126035093
1761505765328994000,2.932994140625,-10.351487529551981,-1.1394966362409293,-0.09098857704475521
1761505765339030000,2.943030029296875,-9.398224681931733,-1.4750504871048031,-0.46640579787194725
1761505765349066000,2.95306591796875,-7.1455977305889125,-1.5343891035191715,-1.035074577127397
1761505765359102000,2.96310205078125,-4.322669138091802,-1.4433530340708791,-1.2909095791101455
1761505765369138000,2.973137939453125,-1.7880647355109451,-1.648477839513868,-1.1104675256334244
1761505765379174000,2.983173828125,0.6384206531345844,-2.042818956519663,-0.7400514010291546
1761505765389210000,2.993210205078125,2.88178819322288,-2.1529212532266975,-0.4886649759531021
1761505765399246000,3.00324609375,4.51068411104083,-2.062711113208532,-0.36799276991486546
1761505765409282000,3.013281982421875,5.578054983878135,-2.093871682886779,-0.20060367475673554
1761505765419318000,3.023318115234375,6.025488370254635,-2.24294420010969,0.3050169660419226
1761505765429354000,3.03335400390625,5.896911090180278,-2.1914335008420047,0.9802457662876695
1761505765439389000,3.043388916015625,5.726915173524618,-1.8825586903281508,1.3868681996524332
1761505765449425000,3.0534248046875,5.799483566129207,-1.5754904908448457,1.4750228684455156
1761505765459460900,3.0634609375,6.152139066180586,-1.3486451442420482,1.1535615480810404
1761505765469497000,3.0734970703125,6.755663177978992,-1.087541627271846,0.5908335570514202
1761505765479533000,3.083532958984375,7.446251240724325,-0.8507732178740203,0.14079042656794188
1761505765489569000,3.093569091796875,7.546936305266618,-0.8247493534971028,0.0025139555823057887
1761505765499605000,3.10360498046875,7.908620914947986,-0.9643538582161069,0.1654547660946846
1761505765509641000,3.113640869140625,8.302007069316506,-0.9855069747515022,0.3750868198290467
1761505765519677000,3.123677001953125,8.518075001317262,-0.8637512843254953,0.5665751679770649
1761505765529713000,3.133712890625,8.586855107554793,-0.6503979450456797,0.7516174817908555
1761505765539748900,3.143748779296875,8.512063778203725,-0.45922428887002165,0.8743522463820874
1761505765549784800,3.153784912109375,8.267194114610552,-0.5003245802171528,1.024261945081502
1761505765559820800,3.16382080078125,7.90359694930613,-0.6440388583425432,1.2093447370361536
1761505765569856800,3.173856689453125,7.397409176144003,-0.6153557846937329,1.3414669231757521
1761505765579893000,3.18389306640625,6.755135939234495,-0.5644890093527734,1.3092387242659926
1761505765589928000,3.193927978515625,6.229561913079023,-0.5871941045705229,1.3274194008618592
1761505765599964000,3.2039638671875,5.76624472887218,-0.5379444090373814,1.4718253875784575
1761505765610000000,3.213999755859375,4.927592595294118,-0.47581981516629457,1.4962483195647596
1761505765620035800,3.224035888671875,3.9015959353744982,-0.5025535083130002,1.4162342871293425
1761505765630071800,3.23407177734375,2.887767852154374,-0.5266622597835958,1.169151623661816
1761505765640107800,3.244107666015625,1.5710720898807047,-0.24337796373069284,0.6157166538953781
1761505765650143700,3.254143798828125,-0.14133680840432644,0.29124183092862366,-0.01813391484469175
1761505765660180000,3.264179931640625,-2.329744677814841,0.8630570915162563,-0.3108344201490283
1761505765670216200,3.27421630859375,-4.938532506981492,0.9518732929579913,0.5167696651920676
1761505765680252200,3.284252197265625,-7.428534966769814,0.36029330145344135,1.4190408689826726
1761505765690288000,3.2942880859375,-9.544850828915834,-0.3528236962251365,1.5664054132439196
1761505765700324000,3.304323974609375,-10.641001221513747,-0.8226341879740356,0.9965429672244935
1761505765710360000,3.314360107421875,-11.116789180237054,-0.6432615172944962,0.07692994881495833
1761505765720395000,3.32439501953125,-10.568256303298472,-0.03180442053973675,-0.7479134396411478
1761505765730431000,3.334430908203125,-9.854959565138817,0.40082127280533314,-1.2997592405200005
1761505765740467000,3.344467041015625,-10.326007051336765,0.3968929934456944,-1.609544005485624
1761505765750503200,3.354503173828125,-11.063449219715595,0.17066256387084722,-1.6776111411482095
1761505765760539100,3.3645390625,-11.288958933800458,0.38101840183511376,-1.940217829222977
1761505765770575000,3.3745751953125,-11.325858631652594,0.9278045812368393,-2.2987550807893276
1761505765780611000,3.384611083984375,-10.830810676664113,1.2697611387498675,-2.403766630228609
1761505765790647000,3.39464697265625,-10.42601874666214,1.2406890657834708,-2.0356246611014006
1761505765800683000,3.40468310546875,-10.038497100412846,0.790711255621165,-1.3767868044905365
1761505765810719000,3.414718994140625,-9.743378428050875,0.3090285397708416,-0.8316945695251226
1761505765820755000,3.4247548828125,-9.05479001469016,0.007190934417396783,-0.4402038004491478
1761505765830791000,3.434791015625,-7.610650360286235,-0.1396279586598277,-0.25296631467863917
1761505765840827000,3.444826904296875,-5.375781768473982,-0.258082342518121,-0.2230521648649126
1761505765850863000,3.454863037109375,-2.845659479743242,-0.4167053628966212,-0.26417138010822233
1761505765860898000,3.46489794921875,-0.4881844989597797,-0.5345623653836548,-0.44226796643733973
1761505765870935000,3.47493505859375,1.4728823492854832,-0.6819178495556115,-0.6377510102447121
1761505765880971000,3.484970947265625,2.8283044403165576,-0.9654317165806889,-0.5817819433286786
1761505765891007000,3.495007080078125,3.7160067282676694,-1.3000664067730308,-0.34715646424368024
1761505765901043000,3.50504296875,4.298095253327489,-1.4846123884372413,-0.0110309509716928
1761505765911079000,3.515078857421875,4.812431846153736,-1.495891468951106,0.26652495749704536
1761505765921115000,3.525114990234375,5.264212906345724,-1.4566722421102225,0.5035270295202732
1761505765931150800,3.53515087890625,5.63063915759623,-1.3386692552812396,0.6998881713364273
1761505765941186800,3.545186767578125,5.803487541073561,-1.1962488894239067,0.8959928541734814
1761505765951222800,3.555222900390625,5.779518051943183,-1.1376768734678626,1.0480930486544966
1761505765961259000,3.565259033203125,6.013862814390659,-1.0499977862972765,1.0946135384194553
1761505765971295000,3.575294921875,6.311433556079864,-0.9606833530098199,1.0908414725348352
1761505765981331000,3.5853310546875,6.824311766791343,-0.8623663327731191,0.9510990937151014
1761505765991366000,3.595365966796875,7.3381573612302535,-0.6268317760191857,0.7227167468033731
1761505766001401900,3.60540185546875,7.736964371603727,-0.3927227220237255,0.5925935524612664
1761505766011437800,3.615437744140625,8.137553004696965,-0.30311858507469297,0.5921136599898338
1761505766021473800,3.625473876953125,8.32124719183743,-0.27073797208219763,0.7360491065852344
1761505766031509800,3.635509765625,8.121721229314804,-0.23251842380315063,1.0509760567449034
1761505766041546000,3.6455458984375,7.833718526437878,-0.10324987352900207,1.2110253105342388
1761505766051582000,3.65558203125,7.642023988193273,0.053201063507422805,1.1470599111020565
1761505766061618200,3.6656181640625,7.670045967584848,0.10287892132475972,1.0617242452524602
1761505766071654100,3.675654052734375,7.863557784384488,0.13228811729103326,0.8988355302534997
1761505766081690000,3.685690185546875,8.1068270270437,0.21942104182094335,0.7166584696777164
1761505766091726000,3.69572607421875,7.990525875696539,0.19711217937916517,0.615278554739058
1761505766101762000,3.705761962890625,7.569065134966373,0.08755261124670505,0.6009321956090629
1761505766111798000,3.715798095703125,6.870818666422367,0.02585164961516857,0.7683699522145092
1761505766121833000,3.7258330078125,5.390671294569969,0.13841244539022446,1.2159539991080761
1761505766131869200,3.735869140625,3.554779809001088,0.29982758070528504,1.4629570214681327
1761505766141905200,3.7459052734375,1.5319097077935933,0.6079034959264099,0.9811042097479105
1761505766151941000,3.755941162109375,0.029714754784107206,0.8719476694583892,0.09230389742702245
1761505766161977000,3.76597705078125,-1.0044523521095514,1.4643984524480997,-1.1948514437161386
1761505766172013000,3.776012939453125,-2.412672551870346,1.9152629823170602,-2.0858320226855573
1761505766182049000,3.786049072265625,-3.6491876929700373,1.8023796765893696,-2.104954656306654
1761505766192085000,3.7960849609375,-5.092853300121426,1.3249414664410053,-1.727948704983294
1761505766202121000,3.806120849609375,-7.193709142807125,0.7936622143812477,-1.334061030833423
1761505766212157000,3.816156982421875,-9.784683667385577,0.4712992690019309,-1.1528709354683757
1761505766222193000,3.82619287109375,-11.902471940171719,0.4874823420397937,-1.2503612956225871
1761505766232229000,3.83622900390625,-12.822266233432293,0.7708262593254447,-1.580769892552495
1761505766242265000,3.84626513671875,-12.542083848917484,1.0426961580470204,-1.9210893503829836
1761505766252300000,3.856300048828125,-11.871512153762579,1.1644193344429135,-2.015943662945181
1761505766262336000,3.8663359375,-11.004001005446911,1.2568572335131465,-2.124042072483897
1761505766272372000,3.8763720703125,-10.363680656170844,1.258753130262345,-2.188455800205469
1761505766282408000,3.886407958984375,-10.003096116685867,0.9277095964297651,-2.0271245437815786
1761505766292444000,3.89644384765625,-9.465559265536069,0.44393736095428465,-1.7745992508687078
1761505766302480000,3.90647998046875,-8.666568111217021,0.07297653501406312,-1.5262293240696192
1761505766312516000,3.91651611328125,-7.919689421451091,0.09598770050629973,-1.331834294694662
1761505766322552000,3.926552001953125,-6.9418293081909415,0.28501828023865816,-1.096473487072438
1761505766332588000,3.936588134765625,-5.528482851457595,0.25029285768568516,-0.7758614770136774
1761505766342624000,3.9466240234375,-3.9604491063594818,-0.019000030154734848,-0.4724209665082395
1761505766352660000,3.956659912109375,-2.5921225255697964,-0.24435440754741428,-0.4430626239463687
1761505766362696000,3.966696044921875,-1.251203007143736,-0.569141949725151,-0.3206482504159212
1761505766372732000,3.97673193359375,-0.24819793123304842,-0.9895748817775398,0.11240005225539207
1761505766382766800,3.986766845703125,0.599584434261918,-1.3027232048921287,0.6297469328135251
1761505766392803000,3.996802978515625,1.2561398790240288,-1.4492255793660878,1.1214069989293813
1761505766402838000,4.006838134765625,2.039596779602766,-1.6254055914841592,1.538235549814254
1761505766412874000,4.0168740234375,3.1178304072380065,-1.7109576765634118,1.6793245209373533
1761505766422910000,4.026909912109375,4.1402100457042454,-1.621051926319301,1.589541228029132
1761505766432946000,4.03694580078125,5.141211380577087,-1.6206524056077003,1.6721052372083067
1761505766442982000,4.04698193359375,6.084388302990794,-1.744752248007059,1.787689326327294
1761505766453017900,4.057017822265625,6.672565792575478,-1.8503357521153985,1.8042014851890504
1761505766463053800,4.0670537109375,6.99175858348608,-1.8508625524684785,1.7407495882369577
1761505766473090000,4.077090087890625,7.1544275182545185,-1.7561857884302734,1.5055048082098363
1761505766483126000,4.0871259765625,7.181035539194941,-1.7491709412321448,1.3069023902729153
1761505766493162000,4.097161865234375,7.201317279723286,-1.7631465673536062,1.1997589433714746
1761505766503197000,4.107197021484375,7.347894326868653,-1.6115402938693761,1.1021055016100405
1761505766513233000,4.11723291015625,7.115577855378389,-1.4924518498912454,1.2872276757270098
1761505766523268900,4.127268798828125,6.945314812219142,-1.4054717778354882,1.577285849829018
1761505766533304800,4.137304931640625,7.056900625482201,-1.2695011726394294,1.737752890639007
1761505766543340800,4.1473408203125,7.228444940623641,-1.0486734058257192,1.6954774910978971
1761505766553377000,4.157376953125,7.4786021892309185,-0.8462134356778115,1.5395897409021853
1761505766563413000,4.1674130859375,7.631931633245944,-0.7588353042151779,1.382832952786982
1761505766573449000,4.177448974609375,7.324238725993037,-0.813600548299402,1.48369629650563
1761505766583485000,4.18748486328125,6.753449593582749,-0.9627873395517468,1.8411942681521176
1761505766593521000,4.19752099609375,5.948264845320582,-1.0268903208237141,2.050129133402556
1761505766603556900,4.207556884765625,4.919636667853593,-0.9767961372904479,1.8741805919528007
1761505766613592800,4.2175927734375,3.656388418129086,-0.8453150985985994,1.4039619577944278
1761505766623627800,4.227627685546875,2.3528736244678496,-0.7717255462527275,0.9323658978030085
1761505766633664000,4.2376640625,1.085647703284025,-0.649827890072763,0.5172025036513805
1761505766643700000,4.247699951171875,0.09299509456157684,-0.24659254186302423,0.21438538574129343
1761505766653736000,4.25773583984375,-0.9344242916375398,0.3560518644914031,-0.08971563449949026
1761505766663772000,4.26777197265625,-2.5439006387144327,0.7520201443076133,-0.2652316297508776
1761505766673808000,4.277807861328125,-4.8940650042235845,0.6162868549987673,-0.047476621446013445
1761505766683844000,4.287843994140625,-7.376140178143977,0.4034136273860931,-0.23655352453812956
1761505766693880000,4.297880126953125,-9.250400265073775,0.2702132175557315,-0.8599177705772221
1761505766703916000,4.307916015625,-10.46534888653159,0.29261268089041115,-1.556144277600944
1761505766713952000,4.317951904296875,-10.960815359193086,0.2744305429898202,-1.8793544874593615
1761505766723988000,4.327988037109375,-11.205675085914134,0.15103051942288875,-1.8142456170804797
1761505766734024000,4.33802392578125,-11.312768848454951,0.17869126428663729,-1.7986007425725459
1761505766744059100,4.34805908203125,-11.304646332275867,0.3098617757245898,-1.7637096080638468
1761505766754095000,4.35809521484375,-11.35760635356903,0.5552275522716343,-1.8722757812447846
1761505766764131000,4.368131103515625,-11.496261960065365,0.7337965053528547,-2.276691425280273
1761505766774167000,4.3781669921875,-11.398345191192627,0.5860764256522059,-2.4139386262834073
1761505766784203000,4.388203125,-10.795490356957911,0.16753975567519663,-2.260846205894649
1761505766794239000,4.398239013671875,-9.821155495214462,-0.3141492437854409,-1.9783029374673962
1761505766804275000,4.40827490234375,-8.705714711213112,-0.49122664313465353,-1.781674888343364
1761505766814311000,4.418310791015625,-7.81265937179625,-0.2738340384013951,-1.714936370936036
1761505766824347100,4.42834716796875,-6.664445614483952,-0.1885758217021823,-1.4309806053623557
1761505766834383000,4.438383056640625,-4.710006075423956,-0.254642285066843,-0.9873606397941708
1761505766844419000,4.448419189453125,-2.546794022068381,-0.28777736968845125,-0.8187339656651019
1761505766854455000,4.458455078125,-0.40121874769032,-0.3611968261644244,-0.9168233146257698
1761505766864490000,4.468489990234375,1.5446569611638783,-0.6014290392152964,-0.7772318885840475
1761505766874526000,4.47852587890625,2.7536358605623246,-1.0786572598747908,-0.2639705237738788
1761505766884560600,4.488560546875,2.969954552453756,-1.5620555474713445,0.7139481878057122
1761505766894596600,4.4985966796875,3.05555135345757,-1.7029831905528903,1.372101423153281
1761505766904632600,4.508632568359375,3.555919042164087,-1.6015854476965963,1.4407473816171288
1761505766914668500,4.51866845703125,4.175750730162859,-1.5104941409297286,1.4260903491027652
1761505766924704500,4.52870458984375,4.870734397518635,-1.445394915162027,1.3514919119752942
1761505766934740500,4.538740478515625,5.6901785572797055,-1.3910386172048748,1.242400107485056
1761505766944776400,4.5487763671875,6.324202436760068,-1.3766966419890523,1.198772416552156
1761505766954812400,4.5588125,6.688943511402607,-1.356956899382919,1.24281672546193
1761505766964848600,4.5688486328125,7.100410681384801,-1.2908403132662176,1.274992755793035
1761505766974885400,4.578885498046875,7.548511007237434,-1.2436311105847357,1.26736445287168
1761505766984921300,4.58892138671875,7.8950465631037945,-1.1504575176510958,1.1399690760582686
1761505766994957600,4.59895751953125,7.967401020696759,-1.0070108044207096,0.9934266618348657
1761505767004993800,4.608993896484375,8.048667099019884,-0.8452589844971895,0.9446620464049279
1761505767015029800,4.61902978515625,8.242248473924398,-0.6172948629975319,0.8245680786460637
1761505767025065700,4.629065673828125,8.389332886070013,-0.43210130414478476,0.7383664436168969
1761505767035100400,4.639100341796875,8.482610304704307,-0.3861121447775513,0.7866838998012244
1761505767045136400,4.649136474609375,8.553712131887673,-0.36572416739575564,0.8611186707995832
1761505767055172400,4.65917236328125,8.440741586267947,-0.39848040876761076,0.8698290698692202
1761505767065208600,4.66920849609375,8.171222050064802,-0.42178705007508394,1.0116077768221496
1761505767075244500,4.67924462890625,7.724603487202525,-0.36449630610123274,1.2425621661789714
1761505767085280800,4.68928076171875,7.04867757153809,-0.16393150205016135,1.4091881680101155
1761505767095316700,4.699316650390625,5.890121283909678,0.04263648793846368,1.469611657051742
1761505767105352700,4.709352783203125,4.41139137763977,0.1555763461589813,1.1888912932027131
1761505767115388700,4.719388671875,3.5244688418895005,0.23220438941791652,0.5426626697309315
1761505767125424600,4.729424560546875,2.478399115756154,0.29558219822049137,-0.05117532983347773
1761505767135460600,4.739460693359375,1.056274309283495,0.2957942335359752,-0.3270068256624043
1761505767145496600,4.74949658203125,-0.3100409316837787,0.19351883106231688,-0.1977651633951813
1761505767155531500,4.759531494140625,-2.311741403612494,0.1807726006053388,-0.1298359018333256
1761505767165567700,4.769567626953125,-4.684194173297286,0.23145927013903855,-0.3727617378823459
1761505767175603700,4.779603759765625,-6.719100164735317,0.22789207917675375,-0.6710343442305922
1761505767185639700,4.7896396484375,-8.807765803411602,0.48457171529009935,-1.3658292110159993
1761505767195675600,4.799675537109375,-10.515324339056015,0.7380721368454396,-2.14837995653525
1761505767205711600,4.809711669921875,-11.69425939784646,0.7602588342122734,-2.410883330366015
1761505767215747600,4.81974755859375,-12.722345723521709,0.5129200040265918,-2.3267903580538927
1761505767225783600,4.829783447265625,-13.167345745271444,0.18784736129716037,-2.500471246832609
1761505767235819500,4.839819580078125,-13.051730822622774,0.11061579918712378,-2.9103166608318687
1761505767245855500,4.84985546875,-12.954936335778235,0.14851444494873284,-3.154207542520761
1761505767255891500,4.859891357421875,-12.445469394814968,0.11317279019355773,-3.1056016247838736
1761505767265927700,4.869927734375,-11.662406461989878,-0.10030614822730421,-2.7871055839657783
1761505767275962600,4.879962646484375,-11.027702199029921,-0.3147587539859116,-2.284727139958739
1761505767285998600,4.88999853515625,-10.30078142466545,-0.5007445591948926,-1.6000727050460875
1761505767296034600,4.90003466796875,-9.379439317440987,-0.6528051523178815,-1.0573249873802064
1761505767306070500,4.910070556640625,-8.212436103984713,-0.8125498702026903,-0.67960358126387
1761505767316106500,4.9201064453125,-6.634906216266751,-0.9517693941920995,-0.4486553293868899
1761505767326142500,4.930142578125,-4.551889981654286,-1.1291114358268677,-0.25816037619039417
1761505767336178400,4.940178466796875,-2.3386101213157175,-1.336504332332313,-0.07613032286986708
1761505767346214700,4.950214599609375,-0.5199491720110178,-1.5837787189796566,0.20780498443767428
1761505767356250600,4.960250732421875,1.1259668541908263,-1.754073618581891,0.545093696270138
1761505767366286600,4.97028662109375,2.472723992729187,-1.84147440026775,0.7967021665990353
1761505767376322600,4.980322509765625,3.6239492068171497,-1.8232659588821232,0.9805199801191687
1761505767386358500,4.990358642578125,4.402296801558137,-1.7556114956736564,1.2471132536120713
1761505767396393500,5.0003935546875,4.791761983090639,-1.6327927791260182,1.481471313932538
1761505767406429400,5.010429443359375,5.2201317725569005,-1.4941092617094516,1.5781132405638694
1761505767416465400,5.02046533203125,5.795627475222945,-1.345819419296831,1.5089775988869367
1761505767426501600,5.030501708984375,6.237442437195778,-1.1664821121916173,1.4103463981345294
1761505767436537600,5.04053759765625,6.644696957919002,-1.083627084176615,1.4797496047064662
1761505767446573600,5.050573486328125,7.071591998657584,-0.980042864126712,1.578893577286601
1761505767456609500,5.060609619140625,7.449069805276394,-0.8153266414396464,1.5364362453073261
1761505767466645500,5.0706455078125,7.7594637881815425,-0.6578614127941429,1.362420279355347
1761505767476681500,5.080681396484375,7.952144414854049,-0.5072811213567853,1.1025894857347012
1761505767486717400,5.090717529296875,8.231587379178404,-0.3592200461987406,0.953834071636945
1761505767496753400,5.10075341796875,8.535055362212658,-0.23905454757362601,0.9242986189424991
1761505767506789400,5.110789306640625,8.404726270034908,-0.17427914693281055,0.9621467035606502
1761505767516825600,5.12082568359375,8.107050898927449,-0.19855594844669103,1.105419594594091
1761505767526860500,5.130860595703125,7.824681818023324,-0.18509470158815383,1.2939881097726522
1761505767536896500,5.140896484375,7.54225253136456,-0.05514715607389807,1.278456047989428
1761505767546932500,5.150932373046875,7.334394793826341,0.12060980832651257,1.1812163015954196
1761505767556968400,5.160968505859375,7.0372788101673125,0.24247794615104792,1.1740404916819185
1761505767567004400,5.17100439453125,6.647518445080518,0.26215426813215015,1.141603983783722
1761505767577040600,5.18104052734375,6.370241134357452,0.2648490601740777,1.0805261224865912
1761505767587076600,5.19107666015625,5.891464515212178,0.2726047888673842,1.0672281033657491
1761505767597112600,5.201112548828125,4.904532037702203,0.33326866253614423,0.9064075729429721
1761505767607148500,5.2111484375,3.769107619336247,0.47135348340719935,0.5093029825732112
1761505767617184500,5.2211845703125,2.936543865761161,0.6472320283606648,0.052548883209005
1761505767627220700,5.231220703125,1.5256903948873282,0.8458280165567994,-0.24459376926124093
1761505767637256700,5.241256591796875,-0.9074544516474008,0.9698279057130217,-0.3243200707964599
1761505767647291600,5.251291748046875,-3.2941444209992885,0.8592758194118738,-0.3245896084528416
1761505767657327600,5.26132763671875,-5.390522241488099,0.5648091812178492,-0.4679682248830795
1761505767667363600,5.271363525390625,-7.5610793969094745,0.3121292822651565,-0.6845506822772324
1761505767677399600,5.281399658203125,-9.254359231832623,0.16111819819509982,-0.9829769448172301
1761505767687435500,5.291435546875,-10.511500396853684,0.21446108132600783,-1.3561808004438876
1761505767697471700,5.3014716796875,-11.507343326050043,0.4975958859056234,-1.7801023783296346
1761505767707507700,5.3115078125,-11.649514247190952,0.7070403081133961,-2.1178492091931402
1761505767717543700,5.321543701171875,-10.882539694857597,0.7983321058884263,-2.3845956274211404
1761505767727579600,5.33157958984375,-9.82239117448926,1.1044093946382403,-2.7433950370550155
1761505767737615600,5.34161572265625,-9.110577368363737,0.9841694425374269,-2.5408520647987722
1761505767747651600,5.351651611328125,-8.74352217155993,0.40761020229309797,-2.0225211416393516
1761505767757687600,5.3616875,-8.315212003326415,-0.17862068326845765,-1.517897695184499
1761505767767722500,5.371722412109375,-8.343864097315073,-0.7022165412187575,-0.8334332298859953
1761505767777758700,5.3817587890625,-8.84111453078389,-0.9635276365250348,-0.15486147588789462
1761505767787794700,5.391794677734375,-9.586886720612645,-0.6004299451753496,-0.056720250609517096
1761505767797830700,5.40183056640625,-9.418695807552337,-0.0605912468239665,-0.3367905530519783
1761505767807866600,5.41186669921875,-8.266842816954851,0.24531053922846913,-0.7374519591204821
1761505767817902600,5.421902587890625,-6.488154397076368,0.37154008713290093,-1.3092366784393787
1761505767827938600,5.4319384765625,-4.681824521556496,0.22007366051077842,-1.7420428429178894
1761505767837974500,5.441974609375,-2.582390236106515,-0.18783698603361845,-1.861701049607992
1761505767848010500,5.452010498046875,-0.4398129745006561,-0.7891245709516107,-1.631296256957948
1761505767858046500,5.46204638671875,0.9576789104968308,-1.312465431227535,-0.9545612168677151
1761505767868082400,5.47208251953125,1.9165373861670494,-1.696647850051522,-0.015991349858045577
1761505767878117000,5.4821171875,2.4304753350645303,-1.9764105478495357,0.9033402943268418
1761505767888153000,5.492153076171875,2.9537586199343204,-2.2009610615134236,1.65071670448184
1761505767898189000,5.50218896484375,3.7345407483458515,-2.3605296921789645,2.1956419123172757
1761505767908225300,5.512225341796875,4.501057035517692,-2.4025851653590795,2.417872166340053
1761505767918261200,5.52226123046875,4.918865098959207,-2.313478310407698,2.3593337603926656
1761505767928297200,5.532297119140625,5.161304320535064,-2.081377381364256,2.20768247872293
1761505767938333200,5.542333251953125,5.384175502809882,-1.7906135432109236,2.077815743359923
1761505767948369200,5.552369140625,5.531037212115526,-1.5808213304787873,2.0033046922549604
1761505767958405400,5.5624052734375,5.695667802345753,-1.5042147683992981,1.8474040825776754
1761505767968441300,5.57244140625,6.142095811071991,-1.485137727485597,1.5717007431730627
1761505767978477300,5.582477294921875,6.507555847638845,-1.4292814002290368,1.5861945479497312
1761505767988513300,5.59251318359375,6.514419888189434,-1.2988058853179216,1.758204434776306
1761505767998548200,5.60254833984375,6.31711218623817,-1.0607266125172377,1.8787268570803104
1761505768008584200,5.612584228515625,6.173032216605543,-0.695744787921384,1.8672583914741874
1761505768018620200,5.6226201171875,6.068023443645239,-0.45201501507833597,1.7453189419791102
1761505768028656000,5.63265625,6.069826693674922,-0.3642851475685835,1.5523834637627005
1761505768038692400,5.6426923828125,5.881197388219833,-0.3783300395339727,1.221483576184511
1761505768048728300,5.652728271484375,5.5350306656658645,-0.43810602445229885,1.0830858899720013
1761505768058764300,5.662764404296875,5.0943467535495754,-0.42625586605221033,1.101100562351197
1761505768068800300,5.67280029296875,4.736464458760619,-0.34695568097457286,1.280331340342015
1761505768078836200,5.682836181640625,4.308890203586221,-0.17095920872986314,1.4113142202533782
1761505768088872200,5.6928720703125,3.727259359166026,0.06869578895494341,1.2216781489085404
1761505768098908200,5.702908203125,2.8528040908008814,0.26586203660890456,0.7886721510089933
1761505768108943000,5.712943115234375,1.8518956949084997,0.3157721688121557,0.3320822292305529
1761505768118979300,5.722979248046875,0.9615724108040332,0.3244580179624259,-0.2210746542468667
1761505768129015300,5.733015380859375,-0.10230477469861507,0.33371976730450986,-0.7137435320790857
1761505768139051300,5.74305126953125,-1.1356553045123814,0.2553691380366683,-0.8990889204926789
1761505768149087200,5.753087158203125,-2.417728081694245,0.3516355093538761,-0.8139698200032115
1761505768159123200,5.763123291015625,-4.0266561472386115,0.7094111288979649,-0.8355672462400049
1761505768169159200,5.7731591796875,-5.288400422140955,1.2250783858060836,-0.7786168401364236
1761505768179195100,5.783195068359375,-6.05705430586338,1.3851871146976946,-0.4400217218805104
1761505768189231000,5.793231201171875,-6.337459977740049,1.137888762652874,-0.25164032677188514
1761505768199267000,5.80326708984375,-6.642029784536361,0.7105445168420672,-0.07159618657156824
1761505768209303000,5.813302978515625,-7.047883790811896,0.16239976243823764,0.1282419106401503
1761505768219338200,5.823338134765625,-6.950489584508538,-0.4135176727712154,0.26904105023751035
1761505768229374200,5.833374267578125,-6.993159097933769,-0.6791179897040128,0.22793650284036993
1761505768239410200,5.84341015625,-7.568223423445224,-0.4607710068553686,-0.26491606099568304
1761505768249446100,5.853446044921875,-8.435915773546695,-0.26156828493773937,-0.8995471125889569
1761505768259482000,5.863482177734375,-9.282516235780715,-0.12848726370334623,-1.3283499597102404
1761505768269518000,5.87351806640625,-9.660920509594678,0.3696370299905538,-1.724143759742379
1761505768279554000,5.883553955078125,-9.399509461045264,0.9155201230727136,-2.169791870137304
1761505768289590000,5.893590087890625,-8.665646320196986,1.0719134847030043,-2.4804531256765125
1761505768299626000,5.9036259765625,-7.645887677884102,1.0405721516303716,-2.4755355430185793
1761505768309662200,5.913662109375,-6.828654764431715,0.8299941953480243,-2.174656845825165
1761505768319698200,5.9236982421875,-6.088298754432797,0.16759791560322046,-1.46779700884521
1761505768329734100,5.933734130859375,-4.78573556240797,-0.5671836552642285,-0.6891098068863153
1761505768339769000,5.94376904296875,-3.317526465630531,-1.1376814765777439,0.015238631794601679
1761505768349805000,5.95380517578125,-2.025506879451871,-1.5820998259820043,0.5697603738844395
1761505768359841000,5.963841064453125,-0.7964894006311893,-1.988476833218336,1.1640253666892646
1761505768369877000,5.973876953125,0.7064578320503234,-2.1200486189335583,1.561382032123953
1761505768379913200,5.983913330078125,2.4936697501242158,-1.9829390728354452,1.3877064040422438
1761505768389949200,5.99394921875,4.157387390476465,-1.6978773918464778,0.9907418066650628
1761505768399985200,6.003985107421875,5.612012783059478,-1.4533835758283733,0.7126354977719486
1761505768410021000,6.014021240234375,6.6112430166065685,-1.3735299946516752,0.52271695622392
1761505768420057300,6.024057373046875,7.183496960872412,-1.4311793428048492,0.48151546952463686
1761505768430093300,6.03409326171875,7.409287829986214,-1.4953918488658964,0.6520959080699831
1761505768440128000,6.0441279296875,7.5105498176336285,-1.463746272149682,0.7220757454860955
1761505768450164000,6.0541640625,7.495694193807243,-1.3741671235114334,0.7106576948929577
1761505768460200200,6.0642001953125,7.387463536190986,-1.4181795759782194,0.6473824696820228
1761505768470236400,6.074236328125,6.825379103761911,-1.5597040159091353,0.7575565164510161
1761505768480272400,6.0842724609375,6.267080619612336,-1.5702204414874315,0.9197734696682542
1761505768490308400,6.094308349609375,6.309806247138977,-1.411011291784048,0.8286212264943867
1761505768500344300,6.10434423828125,6.8366405024886125,-0.44380730483382935,0.5256204956457019
1761505768510380300,6.11438037109375,6.300116627773642,-0.3281242853850126,0.3100681484842673
1761505768520416300,6.124416259765625,4.7771314001917835,-0.914386296737194,0.678510160003975
1761505768530452200,6.1344521484375,2.8598703759253024,-1.0010106141578405,0.8032074568398296
1761505768540488200,6.14448828125,1.7205577179491518,-1.3063988246649503,1.3127081539422274
1761505768550523400,6.1545234375,2.298687276250124,-1.6656614678964017,2.4637542120710014
1761505768560559400,6.164559326171875,2.784181805473566,-1.6743611994415522,2.966374355879426
