time,seconds_elapsed,z,y,x
1761505762472515600,0.076515625,0.08827260136604309,-0.5481421947479248,0.27640682458877563
1761505762482550500,0.086550537109375,0.0806993767619133,-0.2903849482536316,0.15971162915229797
1761505762492586500,0.09658642578125,0.07999256998300552,0.009633186273276806,0.043234288692474365
1761505762502622700,0.106622802734375,0.06335553526878357,0.273087739944458,-0.06452199816703796
1761505762512658700,0.11665869140625,0.02708568051457405,0.45705756545066833,-0.14893968403339386
1761505762522694700,0.126694580078125,-0.018743326887488365,0.5515851378440857,-0.20752522349357605
1761505762532730600,0.136730712890625,-0.047991760075092316,0.5589429140090942,-0.2208506166934967
1761505762542766600,0.1467666015625,-0.05627472326159477,0.5131980776786804,-0.20401917397975922
1761505762552802600,0.156802490234375,-0.03777081519365311,0.414303183555603,-0.1504899114370346
1761505762562838500,0.166838623046875,-0.008470184169709682,0.2630428075790405,-0.06283675134181976
1761505762572874500,0.17687451171875,0.02328534796833992,0.1432783305644989,0.04615071788430214
1761505762582910500,0.186910400390625,0.06725040823221207,0.07435625791549683,0.20729300379753113
1761505762592946400,0.196946533203125,0.11270151287317276,0.035884495824575424,0.4393214285373688
1761505762602982400,0.206982421875,0.16935546696186066,0.07578157633543015,0.7132933139801025
1761505762613018600,0.2170185546875,0.25536784529685974,0.17049184441566467,0.9654046893119812
1761505762623054600,0.2270546875,0.3732673227787018,0.2506985366344452,1.1571080684661865
1761505762633089500,0.237089599609375,0.5127650499343872,0.3700414299964905,1.2839291095733643
1761505762643125500,0.24712548828125,0.6556066274642944,0.49847638607025146,1.3499587774276733
1761505762653161500,0.257161376953125,0.7478763461112976,0.5225585699081421,1.4269661903381348
1761505762663197400,0.267197509765625,0.7668678760528564,0.5548826456069946,1.5399869680404663
1761505762673233400,0.2772333984375,0.7049906849861145,0.48427480459213257,1.5838186740875244
1761505762683269400,0.287269287109375,0.6037822961807251,0.32071730494499207,1.5044455528259277
1761505762693305600,0.2973056640625,0.4974076449871063,0.0215364508330822,1.3059086799621582
1761505762703341600,0.307341552734375,0.4182928502559662,-0.3151795268058777,1.021004319190979
1761505762713377500,0.31737744140625,0.38602760434150696,-0.4338736832141876,0.7551822066307068
1761505762723413500,0.32741357421875,0.3716169595718384,-0.31960755586624146,0.5877452492713928
1761505762733449500,0.337449462890625,0.31596434116363525,0.044558413326740265,0.548950731754303
1761505762743485400,0.3474853515625,0.18281854689121246,0.4558620750904083,0.5808023810386658
1761505762753521400,0.357521484375,-0.013976535759866238,0.7485640048980713,0.6036975979804993
1761505762763557600,0.3675576171875,-0.2268238216638565,0.8587120771408081,0.5074392557144165
1761505762773592600,0.377592529296875,-0.4200705289840698,0.8398600816726685,0.3127744197845459
1761505762783628500,0.387628662109375,-0.5712043642997742,0.6869347095489502,0.11348821222782135
1761505762793664500,0.39766455078125,-0.655794620513916,0.441053569316864,-0.03015444055199623
1761505762803700500,0.407700439453125,-0.668563961982727,0.11289618909358978,-0.12049499154090881
1761505762813736700,0.41773681640625,-0.6588838696479797,-0.2485501617193222,-0.20907598733901978
1761505762823772700,0.427772705078125,-0.6712201833724976,-0.5025648474693298,-0.32825323939323425
1761505762833808600,0.43780859375,-0.7334998250007629,-0.5576318502426147,-0.4976252317428589
1761505762843844600,0.4478447265625,-0.8410632610321045,-0.44085168838500977,-0.6940194964408875
1761505762853880600,0.457880615234375,-0.9366430640220642,-0.3760628402233124,-0.8752183318138123
1761505762863916500,0.46791650390625,-0.9761699438095093,-0.4176188111305237,-0.981120765209198
1761505762873952500,0.477952392578125,-0.9444474577903748,-0.5467970371246338,-0.9911829829216003
1761505762883988700,0.48798876953125,-0.8390331268310547,-0.677322268486023,-0.9256548881530762
1761505762894024700,0.498024658203125,-0.6563887596130371,-0.8747051358222961,-0.8354096412658691
1761505762904060700,0.508060791015625,-0.3638620972633362,-1.148172378540039,-0.7418386936187744
1761505762914096600,0.5180966796875,-0.004023769870400429,-1.3901735544204712,-0.607671320438385
1761505762924132600,0.528132568359375,0.3079029619693756,-1.4668095111846924,-0.45175468921661377
1761505762934167600,0.53816748046875,0.48263803124427795,-1.4426116943359375,-0.29797977209091187
1761505762944203500,0.54820361328125,0.4985533356666565,-1.2815357446670532,-0.17794150114059448
1761505762954239500,0.558239501953125,0.3954232335090637,-0.8740337491035461,-0.12516404688358307
1761505762964275700,0.568275634765625,0.23147210478782654,-0.2918957769870758,-0.17754122614860535
1761505762974311700,0.578311767578125,0.1210918053984642,0.18289098143577576,-0.31016024947166443
1761505762984347600,0.58834765625,0.08330607414245605,0.4887806177139282,-0.48846635222435
1761505762994383600,0.598383544921875,0.08531170338392258,0.6475127339363098,-0.6694307923316956
1761505763004419600,0.608419677734375,0.08974719792604446,0.7158837914466858,-0.7824726700782776
1761505763014455600,0.61845556640625,0.07000838220119476,0.7231917977333069,-0.7919766902923584
1761505763024491500,0.628491455078125,0.04032478481531143,0.6567491292953491,-0.7203110456466675
1761505763034527500,0.638527587890625,0.030704382807016373,0.5250046253204346,-0.5733268857002258
1761505763044563500,0.6485634765625,-0.0016711335629224777,0.3238148093223572,-0.3880031406879425
1761505763054599400,0.658599365234375,-0.025480326265096664,0.07021850347518921,-0.1815010905265808
1761505763064635400,0.668635498046875,-0.016469255089759827,-0.1612866222858429,0.04929244890809059
1761505763074670600,0.678670654296875,-0.01085903961211443,-0.2519576847553253,0.27793920040130615
1761505763084706600,0.68870654296875,-0.00800572894513607,-0.1955053210258484,0.4799879193305969
1761505763094742500,0.698742431640625,-0.007929828017950058,-0.07223211973905563,0.6247323155403137
1761505763104778500,0.708778564453125,-0.04394402354955673,0.026068352162837982,0.7082974910736084
1761505763114814500,0.718814453125,-0.12562823295593262,0.10176844149827957,0.753375768661499
1761505763124850400,0.728850341796875,-0.22467012703418732,0.1312645524740219,0.7674061059951782
1761505763134886400,0.738886474609375,-0.32127949595451355,0.025723738595843315,0.7871869802474976
1761505763144922400,0.74892236328125,-0.39611750841140747,-0.1915755569934845,0.8585229516029358
1761505763154958600,0.75895849609375,-0.40533336997032166,-0.3639156222343445,0.9422881603240967
1761505763164994600,0.76899462890625,-0.3241051137447357,-0.26899629831314087,0.9860710501670837
1761505763175030500,0.779030517578125,-0.2331019639968872,0.002739860210567713,0.9911012649536133
1761505763185066500,0.78906640625,-0.2127905637025833,0.21850118041038513,0.974091649055481
1761505763195102500,0.7991025390625,-0.28416940569877625,0.16346375644207,0.8980040550231934
1761505763205138400,0.809138427734375,-0.37213706970214844,-0.24170450866222382,0.676114559173584
1761505763215174700,0.819174560546875,-0.28574278950691223,-0.6700345277786255,0.27525049448013306
1761505763225210600,0.829210693359375,0.12370196729898453,-0.7977994084358215,-0.2915516793727875
1761505763235245600,0.83924560546875,0.7595971822738647,-0.5074278116226196,-0.7571521401405334
1761505763245281500,0.849281494140625,1.339604139328003,-0.07984796166419983,-0.8114721179008484
1761505763255317500,0.8593173828125,1.6329971551895142,0.32056495547294617,-0.4098455607891083
1761505763265353500,0.869353515625,1.6125667095184326,0.590874195098877,0.23283298313617706
1761505763275389700,0.8793896484375,1.3893128633499146,0.7943785786628723,0.8264952301979065
1761505763285425700,0.88942578125,1.0614150762557983,1.049027919769287,1.1332809925079346
1761505763295461600,0.899461669921875,0.6739179491996765,1.281490683555603,1.0739787817001343
1761505763305497600,0.90949755859375,0.2680546045303345,1.2676411867141724,0.7185589671134949
1761505763315533600,0.919533447265625,-0.13508938252925873,1.060744285583496,0.23375630378723145
1761505763325569500,0.929569580078125,-0.5089836120605469,0.8047204613685608,-0.22133025527000427
1761505763335605500,0.93960546875,-0.8156452775001526,0.505760133266449,-0.5391321778297424
1761505763345641700,0.949641845703125,-0.9748181700706482,0.14427116513252258,-0.730513334274292
1761505763355677700,0.959677734375,-0.9665338397026062,-0.22388476133346558,-0.8590707778930664
1761505763365713700,0.969713623046875,-0.7746238112449646,-0.6001699566841125,-0.9520350694656372
1761505763375749600,0.97974951171875,-0.4538026452064514,-0.9377418756484985,-0.9646568894386292
1761505763385785600,0.98978564453125,-0.0963803306221962,-1.1762285232543945,-0.8557181358337402
1761505763395820500,0.999820556640625,0.2223169505596161,-1.249444603919983,-0.6675663590431213
1761505763405856500,1.0098564453125,0.485590398311615,-1.1396070718765259,-0.45810073614120483
1761505763415892500,1.019892578125,0.683666467666626,-0.8653159141540527,-0.2731782793998718
1761505763425928700,1.0299287109375,0.7956766486167908,-0.5779525637626648,-0.12685994803905487
1761505763435964700,1.039964599609375,0.8294734954833984,-0.408330500125885,-0.049332395195961
1761505763446000600,1.050000732421875,0.8064712285995483,-0.3257003426551819,-0.00848589651286602
1761505763456036600,1.06003662109375,0.740154504776001,-0.3535495400428772,0.01522662304341793
1761505763466072600,1.070072509765625,0.6617068648338318,-0.49160996079444885,0.05998477339744568
1761505763476108500,1.080108642578125,0.5561791062355042,-0.5802671313285828,0.1494416892528534
1761505763486144500,1.09014453125,0.40121960639953613,-0.4962049722671509,0.272566556930542
1761505763496180500,1.100180419921875,0.20989836752414703,-0.3460063934326172,0.3762841522693634
1761505763506216400,1.110216552734375,0.030177343636751175,-0.14849600195884705,0.4520159363746643
1761505763516252400,1.12025244140625,-0.0936170369386673,0.09908343851566315,0.4966648817062378
1761505763526288400,1.130288330078125,-0.13709740340709686,0.3525404632091522,0.5013943910598755
1761505763536324600,1.14032470703125,-0.09607886523008347,0.5471706986427307,0.453573614358902
1761505763546360600,1.150360595703125,0.00990296434611082,0.6470940709114075,0.3684438169002533
1761505763556396500,1.160396484375,0.1632365882396698,0.6601669788360596,0.25297874212265015
1761505763566432500,1.1704326171875,0.33352258801460266,0.6715599894523621,0.12517443299293518
1761505763576467500,1.180467529296875,0.493317574262619,0.6730862855911255,0.07927511632442474
1761505763586503400,1.19050341796875,0.589156985282898,0.6290213465690613,0.15740133821964264
1761505763596539400,1.200539306640625,0.6226755380630493,0.515022873878479,0.3728784918785095
1761505763606575600,1.21057568359375,0.6005662679672241,0.4323713779449463,0.6644583940505981
1761505763616611600,1.220611572265625,0.5232003331184387,0.4660284221172333,0.9551395177841187
1761505763626647600,1.2306474609375,0.3766428828239441,0.5590659379959106,1.1936538219451904
1761505763636683500,1.24068359375,0.18224464356899261,0.563288152217865,1.36747145652771
1761505763646719500,1.250719482421875,-0.03864992409944534,0.4891824722290039,1.445097804069519
1761505763656755500,1.26075537109375,-0.3009156286716461,0.30236971378326416,1.4146099090576172
1761505763666791400,1.27079150390625,-0.6022049188613892,0.08892321586608887,1.2638624906539917
1761505763676827600,1.28082763671875,-0.9199317097663879,-0.009671003557741642,0.9505868554115295
1761505763686863600,1.290863525390625,-1.162545919418335,-0.1098916158080101,0.4035266935825348
1761505763696899600,1.300899658203125,-1.198317289352417,-0.17242956161499023,-0.3299454152584076
1761505763706935600,1.310935546875,-0.9868846535682678,-0.14960041642189026,-1.0043294429779053
1761505763716971500,1.320971435546875,-0.6010059714317322,-0.1417936235666275,-1.3827435970306396
1761505763727007700,1.3310078125,-0.16962631046772003,-0.3154487609863281,-1.3345915079116821
1761505763737043700,1.341043701171875,0.2002745121717453,-0.6731832027435303,-0.8935065269470215
1761505763747078700,1.35107861328125,0.35997921228408813,-1.0432994365692139,-0.200842022895813
1761505763757114600,1.361114501953125,0.35818344354629517,-1.1291041374206543,0.5502423644065857
1761505763767150600,1.371150634765625,0.2703950107097626,-0.662144660949707,1.1305816173553467
1761505763777186600,1.3811865234375,0.10486409813165665,0.09878383576869965,1.3630961179733276
1761505763787222500,1.391222412109375,-0.12327533215284348,0.8142484426498413,1.185462474822998
1761505763797258500,1.401258544921875,-0.3950501084327698,1.3072115182876587,0.6887496709823608
1761505763807294700,1.411294677734375,-0.6742556691169739,1.4335135221481323,0.02166827768087387
1761505763817330700,1.42133056640625,-0.906848132610321,1.2986431121826172,-0.681943416595459
1761505763827366700,1.43136669921875,-1.0413413047790527,1.1323678493499756,-1.3279719352722168
1761505763837402600,1.441402587890625,-1.0870901346206665,1.0237300395965576,-1.7884199619293213
1761505763847438600,1.4514384765625,-1.0493289232254028,0.8714925646781921,-2.0306808948516846
1761505763857474600,1.461474609375,-0.8871825933456421,0.6100479364395142,-2.0721182823181152
1761505763867510500,1.471510498046875,-0.5820594429969788,0.28716012835502625,-1.9641766548156738
1761505763877546500,1.48154638671875,-0.21064458787441254,-0.06683362275362015,-1.7433215379714966
1761505763887582500,1.49158251953125,0.12976838648319244,-0.37950924038887024,-1.446982741355896
1761505763897618400,1.501618408203125,0.3925968110561371,-0.6204683184623718,-1.122851848602295
1761505763907654400,1.511654296875,0.5700304508209229,-0.8019401431083679,-0.781160831451416
1761505763917690600,1.521690673828125,0.6938897967338562,-0.9228492379188538,-0.4626275599002838
1761505763927726600,1.5317265625,0.8046810626983643,-1.0005850791931152,-0.17381973564624786
1761505763937761500,1.541761474609375,0.9154016971588135,-1.0088591575622559,0.07012422382831573
1761505763947797500,1.551797607421875,1.0269795656204224,-0.9127819538116455,0.26478931307792664
1761505763957833500,1.56183349609375,1.0682519674301147,-0.7856019139289856,0.40779414772987366
1761505763967869400,1.571869384765625,0.9909297227859497,-0.6039876341819763,0.4954954981803894
1761505763977905400,1.581905517578125,0.8160412907600403,-0.34659630060195923,0.4898780882358551
1761505763987941400,1.59194140625,0.5788159370422363,-0.05781190097332001,0.3624679446220398
1761505763997977600,1.6019775390625,0.33315879106521606,0.20069901645183563,0.15985384583473206
1761505764008013600,1.612013671875,0.10786441713571548,0.40394213795661926,-0.05711761489510536
1761505764018049500,1.622049560546875,-0.0833236500620842,0.4852902591228485,-0.22862306237220764
1761505764028085500,1.63208544921875,-0.2354055941104889,0.46987536549568176,-0.3226270377635956
1761505764038121500,1.64212158203125,-0.33421099185943604,0.39417794346809387,-0.3273176848888397
1761505764048157400,1.652157470703125,-0.37570199370384216,0.24643534421920776,-0.24910302460193634
1761505764058193400,1.662193359375,-0.3736758530139923,0.07785564661026001,-0.10841329395771027
1761505764068229400,1.6722294921875,-0.3536163866519928,-0.06235338747501373,0.08189620077610016
1761505764078265300,1.682265380859375,-0.3469555675983429,-0.11907951533794403,0.3051873445510864
1761505764088301300,1.69230126953125,-0.3963926136493683,-0.1450599879026413,0.5512072443962097
1761505764098337500,1.702337646484375,-0.49618205428123474,-0.11999031901359558,0.7947764992713928
1761505764108373500,1.71237353515625,-0.6461132168769836,-0.05732427537441254,1.020506501197815
1761505764118408400,1.722408447265625,-0.838026225566864,0.029468409717082977,1.2072045803070068
1761505764128444400,1.7324443359375,-1.0216045379638672,0.16983111202716827,1.3002420663833618
1761505764138480400,1.74248046875,-1.1409852504730225,0.35499563813209534,1.2505115270614624
1761505764148516400,1.752516357421875,-1.1765515804290771,0.46734216809272766,1.0537744760513306
1761505764158552300,1.76255224609375,-1.167454481124878,0.4695965349674225,0.7829914689064026
1761505764168588300,1.77258837890625,-1.1806594133377075,0.38551998138427734,0.5675625205039978
1761505764178624500,1.78262451171875,-1.2351653575897217,0.1917814165353775,0.4919809103012085
1761505764188660500,1.792660400390625,-1.2684506177902222,-0.09727435559034348,0.5284574627876282
1761505764198696400,1.802696533203125,-1.1491303443908691,-0.41373351216316223,0.5562246441841125
1761505764208732400,1.812732421875,-0.7974103689193726,-0.6848481297492981,0.500466525554657
1761505764218768400,1.822768310546875,-0.2819240987300873,-0.839905321598053,0.37587934732437134
1761505764228804400,1.832804443359375,0.20486420392990112,-0.8607667088508606,0.255157470703125
1761505764238840300,1.84284033203125,0.4644901752471924,-0.7697182893753052,0.21437834203243256
1761505764248876300,1.852876220703125,0.47776657342910767,-0.5243955850601196,0.2117553949356079
1761505764258912300,1.862912353515625,0.3493169844150543,-0.09956840425729752,0.09869435429573059
1761505764268948200,1.8729482421875,0.16870246827602386,0.2744677662849426,-0.195481076836586
1761505764278984400,1.882984375,-0.015144065022468567,0.4671943485736847,-0.6205106973648071
1761505764289020400,1.8930205078125,-0.2054586112499237,0.5555556416511536,-1.077939510345459
1761505764299055400,1.903055419921875,-0.3912902772426605,0.6307465434074402,-1.4990617036819458
1761505764309091300,1.91309130859375,-0.5261316895484924,0.6540374755859375,-1.8133604526519775
1761505764319127300,1.923127197265625,-0.56344074010849,0.5747594237327576,-1.9627928733825684
1761505764329163500,1.93316357421875,-0.5057414770126343,0.4696180820465088,-1.9309332370758057
1761505764339199500,1.943199462890625,-0.38246801495552063,0.30922096967697144,-1.776027798652649
1761505764349235500,1.9532353515625,-0.23030270636081696,0.07589209824800491,-1.5324214696884155
1761505764359271400,1.963271484375,-0.07804739475250244,-0.09825573116540909,-1.241948127746582
1761505764369307400,1.973307373046875,0.04863997548818588,-0.14225861430168152,-0.995986819267273
1761505764379343600,1.983343505859375,0.1513676792383194,-0.21164247393608093,-0.8310218453407288
1761505764389379600,1.993379638671875,0.23708312213420868,-0.30004024505615234,-0.7457751035690308
1761505764399415600,2.00341552734375,0.2947187125682831,-0.3608836233615875,-0.7109904885292053
1761505764409451500,2.013451416015625,0.32972970604896545,-0.43583109974861145,-0.692773163318634
1761505764419487500,2.023487548828125,0.3475070893764496,-0.5008039474487305,-0.6349210143089294
1761505764429523500,2.0335234375,0.3581845164299011,-0.4997272491455078,-0.5327142477035522
1761505764439559400,2.043559326171875,0.3844403624534607,-0.483795166015625,-0.4041176438331604
1761505764449595400,2.053595458984375,0.42734575271606445,-0.4476936161518097,-0.2682844400405884
1761505764459631400,2.06363134765625,0.4761795997619629,-0.36627358198165894,-0.14587624371051788
1761505764469667300,2.073667236328125,0.5059731602668762,-0.2727457880973816,-0.06151023134589195
1761505764479702500,2.08370263671875,0.5106121301651001,-0.2134060263633728,-0.014976286329329014
1761505764489738500,2.093738525390625,0.4947061240673065,-0.17169532179832458,0.01278743427246809
1761505764499774500,2.1037744140625,0.44790080189704895,-0.12407267838716507,0.03277925029397011
1761505764509810400,2.113810546875,0.3697487413883209,-0.08348477631807327,0.032600287348032
1761505764519846400,2.123846435546875,0.27085572481155396,-0.05799379572272301,0.030475085601210594
1761505764529882400,2.13388232421875,0.15864530205726624,-0.055933307856321335,0.03467408940196037
1761505764539918300,2.14391845703125,0.044266264885663986,-0.026944000273942947,0.05867130309343338
1761505764549954300,2.153954345703125,-0.05077769234776497,0.02839728631079197,0.09496565908193588
1761505764559990500,2.163990478515625,-0.11884675920009613,0.07978111505508423,0.1367778182029724
1761505764570026500,2.174026611328125,-0.15621650218963623,0.09489189088344574,0.1832265406847
1761505764580062500,2.1840625,-0.17601683735847473,0.06960012018680573,0.26570412516593933
1761505764590098400,2.194098388671875,-0.19736899435520172,0.039387352764606476,0.3925235867500305
1761505764600134400,2.204134521484375,-0.21975766122341156,-0.01575605943799019,0.576071560382843
1761505764610170400,2.21417041015625,-0.23899659514427185,-0.01446842122823,0.7850421071052551
1761505764620206300,2.224206298828125,-0.24170157313346863,0.06876761466264725,0.9735989570617676
1761505764630242300,2.2342421875,-0.21598316729068756,0.17225885391235352,1.0988692045211792
1761505764640278300,2.2442783203125,-0.17345860600471497,0.21709583699703217,1.1537506580352783
1761505764650313500,2.2543134765625,-0.1663636714220047,0.28190916776657104,1.117604374885559
1761505764660349400,2.264349365234375,-0.16571307182312012,0.46493014693260193,0.9678294658660889
1761505764670385400,2.274385498046875,-0.1699991524219513,0.6608506441116333,0.7643977999687195
1761505764680421400,2.28442138671875,-0.18698853254318237,0.6463947296142578,0.5915517210960388
1761505764690457300,2.294457275390625,-0.1489095836877823,0.28345727920532227,0.5072839856147766
1761505764700493300,2.304493408203125,0.02040354162454605,-0.34005558490753174,0.5338010787963867
1761505764710529300,2.314529296875,0.31930261850357056,-0.813156008720398,0.6581674814224243
1761505764720565200,2.324565185546875,0.6217402219772339,-0.9735355973243713,0.8143166303634644
1761505764730601500,2.3346015625,0.8081138730049133,-0.9560204744338989,0.9383640289306641
1761505764740637400,2.344637451171875,0.8290489912033081,-0.8443102240562439,1.01285719871521
1761505764750673400,2.35467333984375,0.7395656704902649,-0.6518595218658447,1.005707859992981
1761505764760709600,2.364709716796875,0.6058773994445801,-0.40932226181030273,0.9014557600021362
1761505764770745600,2.37474560546875,0.44639214873313904,-0.12862642109394073,0.6747387647628784
1761505764780781600,2.384781494140625,0.2700554430484772,0.2065473198890686,0.3316120207309723
1761505764790817500,2.394817626953125,0.09153151512145996,0.5148095488548279,-0.09335923939943314
1761505764800853500,2.404853515625,-0.09364926069974899,0.756443202495575,-0.5507071018218994
1761505764810888400,2.414888427734375,-0.3326397240161896,1.0531851053237915,-0.9376358985900879
1761505764820924400,2.42492431640625,-0.6093653440475464,1.1899147033691406,-1.2271203994750977
1761505764830960600,2.434960693359375,-0.8174706101417542,1.0872595310211182,-1.382956624031067
1761505764840996600,2.44499658203125,-0.883615255355835,0.8377271294593811,-1.4215821027755737
1761505764851032600,2.455032470703125,-0.8172644972801208,0.44098591804504395,-1.3715462684631348
1761505764861068500,2.465068603515625,-0.6432548761367798,-0.057315751910209656,-1.251205563545227
1761505764871105000,2.47510498046875,-0.41625261306762695,-0.5604901909828186,-1.0590847730636597
1761505764881141000,2.48514111328125,-0.20026572048664093,-0.9719067811965942,-0.8014082908630371
1761505764891177000,2.495177001953125,-0.05904174968600273,-1.1408590078353882,-0.4906405508518219
1761505764901213000,2.505212890625,-0.0046365633606910706,-1.0082759857177734,-0.18667800724506378
1761505764911249000,2.515248779296875,-0.016712134703993797,-0.7448344826698303,0.05102856457233429
1761505764921284900,2.525284912109375,-0.054007042199373245,-0.5353326797485352,0.167872354388237
1761505764931320800,2.53532080078125,-0.09501679241657257,-0.374223917722702,0.16537031531333923
1761505764941356800,2.545356689453125,-0.11382350325584412,-0.32024458050727844,0.10230639576911926
1761505764951392800,2.555392822265625,-0.1323750913143158,-0.28616705536842346,0.036858148872852325
1761505764961429000,2.565428955078125,-0.17915751039981842,-0.20320691168308258,-0.0063095614314079285
1761505764971465000,2.57546484375,-0.30018752813339233,-0.10178495198488235,-0.012957343831658363
1761505764981500000,2.5855,-0.47446930408477783,0.06493345648050308,0.004555603489279747
1761505764991535900,2.595535888671875,-0.6704590320587158,0.31058982014656067,0.019531888887286186
1761505765001571800,2.60557177734375,-0.8570576906204224,0.5222251415252686,-0.0014556838432326913
1761505765011607800,2.61560791015625,-0.9940522909164429,0.645937442779541,-0.04880082979798317
1761505765021643800,2.625643798828125,-1.041100263595581,0.7079795598983765,-0.11837378144264221
1761505765031679700,2.6356796875,-0.9875914454460144,0.765622615814209,-0.17109185457229614
1761505765041716000,2.645716064453125,-0.8648735284805298,0.7325823307037354,-0.1784009039402008
1761505765051752200,2.655752197265625,-0.7010958194732666,0.5777301788330078,-0.10966657847166061
1761505765061788200,2.6657880859375,-0.5270049571990967,0.39500004053115845,0.047754473984241486
1761505765071824100,2.67582421875,-0.36076778173446655,0.31582027673721313,0.26616430282592773
1761505765081860000,2.685860107421875,-0.22313854098320007,0.3552563786506653,0.5155645608901978
1761505765091896000,2.69589599609375,-0.12303857505321503,0.5018303394317627,0.7362266182899475
1761505765101932000,2.70593212890625,-0.039095472544431686,0.6812192797660828,0.8697625994682312
1761505765111968000,2.715968017578125,0.015150989405810833,0.831234335899353,0.9058398604393005
1761505765122004000,2.72600390625,0.0377817340195179,0.902736246585846,0.8199702501296997
1761505765132039200,2.7360390625,0.0773930549621582,0.8970410823822021,0.6247570514678955
1761505765142075100,2.7460751953125,0.11250710487365723,0.7972736954689026,0.4098255932331085
1761505765152111000,2.756111083984375,0.07515706866979599,0.696513831615448,0.2974979877471924
1761505765162147000,2.76614697265625,0.009919209405779839,0.7096748948097229,0.34203484654426575
1761505765172183000,2.77618310546875,-0.09282208234071732,0.7800886034965515,0.4758181869983673
1761505765182219000,2.786218994140625,-0.1738056093454361,0.8340860605239868,0.5506815314292908
1761505765192255000,2.7962548828125,-0.15725646913051605,0.7753833532333374,0.43940985202789307
1761505765202291000,2.806291015625,-0.047690555453300476,0.5503417253494263,0.16028395295143127
1761505765212327000,2.816326904296875,0.07878642529249191,0.13834668695926666,-0.13789847493171692
1761505765222363000,2.82636279296875,0.15032958984375,-0.28120744228363037,-0.29550114274024963
1761505765232399000,2.836399169921875,0.15242362022399902,-0.621120274066925,-0.2665592432022095
1761505765242435000,2.84643505859375,0.12132029980421066,-0.8148026466369629,-0.10212903469800949
1761505765252471000,2.856470947265625,0.06785760819911957,-0.8714337348937988,0.07233624905347824
1761505765262507000,2.866507080078125,0.0006197175825946033,-0.873958945274353,0.09228625148534775
1761505765272543000,2.87654296875,-0.05738792568445206,-0.8660362958908081,-0.10675068199634552
1761505765282579000,2.886578857421875,-0.03677532449364662,-0.8796617984771729,-0.5290577411651611
1761505765292614000,2.89661376953125,0.06293529272079468,-0.8536842465400696,-1.0047547817230225
1761505765302649900,2.90664990234375,0.20239783823490143,-0.8114526867866516,-1.342879295349121
1761505765312686000,2.91668603515625,0.3573285639286041,-0.7542309165000916,-1.4032621383666992
1761505765322722000,2.92672216796875,0.48698297142982483,-0.6623265743255615,-1.2171878814697266
1761505765332758000,2.936758056640625,0.5325919985771179,-0.4084170460700989,-0.8795830011367798
1761505765342794000,2.9467939453125,0.46244779229164124,0.05163656175136566,-0.5720544457435608
1761505765352830000,2.956829833984375,0.32547929883003235,0.4782424867153168,-0.4064098298549652
1761505765362866000,2.966865966796875,0.19862467050552368,0.7854061722755432,-0.39773085713386536
1761505765372902000,2.97690185546875,0.11547119915485382,0.9940160512924194,-0.5102571249008179
1761505765382937900,2.986937744140625,0.04574058949947357,1.0225334167480469,-0.685386061668396
1761505765392973800,2.996973876953125,-0.012418853119015694,0.8496708869934082,-0.8702802658081055
1761505765403009800,3.007009765625,-0.020718328654766083,0.5423421263694763,-0.9958922863006592
1761505765413045800,3.017045654296875,0.0459296740591526,0.1461164653301239,-1.0112248659133911
1761505765423082000,3.02708203125,0.1801292896270752,-0.28113818168640137,-0.9132367968559265
1761505765433117000,3.037116943359375,0.34419944882392883,-0.6344690918922424,-0.7208524346351624
1761505765443153000,3.04715283203125,0.4931276738643646,-0.7751849293708801,-0.4882194697856903
1761505765453188900,3.05718896484375,0.5631685256958008,-0.6542689204216003,-0.25203171372413635
1761505765463224800,3.067224853515625,0.5356703400611877,-0.296294242143631,-0.039855536073446274
1761505765473260800,3.0772607421875,0.43600794672966003,0.11245676875114441,0.12804745137691498
1761505765483296800,3.087296875,0.33366984128952026,0.3998986780643463,0.24005946516990662
1761505765493332700,3.097332763671875,0.25796762108802795,0.5697129964828491,0.2865462899208069
1761505765503369200,3.107369140625,0.20571507513523102,0.576227605342865,0.2670583426952362
1761505765513405200,3.1174052734375,0.14404825866222382,0.458800345659256,0.2386123090982437
1761505765523441200,3.127441162109375,0.059062786400318146,0.2923053503036499,0.21815070509910583
1761505765533477000,3.13747705078125,-0.028272384777665138,0.08387785404920578,0.22437530755996704
1761505765543513000,3.14751318359375,-0.07900666445493698,-0.13185256719589233,0.25477954745292664
1761505765553549000,3.157549072265625,-0.10770329087972641,-0.3625046908855438,0.31357017159461975
1761505765563585000,3.1675849609375,-0.12949487566947937,-0.558663010597229,0.40274664759635925
1761505765573621000,3.17762109375,-0.1280525028705597,-0.6598846912384033,0.5160348415374756
1761505765583656200,3.18765625,-0.11557026952505112,-0.575110137462616,0.6301161646842957
1761505765593692200,3.197692138671875,-0.11651436239480972,-0.4187200367450714,0.6933502554893494
1761505765603728100,3.20772802734375,-0.13598686456680298,-0.3689862787723541,0.7090314626693726
1761505765613764000,3.21776416015625,-0.16163790225982666,-0.4040153920650482,0.6883166432380676
1761505765623800000,3.227800048828125,-0.21084165573120117,-0.4636653959751129,0.6442335844039917
1761505765633836000,3.2378359375,-0.25912851095199585,-0.4365568161010742,0.583170473575592
1761505765643872000,3.2478720703125,-0.316843181848526,-0.34707167744636536,0.5326769351959229
1761505765653908000,3.257907958984375,-0.3298839032649994,-0.2065076380968094,0.5089915990829468
1761505765663944000,3.26794384765625,-0.29060015082359314,-0.01176211703568697,0.5723205208778381
1761505765673980000,3.27797998046875,-0.2229289561510086,0.20303194224834442,0.7467746138572693
1761505765684015900,3.288015869140625,-0.14412015676498413,0.3204653561115265,0.9669474363327026
1761505765694052000,3.298052001953125,-0.061635665595531464,0.27955174446105957,1.1196157932281494
1761505765704088000,3.308088134765625,0.003811782458797097,0.22249166667461395,1.1069122552871704
1761505765714124000,3.3181240234375,0.06678035855293274,0.3854542076587677,0.9204619526863098
1761505765724159000,3.328158935546875,0.09174643456935883,0.5623200535774231,0.6495833396911621
1761505765734195000,3.33819482421875,0.04598533362150192,0.5235878229141235,0.40910014510154724
1761505765744231000,3.34823095703125,-0.07937312126159668,0.3610636591911316,0.24599964916706085
1761505765754267000,3.358266845703125,-0.267492413520813,0.14089906215667725,0.12459545582532883
1761505765764302800,3.368302734375,-0.45885705947875977,-0.07371389865875244,-0.0049039446748793125
1761505765774339000,3.378339111328125,-0.5808239579200745,-0.2119564563035965,-0.18476611375808716
1761505765784375000,3.388375,-0.5751714110374451,-0.3063543438911438,-0.3821527063846588
1761505765794411000,3.398410888671875,-0.45592838525772095,-0.3789033591747284,-0.5065260529518127
1761505765804447000,3.408447021484375,-0.2868781089782715,-0.4629804193973541,-0.5236160755157471
1761505765814483000,3.41848291015625,-0.1124756783246994,-0.49293753504753113,-0.48688817024230957
1761505765824519000,3.428518798828125,0.05314604192972183,-0.4022579491138458,-0.4694385826587677
1761505765834555000,3.438554931640625,0.21295221149921417,-0.10962316393852234,-0.5109301209449768
1761505765844590800,3.4485908203125,0.34587299823760986,0.2682037651538849,-0.5992287993431091
1761505765854626800,3.458626708984375,0.4235115945339203,0.5668677091598511,-0.7052497863769531
1761505765864662000,3.468662109375,0.45276880264282227,0.6632512211799622,-0.8054970502853394
1761505765874698800,3.47869873046875,0.45181939005851746,0.5238762497901917,-0.878822922706604
1761505765884735000,3.48873486328125,0.4496169686317444,0.22984011471271515,-0.9080963730812073
1761505765894771000,3.49877099609375,0.44809097051620483,-0.1267576813697815,-0.9020826816558838
1761505765904807200,3.50880712890625,0.4511653184890747,-0.42863738536834717,-0.868587851524353
1761505765914843100,3.518843017578125,0.45766156911849976,-0.612672746181488,-0.8039119243621826
1761505765924879000,3.528879150390625,0.46465981006622314,-0.6962341666221619,-0.6985628604888916
1761505765934915000,3.5389150390625,0.4705973267555237,-0.7350577712059021,-0.55545574426651
1761505765944951000,3.548950927734375,0.47334572672843933,-0.7031107544898987,-0.37940964102745056
1761505765954987000,3.558987060546875,0.4812483787536621,-0.5974870920181274,-0.18387369811534882
1761505765965023000,3.56902294921875,0.48743224143981934,-0.4304216802120209,0.018988072872161865
1761505765975059000,3.579058837890625,0.4643074870109558,-0.18341456353664398,0.1943252682685852
1761505765985095000,3.589094970703125,0.3982451260089874,0.06873512268066406,0.31621602177619934
1761505765995130000,3.599130126953125,0.31637847423553467,0.24954672157764435,0.37369582056999207
1761505766005166000,3.609166015625,0.23333844542503357,0.32892727851867676,0.35983699560165405
1761505766015202000,3.6192021484375,0.17566503584384918,0.2762848436832428,0.3162514567375183
1761505766025238000,3.629238037109375,0.13771206140518188,0.11743848025798798,0.28044283390045166
1761505766035274000,3.63927392578125,0.11404454708099365,-0.06047506257891655,0.2779304087162018
1761505766045310000,3.64931005859375,0.10371068120002747,-0.16172099113464355,0.3245442509651184
1761505766055346000,3.659345947265625,0.10485637187957764,-0.20947732031345367,0.4110570549964905
1761505766065382000,3.6693818359375,0.11138484627008438,-0.2573455274105072,0.4840095639228821
1761505766075418000,3.679418212890625,0.11730478703975677,-0.30952268838882446,0.5073047280311584
1761505766085454000,3.6894541015625,0.09557659178972244,-0.3745134174823761,0.4660300314426422
1761505766095490000,3.699489990234375,0.04169870913028717,-0.4249646067619324,0.3616727292537689
1761505766105526000,3.709526123046875,-0.05420864373445511,-0.5080326199531555,0.23625381290912628
1761505766115562000,3.71956201171875,-0.17703309655189514,-0.6834571361541748,0.1924445480108261
1761505766125597000,3.729596923828125,-0.3470112085342407,-0.8866877555847168,0.2857779562473297
1761505766135633000,3.7396328125,-0.5433894991874695,-1.0413260459899902,0.4939548671245575
1761505766145668900,3.7496689453125,-0.7451841831207275,-0.8958730101585388,0.656622052192688
1761505766155705000,3.759705078125,-0.9081573486328125,-0.48171257972717285,0.6553837060928345
1761505766165741000,3.769740966796875,-0.9430668950080872,0.16226986050605774,0.4749002158641815
1761505766175777000,3.779777099609375,-0.8352410793304443,0.8478758931159973,0.15435868501663208
1761505766185813000,3.78981298828125,-0.6435866951942444,1.289559006690979,-0.17272783815860748
1761505766195849000,3.799848876953125,-0.4623812139034271,1.2790776491165161,-0.35745134949684143
1761505766205885000,3.809885009765625,-0.3564912676811218,0.9460650682449341,-0.2976894676685333
1761505766215921000,3.8199208984375,-0.3224819004535675,0.5681300163269043,-0.024921327829360962
1761505766225956900,3.829956787109375,-0.2797645330429077,0.3581906259059906,0.3132641613483429
1761505766235992800,3.839992919921875,-0.19312818348407745,0.24989505112171173,0.5447245836257935
1761505766246028800,3.85002880859375,-0.09272807091474533,0.19212043285369873,0.6415395140647888
1761505766256064000,3.86006396484375,-0.0475347600877285,0.07208990305662155,0.5918459892272949
1761505766266100000,3.870099853515625,-0.04537120833992958,-0.20566101372241974,0.42341411113739014
1761505766276136000,3.880135986328125,-0.036446426063776016,-0.5473384261131287,0.10428086668252945
1761505766286172000,3.890171875,0.00032091091270558536,-0.6846649050712585,-0.32619380950927734
1761505766296208000,3.900207763671875,0.014289990067481995,-0.5818756818771362,-0.7215057015419006
1761505766306243800,3.910243896484375,-0.012280634604394436,-0.35102513432502747,-0.9798744320869446
1761505766316279800,3.92027978515625,-0.02309839427471161,-0.14927443861961365,-1.1069676876068115
1761505766326315800,3.930315673828125,0.02040540613234043,-0.00871998816728592,-1.1456234455108643
1761505766336351700,3.940351806640625,0.08508959412574768,0.04621516540646553,-1.1147488355636597
1761505766346388000,3.950387939453125,0.10810596495866776,0.03320855274796486,-1.051890254020691
1761505766356424200,3.960424072265625,0.10028932243585587,-0.023565247654914856,-0.9767422676086426
1761505766366460200,3.970460205078125,0.0797014832496643,-0.13341264426708221,-0.8973020315170288
1761505766376494800,3.980494873046875,0.06490016728639603,-0.2746099829673767,-0.8152101039886475
1761505766386530800,3.99053076171875,0.08456148952245712,-0.44350340962409973,-0.7346864938735962
1761505766396566800,4.00056689453125,0.14246952533721924,-0.549102246761322,-0.651462197303772
1761505766406602000,4.01060205078125,0.19795089960098267,-0.5692480206489563,-0.569876492023468
1761505766416638000,4.020637939453125,0.2497301995754242,-0.5310763716697693,-0.5011041164398193
1761505766426674000,4.030673828125,0.3033201992511749,-0.41849392652511597,-0.45548391342163086
1761505766436710000,4.0407099609375,0.3749951720237732,-0.26991721987724304,-0.42276322841644287
1761505766446744800,4.050744873046875,0.45569029450416565,-0.14782407879829407,-0.37832626700401306
1761505766456780800,4.06078076171875,0.5152297616004944,-0.07493762671947479,-0.30529919266700745
1761505766466817000,4.070817138671875,0.5064498782157898,-0.05814559385180473,-0.21697571873664856
1761505766476853000,4.08085302734375,0.4409227967262268,-0.061231400817632675,-0.11087485402822495
1761505766486889000,4.090888916015625,0.3194807767868042,-0.060685984790325165,0.002103364560753107
1761505766496925000,4.100925048828125,0.15981416404247284,-0.03863367810845375,0.11092731356620789
1761505766506961000,4.1109609375,0.015855396166443825,-0.09253765642642975,0.2206311821937561
1761505766516996900,4.120996826171875,-0.09448549151420593,-0.1406324803829193,0.3008272051811218
1761505766527033000,4.131033203125,-0.16970354318618774,-0.11679080128669739,0.3797185719013214
1761505766537069000,4.141069091796875,-0.22151987254619598,0.013582920655608177,0.45337626338005066
1761505766547105000,4.15110498046875,-0.2510026693344116,0.2238570600748062,0.5005168914794922
1761505766557141000,4.16114111328125,-0.258076548576355,0.39327672123908997,0.48563966155052185
1761505766567176000,4.171176025390625,-0.23849299550056458,0.43232184648513794,0.4262826144695282
1761505766577212000,4.1812119140625,-0.2025001049041748,0.3573096692562103,0.3772743046283722
1761505766587248000,4.191248046875,-0.1714300811290741,0.20090806484222412,0.3953912556171417
1761505766597284000,4.2012841796875,-0.20288999378681183,-0.007202252745628357,0.5190367698669434
1761505766607320000,4.211320068359375,-0.3031921088695526,-0.16075639426708221,0.7197824120521545
1761505766617356000,4.22135595703125,-0.45639896392822266,-0.24215644598007202,0.956528902053833
1761505766627392000,4.23139208984375,-0.5948471426963806,-0.2212247997522354,1.0983030796051025
1761505766637428000,4.241427978515625,-0.6867405772209167,-0.054068028926849365,1.0773029327392578
1761505766647464000,4.2514638671875,-0.6844949722290039,0.25754019618034363,0.9071895480155945
1761505766657500000,4.2615,-0.5398057103157043,0.6207309365272522,0.7011240124702454
1761505766667536100,4.2715361328125,-0.26813796162605286,0.8864027857780457,0.5847755670547485
1761505766677572000,4.281572021484375,0.03056296892464161,1.0522069931030273,0.616860032081604
1761505766687607000,4.29160693359375,0.23175254464149475,1.0754483938217163,0.7747074365615845
1761505766697643000,4.30164306640625,0.26665645837783813,0.8954285383224487,0.9502752423286438
1761505766707679000,4.311678955078125,0.18174156546592712,0.5689225792884827,1.047706961631775
1761505766717715000,4.32171484375,0.05004212632775307,0.09205882251262665,1.0264089107513428
1761505766727751000,4.3317509765625,-0.07279804348945618,-0.4374087452888489,0.8811667561531067
1761505766737787100,4.341787109375,-0.16732534766197205,-0.957793653011322,0.6785574555397034
1761505766747823000,4.351822998046875,-0.22495295107364655,-1.32285737991333,0.49702468514442444
1761505766757859000,4.361859130859375,-0.23092882335186005,-1.5380245447158813,0.3154032230377197
1761505766767895000,4.37189501953125,-0.13099822402000427,-1.6334236860275269,0.021276792511343956
1761505766777931000,4.381930908203125,0.036061063408851624,-1.623986005783081,-0.42239198088645935
1761505766787967000,4.391967041015625,0.1879885494709015,-1.4268345832824707,-0.8945379853248596
1761505766798002000,4.402001953125,0.24324487149715424,-1.0121748447418213,-1.2299569845199585
1761505766808038000,4.412037841796875,0.27219557762145996,-0.564489483833313,-1.3783738613128662
1761505766818074000,4.42207421875,0.348186731338501,-0.07741862535476685,-1.361131191253662
1761505766828110000,4.432110107421875,0.4482973515987396,0.42317843437194824,-1.2463910579681396
1761505766838146000,4.44214599609375,0.4808582365512848,0.8195803761482239,-1.1190357208251953
1761505766848182000,4.45218212890625,0.4051232635974884,1.042233943939209,-1.058363437652588
1761505766858218000,4.462218017578125,0.2710256278514862,1.0655624866485596,-1.0907511711120605
1761505766868254000,4.47225390625,0.14063115417957306,0.8819039463996887,-1.1421384811401367
1761505766878288400,4.482288330078125,0.0368909053504467,0.5267732739448547,-1.129120945930481
1761505766888324600,4.49232470703125,-0.04144943878054619,0.19869817793369293,-1.0286632776260376
1761505766898360600,4.502360595703125,-0.08869151771068573,0.04866474121809006,-0.845873236656189
1761505766908396500,4.512396484375,-0.0867474153637886,0.023963922634720802,-0.6308895349502563
1761505766918431500,4.522431396484375,-0.05494953319430351,0.0729098916053772,-0.427531361579895
1761505766928467500,4.532467529296875,-0.01770123280584812,0.18666735291481018,-0.26513633131980896
1761505766938503400,4.54250341796875,0.0246113371104002,0.3221122622489929,-0.11240563541650772
1761505766948539400,4.552539306640625,0.07231813669204712,0.4474714994430542,0.02821645699441433
1761505766958575400,4.562575439453125,0.12348039448261261,0.5595178604125977,0.13773788511753082
1761505766968611600,4.572611572265625,0.14975807070732117,0.6208217144012451,0.20469161868095398
1761505766978647600,4.5826474609375,0.13566169142723083,0.5961845517158508,0.23544687032699585
1761505766988683500,4.59268359375,0.06823604553937912,0.47684910893440247,0.26531875133514404
1761505766998719500,4.602719482421875,-0.034382741898298264,0.36783367395401,0.3172890245914459
1761505767008755500,4.61275537109375,-0.14327673614025116,0.3108537495136261,0.39184579253196716
1761505767018791700,4.622791748046875,-0.22817137837409973,0.2962809205055237,0.4682452380657196
1761505767028827600,4.63282763671875,-0.27754825353622437,0.32174021005630493,0.5206354856491089
1761505767038862600,4.642862548828125,-0.29812783002853394,0.3411421477794647,0.5313072800636292
1761505767048898600,4.652898681640625,-0.30100324749946594,0.3425261974334717,0.49751150608062744
1761505767058934500,4.6629345703125,-0.2788790464401245,0.3097163140773773,0.4338372051715851
1761505767068970500,4.672970458984375,-0.2608076333999634,0.2725510895252228,0.3865647614002228
1761505767079006700,4.6830068359375,-0.2485126107931137,0.2423361986875534,0.40893957018852234
1761505767089042700,4.693042724609375,-0.255494624376297,0.15257969498634338,0.5527287125587463
1761505767099078700,4.70307861328125,-0.30055609345436096,0.11655617505311966,0.8250161409378052
1761505767109114600,4.713114501953125,-0.3813047409057617,0.14440084993839264,1.1302011013031006
1761505767119150600,4.723150634765625,-0.4698420763015747,0.06155790388584137,1.3708221912384033
1761505767129186600,4.7331865234375,-0.5268174409866333,-0.22166875004768372,1.4323697090148926
1761505767139222500,4.743222412109375,-0.5413287878036499,-0.6344081163406372,1.3231394290924072
1761505767149258500,4.753258544921875,-0.48950791358947754,-1.0682716369628906,1.0699385404586792
1761505767159293700,4.763293701171875,-0.3477425277233124,-1.2229416370391846,0.7460914850234985
1761505767169329700,4.77332958984375,-0.13276177644729614,-1.012184977531433,0.4500342607498169
1761505767179365600,4.78336572265625,0.08114837855100632,-0.6370960474014282,0.22015634179115295
1761505767189401600,4.793401611328125,0.24970543384552002,-0.17880330979824066,0.057670220732688904
1761505767199437600,4.8034375,0.36222824454307556,0.09360052645206451,-0.06588926911354065
1761505767209473500,4.8134736328125,0.40808284282684326,0.11698467284440994,-0.14602138102054596
1761505767219509500,4.823509521484375,0.3512730896472931,0.0433029979467392,-0.17908106744289398
1761505767229545500,4.83354541015625,0.21417593955993652,-0.09692893922328949,-0.20673613250255585
1761505767239581700,4.843581787109375,0.05609123036265373,-0.29801198840141296,-0.2485528290271759
1761505767249617700,4.85361767578125,-0.05204242840409279,-0.4275566637516022,-0.3645252287387848
1761505767259653600,4.863653564453125,-0.13182194530963898,-0.5021342039108276,-0.5548272728919983
1761505767269689600,4.873689697265625,-0.18460047245025635,-0.5445844531059265,-0.7687813639640808
1761505767279724500,4.883724609375,-0.2000068575143814,-0.5154497623443604,-0.9303353428840637
1761505767289760500,4.893760498046875,-0.1730354279279709,-0.42801526188850403,-0.9769452214241028
1761505767299796500,4.90379638671875,-0.11159151047468185,-0.28090277314186096,-0.9249283671379089
1761505767309832400,4.91383251953125,-0.038726888597011566,-0.09490760415792465,-0.8282950520515442
1761505767319868700,4.92386865234375,0.02743854932487011,0.11482378840446472,-0.7436105012893677
1761505767329904600,4.933904541015625,0.06486981362104416,0.31052166223526,-0.6762743592262268
1761505767339940600,4.943940673828125,0.08345893770456314,0.47683897614479065,-0.6180126070976257
1761505767349976600,4.9539765625,0.10062114894390106,0.5974807143211365,-0.5849175453186035
1761505767360012500,4.964012451171875,0.11857032030820847,0.631281316280365,-0.5675292015075684
1761505767370048500,4.974048583984375,0.14080291986465454,0.5865684151649475,-0.553577184677124
1761505767380084500,4.98408447265625,0.16014227271080017,0.46419191360473633,-0.5138846039772034
1761505767390120400,4.994120361328125,0.17892473936080933,0.2716301679611206,-0.44469329714775085
1761505767400155600,5.00415576171875,0.1820795238018036,0.13239559531211853,-0.3530811071395874
1761505767410191600,5.014191650390625,0.16586913168430328,0.08059737086296082,-0.2403758466243744
1761505767420227600,5.0242275390625,0.14725203812122345,0.09221728146076202,-0.11852451413869858
1761505767430263600,5.034263671875,0.139870285987854,0.1634451150894165,0.0015124091878533363
1761505767440299500,5.044299560546875,0.14841078221797943,0.23947569727897644,0.09868183732032776
1761505767450335500,5.05433544921875,0.15407931804656982,0.3102867603302002,0.17368949949741364
1761505767460371500,5.064371337890625,0.1453036665916443,0.34937718510627747,0.22662009298801422
1761505767470407400,5.074407470703125,0.12764903903007507,0.384493350982666,0.27016329765319824
1761505767480443400,5.084443359375,0.09684877842664719,0.4549376964569092,0.2943410873413086
1761505767490479400,5.094479248046875,0.07497464120388031,0.49517378211021423,0.2918294668197632
1761505767500515600,5.104515625,0.05807848274707794,0.4487370550632477,0.29867830872535706
1761505767510551600,5.114551513671875,0.06034936010837555,0.3660975694656372,0.3420633375644684
1761505767520587500,5.12458740234375,0.06349295377731323,0.2832743227481842,0.44624805450439453
1761505767530622500,5.13462255859375,0.061230067163705826,0.23403885960578918,0.5945792198181152
1761505767540658400,5.144658447265625,0.060152553021907806,0.22753408551216125,0.7680436968803406
1761505767550694400,5.1546943359375,0.07072024047374725,0.20977799594402313,0.9496821761131287
1761505767560730400,5.16473046875,0.1038808599114418,0.1673991084098816,1.1040445566177368
1761505767570766300,5.174766357421875,0.14643257856369019,0.1025862991809845,1.2123582363128662
1761505767580802600,5.184802490234375,0.16418734192848206,-0.01221565343439579,1.2876887321472168
1761505767590838800,5.1948388671875,0.136114701628685,-0.1293840855360031,1.317846655845642
1761505767600874800,5.204874755859375,0.0821731686592102,-0.11689279973506927,1.2300400733947754
1761505767610910700,5.21491064453125,0.03846696391701698,0.04961815103888512,1.0029711723327637
1761505767620946700,5.22494677734375,0.003123621689155698,0.11386425048112869,0.7164955139160156
1761505767630982700,5.234982666015625,-0.05257159844040871,-0.04053996875882149,0.49095508456230164
1761505767641018600,5.2450185546875,-0.09632813185453415,-0.2577788233757019,0.35724014043807983
1761505767651053600,5.255053466796875,-0.05451277643442154,-0.39953726530075073,0.2773847281932831
1761505767661089500,5.265089599609375,0.1268700659275055,-0.29695338010787964,0.20775106549263
1761505767671125800,5.275125732421875,0.37931910157203674,0.06893859058618546,0.17455503344535828
1761505767681161700,5.28516162109375,0.5383705496788025,0.4755595922470093,0.1975567489862442
1761505767691197700,5.29519775390625,0.5264102816581726,0.6860380172729492,0.278173565864563
1761505767701233700,5.305233642578125,0.38133591413497925,0.767048716545105,0.3524424731731415
1761505767711269600,5.31526953125,0.1447547823190689,0.7004795670509338,0.315497487783432
1761505767721305600,5.3253056640625,-0.12760323286056519,0.4735899269580841,0.11370019614696503
1761505767731341600,5.335341552734375,-0.32632166147232056,0.0041763694025576115,-0.2073715627193451
1761505767741377500,5.34537744140625,-0.4200934171676636,-0.605872631072998,-0.6032613515853882
1761505767751413500,5.35541357421875,-0.4167993664741516,-1.2555747032165527,-1.0451325178146362
1761505767761449500,5.365449462890625,-0.31595396995544434,-1.800321102142334,-1.4488261938095093
1761505767771484700,5.375484619140625,-0.18263691663742065,-2.215376615524292,-1.6707245111465454
1761505767781520600,5.385520751953125,-0.045589324086904526,-2.4455552101135254,-1.6621360778808594
1761505767791556600,5.395556640625,0.12425963580608368,-2.3428800106048584,-1.4603283405303955
1761505767801592600,5.405592529296875,0.2988458275794983,-1.9384348392486572,-1.1299539804458618
1761505767811628500,5.415628662109375,0.38991793990135193,-1.4115443229675293,-0.7653253674507141
1761505767821664500,5.42566455078125,0.4285673201084137,-0.9454954266548157,-0.4292600154876709
1761505767831700500,5.435700439453125,0.3783414363861084,-0.5085479021072388,-0.18602979183197021
1761505767841736400,5.445736328125,0.27766624093055725,-0.20873190462589264,-0.06428444385528564
1761505767851772700,5.455772705078125,0.14937937259674072,-0.08093719184398651,-0.052984122186899185
1761505767861808600,5.46580859375,0.031615715473890305,-0.1281033754348755,-0.12380609661340714
1761505767871844600,5.4758447265625,-0.034455712884664536,-0.33610770106315613,-0.2775130867958069
1761505767881879000,5.485879150390625,-0.04687749221920967,-0.5148137807846069,-0.4619913399219513
1761505767891915000,5.4959150390625,-0.028904885053634644,-0.4709155857563019,-0.6058076024055481
1761505767901951000,5.505950927734375,-0.01531450729817152,-0.18472804129123688,-0.6736873388290405
1761505767911987000,5.515987060546875,-0.038057371973991394,0.1980411857366562,-0.6666880249977112
1761505767922023400,5.5260234375,-0.08792213350534439,0.5671688914299011,-0.6143377423286438
1761505767932059400,5.536059326171875,-0.15089043974876404,0.8660362958908081,-0.5322769284248352
1761505767942095400,5.546095458984375,-0.20741869509220123,1.0870925188064575,-0.40786606073379517
1761505767952131300,5.55613134765625,-0.26315414905548096,1.2136491537094116,-0.2560597360134125
1761505767962167300,5.566167236328125,-0.32811954617500305,1.2991224527359009,-0.09802962839603424
1761505767972203300,5.576203369140625,-0.35522228479385376,1.2642872333526611,0.04882320016622543
1761505767982239200,5.5862392578125,-0.3506573438644409,1.073546051979065,0.18023155629634857
1761505767992275200,5.596275146484375,-0.3276095688343048,0.7739119529724121,0.3065929412841797
1761505768002310400,5.606310302734375,-0.2897215783596039,0.4705238342285156,0.43066057562828064
1761505768012346400,5.616346435546875,-0.24139371514320374,0.2827134430408478,0.5665038824081421
1761505768022382300,5.62638232421875,-0.22741371393203735,0.23136824369430542,0.7135359644889832
1761505768032418300,5.636418212890625,-0.2657935917377472,0.31129902601242065,0.866866946220398
1761505768042454300,5.646454345703125,-0.31938305497169495,0.5065937042236328,1.0358692407608032
1761505768052490200,5.656490234375,-0.3487505316734314,0.7539933919906616,1.1807414293289185
1761505768062526200,5.666526123046875,-0.344561368227005,0.9552034139633179,1.2540719509124756
1761505768072562200,5.676562255859375,-0.3115445673465729,1.009955644607544,1.2201725244522095
1761505768082598100,5.68659814453125,-0.2805536389350891,0.9478227496147156,1.1150338649749756
1761505768092634000,5.696634033203125,-0.25898709893226624,0.902880847454071,1.012802243232727
1761505768102670000,5.706670166015625,-0.22481606900691986,1.0643272399902344,0.9353756904602051
1761505768112705300,5.716705322265625,-0.1911739557981491,1.3804231882095337,0.8744944930076599
1761505768122741200,5.7267412109375,-0.1792946606874466,1.6835010051727295,0.8395793437957764
1761505768132777200,5.736777099609375,-0.2384357452392578,1.8331496715545654,0.8344818353652954
1761505768142813200,5.746813232421875,-0.3650040626525879,1.68501877784729,0.9124690294265747
1761505768152849200,5.75684912109375,-0.5184828639030457,1.3179103136062622,1.083566427230835
1761505768162885000,5.766885009765625,-0.5882041454315186,0.8980309367179871,1.2948241233825684
1761505768172921000,5.776921142578125,-0.5275388956069946,0.4815455973148346,1.4457590579986572
1761505768182957000,5.78695703125,-0.36361202597618103,0.1475902497768402,1.486798644065857
1761505768192993300,5.7969931640625,-0.1570359617471695,-0.28060290217399597,1.3362157344818115
1761505768203029200,5.807029296875,0.05874986574053764,-0.8623616695404053,0.8737021684646606
1761505768213065200,5.817065185546875,0.26193735003471375,-1.3545277118682861,0.13248907029628754
1761505768223100200,5.82710009765625,0.4462272822856903,-1.6267727613449097,-0.6842984557151794
1761505768233136000,5.83713623046875,0.5719018578529358,-1.7289271354675293,-1.4260143041610718
1761505768243172000,5.847172119140625,0.5855766534805298,-1.7366158962249756,-2.0361368656158447
1761505768253208000,5.8572080078125,0.4997887909412384,-1.701920509338379,-2.473313093185425
1761505768263244000,5.867244140625,0.3466860353946686,-1.6228667497634888,-2.746082305908203
1761505768273280300,5.8772802734375,0.1959545910358429,-1.4873237609863281,-2.835244655609131
1761505768283316200,5.887316162109375,0.07533789426088333,-1.246820092201233,-2.7404308319091797
1761505768293352200,5.897352294921875,-0.020720724016427994,-0.9424316883087158,-2.4590933322906494
1761505768303388200,5.90738818359375,-0.08408238738775253,-0.6603031158447266,-2.0195534229278564
1761505768313424100,5.917424072265625,-0.10058200359344482,-0.32001420855522156,-1.4902892112731934
1761505768323460000,5.927460205078125,-0.09799207746982574,0.09493077546358109,-0.9493314623832703
1761505768333496000,5.93749609375,-0.08732132613658905,0.4581041932106018,-0.4705052077770233
1761505768343531000,5.947531005859375,-0.058755990117788315,0.6230510473251343,-0.10324250161647797
1761505768353567200,5.957567138671875,-0.031446073204278946,0.5856426954269409,0.1107182577252388
1761505768363603200,5.967603271484375,-0.031208785250782967,0.5092376470565796,0.18481166660785675
1761505768373639200,5.97763916015625,-0.06462746113538742,0.493360698223114,0.16620361804962158
1761505768383675100,5.987675048828125,-0.10084991157054901,0.5627589821815491,0.09283433109521866
1761505768393711000,5.997711181640625,-0.13065175712108612,0.7054498195648193,-0.005366802215576172
1761505768403747000,6.0077470703125,-0.16292846202850342,0.8563237190246582,-0.10201238840818405
1761505768413783000,6.017782958984375,-0.19530372321605682,0.9947521686553955,-0.16455325484275818
1761505768423819000,6.027819091796875,-0.2206820398569107,1.0404472351074219,-0.2126488834619522
1761505768433855200,6.037855224609375,-0.23316960036754608,0.9720466136932373,-0.25815752148628235
1761505768443890200,6.04789013671875,-0.23701228201389313,0.7957893013954163,-0.33449462056159973
1761505768453926100,6.057926025390625,-0.1939082145690918,0.4928560256958008,-0.4902304410934448
1761505768463962000,6.067962158203125,-0.10113727301359177,0.12822827696800232,-0.6862731575965881
1761505768473998000,6.077998046875,0.02624012529850006,-0.0862555280327797,-0.8655590415000916
1761505768484034300,6.088034423828125,0.15084543824195862,-0.04031147062778473,-0.9354920387268066
1761505768494070300,6.0980703125,0.15476907789707184,0.8183281421661377,-0.2916600704193115
1761505768504106200,6.108106201171875,0.10342998802661896,1.2931442260742188,0.32395464181900024
1761505768514142200,6.11814208984375,-0.01781601458787918,1.269134521484375,0.9187764525413513
1761505768524178200,6.12817822265625,-0.06744562089443207,0.4641879200935364,1.3380144834518433
1761505768534214100,6.138214111328125,-0.00010066748654935509,-0.5329973101615906,1.5703486204147339
1761505768544250400,6.14825048828125,0.11030759662389755,-1.0587921142578125,1.6893706321716309
1761505768554285300,6.158285400390625,0.211991086602211,-1.2430187463760376,1.7536537647247314
1761505768564321300,6.1683212890625,0.3055785596370697,-1.1627920866012573,1.9661532640457153
1761505768574357200,6.178357177734375,0.285083144903183,-0.7438147664070129,2.3540778160095215
