time,seconds_elapsed,z,y,x
1761479507911595500,0.079595458984375,-1.02325439453125,0.0080413818359375,-0.1221771240234375
1761479507921631500,0.089631591796875,-0.9376678466796875,-0.005523681640625,-0.0990753173828125
1761479507931667500,0.09966748046875,-0.8889312744140625,-0.0323638916015625,-0.0964202880859375
1761479507941703700,0.10970361328125,-0.8524932861328125,-0.0629425048828125,-0.1240234375
1761479507951740400,0.119740478515625,-0.8012542724609375,-0.0928802490234375,-0.183074951171875
1761479507961776400,0.1297763671875,-0.7866058349609375,-0.1249847412109375,-0.251251220703125
1761479507971812600,0.1398125,-0.816986083984375,-0.11126708984375,-0.2868194580078125
1761479507981848600,0.1498486328125,-0.8992767333984375,-0.054351806640625,-0.3113250732421875
1761479507991884500,0.159884521484375,-0.9728546142578125,0.0006561279296875,-0.340362548828125
1761479508001920500,0.16992041015625,-0.959930419921875,0.04156494140625,-0.3373565673828125
1761479508011956500,0.17995654296875,-0.87066650390625,0.0642547607421875,-0.3172607421875
1761479508021993700,0.18999365234375,-0.7417144775390625,0.0671234130859375,-0.2427978515625
1761479508032029700,0.20002978515625,-0.6261138916015625,0.0697784423828125,-0.1188812255859375
1761479508042065700,0.210065673828125,-0.5458221435546875,0.0550537109375,-0.0051727294921875
1761479508052102000,0.220101806640625,-0.4958648681640625,0.013763427734375,0.04107666015625
1761479508062137900,0.230137939453125,-0.4883575439453125,-0.0070648193359375,-0.01519775390625
1761479508072173800,0.240173828125,-0.528900146484375,-0.0351104736328125,-0.1491546630859375
1761479508082209800,0.250209716796875,-0.612335205078125,-0.0819854736328125,-0.36883544921875
1761479508092247000,0.2602470703125,-0.6602935791015625,-0.1064300537109375,-0.61248779296875
1761479508102283000,0.270282958984375,-0.6402587890625,-0.1004638671875,-0.6842498779296875
1761479508112319000,0.280319091796875,-0.726318359375,-0.2108612060546875,-0.53436279296875
1761479508122355000,0.29035498046875,-0.804779052734375,-0.3064727783203125,-0.388580322265625
1761479508132391000,0.300390869140625,-0.9720306396484375,-0.273956298828125,-0.392181396484375
1761479508142427000,0.310427001953125,-1.107025146484375,-0.247314453125,-0.4289093017578125
1761479508152462800,0.320462890625,-1.2053375244140625,-0.264312744140625,-0.487823486328125
1761479508162499000,0.3304990234375,-1.3042449951171875,-0.279449462890625,-0.5518798828125
1761479508172535800,0.340535888671875,-1.4594268798828125,-0.2955169677734375,-0.5360107421875
1761479508182571800,0.35057177734375,-1.6274566650390625,-0.3004150390625,-0.461944580078125
1761479508192608000,0.36060791015625,-1.79376220703125,-0.25927734375,-0.39801025390625
1761479508202644000,0.37064404296875,-1.9015655517578125,-0.250030517578125,-0.4027252197265625
1761479508212680000,0.380679931640625,-1.9533538818359375,-0.2569427490234375,-0.4679107666015625
1761479508222716000,0.3907158203125,-1.937530517578125,-0.2863006591796875,-0.540802001953125
1761479508232751900,0.400751953125,-1.875732421875,-0.3350372314453125,-0.563812255859375
1761479508242789000,0.4107890625,-1.8462066650390625,-0.3849029541015625,-0.5403594970703125
1761479508252825000,0.4208251953125,-1.85858154296875,-0.40850830078125,-0.495452880859375
1761479508262861000,0.430861083984375,-1.9224395751953125,-0.4194488525390625,-0.47650146484375
1761479508272897000,0.44089697265625,-2.005279541015625,-0.3907012939453125,-0.5138397216796875
1761479508282933000,0.45093310546875,-2.0747222900390625,-0.336151123046875,-0.532562255859375
1761479508292969000,0.460968994140625,-2.109283447265625,-0.270294189453125,-0.534912109375
1761479508303005000,0.4710048828125,-2.061065673828125,-0.1831512451171875,-0.5380401611328125
1761479508313041000,0.481041015625,-1.9394073486328125,-0.098724365234375,-0.51373291015625
1761479508323078000,0.491077880859375,-1.7289886474609375,-0.0346221923828125,-0.4502105712890625
1761479508333113900,0.50111376953125,-1.4958343505859375,0.0185699462890625,-0.342071533203125
1761479508343149800,0.51114990234375,-1.3781585693359375,0.094696044921875,-0.2357177734375
1761479508353185800,0.521185791015625,-1.3307037353515625,0.1848297119140625,-0.1490020751953125
1761479508363221800,0.5312216796875,-1.248687744140625,0.2545623779296875,-0.1147308349609375
1761479508373258000,0.541258056640625,-1.1123199462890625,0.2327117919921875,-0.1283416748046875
1761479508383294000,0.5512939453125,-0.855194091796875,0.2049560546875,-0.206451416015625
1761479508393330700,0.56133056640625,-0.517333984375,0.1832122802734375,-0.29376220703125
1761479508403367000,0.571366943359375,-0.2008056640625,0.1100616455078125,-0.3375091552734375
1761479508413403000,0.58140283203125,0.076629638671875,0.0565948486328125,-0.3473663330078125
1761479508423439000,0.591439208984375,0.2683258056640625,0.0016326904296875,-0.3291168212890625
1761479508433475000,0.60147509765625,0.383697509765625,-0.0223388671875,-0.2800140380859375
1761479508443511000,0.611510986328125,0.4485931396484375,0.000701904296875,-0.162200927734375
1761479508453547000,0.621547119140625,0.4983673095703125,0.0301055908203125,0.0048828125
1761479508463583000,0.6315830078125,0.4926605224609375,0.026519775390625,0.1251373291015625
1761479508473620000,0.641619873046875,0.399505615234375,0.0214080810546875,0.14727783203125
1761479508483656000,0.651656005859375,0.3126983642578125,0.0491485595703125,0.11590576171875
1761479508493692000,0.66169189453125,0.257537841796875,0.043853759765625,0.0917510986328125
1761479508503727900,0.671727783203125,0.190185546875,0.0326995849609375,0.058258056640625
1761479508513763800,0.681763916015625,0.1221923828125,0.035980224609375,0.0276336669921875
1761479508523799800,0.6917998046875,0.0211639404296875,0.056976318359375,0.040557861328125
1761479508533835800,0.701835693359375,-0.096221923828125,0.07232666015625,0.060272216796875
1761479508543872800,0.711872802734375,-0.1737213134765625,0.0572509765625,0.0742950439453125
1761479508553908700,0.72190869140625,-0.264862060546875,0.0252838134765625,0.040985107421875
1761479508563944700,0.73194482421875,-0.345184326171875,-0.024169921875,-0.032012939453125
1761479508573981000,0.74198095703125,-0.3806915283203125,-0.0640106201171875,-0.1244049072265625
1761479508584017000,0.752016845703125,-0.3765411376953125,-0.083251953125,-0.19659423828125
1761479508594053000,0.76205322265625,-0.331298828125,-0.06939697265625,-0.19580078125
1761479508604089000,0.772089111328125,-0.3005218505859375,-0.0391693115234375,-0.1266021728515625
1761479508614126000,0.7821259765625,-0.322906494140625,-0.01751708984375,-0.02349853515625
1761479508624162000,0.792162109375,-0.3887786865234375,-0.01513671875,0.040679931640625
1761479508634198000,0.802197998046875,-0.5123748779296875,0.0083465576171875,0.0607452392578125
1761479508644234000,0.81223388671875,-0.67218017578125,0.006195068359375,-0.0024261474609375
1761479508654270000,0.82227001953125,-0.8603973388671875,0.01312255859375,-0.1259307861328125
1761479508664306000,0.832305908203125,-1.1443023681640625,-0.04986572265625,-0.24615478515625
1761479508674342000,0.842341796875,-1.45831298828125,-0.153472900390625,-0.4022064208984375
1761479508684377900,0.8523779296875,-1.7313690185546875,-0.26397705078125,-0.58013916015625
1761479508694414800,0.862414794921875,-1.9971771240234375,-0.3638916015625,-0.7843017578125
1761479508704450800,0.872450927734375,-2.252410888671875,-0.4480133056640625,-1.0107269287109375
1761479508714486800,0.88248681640625,-2.3406982421875,-0.50421142578125,-1.266204833984375
1761479508724522800,0.892522705078125,-2.3201141357421875,-0.6561737060546875,-1.4993438720703125
1761479508734558700,0.902558837890625,-2.2891387939453125,-0.8597869873046875,-1.7076263427734375
1761479508744594700,0.9125947265625,-2.2059173583984375,-1.0203704833984375,-1.8307952880859375
1761479508754631000,0.922630859375,-2.031707763671875,-1.0640716552734375,-1.75469970703125
1761479508764668000,0.93266796875,-1.9237823486328125,-0.9877777099609375,-1.4543609619140625
1761479508774703900,0.942703857421875,-1.9308929443359375,-0.8689422607421875,-1.0767059326171875
1761479508784740000,0.952739990234375,-2.0002593994140625,-0.699951171875,-0.7913818359375
1761479508794776000,0.962776123046875,-1.977447509765625,-0.54644775390625,-0.5325927734375
1761479508804812000,0.97281201171875,-2.01641845703125,-0.459716796875,-0.3720855712890625
1761479508814848000,0.982847900390625,-1.983184814453125,-0.445343017578125,-0.257843017578125
1761479508824884000,0.992884033203125,-1.8533935546875,-0.404266357421875,-0.2077178955078125
1761479508834921000,1.0029208984375,-1.73333740234375,-0.34210205078125,-0.2783660888671875
1761479508844957000,1.01295703125,-1.6000213623046875,-0.2598876953125,-0.384033203125
1761479508854993000,1.022992919921875,-1.488739013671875,-0.1449737548828125,-0.4095458984375
1761479508865028900,1.03302880859375,-1.4219207763671875,-0.0306396484375,-0.34552001953125
1761479508875064800,1.04306494140625,-1.334869384765625,0.0382843017578125,-0.2249603271484375
1761479508885100800,1.053100830078125,-1.190185546875,0.0860137939453125,-0.1219024658203125
1761479508895136800,1.06313671875,-1.0059051513671875,0.1256256103515625,-0.0663909912109375
1761479508905174000,1.073174072265625,-0.8166046142578125,0.148193359375,-0.065521240234375
1761479508915210000,1.0832099609375,-0.634063720703125,0.1823883056640625,-0.0987548828125
1761479508925246000,1.093245849609375,-0.4543914794921875,0.2181396484375,-0.09344482421875
1761479508935282000,1.103281982421875,-0.2559051513671875,0.2364349365234375,-0.06488037109375
1761479508945318000,1.11331787109375,-0.0854034423828125,0.227020263671875,-0.0298614501953125
1761479508955353900,1.123353759765625,0.042938232421875,0.19915771484375,-0.0123443603515625
1761479508965390000,1.13339013671875,0.138031005859375,0.1650390625,-0.025787353515625
1761479508975426800,1.1434267578125,0.1860504150390625,0.1321868896484375,-0.0767364501953125
1761479508985462800,1.153462890625,0.1811370849609375,0.1279449462890625,-0.1607666015625
1761479508995499000,1.1634990234375,0.187896728515625,0.1012420654296875,-0.22381591796875
1761479509005535000,1.173534912109375,0.2517852783203125,0.0639801025390625,-0.251983642578125
1761479509015571000,1.183571044921875,0.31689453125,0.0302886962890625,-0.261932373046875
1761479509025607000,1.19360693359375,0.352294921875,-0.019866943359375,-0.254364013671875
1761479509035643000,1.203642822265625,0.369537353515625,-0.06494140625,-0.2091827392578125
1761479509045679900,1.213679931640625,0.34368896484375,-0.08746337890625,-0.1435394287109375
1761479509055715800,1.2237158203125,0.240692138671875,-0.093536376953125,-0.0831298828125
1761479509065752000,1.233751953125,0.060821533203125,-0.093292236328125,-0.032257080078125
1761479509075788000,1.2437880859375,-0.149810791015625,-0.079254150390625,-0.0229644775390625
1761479509085824000,1.253823974609375,-0.3252716064453125,-0.0692901611328125,-0.0394744873046875
1761479509095860000,1.26385986328125,-0.421844482421875,-0.06829833984375,-0.04022216796875
1761479509105897000,1.27389697265625,-0.4670562744140625,-0.0525360107421875,-0.0202178955078125
1761479509115933000,1.283932861328125,-0.4668121337890625,-0.0209808349609375,0.0041046142578125
1761479509125969000,1.293968994140625,-0.4423828125,0.0093994140625,0.0554656982421875
1761479509136004900,1.3040048828125,-0.4276580810546875,0.06292724609375,0.1102294921875
1761479509146040800,1.314040771484375,-0.4279937744140625,0.1284942626953125,0.1974334716796875
1761479509156076800,1.324076904296875,-0.4825286865234375,0.1092987060546875,0.234344482421875
1761479509166113000,1.334113037109375,-0.5916290283203125,0.1540679931640625,0.159454345703125
1761479509176149800,1.344149658203125,-0.773101806640625,0.1241912841796875,0.0272369384765625
1761479509186185700,1.354185791015625,-1.042205810546875,-0.0101165771484375,-0.1827545166015625
1761479509196222000,1.364221923828125,-1.3462677001953125,-0.0739898681640625,-0.4507904052734375
1761479509206258000,1.3742578125,-1.7225189208984375,-0.0975189208984375,-0.670135498046875
1761479509216294000,1.3842939453125,-2.062347412109375,-0.118408203125,-0.8566741943359375
1761479509226329900,1.394329833984375,-2.21917724609375,-0.1598358154296875,-1.035797119140625
1761479509236365800,1.40436572265625,-2.1673431396484375,-0.3427276611328125,-1.22845458984375
1761479509246403000,1.414403076171875,-2.076812744140625,-0.6881103515625,-1.5662078857421875
1761479509256439000,1.42443896484375,-2.0669097900390625,-0.947723388671875,-1.8675079345703125
1761479509266475000,1.43447509765625,-2.1820220947265625,-0.98150634765625,-1.8470611572265625
1761479509276511000,1.444510986328125,-2.319580078125,-0.781494140625,-1.4394683837890625
1761479509286547000,1.454546875,-2.35888671875,-0.5087127685546875,-0.8422698974609375
1761479509296583000,1.4645830078125,-2.43841552734375,-0.32830810546875,-0.378326416015625
1761479509306619000,1.474618896484375,-2.532562255859375,-0.26336669921875,-0.1437835693359375
1761479509316655900,1.48465576171875,-2.5049896240234375,-0.2859649658203125,-0.103240966796875
1761479509326691800,1.49469189453125,-2.3269805908203125,-0.338134765625,-0.21063232421875
1761479509336727800,1.504727783203125,-2.227996826171875,-0.3625640869140625,-0.419097900390625
1761479509346763800,1.514763671875,-2.22088623046875,-0.335845947265625,-0.61151123046875
1761479509356799700,1.5247998046875,-2.1689910888671875,-0.2333526611328125,-0.6996612548828125
1761479509366835700,1.534835693359375,-1.99005126953125,-0.09600830078125,-0.621612548828125
1761479509376873000,1.544873046875,-1.7659912109375,0.03741455078125,-0.407196044921875
1761479509386909000,1.554908935546875,-1.4728546142578125,0.1160736083984375,-0.1600494384765625
1761479509396945000,1.56494482421875,-1.120025634765625,0.1605377197265625,-0.014892578125
1761479509406980900,1.57498095703125,-0.8366851806640625,0.168212890625,0.023040771484375
1761479509417017000,1.58501708984375,-0.589813232421875,0.13519287109375,-0.019989013671875
1761479509427053000,1.595052978515625,-0.3581695556640625,0.0919036865234375,-0.1130523681640625
1761479509437089000,1.605089111328125,-0.0733184814453125,0.0498504638671875,-0.2147674560546875
1761479509447126000,1.6151259765625,0.1757659912109375,0.025146484375,-0.2864532470703125
1761479509457162000,1.625161865234375,0.2801971435546875,-0.0204925537109375,-0.302520751953125
1761479509467198000,1.635197998046875,0.3291168212890625,-0.0351409912109375,-0.282958984375
1761479509477234000,1.64523388671875,0.380096435546875,-0.0218658447265625,-0.2015533447265625
1761479509487270000,1.655269775390625,0.44866943359375,0.0111236572265625,-0.06646728515625
1761479509497305900,1.665305908203125,0.492034912109375,0.03759765625,0.0826263427734375
1761479509507341800,1.675341796875,0.477447509765625,0.04217529296875,0.2097930908203125
1761479509517378800,1.68537890625,0.4245452880859375,0.0185546875,0.26617431640625
1761479509527414800,1.695414794921875,0.3443756103515625,0.01275634765625,0.2592315673828125
1761479509537451000,1.705450927734375,0.2356109619140625,0.0171051025390625,0.2288818359375
1761479509547487000,1.715487060546875,0.0755767822265625,0.02276611328125,0.1639251708984375
1761479509557523000,1.72552294921875,-0.1267242431640625,0.0318145751953125,0.06976318359375
1761479509567559000,1.735558837890625,-0.2914581298828125,0.0487213134765625,-0.0100555419921875
1761479509577595000,1.745594970703125,-0.3351287841796875,0.0461273193359375,-0.0529632568359375
1761479509587631900,1.7556318359375,-0.3046722412109375,0.025787353515625,-0.0830841064453125
1761479509597667800,1.765667724609375,-0.315185546875,-0.0092620849609375,-0.145477294921875
1761479509607703800,1.775703857421875,-0.4045257568359375,-0.048614501953125,-0.2088165283203125
1761479509617740000,1.785739990234375,-0.4477386474609375,-0.0923614501953125,-0.2049560546875
1761479509627776000,1.79577587890625,-0.45977783203125,-0.1082763671875,-0.1798858642578125
1761479509637812000,1.80581201171875,-0.433807373046875,-0.092559814453125,-0.1226959228515625
1761479509647848000,1.815847900390625,-0.413604736328125,-0.0573577880859375,-0.03863525390625
1761479509657885000,1.825885009765625,-0.45306396484375,-0.028961181640625,0.04443359375
1761479509667921000,1.8359208984375,-0.5450286865234375,-0.020477294921875,0.044830322265625
1761479509677956900,1.845956787109375,-0.6481475830078125,-0.0107879638671875,-0.0431060791015625
1761479509687992800,1.855992919921875,-0.86834716796875,-0.070892333984375,-0.1429901123046875
1761479509698028800,1.86602880859375,-1.1371307373046875,-0.15582275390625,-0.26409912109375
1761479509708064800,1.876064697265625,-1.4673309326171875,-0.2039337158203125,-0.3773193359375
1761479509718101000,1.88610107421875,-1.8500518798828125,-0.1983489990234375,-0.51666259765625
1761479509728138000,1.896137939453125,-2.2003631591796875,-0.1726226806640625,-0.6929779052734375
1761479509738174000,1.906174072265625,-2.532135009765625,-0.25921630859375,-0.9034271240234375
1761479509748210000,1.9162099609375,-2.878662109375,-0.53033447265625,-1.2064208984375
1761479509758246000,1.926245849609375,-3.2390289306640625,-0.8329010009765625,-1.6143951416015625
1761479509768281900,1.93628173828125,-3.3481292724609375,-0.9037322998046875,-1.8369293212890625
1761479509778317800,1.94631787109375,-3.209259033203125,-0.6910552978515625,-1.5358734130859375
1761479509788354800,1.956354736328125,-2.9668426513671875,-0.42181396484375,-0.8496856689453125
1761479509798390800,1.966390869140625,-2.7526702880859375,-0.242767333984375,-0.2908782958984375
1761479509808426800,1.9764267578125,-2.564208984375,-0.1385498046875,-0.034942626953125
1761479509818463000,1.986462890625,-2.3075714111328125,-0.129547119140625,0.0299530029296875
1761479509828499000,1.9964990234375,-2.018524169921875,-0.183013916015625,-0.0431060791015625
1761479509838535000,2.006534912109375,-1.801300048828125,-0.222503662109375,-0.2197113037109375
1761479509848571000,2.01657080078125,-1.6795654296875,-0.2039642333984375,-0.376495361328125
1761479509858608000,2.026608154296875,-1.59039306640625,-0.1243896484375,-0.382049560546875
1761479509868644000,2.03664404296875,-1.4077911376953125,-0.014801025390625,-0.269439697265625
1761479509878680000,2.04668017578125,-1.099273681640625,0.09765625,-0.1427154541015625
1761479509888716000,2.056716064453125,-0.7986297607421875,0.1730804443359375,-0.05157470703125
1761479509898752000,2.066751953125,-0.60321044921875,0.201507568359375,0.0217437744140625
1761479509908788000,2.0767880859375,-0.468231201171875,0.214935302734375,0.07470703125
1761479509918824000,2.086823974609375,-0.34783935546875,0.208160400390625,0.0681915283203125
1761479509928861000,2.09686083984375,-0.155487060546875,0.1732635498046875,0.0136260986328125
1761479509938897000,2.10689697265625,0.0153350830078125,0.1335601806640625,-0.0750732421875
1761479509948932900,2.116932861328125,0.1075439453125,0.070587158203125,-0.1697540283203125
1761479509958968800,2.12696875,0.173614501953125,0.0319671630859375,-0.244537353515625
1761479509969004800,2.1370048828125,0.243408203125,0.020233154296875,-0.2496490478515625
1761479509979040800,2.147040771484375,0.3246002197265625,0.006256103515625,-0.18804931640625
1761479509989076700,2.15707666015625,0.4019317626953125,0.0032806396484375,-0.09320068359375
1761479509999113700,2.16711376953125,0.4520416259765625,0.01446533203125,0.0208282470703125
1761479510009150000,2.17714990234375,0.4421539306640625,0.0063934326171875,0.130828857421875
1761479510019186000,2.18718603515625,0.380462646484375,0.0029144287109375,0.1752166748046875
1761479510029222000,2.197221923828125,0.2679290771484375,0.01806640625,0.1298675537109375
1761479510039258000,2.207258056640625,0.109771728515625,0.03094482421875,0.0291900634765625
1761479510049292800,2.217292724609375,-0.035888671875,0.0152435302734375,-0.0640106201171875
1761479510059328800,2.227328857421875,-0.1309051513671875,-0.0114288330078125,-0.117034912109375
1761479510069365800,2.23736572265625,-0.1906890869140625,-0.030487060546875,-0.119537353515625
1761479510079401700,2.247401611328125,-0.26312255859375,-0.0433807373046875,-0.0970001220703125
1761479510089437700,2.257437744140625,-0.3521270751953125,-0.051788330078125,-0.0725555419921875
1761479510099473700,2.2674736328125,-0.409759521484375,-0.0587615966796875,-0.0535430908203125
1761479510109509600,2.277509521484375,-0.438446044921875,-0.0599517822265625,-0.0231475830078125
1761479510119545600,2.287545654296875,-0.469879150390625,-0.0570831298828125,-0.018096923828125
1761479510129581600,2.29758154296875,-0.4979095458984375,-0.0247039794921875,-0.013092041015625
1761479510139618800,2.307618896484375,-0.502197265625,-0.005828857421875,0.00238037109375
1761479510149654800,2.31765478515625,-0.5084381103515625,0.02093505859375,-0.00341796875
1761479510159690800,2.327690673828125,-0.5738372802734375,0.022918701171875,-0.008758544921875
1761479510169727000,2.33772705078125,-0.746246337890625,-0.010009765625,-0.0607147216796875
1761479510179763000,2.347762939453125,-1.00970458984375,-0.0556182861328125,-0.1197967529296875
1761479510189799000,2.357798828125,-1.34442138671875,-0.0620880126953125,-0.2058868408203125
1761479510199835000,2.3678349609375,-1.7408294677734375,-0.0485687255859375,-0.3818817138671875
1761479510209872000,2.377871826171875,-2.1018218994140625,-0.0717620849609375,-0.64013671875
1761479510219907800,2.387907958984375,-2.3414459228515625,-0.2264404296875,-0.972412109375
1761479510229943800,2.39794384765625,-2.5684967041015625,-0.512542724609375,-1.4694061279296875
1761479510239979800,2.407979736328125,-2.909912109375,-0.7169189453125,-2.071075439453125
1761479510250015700,2.418015625,-3.157745361328125,-0.6571807861328125,-2.1885223388671875
1761479510260051700,2.4280517578125,-3.145477294921875,-0.327606201171875,-1.638885498046875
1761479510270087700,2.438087646484375,-2.9661407470703125,-0.242401123046875,-0.9499359130859375
1761479510280125000,2.448125,-2.7780303955078125,-0.21441650390625,-0.5969390869140625
1761479510290161000,2.458160888671875,-2.7376708984375,-0.1141815185546875,-0.5580596923828125
1761479510300196900,2.46819677734375,-2.775970458984375,-0.0880584716796875,-0.5507354736328125
1761479510310232800,2.47823291015625,-2.6352081298828125,-0.076385498046875,-0.4847564697265625
1761479510320268800,2.488268798828125,-2.331268310546875,-0.0828704833984375,-0.381866455078125
1761479510330304800,2.4983046875,-1.925018310546875,-0.1005401611328125,-0.280242919921875
1761479510340340700,2.5083408203125,-1.507415771484375,-0.0529632568359375,-0.1824188232421875
1761479510350377700,2.518377685546875,-1.148681640625,0.0133514404296875,-0.0660858154296875
1761479510360413700,2.52841357421875,-0.854644775390625,0.0629730224609375,0.0737762451171875
1761479510370449700,2.53844970703125,-0.615478515625,0.1024322509765625,0.1696929931640625
1761479510380486000,2.54848583984375,-0.467315673828125,0.14837646484375,0.188995361328125
1761479510390521900,2.55852197265625,-0.367431640625,0.200653076171875,0.131866455078125
1761479510400557800,2.568557861328125,-0.3428802490234375,0.243408203125,0.0404510498046875
1761479510410593800,2.57859375,-0.352447509765625,0.24945068359375,-0.03973388671875
1761479510420630800,2.588630859375,-0.315521240234375,0.230255126953125,-0.0742950439453125
1761479510430666800,2.598666748046875,-0.23406982421875,0.2051544189453125,-0.0742340087890625
1761479510440702700,2.60870263671875,-0.120452880859375,0.136749267578125,-0.058807373046875
1761479510450738700,2.61873876953125,0.06927490234375,0.04608154296875,-0.0455474853515625
1761479510460775000,2.62877490234375,0.2939300537109375,-0.0310211181640625,-0.057647705078125
1761479510470811000,2.638810791015625,0.4406585693359375,-0.0704803466796875,-0.0693511962890625
1761479510480846800,2.648846923828125,0.5049285888671875,-0.06512451171875,-0.0485992431640625
1761479510490883800,2.6588837890625,0.4703369140625,-0.0353546142578125,-0.021728515625
1761479510500919800,2.668919921875,0.3138275146484375,0.0069732666015625,-0.02166748046875
1761479510510955800,2.678955810546875,0.0937957763671875,0.0518798828125,-0.005340576171875
1761479510520991700,2.68899169921875,-0.0549163818359375,0.0717315673828125,0.0531005859375
1761479510531027700,2.69902783203125,-0.0945892333984375,0.0665130615234375,0.06048583984375
1761479510541063700,2.709063720703125,-0.1019744873046875,0.0781097412109375,-0.0111846923828125
1761479510551100000,2.719099853515625,-0.1246185302734375,0.0683441162109375,-0.0827484130859375
1761479510561136600,2.72913671875,-0.16522216796875,0.0202789306640625,-0.1188201904296875
1761479510571172600,2.739172607421875,-0.2476043701171875,-0.031341552734375,-0.183868408203125
1761479510581208800,2.749208740234375,-0.3086700439453125,-0.0796661376953125,-0.2272186279296875
1761479510591244800,2.759244873046875,-0.271087646484375,-0.12347412109375,-0.179595947265625
1761479510601280800,2.76928076171875,-0.1961669921875,-0.1430206298828125,-0.0670623779296875
1761479510611316700,2.779316650390625,-0.2574920654296875,-0.1459197998046875,0.099090576171875
1761479510621352700,2.789352783203125,-0.454864501953125,-0.141998291015625,0.23193359375
1761479510631390000,2.799389892578125,-0.667083740234375,-0.1218414306640625,0.2547454833984375
1761479510641426000,2.809426025390625,-0.844482421875,-0.0806732177734375,0.163848876953125
1761479510651462000,2.8194619140625,-1.073028564453125,-0.0099639892578125,-0.0273590087890625
1761479510661497900,2.829497802734375,-1.25628662109375,0.023162841796875,-0.190460205078125
1761479510671533800,2.839533935546875,-1.319488525390625,0.001708984375,-0.2568511962890625
1761479510681569800,2.84956982421875,-1.35882568359375,-0.0771026611328125,-0.310089111328125
1761479510691605800,2.859605712890625,-1.52288818359375,-0.1717529296875,-0.4202423095703125
1761479510701641700,2.869641845703125,-1.7404937744140625,-0.2656402587890625,-0.6797027587890625
1761479510711678700,2.8796787109375,-1.9425201416015625,-0.43621826171875,-1.132080078125
1761479510721714700,2.889714599609375,-2.1412506103515625,-0.8192596435546875,-1.751617431640625
1761479510731750700,2.899750732421875,-2.2931365966796875,-1.2002410888671875,-2.3776397705078125
1761479510741786600,2.90978662109375,-2.3861846923828125,-1.092926025390625,-2.5811614990234375
1761479510751822600,2.919822509765625,-2.4784393310546875,-0.8267974853515625,-1.9351348876953125
1761479510761858800,2.92985888671875,-2.5239715576171875,-0.5661163330078125,-0.986236572265625
1761479510771894800,2.939894775390625,-2.5506134033203125,-0.312530517578125,-0.3581695556640625
1761479510781931800,2.949931884765625,-2.449127197265625,-0.1677703857421875,-0.0470123291015625
1761479510791967700,2.9599677734375,-2.266845703125,-0.1434326171875,0.0394287109375
1761479510802004000,2.97000390625,-2.106414794921875,-0.2226715087890625,-0.0520782470703125
1761479510812040000,2.9800400390625,-1.9555816650390625,-0.395660400390625,-0.2932891845703125
1761479510822076000,2.990075927734375,-1.8519134521484375,-0.47613525390625,-0.640716552734375
1761479510832111900,3.00011181640625,-1.84332275390625,-0.4415435791015625,-0.788970947265625
1761479510842147800,3.01014794921875,-1.7735137939453125,-0.2943572998046875,-0.59039306640625
1761479510852183800,3.020183837890625,-1.585906982421875,-0.1389312744140625,-0.182281494140625
1761479510862220800,3.030220703125,-1.366668701171875,0.0101776123046875,0.134307861328125
1761479510872256800,3.0402568359375,-1.15106201171875,0.1144561767578125,0.1856536865234375
1761479510882292700,3.050292724609375,-0.89569091796875,0.1725616455078125,0.12127685546875
1761479510892328700,3.06032861328125,-0.595001220703125,0.21343994140625,0.0155181884765625
1761479510902364700,3.07036474609375,-0.356170654296875,0.1920318603515625,-0.08056640625
1761479510912400600,3.080400634765625,-0.2290496826171875,0.15325927734375,-0.135345458984375
1761479510922436600,3.0904365234375,-0.207733154296875,0.128326416015625,-0.185028076171875
1761479510932473900,3.100473876953125,-0.189697265625,0.1154937744140625,-0.2303924560546875
1761479510942509800,3.110509765625,-0.10870361328125,0.0987548828125,-0.22723388671875
1761479510952545800,3.1205458984375,0.0343017578125,0.073944091796875,-0.1724395751953125
1761479510962581800,3.130581787109375,0.19927978515625,0.0858306884765625,-0.06378173828125
1761479510972618000,3.140617919921875,0.318878173828125,0.081878662109375,0.05914306640625
1761479510982654000,3.150654052734375,0.3353424072265625,0.059783935546875,0.1183319091796875
1761479510992690000,3.16068994140625,0.305328369140625,0.0702667236328125,0.1021881103515625
1761479511002727000,3.170726806640625,0.262908935546875,0.0594024658203125,0.014892578125
1761479511012763000,3.180762939453125,0.253936767578125,0.01953125,-0.03680419921875
1761479511022798800,3.190798828125,0.23272705078125,-0.02105712890625,-0.093170166015625
1761479511032834800,3.200834716796875,0.135772705078125,-0.054779052734375,-0.1261444091796875
1761479511042870800,3.210870849609375,0.0068359375,-0.058074951171875,-0.1251678466796875
1761479511052907800,3.22090771484375,-0.1473541259765625,-0.0501556396484375,-0.0982208251953125
1761479511062943700,3.23094384765625,-0.339996337890625,-0.02886962890625,-0.0626678466796875
1761479511072979700,3.240979736328125,-0.4943084716796875,-0.027557373046875,-0.05950927734375
1761479511083016700,3.2510166015625,-0.5391845703125,-0.0536041259765625,-0.0682525634765625
1761479511093052700,3.261052734375,-0.471771240234375,-0.082611083984375,-0.0610809326171875
1761479511103088600,3.271088623046875,-0.3549346923828125,-0.074981689453125,-0.00390625
1761479511113124600,3.28112451171875,-0.286895751953125,-0.066192626953125,0.0995025634765625
1761479511123160600,3.29116064453125,-0.284088134765625,-0.03424072265625,0.1824951171875
1761479511133196500,3.301196533203125,-0.351470947265625,-0.0091094970703125,0.225128173828125
1761479511143232500,3.311232421875,-0.5281982421875,-0.0120697021484375,0.1972198486328125
1761479511153269800,3.321269775390625,-0.8376922607421875,-0.0098724365234375,0.0457763671875
1761479511163305700,3.3313056640625,-1.1261138916015625,-0.033905029296875,-0.13360595703125
1761479511173341700,3.341341796875,-1.327667236328125,-0.0840301513671875,-0.2633819580078125
1761479511183377700,3.351377685546875,-1.5359039306640625,-0.1348114013671875,-0.367462158203125
1761479511193413600,3.36141357421875,-1.813629150390625,-0.150299072265625,-0.492645263671875
1761479511203449600,3.37144970703125,-2.0895843505859375,-0.1848297119140625,-0.665618896484375
1761479511213485800,3.38148583984375,-2.2781524658203125,-0.3668212890625,-0.9549560546875
1761479511223521800,3.391521728515625,-2.430694580078125,-0.75872802734375,-1.48809814453125
1761479511233558500,3.40155859375,-2.56817626953125,-1.140533447265625,-2.11334228515625
1761479511243594800,3.4115947265625,-2.4527740478515625,-0.9836883544921875,-2.2330474853515625
1761479511253630700,3.421630615234375,-2.3276824951171875,-0.515472412109375,-1.7143707275390625
1761479511263666700,3.431666748046875,-2.262786865234375,-0.4182891845703125,-0.8827362060546875
1761479511273702700,3.44170263671875,-2.273956298828125,-0.288848876953125,-0.3492584228515625
1761479511283738600,3.451738525390625,-2.32940673828125,-0.207672119140625,-0.1826171875
1761479511293774600,3.461774658203125,-2.333343505859375,-0.2256317138671875,-0.2293243408203125
1761479511303810600,3.471810546875,-2.306304931640625,-0.3259735107421875,-0.4129791259765625
1761479511313847800,3.481847900390625,-2.245330810546875,-0.439239501953125,-0.67816162109375
1761479511323883800,3.4918837890625,-2.0770263671875,-0.4668121337890625,-0.8648834228515625
1761479511333919700,3.501919677734375,-1.8475494384765625,-0.3759918212890625,-0.8388214111328125
1761479511343955700,3.511955810546875,-1.5761871337890625,-0.2277069091796875,-0.5428009033203125
1761479511353991700,3.52199169921875,-1.2720489501953125,-0.0984344482421875,-0.145050048828125
1761479511364027600,3.532027587890625,-1.0268402099609375,-0.0187225341796875,0.083648681640625
1761479511374063600,3.542063720703125,-0.84259033203125,0.025146484375,0.152557373046875
1761479511384100600,3.5521005859375,-0.62890625,0.073089599609375,0.1394500732421875
1761479511394136600,3.562136474609375,-0.46368408203125,0.1171417236328125,0.092376708984375
1761479511404172500,3.572172607421875,-0.3809051513671875,0.17041015625,0.062347412109375
1761479511414208800,3.582208740234375,-0.351776123046875,0.2172698974609375,0.0407257080078125
1761479511424244700,3.59224462890625,-0.3592529296875,0.262237548828125,0.005340576171875
1761479511434280700,3.60228076171875,-0.312164306640625,0.2986297607421875,-0.0084075927734375
1761479511444316700,3.612316650390625,-0.2735748291015625,0.322784423828125,0.0167388916015625
1761479511454352600,3.6223525390625,-0.319427490234375,0.315673828125,0.0484466552734375
1761479511464389600,3.6323896484375,-0.3063812255859375,0.260894775390625,0.07861328125
1761479511474425600,3.642425537109375,-0.1547088623046875,0.185516357421875,0.0573577880859375
1761479511484461600,3.652461669921875,0.073883056640625,0.0777435302734375,-0.0423736572265625
1761479511494497800,3.662497802734375,0.36126708984375,-0.0005340576171875,-0.1483154296875
1761479511504533800,3.67253369140625,0.6029815673828125,-0.0728759765625,-0.1793975830078125
1761479511514569700,3.68256982421875,0.6254730224609375,-0.120697021484375,-0.2055206298828125
1761479511524605700,3.692605712890625,0.4415283203125,-0.1058349609375,-0.205413818359375
1761479511534641700,3.7026416015625,0.1439971923828125,-0.0670928955078125,-0.15423583984375
1761479511544678700,3.7126787109375,-0.107208251953125,-0.0439910888671875,-0.0819244384765625
1761479511554714600,3.722714599609375,-0.29644775390625,-0.0453948974609375,-0.0407562255859375
1761479511564750600,3.73275048828125,-0.4100341796875,-0.049072265625,-0.030609130859375
1761479511574786600,3.74278662109375,-0.447174072265625,-0.06439208984375,-0.02227783203125
1761479511584822500,3.752822509765625,-0.4363861083984375,-0.0917510986328125,-0.0162811279296875
1761479511594858800,3.762858642578125,-0.4010009765625,-0.096649169921875,0.0233001708984375
1761479511604894700,3.772894775390625,-0.384765625,-0.1088409423828125,0.036529541015625
1761479511614930700,3.7829306640625,-0.390350341796875,-0.0836029052734375,0.1392822265625
1761479511624967700,3.7929677734375,-0.4572601318359375,0.000946044921875,0.2224578857421875
1761479511635003600,3.803003662109375,-0.530303955078125,0.0123138427734375,0.2246551513671875
1761479511645039600,3.81303955078125,-0.5497894287109375,0.0305938720703125,0.1150054931640625
1761479511655075600,3.82307568359375,-0.48748779296875,0.0350341796875,-0.0433349609375
1761479511665111800,3.83311181640625,-0.441680908203125,-0.087066650390625,-0.1630096435546875
1761479511675147800,3.843147705078125,-0.46783447265625,-0.161590576171875,-0.1844482421875
1761479511685183700,3.853183837890625,-0.594940185546875,-0.195098876953125,-0.12469482421875
1761479511695219700,3.8632197265625,-0.9635009765625,-0.299224853515625,-0.0563507080078125
1761479511705256700,3.873256591796875,-1.4183807373046875,-0.392181396484375,-0.0729522705078125
1761479511715292700,3.883292724609375,-1.64508056640625,-0.3752288818359375,-0.225982666015625
1761479511725328600,3.89332861328125,-2.12225341796875,-0.4001312255859375,-0.4852294921875
1761479511735364600,3.903364501953125,-2.562103271484375,-0.51593017578125,-0.98480224609375
1761479511745400600,3.913400634765625,-2.8682403564453125,-0.596710205078125,-1.7344512939453125
1761479511755436500,3.9234365234375,-3.1875762939453125,-0.441619873046875,-2.2480010986328125
1761479511765472800,3.93347265625,-3.2798004150390625,-0.4027557373046875,-1.9585723876953125
1761479511775508700,3.9435087890625,-3.0100250244140625,-0.3138885498046875,-1.1964874267578125
1761479511785545500,3.95354541015625,-2.667327880859375,-0.16546630859375,-0.5241851806640625
1761479511795581700,3.963581787109375,-2.32568359375,-0.1527862548828125,-0.15118408203125
1761479511805617700,3.97361767578125,-2.036773681640625,-0.18280029296875,-0.0689849853515625
1761479511815653600,3.983653564453125,-1.846710205078125,-0.2496490478515625,-0.17730712890625
1761479511825689600,3.993689697265625,-1.802337646484375,-0.3637847900390625,-0.4134063720703125
1761479511835725600,4.0037255859375,-1.8289642333984375,-0.3470611572265625,-0.6437225341796875
1761479511845760500,4.013760498046875,-1.8612213134765625,-0.1811065673828125,-0.69482421875
1761479511855796500,4.02379638671875,-1.8701934814453125,-0.024566650390625,-0.467193603515625
1761479511865832400,4.03383251953125,-1.811553955078125,0.052734375,-0.051971435546875
1761479511875868700,4.04386865234375,-1.658416748046875,0.120758056640625,0.32373046875
1761479511885904600,4.053904541015625,-1.47589111328125,0.18658447265625,0.5169219970703125
1761479511895940900,4.06394091796875,-1.3258514404296875,0.222747802734375,0.505767822265625
1761479511905977600,4.0739775390625,-1.116241455078125,0.204071044921875,0.31298828125
1761479511916013800,4.084013916015625,-0.78662109375,0.18212890625,0.0589447021484375
1761479511926049800,4.0940498046875,-0.442901611328125,0.1628265380859375,-0.1588134765625
1761479511936085800,4.104085693359375,-0.2100372314453125,0.139404296875,-0.269256591796875
1761479511946121700,4.114121826171875,-0.1688995361328125,0.1076812744140625,-0.30706787109375
1761479511956157700,4.12415771484375,-0.2160797119140625,0.078582763671875,-0.3095703125
1761479511966193700,4.134193603515625,-0.206939697265625,0.0698394775390625,-0.2952423095703125
1761479511976229600,4.144229736328125,-0.16827392578125,0.05267333984375,-0.280487060546875
1761479511986266600,4.1542666015625,-0.0361175537109375,0.007171630859375,-0.198455810546875
1761479511996302600,4.164302490234375,0.1746978759765625,-0.039520263671875,-0.0639190673828125
1761479512006338600,4.174338623046875,0.3260498046875,-0.0554046630859375,0.062774658203125
1761479512016374500,4.18437451171875,0.418365478515625,-0.0641632080078125,0.130828857421875
1761479512026410500,4.194410400390625,0.510711669921875,-0.0452117919921875,0.1351165771484375
1761479512036446500,4.204446533203125,0.5227813720703125,-0.0096893310546875,0.1199188232421875
1761479512046482700,4.214482666015625,0.419708251953125,0.056121826171875,0.073944091796875
1761479512056519000,4.224518798828125,0.186431884765625,0.085723876953125,0.0226898193359375
1761479512066556000,4.234555908203125,-0.053863525390625,0.1318511962890625,-0.02484130859375
1761479512076591900,4.244591796875,-0.2357940673828125,0.1542205810546875,-0.0390167236328125
1761479512086627800,4.2546279296875,-0.36669921875,0.121063232421875,-0.0327606201171875
1761479512096664000,4.2646640625,-0.4095611572265625,0.07159423828125,-0.0357818603515625
1761479512106700000,4.274699951171875,-0.319732666015625,-0.0206756591796875,0.009979248046875
1761479512116736000,4.284736083984375,-0.2116546630859375,-0.1306915283203125,0.0138092041015625
1761479512126772000,4.29477197265625,-0.219207763671875,-0.18511962890625,-0.0492095947265625
1761479512136808000,4.304807861328125,-0.3783416748046875,-0.1817169189453125,-0.07989501953125
1761479512146844200,4.31484423828125,-0.5362548828125,-0.1485595703125,-0.0918121337890625
1761479512156881200,4.324881103515625,-0.5449676513671875,-0.07421875,-0.0804290771484375
1761479512166917000,4.334917236328125,-0.4975128173828125,-0.0374298095703125,-0.044769287109375
1761479512176953000,4.344953125,-0.5569305419921875,-0.060516357421875,-0.00006103515625
1761479512186989000,4.354989013671875,-0.751556396484375,-0.110321044921875,0.0849761962890625
1761479512197025000,4.36502490234375,-1.0412750244140625,-0.11749267578125,0.0806732177734375
1761479512207061000,4.37506103515625,-1.3988189697265625,-0.055511474609375,-0.0929107666015625
1761479512217097000,4.385096923828125,-1.7822418212890625,-0.0271453857421875,-0.3202056884765625
1761479512227133000,4.3951328125,-2.0334625244140625,-0.0757904052734375,-0.5286102294921875
1761479512237170000,4.405169921875,-2.1251373291015625,-0.23724365234375,-0.7384033203125
1761479512247206000,4.415205810546875,-2.2369384765625,-0.5380401611328125,-1.0735626220703125
1761479512257241900,4.425241943359375,-2.4956512451171875,-0.8224334716796875,-1.5562744140625
1761479512267278000,4.435278076171875,-2.834991455078125,-0.84515380859375,-1.9158782958984375
1761479512277314000,4.44531396484375,-3.0237274169921875,-0.4565582275390625,-1.7637176513671875
1761479512287350000,4.45535009765625,-2.94012451171875,-0.1871490478515625,-1.216033935546875
1761479512297386000,4.465385986328125,-2.7032318115234375,-0.09576416015625,-0.647186279296875
1761479512307422000,4.475421875,-2.35491943359375,-0.1215667724609375,-0.26910400390625
1761479512317458200,4.485458251953125,-2.0621185302734375,-0.2087554931640625,-0.15374755859375
1761479512327495200,4.4954951171875,-1.9353790283203125,-0.30621337890625,-0.2156524658203125
1761479512337531100,4.50553125,-1.847320556640625,-0.38531494140625,-0.3526153564453125
1761479512347567000,4.515567138671875,-1.83837890625,-0.367706298828125,-0.484130859375
1761479512357603000,4.52560302734375,-1.9084930419921875,-0.2396697998046875,-0.5702667236328125
1761479512367639000,4.53563916015625,-1.8084259033203125,-0.0450592041015625,-0.5818939208984375
1761479512377675000,4.545675048828125,-1.6694488525390625,0.112548828125,-0.4050140380859375
1761479512387711000,4.5557109375,-1.4656219482421875,0.177398681640625,-0.09649658203125
1761479512397747000,4.565746826171875,-1.2172088623046875,0.2054443359375,0.1635589599609375
1761479512407784000,4.575783935546875,-0.9610137939453125,0.194610595703125,0.3496246337890625
1761479512417821000,4.585821044921875,-0.702850341796875,0.149200439453125,0.433258056640625
1761479512427857000,4.59585693359375,-0.48779296875,0.1485595703125,0.380157470703125
1761479512437893000,4.60589306640625,-0.32098388671875,0.1732635498046875,0.227386474609375
1761479512447929000,4.61592919921875,-0.241119384765625,0.167938232421875,0.046539306640625
1761479512457965000,4.625965087890625,-0.26470947265625,0.1506195068359375,-0.127227783203125
1761479512468001000,4.6360009765625,-0.292633056640625,0.1377105712890625,-0.2545166015625
1761479512478037000,4.646037109375,-0.2812652587890625,0.0981903076171875,-0.352996826171875
1761479512488074000,4.656073974609375,-0.1889495849609375,0.060577392578125,-0.393463134765625
1761479512498110000,4.66610986328125,-0.0157012939453125,0.0213165283203125,-0.3515777587890625
1761479512508146000,4.67614599609375,0.1584930419921875,-0.000457763671875,-0.2436676025390625
1761479512518182100,4.68618212890625,0.2948150634765625,-0.030426025390625,-0.1447601318359375
1761479512528218000,4.696218017578125,0.361724853515625,-0.029510498046875,-0.036346435546875
1761479512538254000,4.706254150390625,0.334686279296875,0.019683837890625,0.027435302734375
1761479512548290000,4.7162900390625,0.287811279296875,0.0375518798828125,0.0474395751953125
1761479512558326000,4.726325927734375,0.2230987548828125,0.0390167236328125,0.016448974609375
1761479512568363000,4.736363037109375,0.13714599609375,0.0425567626953125,-0.04827880859375
1761479512578399000,4.74639892578125,0.01416015625,0.0298614501953125,-0.0946197509765625
1761479512588435000,4.75643505859375,-0.1282501220703125,0.028778076171875,-0.084228515625
1761479512598471000,4.766470947265625,-0.3028564453125,0.0262908935546875,-0.0416412353515625
1761479512608507000,4.7765068359375,-0.4393768310546875,-0.01287841796875,-0.012054443359375
1761479512618543000,4.786543212890625,-0.4823150634765625,-0.0513458251953125,0.0058135986328125
1761479512628579000,4.7965791015625,-0.4473114013671875,-0.10931396484375,0.0158233642578125
1761479512638615000,4.806614990234375,-0.4165191650390625,-0.158233642578125,-0.0045928955078125
1761479512648652000,4.816652099609375,-0.3864593505859375,-0.1377105712890625,-0.0221405029296875
1761479512658688000,4.82668798828125,-0.3713531494140625,-0.0860595703125,0.0210113525390625
1761479512668724000,4.836723876953125,-0.42132568359375,-0.065032958984375,0.0908050537109375
1761479512678760000,4.846760009765625,-0.617645263671875,-0.063140869140625,0.1005706787109375
1761479512688796200,4.856796142578125,-0.8746795654296875,-0.0746917724609375,0.0333404541015625
1761479512698832100,4.86683203125,-1.1124725341796875,-0.07958984375,-0.1051483154296875
1761479512708868000,4.8768681640625,-1.2643585205078125,-0.0787200927734375,-0.23150634765625
1761479512718904000,4.886904052734375,-1.3166656494140625,-0.13238525390625,-0.29412841796875
1761479512728941000,4.896941162109375,-1.4030914306640625,-0.22747802734375,-0.35040283203125
1761479512738977000,4.90697705078125,-1.5909576416015625,-0.326141357421875,-0.415985107421875
1761479512749013000,4.917012939453125,-1.8387603759765625,-0.47821044921875,-0.6201019287109375
1761479512759049000,4.927049072265625,-2.087921142578125,-0.6462554931640625,-1.063934326171875
1761479512769085000,4.9370849609375,-2.3145751953125,-0.851776123046875,-1.643524169921875
1761479512779121000,4.947120849609375,-2.5271148681640625,-0.875518798828125,-2.1280059814453125
1761479512789157000,4.9571572265625,-2.6809234619140625,-0.6651763916015625,-2.0280609130859375
1761479512799193000,4.967193115234375,-2.7698211669921875,-0.4085540771484375,-1.3147430419921875
1761479512809229000,4.97722900390625,-2.8007049560546875,-0.25360107421875,-0.609893798828125
1761479512819266000,4.98726611328125,-2.7792816162109375,-0.2024078369140625,-0.265167236328125
1761479512829302000,4.997302001953125,-2.6385955810546875,-0.1372528076171875,-0.2932891845703125
1761479512839338000,5.007337890625,-2.46734619140625,-0.1880950927734375,-0.4827117919921875
1761479512849374000,5.0173740234375,-2.207672119140625,-0.3059234619140625,-0.6670989990234375
1761479512859410000,5.027409912109375,-1.9003143310546875,-0.320526123046875,-0.7685546875
1761479512869446100,5.037446044921875,-1.552001953125,-0.2925262451171875,-0.689483642578125
1761479512879482000,5.047482177734375,-1.2782745361328125,-0.1850738525390625,-0.4475860595703125
1761479512889518000,5.05751806640625,-1.1018524169921875,-0.0803375244140625,-0.12860107421875
1761479512899555000,5.06755517578125,-0.9669189453125,-0.0250091552734375,0.0964202880859375
1761479512909591000,5.077591064453125,-0.8823699951171875,0.0326995849609375,0.16925048828125
1761479512919627000,5.087626953125,-0.7875518798828125,0.067535400390625,0.136260986328125
1761479512929663000,5.0976630859375,-0.64263916015625,0.05853271484375,0.102264404296875
1761479512939699000,5.107698974609375,-0.491668701171875,0.05255126953125,0.0336151123046875
1761479512949735000,5.11773486328125,-0.3434295654296875,0.0424346923828125,-0.0348358154296875
1761479512959771100,5.127771240234375,-0.2398529052734375,0.0504302978515625,-0.078277587890625
1761479512969808100,5.13780810546875,-0.1855316162109375,0.0865631103515625,-0.1029510498046875
1761479512979844000,5.147843994140625,-0.17828369140625,0.1011810302734375,-0.077728271484375
1761479512989880000,5.157880126953125,-0.200531005859375,0.1014862060546875,-0.0106353759765625
1761479512999916000,5.167916015625,-0.159210205078125,0.0952911376953125,0.029541015625
1761479513009952000,5.177951904296875,-0.06024169921875,0.0566864013671875,0.039947509765625
1761479513019988000,5.187988037109375,0.061553955078125,0.0080718994140625,0.010406494140625
1761479513030024000,5.19802392578125,0.1963653564453125,-0.0332183837890625,-0.0175018310546875
1761479513040060200,5.20806005859375,0.2727813720703125,-0.06134033203125,-0.0099334716796875
1761479513050095400,5.218095458984375,0.2481536865234375,-0.0721435546875,-0.086822509765625
1761479513060132400,5.22813232421875,0.1720733642578125,-0.0836181640625,-0.09222412109375
1761479513070168300,5.238168212890625,0.095001220703125,-0.03033447265625,-0.0765838623046875
1761479513080204300,5.248204345703125,0.0082550048828125,-0.0119781494140625,-0.05450439453125
1761479513090240300,5.258240234375,-0.042449951171875,-0.0239410400390625,-0.0042572021484375
1761479513100276200,5.268276123046875,-0.091705322265625,-0.0330352783203125,0.003997802734375
1761479513110312200,5.278312255859375,-0.180572509765625,-0.0566253662109375,-0.015350341796875
1761479513120348200,5.28834814453125,-0.2605743408203125,-0.0903472900390625,-0.0207672119140625
1761479513130384100,5.298384033203125,-0.3358917236328125,-0.1412811279296875,-0.016876220703125
1761479513140421400,5.30842138671875,-0.4333953857421875,-0.128997802734375,-0.0345001220703125
1761479513150457300,5.318457275390625,-0.527496337890625,-0.084197998046875,-0.0099334716796875
1761479513160493300,5.328493408203125,-0.6145782470703125,-0.0924072265625,0.01025390625
1761479513170529300,5.338529296875,-0.664398193359375,-0.05218505859375,0.0137176513671875
1761479513180565200,5.348565185546875,-0.7418670654296875,-0.0255126953125,0.045501708984375
1761479513190601500,5.3586015625,-0.9079742431640625,-0.079620361328125,0.03558349609375
1761479513200637400,5.368637451171875,-1.1735687255859375,-0.08538818359375,-0.102294921875
1761479513210673400,5.37867333984375,-1.427154541015625,-0.0334625244140625,-0.2940826416015625
1761479513220710400,5.38871044921875,-1.6752471923828125,-0.0115814208984375,-0.436492919921875
1761479513230746400,5.398746337890625,-1.8628082275390625,-0.0586700439453125,-0.5045318603515625
1761479513240782300,5.4087822265625,-1.8070220947265625,-0.1439971923828125,-0.53326416015625
1761479513250818300,5.418818359375,-1.796722412109375,-0.2748870849609375,-0.568084716796875
1761479513260854300,5.428854248046875,-1.79034423828125,-0.6020965576171875,-0.748199462890625
1761479513270890200,5.43889013671875,-1.8510589599609375,-0.893798828125,-1.3048858642578125
1761479513280926200,5.44892626953125,-2.1684112548828125,-0.828460693359375,-1.9961395263671875
1761479513290962200,5.458962158203125,-2.4552001953125,-0.3963623046875,-2.265777587890625
1761479513300999400,5.46899951171875,-2.6768646240234375,-0.1829376220703125,-1.701629638671875
1761479513311035400,5.479035400390625,-2.79962158203125,-0.1287384033203125,-0.8300628662109375
1761479513321071400,5.4890712890625,-2.5857086181640625,-0.1162567138671875,-0.177154541015625
1761479513331107300,5.499107421875,-2.269287109375,-0.13348388671875,0.1472015380859375
1761479513341143300,5.509143310546875,-1.9961700439453125,-0.1325225830078125,0.1951141357421875
1761479513351179300,5.51917919921875,-1.7637176513671875,-0.2306365966796875,0.1314849853515625
1761479513361215200,5.52921533203125,-1.551910400390625,-0.3022613525390625,-0.0012054443359375
1761479513371251500,5.53925146484375,-1.4071044921875,-0.26922607421875,-0.1963043212890625
1761479513381287400,5.549287353515625,-1.2966766357421875,-0.17010498046875,-0.419830322265625
1761479513391324200,5.55932421875,-1.206878662109375,-0.0003204345703125,-0.5597686767578125
1761479513401360400,5.5693603515625,-1.0860595703125,0.11639404296875,-0.482025146484375
1761479513411396400,5.579396240234375,-0.9755096435546875,0.139129638671875,-0.2794647216796875
1761479513421432300,5.589432373046875,-0.89642333984375,0.11907958984375,-0.039794921875
1761479513431468300,5.59946826171875,-0.728668212890625,0.0539703369140625,0.1704559326171875
1761479513441504300,5.609504150390625,-0.5979461669921875,0.0174713134765625,0.259002685546875
1761479513451540200,5.619540283203125,-0.5611724853515625,0.001678466796875,0.2147064208984375
1761479513461576200,5.629576171875,-0.550811767578125,-0.014739990234375,0.065765380859375
1761479513471613200,5.63961328125,-0.459564208984375,-0.0085906982421875,-0.1350860595703125
1761479513481649400,5.6496494140625,-0.3997039794921875,0.0135498046875,-0.310577392578125
1761479513491685400,5.659685302734375,-0.3931884765625,-0.0016021728515625,-0.4020233154296875
1761479513501721300,5.669721435546875,-0.332611083984375,0.01123046875,-0.429901123046875
1761479513511757300,5.67975732421875,-0.2807769775390625,0.0463104248046875,-0.4078521728515625
1761479513521793300,5.689793212890625,-0.2096405029296875,0.051605224609375,-0.29010009765625
1761479513531829200,5.699829345703125,-0.1115570068359375,0.06451416015625,-0.10870361328125
1761479513541865500,5.709865478515625,-0.0222625732421875,0.065673828125,0.062744140625
1761479513551902200,5.719902099609375,0.0468597412109375,0.0558624267578125,0.1626434326171875
1761479513561938200,5.729938232421875,0.0945587158203125,0.097198486328125,0.1391143798828125
1761479513571974400,5.739974365234375,0.097137451171875,0.0115966796875,0.19195556640625
1761479513582010400,5.75001025390625,0.118621826171875,-0.0897369384765625,0.25860595703125
1761479513592046300,5.76004638671875,0.10504150390625,-0.05926513671875,0.185882568359375
1761479513602082300,5.770082275390625,0.0601348876953125,0.0002288818359375,0.03533935546875
1761479513612118300,5.7801181640625,0.0171966552734375,0.019989013671875,-0.0990447998046875
1761479513622154200,5.790154296875,-0.0742645263671875,0.0195770263671875,-0.156890869140625
1761479513632190200,5.800190185546875,-0.20843505859375,0.004791259765625,-0.1161651611328125
1761479513642227200,5.810227294921875,-0.3109588623046875,-0.025909423828125,0.00531005859375
1761479513652263400,5.820263427734375,-0.420135498046875,-0.0779876708984375,0.111572265625
1761479513662299400,5.83029931640625,-0.5245513916015625,-0.0877685546875,0.1227874755859375
1761479513672335400,5.84033544921875,-0.5703277587890625,-0.032623291015625,0.027496337890625
1761479513682371300,5.850371337890625,-0.629852294921875,-0.0081329345703125,-0.1268157958984375
1761479513692407300,5.8604072265625,-0.7883453369140625,-0.055511474609375,-0.2819671630859375
1761479513702443300,5.870443359375,-0.9756927490234375,-0.060760498046875,-0.391082763671875
1761479513712479200,5.880479248046875,-1.176116943359375,-0.0366668701171875,-0.3883819580078125
1761479513722516200,5.89051611328125,-1.4306793212890625,-0.04119873046875,-0.2867889404296875
1761479513732552200,5.90055224609375,-1.6660919189453125,-0.0836181640625,-0.1842193603515625
1761479513742588200,5.910588134765625,-1.8401031494140625,-0.2191925048828125,-0.2955169677734375
1761479513752624400,5.920624267578125,-1.887451171875,-0.4590606689453125,-0.7630615234375
1761479513762660400,5.930660400390625,-2.012725830078125,-0.7321319580078125,-1.4761810302734375
1761479513772696300,5.9406962890625,-2.0924530029296875,-0.8228302001953125,-2.0965423583984375
1761479513782732300,5.950732177734375,-2.1104736328125,-0.6832733154296875,-2.202239990234375
1761479513792768300,5.960768310546875,-2.18597412109375,-0.521575927734375,-1.54052734375
1761479513802804200,5.97080419921875,-2.3066864013671875,-0.4036865234375,-0.6214599609375
1761479513812841200,5.98084130859375,-2.343292236328125,-0.4294281005859375,0.0181884765625
1761479513822877200,5.990877197265625,-2.3265228271484375,-0.4482269287109375,0.2882080078125
1761479513832913400,6.000913330078125,-2.289764404296875,-0.2899932861328125,0.2214202880859375
1761479513842949400,6.010949462890625,-2.2073211669921875,-0.1603546142578125,-0.0207977294921875
1761479513852985300,6.0209853515625,-2.1339874267578125,-0.173980712890625,-0.3292999267578125
1761479513863021300,6.031021240234375,-2.02880859375,-0.167633056640625,-0.62933349609375
1761479513873057300,6.041057373046875,-1.8521270751953125,-0.0481719970703125,-0.7998809814453125
1761479513883093200,6.05109326171875,-1.755035400390625,0.11834716796875,-0.7176971435546875
1761479513893129500,6.06112939453125,-1.7074737548828125,0.1816864013671875,-0.353790283203125
1761479513903166200,6.071166259765625,-1.5946502685546875,0.120452880859375,0.063018798828125
1761479513913202200,6.0812021484375,-1.3719329833984375,0.0449981689453125,0.3026275634765625
1761479513923238400,6.09123828125,-1.0814208984375,0.0067596435546875,0.2953033447265625
1761479513933274400,6.1012744140625,-0.7857513427734375,0.0105133056640625,0.08990478515625
1761479513943310300,6.111310302734375,-0.5842437744140625,0.06884765625,-0.0841064453125
1761479513953346300,6.12134619140625,-0.483734130859375,0.1183929443359375,-0.177642822265625
1761479513963382300,6.13138232421875,-0.4669189453125,0.2013702392578125,-0.2530975341796875
1761479513973418200,6.141418212890625,-0.4689483642578125,0.2657012939453125,-0.2893218994140625
1761479513983454200,6.1514541015625,-0.388427734375,0.2708740234375,-0.29315185546875
1761479513993491200,6.1614912109375,-0.247589111328125,0.2434844970703125,-0.239349365234375
1761479514003527400,6.17152734375,-0.14215087890625,0.170623779296875,-0.1436004638671875
1761479514013563400,6.1815634765625,-0.0821533203125,0.0482177734375,-0.0911407470703125
1761479514023599400,6.191599365234375,0.0557708740234375,-0.055908203125,-0.1001739501953125
1761479514033635300,6.20163525390625,0.18487548828125,-0.085693359375,-0.137847900390625
1761479514043671300,6.21167138671875,0.281280517578125,-0.0737457275390625,-0.1887969970703125
1761479514053706800,6.221706787109375,0.33807373046875,-0.0144500732421875,-0.187957763671875
1761479514063742700,6.23174267578125,0.2841796875,0.030059814453125,-0.111297607421875
1761479514073778700,6.24177880859375,0.2337188720703125,0.026153564453125,0.0562896728515625
1761479514083816000,6.25181591796875,0.165435791015625,-0.0380096435546875,0.205596923828125
1761479514093852000,6.261851806640625,0.110565185546875,-0.0798492431640625,0.2794952392578125
1761479514103888000,6.271887939453125,-0.0027008056640625,-0.060089111328125,0.3016357421875
1761479514113923800,6.281923828125,-0.132354736328125,0.01397705078125,0.1914825439453125
1761479514123959800,6.291959716796875,-0.2243804931640625,0.0700836181640625,0.04547119140625
1761479514133995800,6.301995849609375,-0.2342529296875,0.0334014892578125,0.008056640625
1761479514144031700,6.31203173828125,-0.2715301513671875,0.000946044921875,0.0316314697265625
1761479514154067700,6.322067626953125,-0.3893890380859375,-0.010833740234375,0.087371826171875
1761479514164103700,6.332103759765625,-0.492919921875,-0.0555419921875,0.116729736328125
1761479514174140700,6.342140625,-0.59295654296875,-0.0933074951171875,0.03558349609375
1761479514184176600,6.3521767578125,-0.634857177734375,-0.085296630859375,-0.1421661376953125
1761479514194212600,6.362212646484375,-0.7249298095703125,-0.092559814453125,-0.3227386474609375
1761479514204248600,6.37224853515625,-0.8843994140625,-0.084197998046875,-0.405426025390625
1761479514214284500,6.382284423828125,-1.075103759765625,-0.0619354248046875,-0.343292236328125
1761479514224320800,6.39232080078125,-1.30419921875,-0.0734100341796875,-0.2288970947265625
1761479514234356700,6.402356689453125,-1.4566802978515625,-0.093414306640625,-0.2004547119140625
1761479514244392700,6.412392822265625,-1.4935455322265625,-0.1352996826171875,-0.3061370849609375
1761479514254428700,6.4224287109375,-1.5131072998046875,-0.223175048828125,-0.5385894775390625
1761479514264466000,6.4324658203125,-1.6684112548828125,-0.329925537109375,-0.8622589111328125
1761479514274502000,6.442501953125,-1.9191741943359375,-0.4325103759765625,-1.1325531005859375
1761479514284537900,6.452537841796875,-2.16546630859375,-0.4981536865234375,-1.2593841552734375
1761479514294573800,6.46257373046875,-2.35882568359375,-0.5204620361328125,-1.2248687744140625
1761479514304609800,6.47260986328125,-2.4350433349609375,-0.470306396484375,-1.0172882080078125
1761479514314645800,6.482645751953125,-2.481689453125,-0.3484649658203125,-0.6874847412109375
1761479514324681700,6.492681640625,-2.5757904052734375,-0.2785491943359375,-0.407440185546875
1761479514334717700,6.5027177734375,-2.6604156494140625,-0.27294921875,-0.2430877685546875
1761479514344753700,6.512753662109375,-2.724884033203125,-0.2331390380859375,-0.17913818359375
1761479514354790700,6.522790771484375,-2.669830322265625,-0.22613525390625,-0.124481201171875
1761479514364826600,6.53282666015625,-2.464813232421875,-0.2896270751953125,-0.1113433837890625
1761479514374862600,6.542862548828125,-2.1385345458984375,-0.2764129638671875,-0.11834716796875
1761479514384898600,6.552898681640625,-1.87109375,-0.1756439208984375,-0.0809173583984375
1761479514394934500,6.5629345703125,-1.7640533447265625,-0.068511962890625,0.0175933837890625
1761479514404970800,6.572970703125,-1.6287689208984375,0.0382843017578125,0.0971221923828125
1761479514415006700,6.5830068359375,-1.4007720947265625,0.1358795166015625,0.1163177490234375
1761479514425042700,6.593042724609375,-1.18939208984375,0.1947784423828125,0.048309326171875
1761479514435078700,6.60307861328125,-1.0956268310546875,0.2215728759765625,-0.043792724609375
1761479514445116000,6.613115966796875,-1.0362548828125,0.22430419921875,-0.0832672119140625
1761479514455151900,6.62315185546875,-0.9912109375,0.2382659912109375,-0.12274169921875
1761479514465187800,6.633187744140625,-0.91424560546875,0.2313385009765625,-0.167449951171875
1761479514475223800,6.643223876953125,-0.767059326171875,0.2210693359375,-0.2323760986328125
1761479514485259800,6.653259765625,-0.5573883056640625,0.222564697265625,-0.3247222900390625
1761479514495295700,6.663295654296875,-0.344024658203125,0.200653076171875,-0.42620849609375
1761479514505331700,6.673331787109375,-0.24920654296875,0.163665771484375,-0.5257110595703125
1761479514515367700,6.68336767578125,-0.1766510009765625,0.12176513671875,-0.5734100341796875
1761479514525403600,6.693403564453125,-0.0599517822265625,0.071441650390625,-0.569854736328125
1761479514535439600,6.703439697265625,0.0613861083984375,0.0352020263671875,-0.568389892578125
1761479514545476600,6.7134765625,0.1788177490234375,0.0368804931640625,-0.522216796875
1761479514555512600,6.7235126953125,0.2089996337890625,0.0143585205078125,-0.3627777099609375
1761479514565548500,6.733548583984375,0.2589569091796875,-0.038543701171875,-0.14117431640625
1761479514575584800,6.743584716796875,0.4248809814453125,0.25836181640625,0.019500732421875
1761479514585620700,6.753620849609375,0.4258575439453125,0.1737060546875,0.3001708984375
1761479514595656700,6.76365673828125,0.499359130859375,-0.199859619140625,0.515350341796875
1761479514605692700,6.773692626953125,0.409210205078125,-0.2643585205078125,0.5830078125
1761479514615728600,6.783728759765625,0.346282958984375,-0.151702880859375,0.4551849365234375
1761479514625764600,6.7937646484375,0.184051513671875,-0.01904296875,0.2797393798828125
1761479514635800600,6.803800537109375,-0.1162567138671875,0.090606689453125,0.1343536376953125
