time,seconds_elapsed,z,y,x
1761479507926649600,0.094649658203125,0.4385085105895996,-0.44644659757614136,0.10760600864887238
1761479507936685600,0.104685546875,0.5824832320213318,-0.3455868363380432,0.04336071014404297
1761479507946722600,0.11472265625,0.6635969281196594,-0.23783481121063232,-0.05830908194184303
1761479507956758500,0.124758544921875,0.7145991325378418,-0.10808799415826797,-0.1818467378616333
1761479507966794500,0.13479443359375,0.7222077250480652,-0.049315452575683594,-0.21223223209381104
1761479507976830500,0.14483056640625,0.6278274059295654,-0.1662263572216034,-0.07994955033063889
1761479507986866400,0.154866455078125,0.43146660923957825,-0.307254433631897,0.19639894366264343
1761479507996902400,0.16490234375,0.2520371973514557,-0.3085620403289795,0.5298293828964233
1761479508006938400,0.1749384765625,0.11447299271821976,-0.24457453191280365,0.7530867457389832
1761479508016974300,0.184974365234375,0.03204043582081795,-0.19872234761714935,0.7975024580955505
1761479508027011600,0.195011474609375,0.056011490523815155,-0.17625710368156433,0.7478492856025696
1761479508037047600,0.205047607421875,0.21392148733139038,-0.16425077617168427,0.6199501752853394
1761479508047083800,0.215083740234375,0.4421183168888092,-0.15409967303276062,0.4661269783973694
1761479508057119700,0.22511962890625,0.6354840397834778,-0.17049728333950043,0.3241668939590454
1761479508067155700,0.23515576171875,0.7522954940795898,-0.2051837146282196,0.20075027644634247
1761479508077192000,0.24519189453125,0.6630308628082275,-0.21123096346855164,0.20900581777095795
1761479508087228000,0.255227783203125,0.34832531213760376,-0.10097163915634155,0.2476842850446701
1761479508097265000,0.265264892578125,-0.007647196762263775,0.06291796267032623,0.16131716966629028
1761479508107301000,0.275301025390625,-0.08394039422273636,0.2368188053369522,0.04838098585605621
1761479508117337000,0.285337158203125,-0.037974763661623,0.3818926215171814,-0.02721683494746685
1761479508127373000,0.295373046875,-0.000382482074201107,0.17832452058792114,-0.06694810837507248
1761479508137409000,0.305408935546875,-0.030291378498077393,-0.15056389570236206,-0.05514657869935036
1761479508147445000,0.315445068359375,-0.1769188642501831,-0.39137011766433716,-0.059951458126306534
1761479508157481000,0.32548095703125,-0.41811415553092957,-0.560161828994751,-0.12241004407405853
1761479508167518000,0.33551806640625,-0.6514908075332642,-0.717830240726471,-0.21916337311267853
1761479508177554000,0.345553955078125,-0.726510763168335,-0.7266501188278198,-0.2952978014945984
1761479508187590000,0.35558984375,-0.6614056825637817,-0.5645980834960938,-0.2801835834980011
1761479508197625900,0.3656259765625,-0.546839714050293,-0.3109045922756195,-0.1981275975704193
1761479508207661800,0.375661865234375,-0.5174548029899597,-0.16678684949874878,-0.06994932889938354
1761479508217697800,0.38569775390625,-0.53379887342453,-0.20334964990615845,-0.025796519592404366
1761479508227733800,0.395733642578125,-0.5460033416748047,-0.22257423400878906,-0.13042886555194855
1761479508237769700,0.405769775390625,-0.5670710802078247,-0.12920087575912476,-0.2886424660682678
1761479508247807000,0.415806884765625,-0.4876877963542938,0.013255476951599121,-0.5130144953727722
1761479508257843000,0.425843017578125,-0.38437312841415405,0.18864700198173523,-0.7133347988128662
1761479508267879000,0.43587890625,-0.3430035412311554,0.3792475461959839,-0.859010636806488
1761479508277915000,0.445914794921875,-0.31725528836250305,0.462699830532074,-0.9409987330436707
1761479508287951000,0.455951171875,-0.28887560963630676,0.4547122120857239,-0.93486487865448
1761479508297987000,0.465987060546875,-0.2385818213224411,0.518887996673584,-0.8367366790771484
1761479508308023000,0.47602294921875,-0.16684329509735107,0.4851117432117462,-0.6846083402633667
1761479508318060000,0.48606005859375,-0.10111355781555176,0.26975759863853455,-0.5781095623970032
1761479508328096000,0.496095947265625,0.008897322230041027,0.06442870199680328,-0.5332692861557007
1761479508338132000,0.506132080078125,0.16914984583854675,-0.07381173223257065,-0.4297577738761902
1761479508348168000,0.51616796875,0.469511479139328,-0.058320097625255585,-0.1555965393781662
1761479508358204000,0.526203857421875,0.815186619758606,-0.06420914828777313,0.25722751021385193
1761479508368239900,0.536239990234375,1.028196096420288,-0.3149217963218689,0.7190115451812744
1761479508378275800,0.54627587890625,1.0729564428329468,-0.47967424988746643,1.116896629333496
1761479508388311800,0.556311767578125,0.9590597152709961,-0.558061420917511,1.329248309135437
1761479508398348800,0.566348876953125,0.7277932167053223,-0.6275355219841003,1.3537075519561768
1761479508408384800,0.576384765625,0.46232524514198303,-0.6079878807067871,1.2494431734085083
1761479508418421000,0.5864208984375,0.1925494223833084,-0.5303740501403809,1.0919374227523804
1761479508428457000,0.59645703125,-0.020649611949920654,-0.41102731227874756,0.9433990716934204
1761479508438493000,0.606492919921875,-0.09806477278470993,-0.25846201181411743,0.8168438076972961
1761479508448529000,0.61652880859375,0.031162656843662262,-0.038260240107774734,0.6311680674552917
1761479508458565000,0.626565185546875,0.1746034473180771,0.08557061851024628,0.39501968026161194
1761479508468601900,0.636601806640625,0.24134071171283722,0.15155601501464844,0.2334173619747162
1761479508478637800,0.646637939453125,0.2287258505821228,0.21724873781204224,0.11822952330112457
1761479508488674000,0.656674072265625,0.13687939941883087,0.2662142515182495,-0.042039524763822556
1761479508498710000,0.6667099609375,-0.020497962832450867,0.3563004732131958,-0.2116253674030304
1761479508508746000,0.67674609375,-0.19275350868701935,0.5796585083007812,-0.3744368553161621
1761479508518782000,0.686781982421875,-0.2953709363937378,0.7746290564537048,-0.44442179799079895
1761479508528818000,0.69681787109375,-0.3337000608444214,0.8233932852745056,-0.419225811958313
1761479508538854000,0.70685400390625,-0.30595818161964417,0.7890941500663757,-0.32784131169319153
1761479508548891000,0.716890869140625,-0.23393402993679047,0.6502255201339722,-0.15363144874572754
1761479508558926800,0.7269267578125,-0.163286492228508,0.4263322353363037,0.09307554364204407
1761479508568962800,0.736962890625,-0.1627405434846878,0.18395791947841644,0.3491242229938507
1761479508578998800,0.746998779296875,-0.2115245908498764,-0.0338716059923172,0.5654474496841431
1761479508589034800,0.75703466796875,-0.2587383985519409,-0.18535184860229492,0.6876068711280823
1761479508599071000,0.767071044921875,-0.26247134804725647,-0.331947922706604,0.7252267003059387
1761479508609107000,0.77710693359375,-0.16649916768074036,-0.5046021938323975,0.7349658012390137
1761479508619144000,0.78714404296875,-0.011039003729820251,-0.7173855304718018,0.7171871066093445
1761479508629180000,0.797179931640625,0.21818378567695618,-0.8743332028388977,0.6835008859634399
1761479508639215900,0.8072158203125,0.4364069104194641,-0.8652052283287048,0.6568492650985718
1761479508649251800,0.817251953125,0.638117253780365,-0.8264919519424438,0.5747170448303223
1761479508659287800,0.827287841796875,0.8274967670440674,-1.0054672956466675,0.43804970383644104
1761479508669324000,0.837323974609375,0.9229933023452759,-1.3049689531326294,0.3080679774284363
1761479508679360000,0.847360107421875,0.9183489680290222,-1.5910366773605347,0.18203064799308777
1761479508689396700,0.857396728515625,0.7787374258041382,-1.795631766319275,0.17380878329277039
1761479508699433000,0.867432861328125,0.5890961289405823,-1.9011890888214111,0.3277512192726135
1761479508709469000,0.877468994140625,0.35863736271858215,-1.5630704164505005,0.4467979371547699
1761479508719505000,0.8875048828125,0.09024187177419662,-0.9921307563781738,0.49056005477905273
1761479508729540900,0.897540771484375,-0.27742651104927063,-0.6155487895011902,0.45240092277526855
1761479508739576800,0.907576904296875,-0.7343248128890991,-0.39211276173591614,0.35105833411216736
1761479508749612800,0.91761279296875,-1.1490389108657837,0.005217422731220722,0.10028780251741409
1761479508759650000,0.927650146484375,-1.361648678779602,0.4362258017063141,-0.21513965725898743
1761479508769686000,0.93768603515625,-1.3584882020950317,0.7752894163131714,-0.49275586009025574
1761479508779722000,0.947721923828125,-1.2567490339279175,1.0388227701187134,-0.6344387531280518
1761479508789758000,0.957758056640625,-0.939501941204071,1.494752049446106,-0.7852806448936462
1761479508799794000,0.9677939453125,-0.7672221064567566,1.5324304103851318,-0.7886887192726135
1761479508809830000,0.977829833984375,-0.6008769273757935,1.242708444595337,-0.7928025722503662
1761479508819865900,0.987865966796875,-0.41810446977615356,1.0961874723434448,-0.8552579879760742
1761479508829901800,0.99790185546875,-0.3244481384754181,1.1909232139587402,-0.9555244445800781
1761479508839938800,1.007938720703125,-0.33467814326286316,1.4544934034347534,-1.0642762184143066
1761479508849974800,1.017974853515625,-0.343160480260849,1.619680404663086,-1.0632073879241943
1761479508860010800,1.0280107421875,-0.289522260427475,1.4868777990341187,-0.9314826130867004
1761479508870047000,1.038046875,-0.14625583589076996,1.1883760690689087,-0.6693134307861328
1761479508880083000,1.0480830078125,0.04916718229651451,0.751473069190979,-0.3320770859718323
1761479508890119000,1.058118896484375,0.23074087500572205,0.17090436816215515,-0.008477555587887764
1761479508900156000,1.068156005859375,0.3277089595794678,-0.2969491183757782,0.2795664966106415
1761479508910192000,1.078192138671875,0.34572795033454895,-0.3636734187602997,0.560562014579773
1761479508920228000,1.08822802734375,0.35466739535331726,-0.2277211993932724,0.7633178234100342
1761479508930264000,1.09826416015625,0.40129998326301575,-0.05257446691393852,0.824447751045227
1761479508940300000,1.108300048828125,0.4800030291080475,-0.00791032612323761,0.7828539609909058
1761479508950336000,1.1183359375,0.5618029832839966,-0.16862522065639496,0.6642407178878784
1761479508960372000,1.1283720703125,0.6099132299423218,-0.39702990651130676,0.4973427653312683
1761479508970409000,1.138408935546875,0.6046936511993408,-0.5554802417755127,0.3560081422328949
1761479508980445000,1.14844482421875,0.5138071775436401,-0.643108069896698,0.3071383535861969
1761479508990481000,1.15848095703125,0.37230175733566284,-0.6118155717849731,0.30889251828193665
1761479509000516900,1.168516845703125,0.21947625279426575,-0.38453051447868347,0.27463918924331665
1761479509010552800,1.178552734375,0.058725081384181976,-0.10229862481355667,0.15408098697662354
1761479509020588800,1.1885888671875,-0.10583004355430603,0.15914762020111084,-0.02301655523478985
1761479509030624800,1.198624755859375,-0.24032719433307648,0.37739142775535583,-0.2625127136707306
1761479509040661800,1.208661865234375,-0.32467857003211975,0.5135764479637146,-0.5329803824424744
1761479509050697700,1.21869775390625,-0.3764497637748718,0.5676135420799255,-0.7556816339492798
1761479509060733700,1.228733642578125,-0.3781062662601471,0.5605132579803467,-0.8417683243751526
1761479509070770000,1.23877001953125,-0.33823877573013306,0.5413236618041992,-0.7448439002037048
1761479509080806100,1.24880615234375,-0.32702872157096863,0.5433148741722107,-0.5009923577308655
1761479509090842000,1.258842041015625,-0.32430127263069153,0.5827476978302002,-0.18948772549629211
1761479509100878000,1.268878173828125,-0.3242485523223877,0.5405746698379517,0.11008433997631073
1761479509110915000,1.2789150390625,-0.3348649740219116,0.3913460671901703,0.3590909540653229
1761479509120951000,1.288950927734375,-0.2912626564502716,0.213594451546669,0.5392937660217285
1761479509130987000,1.298987060546875,-0.14942574501037598,0.0952920988202095,0.6496784687042236
1761479509141023000,1.30902294921875,0.08876125514507294,0.06814783066511154,0.6907790303230286
1761479509151059000,1.319058837890625,0.38401055335998535,0.032933082431554794,0.6592419743537903
1761479509161095000,1.329094970703125,0.6468414068222046,-0.07632283866405487,0.571308434009552
1761479509171131000,1.339130859375,0.8386753797531128,-0.5502049922943115,0.4063430726528168
1761479509181167900,1.34916796875,0.8876362442970276,-1.4321435689926147,0.1752144992351532
1761479509191203800,1.359203857421875,0.7754563093185425,-2.0423483848571777,-0.07546570152044296
1761479509201239800,1.36923974609375,0.6770557165145874,-2.0526275634765625,-0.1586681753396988
1761479509211275800,1.37927587890625,0.585366427898407,-1.4468309879302979,-0.050046730786561966
1761479509221311700,1.389311767578125,0.5469841957092285,-0.5360209941864014,0.1101679727435112
1761479509231347700,1.39934765625,0.43393149971961975,0.2681252360343933,0.08008163422346115
1761479509241385000,1.409385009765625,-0.033754751086235046,0.46870067715644836,-0.19632944464683533
1761479509251421000,1.4194208984375,-0.7977676391601562,0.14520511031150818,-0.5861703157424927
1761479509261457000,1.429456787109375,-1.5539027452468872,-0.2857326865196228,-0.8831372857093811
1761479509271492900,1.439492919921875,-1.9562112092971802,-0.4181193709373474,-1.0554416179656982
1761479509281528800,1.44952880859375,-1.828616976737976,-0.047894187271595,-1.1864550113677979
1761479509291565000,1.45956494140625,-1.3885202407836914,0.3377976417541504,-1.1741610765457153
1761479509301601000,1.46960107421875,-0.8217968344688416,0.3652593493461609,-1.0045793056488037
1761479509311637800,1.4796376953125,-0.26735398173332214,0.158659890294075,-0.8671675324440002
1761479509321674000,1.489674072265625,0.18131329119205475,0.17145052552223206,-0.9454541206359863
1761479509331710000,1.4997099609375,0.3814115524291992,0.3275442123413086,-1.0957237482070923
1761479509341746000,1.509745849609375,0.3438183665275574,0.5019354820251465,-1.109039306640625
1761479509351782000,1.519781982421875,0.1314917355775833,0.5805342793464661,-0.9441982507705688
1761479509361817900,1.52981787109375,-0.061949893832206726,0.650920569896698,-0.7199853658676147
1761479509371853800,1.539853759765625,-0.09541551023721695,0.6349076628684998,-0.3999186158180237
1761479509381891000,1.54989111328125,0.09973827004432678,0.7132157683372498,-0.10387337952852249
1761479509391927000,1.559927001953125,0.40938228368759155,0.9481896162033081,0.17217887938022614
1761479509401963000,1.569962890625,0.6478803157806396,0.897616446018219,0.45392000675201416
1761479509411999000,1.5799990234375,0.7568321824073792,0.42905163764953613,0.7244613766670227
1761479509422035000,1.590034912109375,0.6710192561149597,-0.253369003534317,0.9457079768180847
1761479509432071000,1.60007080078125,0.4542712867259979,-0.6534262895584106,0.9445653557777405
1761479509442107000,1.61010693359375,0.14944373071193695,-0.737380862236023,0.7932919263839722
1761479509452143900,1.620143798828125,-0.16915258765220642,-0.7756754159927368,0.6306792497634888
1761479509462179800,1.630179931640625,-0.4546237587928772,-0.8009583950042725,0.5159100294113159
1761479509472215800,1.6402158203125,-0.6212092041969299,-0.6773174405097961,0.4355977773666382
1761479509482251800,1.650251708984375,-0.6339066624641418,-0.33606287837028503,0.3457810580730438
1761479509492288000,1.6602880859375,-0.5093014240264893,0.08648595213890076,0.21801987290382385
1761479509502324000,1.670323974609375,-0.3007851839065552,0.4022340476512909,0.055992886424064636
1761479509512360000,1.68035986328125,-0.0987524762749672,0.5961748361587524,-0.1218791976571083
1761479509522397000,1.69039697265625,0.05655615031719208,0.6227611899375916,-0.3026873469352722
1761479509532433000,1.700432861328125,0.18215450644493103,0.5621527433395386,-0.44819602370262146
1761479509542469000,1.71046923828125,0.24615107476711273,0.39727064967155457,-0.520965576171875
1761479509552505000,1.720505126953125,0.20513024926185608,0.2149769514799118,-0.40034618973731995
1761479509562541000,1.730541015625,0.11465414613485336,0.08079064637422562,-0.13088008761405945
1761479509572577000,1.740576904296875,0.054255563765764236,0.12479081749916077,0.1048007383942604
1761479509582614000,1.750614013671875,0.03736233338713646,0.313138872385025,0.201711043715477
1761479509592650000,1.76064990234375,-0.019686084240674973,0.4533737897872925,0.2667350769042969
1761479509602686000,1.77068603515625,-0.14178961515426636,0.3922795355319977,0.4154648780822754
1761479509612722000,1.780721923828125,-0.19106416404247284,0.2914281189441681,0.6106842160224915
1761479509622758000,1.7907578125,-0.14684264361858368,0.13568459451198578,0.7735762000083923
1761479509632793900,1.8007939453125,-0.05093758553266525,0.02805197611451149,0.8721520304679871
1761479509642829800,1.810829833984375,0.12115827947854996,-0.15700362622737885,0.8583145141601562
1761479509652866800,1.82086669921875,0.3447483777999878,-0.3657148480415344,0.7889189720153809
1761479509662902800,1.83090283203125,0.5472357273101807,-0.5569585561752319,0.6306867599487305
1761479509672938800,1.840938720703125,0.7176054120063782,-0.6224874258041382,0.27608707547187805
1761479509682974700,1.850974609375,0.8242053389549255,-0.6200436949729919,-0.16987791657447815
1761479509693010700,1.8610107421875,0.8007006645202637,-0.42810097336769104,-0.7101898789405823
1761479509703047000,1.871046875,0.7030513882637024,-0.0915629118680954,-1.1457940340042114
1761479509713083100,1.881083251953125,0.5980144739151001,0.2843533754348755,-1.4442464113235474
1761479509723119900,1.891119873046875,0.4954182505607605,0.6745389699935913,-1.6147701740264893
1761479509733155800,1.90115576171875,0.3498859405517578,1.0270012617111206,-1.6791625022888184
1761479509743192000,1.911192138671875,0.01584644988179207,1.0200908184051514,-1.5742435455322266
1761479509753228000,1.92122802734375,-0.5555360913276672,0.5362966656684875,-1.1843246221542358
1761479509763264000,1.931263916015625,-1.1863089799880981,0.236136332154274,-0.6655174493789673
1761479509773300000,1.941300048828125,-1.5668901205062866,0.32336699962615967,-0.1777748316526413
1761479509783336000,1.9513359375,-1.4379228353500366,0.584342360496521,0.14070460200309753
1761479509793373000,1.961373046875,-1.0149366855621338,0.6325699687004089,0.364559143781662
1761479509803409000,1.971408935546875,-0.6007674336433411,0.4263547658920288,0.5579112768173218
1761479509813444900,1.98144482421875,-0.2700291872024536,0.13249078392982483,0.6157800555229187
1761479509823480800,1.991480712890625,-0.06562545895576477,-0.09720819443464279,0.4596697986125946
1761479509833516800,2.001516845703125,-0.034777071326971054,-0.236201211810112,0.1866195946931839
1761479509843552800,2.011552734375,-0.15345337986946106,-0.19054237008094788,-0.029858112335205078
1761479509853588700,2.021588623046875,-0.233725905418396,-0.024024100974202156,-0.010067090392112732
1761479509863626000,2.0316259765625,-0.1586250364780426,0.14975754916667938,0.1501936912536621
1761479509873662000,2.041661865234375,0.010537413880228996,0.33681464195251465,0.1985044926404953
1761479509883698000,2.051697998046875,0.16267529129981995,0.4762321710586548,0.1828690618276596
1761479509893734000,2.06173388671875,0.33488401770591736,0.39690476655960083,0.21597471833229065
1761479509903769900,2.071769775390625,0.5437860488891602,0.041551463305950165,0.3149273991584778
1761479509913806000,2.08180615234375,0.7258666157722473,-0.4612252116203308,0.5018070340156555
1761479509923842000,2.091842041015625,0.8537931442260742,-0.7800071835517883,0.5742537975311279
1761479509933878800,2.101878662109375,0.8589094877243042,-0.9525262713432312,0.5985721945762634
1761479509943915000,2.1119150390625,0.7447291016578674,-1.079793930053711,0.5959258079528809
1761479509953951000,2.121950927734375,0.5437898635864258,-1.100540041923523,0.6059372425079346
1761479509963987000,2.131987060546875,0.3375125527381897,-0.9847525358200073,0.6204788684844971
1761479509974023000,2.14202294921875,0.18088850378990173,-0.7886589765548706,0.5807149410247803
1761479509984059000,2.152058837890625,0.11037572473287582,-0.5908854603767395,0.4575765132904053
1761479509994094800,2.1620947265625,0.1373613029718399,-0.38684189319610596,0.24053122103214264
1761479510004131800,2.1721318359375,0.24488642811775208,-0.22684772312641144,-0.009132136590778828
1761479510014168000,2.18216796875,0.35647401213645935,-0.09439651668071747,-0.27860546112060547
1761479510024204000,2.1922041015625,0.41049808263778687,0.0632663443684578,-0.4967612028121948
1761479510034240000,2.202239990234375,0.3606240749359131,0.2495134025812149,-0.5867287516593933
1761479510044274700,2.212274658203125,0.21916362643241882,0.44801267981529236,-0.5629432797431946
1761479510054311000,2.222310791015625,0.030902545899152756,0.5972573161125183,-0.4813906252384186
1761479510064347000,2.232346923828125,-0.1252090334892273,0.6325644254684448,-0.4032992720603943
1761479510074383600,2.242383544921875,-0.19445918500423431,0.5648917555809021,-0.30660396814346313
1761479510084419800,2.252419921875,-0.19919641315937042,0.4752170145511627,-0.11936642229557037
1761479510094455800,2.262455810546875,-0.1259649097919464,0.32894331216812134,0.09357461333274841
1761479510104491800,2.27249169921875,-0.01590205356478691,0.18381942808628082,0.2919939458370209
1761479510114527700,2.28252783203125,0.0851433128118515,0.06728602945804596,0.4958912134170532
1761479510124563700,2.292563720703125,0.19187162816524506,0.017119266092777252,0.6659154295921326
1761479510134599700,2.302599609375,0.32949525117874146,-0.023017093539237976,0.7179389595985413
1761479510144637000,2.312636962890625,0.46782487630844116,-0.04499856010079384,0.589362621307373
1761479510154673000,2.3226728515625,0.6300349831581116,-0.12762106955051422,0.28683969378471375
1761479510164708900,2.332708984375,0.6784624457359314,-0.3460301160812378,-0.1388026922941208
1761479510174744800,2.342744873046875,0.7214761972427368,-0.6402362585067749,-0.6080625057220459
1761479510184780800,2.35278076171875,0.765113115310669,-0.7868813276290894,-0.9852768778800964
1761479510194816800,2.362816650390625,0.8213724493980408,-0.7145174741744995,-1.107432246208191
1761479510204853800,2.372853759765625,0.8665367364883423,-0.4626583158969879,-1.0662888288497925
1761479510214889700,2.3828896484375,0.8735164403915405,-0.08531546592712402,-1.1502608060836792
1761479510224925700,2.39292578125,0.6336936950683594,0.3710789680480957,-1.3803203105926514
1761479510234961700,2.402961669921875,-0.21735593676567078,0.6840417981147766,-1.3388053178787231
1761479510244997600,2.41299755859375,-1.153358817100525,0.8541222214698792,-1.0319812297821045
1761479510255033900,2.423033935546875,-1.672573208808899,1.0193809270858765,-0.5971583127975464
1761479510265069800,2.43306982421875,-1.6127777099609375,0.9782742261886597,-0.39569175243377686
1761479510275106600,2.4431064453125,-1.320757269859314,0.8360942602157593,-0.4865860044956207
1761479510285142800,2.453142822265625,-1.1695607900619507,0.7721078395843506,-0.4801696240901947
1761479510295179000,2.463178955078125,-1.195559024810791,0.6552644371986389,-0.18543289601802826
1761479510305215000,2.473215087890625,-1.2432469129562378,0.5563711524009705,0.24975185096263885
1761479510315251000,2.4832509765625,-1.2600464820861816,0.4648379385471344,0.64654541015625
1761479510325287000,2.493286865234375,-1.2079154253005981,0.44355344772338867,0.8795185089111328
1761479510335323000,2.503322998046875,-1.0737746953964233,0.45823153853416443,0.9083109498023987
1761479510345360000,2.51335986328125,-0.8822872042655945,0.5005427598953247,0.7739177346229553
1761479510355395800,2.523395751953125,-0.6612334251403809,0.45902037620544434,0.5703625082969666
1761479510365431800,2.533431884765625,-0.38011810183525085,0.29941311478614807,0.3141021728515625
1761479510375467800,2.5434677734375,-0.11934500932693481,0.044379472732543945,0.09576869010925293
1761479510385503700,2.553503662109375,0.07243987917900085,-0.17634518444538116,-0.09264250099658966
1761479510395539700,2.563539794921875,0.15381494164466858,-0.30943191051483154,-0.13939791917800903
1761479510405575700,2.57357568359375,0.17564301192760468,-0.33168449997901917,-0.03022349253296852
1761479510415612700,2.58361279296875,0.17266151309013367,-0.2688918709754944,0.2051529586315155
1761479510425648600,2.593648681640625,0.1875310093164444,-0.29828304052352905,0.4764675498008728
1761479510435684600,2.6036845703125,0.234994038939476,-0.5143750309944153,0.7640016078948975
1761479510445720600,2.613720458984375,0.3170420527458191,-0.8870263695716858,0.9326134920120239
1761479510455756800,2.6237568359375,0.36207833886146545,-1.1863435506820679,0.8695579171180725
1761479510465792800,2.633792724609375,0.38814055919647217,-1.2901948690414429,0.6336039304733276
1761479510475829000,2.6438291015625,0.4258049428462982,-1.111859679222107,0.32071587443351746
1761479510485865700,2.65386572265625,0.45690134167671204,-0.8047223687171936,0.03627696633338928
1761479510495901700,2.663901611328125,0.4482879340648651,-0.5579491853713989,-0.10042031109333038
1761479510505938000,2.67393798828125,0.4172799587249756,-0.4584633708000183,-0.044235873967409134
1761479510515974000,2.683973876953125,0.4705664813518524,-0.41557347774505615,0.10430651158094406
1761479510526009900,2.694009765625,0.5452068448066711,-0.2844146490097046,0.2421746402978897
1761479510536045800,2.7040458984375,0.5049425959587097,-0.07628505676984787,0.3170846998691559
1761479510546081800,2.714081787109375,0.3710252642631531,0.1344527304172516,0.3383388817310333
1761479510556117800,2.72411767578125,0.20139732956886292,0.39238324761390686,0.4077796936035156
1761479510566154800,2.73415478515625,-0.01646815985441208,0.5753759741783142,0.5677213668823242
1761479510576190700,2.744190673828125,-0.2628803253173828,0.466752290725708,0.7807753086090088
1761479510586226700,2.754226806640625,-0.44623178243637085,0.03781956061720848,0.8072926998138428
1761479510596262700,2.7642626953125,-0.4871848523616791,-0.25280940532684326,0.6317471861839294
1761479510606298600,2.774298583984375,-0.32279112935066223,-0.39872506260871887,0.42811819911003113
1761479510616334600,2.78433447265625,-0.0022954721935093403,-0.5011269450187683,0.3229706287384033
1761479510626370600,2.79437060546875,0.3891045153141022,-0.6822109222412109,0.29433631896972656
1761479510636407800,2.80440771484375,0.7107975482940674,-0.6810954213142395,0.2723666727542877
1761479510646443800,2.81444384765625,0.7876436114311218,-0.6620266437530518,0.4213883876800537
1761479510656479700,2.824479736328125,0.7790758609771729,-0.7334150075912476,0.5233408212661743
1761479510666515700,2.834515625,0.7356247901916504,-0.6893787980079651,0.44122546911239624
1761479510676552000,2.844552001953125,0.7371597290039062,-0.5707041025161743,0.14480647444725037
1761479510686588000,2.854587890625,0.7956182360649109,-0.6072767972946167,-0.16278329491615295
1761479510696623900,2.864623779296875,0.8826863765716553,-0.6275184750556946,-0.3618745505809784
1761479510706660900,2.874660888671875,0.8416433334350586,-0.36865630745887756,-0.5113385915756226
1761479510716696800,2.88469677734375,0.4420371651649475,0.00993476714938879,-0.5866037011146545
1761479510726732800,2.89473291015625,-0.3740997314453125,0.21841873228549957,-0.6753231883049011
1761479510736768800,2.904768798828125,-1.45279061794281,0.3760230243206024,-0.7174195051193237
1761479510746804700,2.9148046875,-2.020716667175293,0.6299948692321777,-0.6776742339134216
1761479510756840700,2.9248408203125,-1.8718386888504028,0.833091676235199,-0.5916498303413391
1761479510766876700,2.934876708984375,-1.34618079662323,0.8512008786201477,-0.38062945008277893
1761479510776912600,2.94491259765625,-0.7198283076286316,0.8239448070526123,-0.19347195327281952
1761479510786950000,2.954949951171875,-0.17989186942577362,0.7357417345046997,-0.17444421350955963
1761479510796985900,2.96498583984375,0.07862909883260727,0.4271017611026764,-0.3435126841068268
1761479510807021800,2.975021728515625,0.050938621163368225,0.22552073001861572,-0.7060999870300293
1761479510817057800,2.985057861328125,-0.311377614736557,0.4982617497444153,-1.0430964231491089
1761479510827093800,2.99509375,-0.722956120967865,0.8379900455474854,-1.0915305614471436
1761479510837129700,3.005129638671875,-0.8474868535995483,0.9531827569007874,-0.8990354537963867
1761479510847165700,3.015165771484375,-0.5261082649230957,0.9135019183158875,-0.6177124381065369
1761479510857202700,3.02520263671875,0.08526065945625305,0.7519151568412781,-0.30703943967819214
1761479510867238700,3.03523876953125,0.5469976663589478,0.41124728322029114,0.04236597195267677
1761479510877274600,3.045274658203125,0.8526170253753662,0.07774737477302551,0.3247114419937134
1761479510887310800,3.055310791015625,0.9777991771697998,-0.04862787574529648,0.42040306329727173
1761479510897346800,3.065346923828125,0.9374008178710938,-0.07094169408082962,0.3278311491012573
1761479510907382800,3.0753828125,0.8386262655258179,-0.0642600879073143,0.17692632973194122
1761479510917418800,3.085418701171875,0.7165756225585938,-0.08152849227190018,0.18244685232639313
1761479510927456000,3.0954560546875,0.5836244821548462,-0.14384698867797852,0.33588382601737976
1761479510937492000,3.105491943359375,0.4596431255340576,-0.23768265545368195,0.5532358884811401
1761479510947528000,3.11552783203125,0.3894523084163666,-0.3677777945995331,0.7039194107055664
1761479510957564000,3.12556396484375,0.4035617709159851,-0.4688330888748169,0.732672393321991
1761479510967599900,3.135599853515625,0.5027099251747131,-0.5400462746620178,0.620354950428009
1761479510977635800,3.1456357421875,0.6443833708763123,-0.5573927164077759,0.4723159670829773
1761479510987671800,3.155671875,0.734283447265625,-0.3817782700061798,0.3564319908618927
1761479510997707800,3.165707763671875,0.6722443103790283,-0.14770227670669556,0.25961095094680786
1761479511007744800,3.175744873046875,0.547795832157135,0.11674560606479645,0.12700176239013672
1761479511017780700,3.18578076171875,0.3538796007633209,0.25218841433525085,-0.06940397620201111
1761479511027816700,3.195816650390625,0.14439348876476288,0.18259789049625397,-0.24746905267238617
1761479511037852700,3.205852783203125,-0.045717593282461166,0.019144244492053986,-0.3771972060203552
1761479511047889700,3.2158896484375,-0.16644348204135895,-0.05147186666727066,-0.3912765383720398
1761479511057925600,3.225925537109375,-0.19314630329608917,-0.014067860320210457,-0.200550377368927
1761479511067961600,3.235961669921875,-0.1746455878019333,0.03319259360432625,0.17768293619155884
1761479511077998600,3.24599853515625,-0.16927655041217804,-0.008069800212979317,0.595678985118866
1761479511088034600,3.25603466796875,-0.13217338919639587,-0.13191558420658112,0.8891515731811523
1761479511098070500,3.266070556640625,-0.05195951089262962,-0.25924453139305115,0.9702911972999573
1761479511108106500,3.2761064453125,0.12478835880756378,-0.29913094639778137,0.8880756497383118
1761479511118142700,3.286142822265625,0.3669709265232086,-0.16498138010501862,0.7295536398887634
1761479511128178700,3.2961787109375,0.6581361889839172,0.09254948794841766,0.4517747759819031
1761479511138214700,3.306214599609375,0.9698478579521179,0.41726863384246826,0.18794302642345428
1761479511148250600,3.316250732421875,1.1535279750823975,0.49587687849998474,0.0930016040802002
1761479511158288000,3.326287841796875,1.1653004884719849,0.300613135099411,0.07312633097171783
1761479511168323800,3.33632373046875,1.1196136474609375,0.08074415475130081,-0.05049387365579605
1761479511178359800,3.34635986328125,1.0515626668930054,-0.12573431432247162,-0.28102555871009827
1761479511188395800,3.356395751953125,0.9513944983482361,-0.2629193365573883,-0.442776620388031
1761479511198431700,3.366431640625,0.9005739688873291,-0.17903085052967072,-0.47393471002578735
1761479511208467700,3.3764677734375,0.8255311846733093,0.1582457274198532,-0.47197145223617554
1761479511218503700,3.386503662109375,0.4408893585205078,0.4120619595050812,-0.4121469557285309
1761479511228539600,3.39653955078125,-0.43905794620513916,0.0659429058432579,-0.17745481431484222
1761479511238576600,3.40657666015625,-1.4269176721572876,-0.49863284826278687,-0.14764568209648132
1761479511248612600,3.416612548828125,-1.963896632194519,-0.39821943640708923,-0.14259207248687744
1761479511258648600,3.426648681640625,-1.7673770189285278,0.14341643452644348,-0.22109821438789368
1761479511268684500,3.4366845703125,-1.2663687467575073,0.45189332962036133,-0.3246256709098816
1761479511278720500,3.446720458984375,-0.7935087084770203,0.4308425486087799,-0.3741934299468994
1761479511288756700,3.4567568359375,-0.43874019384384155,0.3549368679523468,-0.4053708016872406
1761479511298792700,3.466792724609375,-0.3590874671936035,0.30638906359672546,-0.38211286067962646
1761479511308829400,3.476829345703125,-0.5827961564064026,0.2601909339427948,-0.25674137473106384
1761479511318865700,3.48686572265625,-0.9787829518318176,0.2559666037559509,-0.1448938399553299
1761479511328902000,3.49690185546875,-1.3289837837219238,0.3576258420944214,-0.01909756101667881
1761479511338937900,3.506937744140625,-1.261922836303711,0.6915146708488464,0.09356427937746048
1761479511348973800,3.516973876953125,-0.8359507918357849,1.1060266494750977,0.09914600104093552
1761479511359009800,3.527009765625,-0.37264811992645264,1.3006867170333862,0.07409726828336716
1761479511369045800,3.537045654296875,-0.018850380554795265,1.1594570875167847,0.059218186885118484
1761479511379081700,3.547081787109375,0.19869481027126312,0.8904303908348083,-0.0509745329618454
1761479511389118700,3.55711865234375,0.32209262251853943,0.5726678371429443,-0.26162630319595337
1761479511399154700,3.56715478515625,0.353371798992157,0.329595148563385,-0.4317128658294678
1761479511409190700,3.577190673828125,0.3660857081413269,0.08907361328601837,-0.5016855597496033
1761479511419226600,3.5872265625,0.3575797975063324,-0.10518156737089157,-0.4711385667324066
1761479511429262600,3.5972626953125,0.34463709592819214,0.057810552418231964,-0.3868663012981415
1761479511439298600,3.607298583984375,0.39258071780204773,0.42664167284965515,-0.2660161852836609
1761479511449334500,3.61733447265625,0.47582927346229553,0.5720649361610413,0.07385694980621338
1761479511459370500,3.62737060546875,0.6353786587715149,0.4137848913669586,0.5405084490776062
1761479511469407500,3.637407470703125,0.7763826847076416,0.09861388802528381,0.951701283454895
1761479511479443500,3.647443359375,0.7983578443527222,-0.3052767515182495,1.142947793006897
1761479511489479700,3.657479736328125,0.6990607976913452,-0.5703831911087036,0.9671818017959595
1761479511499515600,3.667515625,0.5614075660705566,-0.5681131482124329,0.44558292627334595
1761479511509551900,3.6775517578125,0.3738110363483429,-0.46786007285118103,-0.17389708757400513
1761479511519587800,3.687587890625,0.1658094823360443,-0.3219504654407501,-0.6264374852180481
1761479511529623800,3.697623779296875,0.029903847724199295,-0.18975967168807983,-0.7730974555015564
1761479511539660800,3.707660888671875,-0.030430292710661888,-0.07451780140399933,-0.6785813570022583
1761479511549696800,3.71769677734375,-0.05019067972898483,-0.06159082055091858,-0.4549961984157562
1761479511559732700,3.727732666015625,-0.04789544641971588,-0.03890526294708252,-0.14856590330600739
1761479511569768700,3.737768798828125,-0.045088473707437515,-0.007365712430328131,0.1665686070919037
1761479511579804700,3.7478046875,-0.04348703473806381,-0.067682646214962,0.4359823167324066
1761479511589840600,3.757840576171875,0.02368827536702156,-0.24933233857154846,0.6569727659225464
1761479511599876600,3.767876708984375,-0.036835115402936935,-0.48909929394721985,0.8213328719139099
1761479511609912600,3.77791259765625,0.15503844618797302,-0.5785410404205322,0.9047273397445679
1761479511619949600,3.787949462890625,0.4151070713996887,-0.5585124492645264,1.0944794416427612
1761479511629985500,3.797985595703125,0.6823992133140564,-0.4096550941467285,1.3463737964630127
1761479511640021500,3.808021484375,0.8991345167160034,-0.011399653740227222,1.5987647771835327
1761479511650057500,3.818057373046875,1.0037405490875244,0.6189026832580566,1.6761181354522705
1761479511660093400,3.828093505859375,0.9721601009368896,1.0674262046813965,1.4289592504501343
1761479511670129700,3.838129638671875,0.8772178888320923,1.1401525735855103,0.9218618869781494
1761479511680166000,3.848165771484375,0.8882582187652588,0.7408437728881836,0.1399531364440918
1761479511690201900,3.858201904296875,0.967893123626709,-0.00748479226604104,-0.6112457513809204
1761479511700238600,3.868238525390625,1.1020253896713257,-0.5834285616874695,-1.1266522407531738
1761479511710274800,3.87827490234375,1.3044536113739014,-0.2933085858821869,-1.6369980573654175
1761479511720310800,3.888310791015625,1.4430562257766724,-0.3828990161418915,-2.120534658432007
1761479511730346800,3.8983466796875,1.2327522039413452,-0.019724009558558464,-2.1833014488220215
1761479511740382700,3.9083828125,0.5154038667678833,0.6905268430709839,-1.9583547115325928
1761479511750418700,3.918418701171875,-0.6729062795639038,0.9511403441429138,-1.2879254817962646
1761479511760454700,3.92845458984375,-1.5134587287902832,0.8563000559806824,-0.4730599522590637
1761479511770490600,3.93849072265625,-1.7504891157150269,0.7669254541397095,0.102093905210495
1761479511780527600,3.948527587890625,-1.5000184774398804,0.6114466190338135,0.2836386561393738
1761479511790563600,3.9585634765625,-1.0286341905593872,0.47569945454597473,0.15881763398647308
1761479511800599600,3.968599609375,-0.648300051689148,0.33167412877082825,-0.24746505916118622
1761479511810635500,3.978635498046875,-0.5342895984649658,0.3331433832645416,-0.8094362616539001
1761479511820671500,3.98867138671875,-0.7295622825622559,0.3416115343570709,-1.300951600074768
1761479511830707500,3.99870751953125,-1.1485968828201294,0.3546130955219269,-1.608572006225586
1761479511840742700,4.00874267578125,-1.5686832666397095,0.4491286873817444,-1.579756259918213
1761479511850778600,4.018778564453125,-1.7455490827560425,0.4963398575782776,-1.3268710374832153
1761479511860814600,4.028814697265625,-1.5362236499786377,0.37480857968330383,-0.9649115800857544
1761479511870850600,4.0388505859375,-0.9759531021118164,0.10230036824941635,-0.5651156902313232
1761479511880886500,4.048886474609375,-0.19745990633964539,-0.21636579930782318,-0.11685670912265778
1761479511890922500,4.058922607421875,0.483001172542572,-0.6238675117492676,0.3876034915447235
1761479511900959700,4.068959716796875,0.8573295474052429,-1.0113136768341064,0.7901471853256226
1761479511910995700,4.07899560546875,0.930993378162384,-1.1356725692749023,0.9151149392127991
1761479511921031700,4.08903173828125,0.7875540852546692,-0.8345165252685547,0.738574206829071
1761479511931067600,4.099067626953125,0.5509423017501831,-0.3346549868583679,0.388231098651886
1761479511941103600,4.109103515625,0.25736203789711,-0.06342531740665436,0.24213089048862457
1761479511951139600,4.1191396484375,0.008596980944275856,-0.06397126615047455,0.29561278223991394
1761479511961175800,4.12917578125,-0.14491866528987885,-0.10202246904373169,0.5540509819984436
1761479511971211800,4.139211669921875,-0.2709117531776428,-0.24199849367141724,0.8689095973968506
1761479511981247700,4.149247802734375,-0.3069756329059601,-0.2880377769470215,1.098174810409546
1761479511991284700,4.15928466796875,-0.16964814066886902,-0.13735239207744598,1.1678290367126465
1761479512001320700,4.16932080078125,0.03974024951457977,-0.15538614988327026,1.011623740196228
1761479512011356700,4.179356689453125,0.2348538190126419,-0.27388671040534973,0.7428532242774963
1761479512021392600,4.189392578125,0.3412928879261017,-0.3091193735599518,0.3812207579612732
1761479512031428600,4.1994287109375,0.38103654980659485,-0.3374338448047638,-0.11535625904798508
1761479512041464600,4.209464599609375,0.2717136740684509,-0.22031381726264954,-0.5031014680862427
1761479512051501000,4.2195009765625,0.13313929736614227,-0.1452914923429489,-0.6772751808166504
1761479512061537000,4.229537109375,-0.054480113089084625,-0.029496047645807266,-0.6360258460044861
1761479512071574000,4.239573974609375,-0.19204968214035034,0.2201276272535324,-0.38929277658462524
1761479512081610000,4.24960986328125,-0.2613924741744995,0.4876035153865814,-0.0019732783548533916
1761479512091646000,4.25964599609375,-0.256087988615036,0.5432323813438416,0.4590795636177063
1761479512101682000,4.269681884765625,-0.19973015785217285,0.27130475640296936,0.6528064012527466
1761479512111718000,4.2797177734375,-0.12786617875099182,-0.18930037319660187,0.5576387047767639
1761479512121753900,4.28975390625,-0.12239979207515717,-0.5290149450302124,0.40324875712394714
1761479512131789800,4.299789794921875,-0.10628021508455276,-0.8224404454231262,0.39770832657814026
1761479512141826000,4.309825927734375,-0.10506779700517654,-0.9205431938171387,0.5755387544631958
1761479512151863000,4.319863037109375,-0.06537524610757828,-0.627469003200531,0.7283048629760742
1761479512161899000,4.32989892578125,0.04644160717725754,-0.18620240688323975,0.6242842078208923
1761479512171935000,4.33993505859375,0.19608676433563232,-0.041050542145967484,0.38041964173316956
1761479512181971200,4.34997119140625,0.41854289174079895,-0.3386141061782837,0.027530865743756294
1761479512192007200,4.360007080078125,0.6701977849006653,-0.4894118905067444,-0.2734966278076172
1761479512202043100,4.370043212890625,0.8042325973510742,-0.30073443055152893,-0.4134025275707245
1761479512212079000,4.3800791015625,0.811202347278595,-0.05071365460753441,-0.368611603975296
1761479512222115000,4.390114990234375,0.770923912525177,0.10248587280511856,-0.35211798548698425
1761479512232151000,4.400151123046875,0.7761765122413635,0.08257874101400375,-0.5673256516456604
1761479512242188000,4.41018798828125,0.718281626701355,-0.06592119485139847,-0.9327753186225891
1761479512252224000,4.42022412109375,0.4026975631713867,-0.2890022099018097,-1.1779358386993408
1761479512262260000,4.430260009765625,-0.34748411178588867,-0.5261649489402771,-1.0050780773162842
1761479512272296000,4.4402958984375,-1.1379516124725342,-0.558835506439209,-0.5974446535110474
1761479512282332000,4.450331787109375,-1.5344022512435913,-0.1096302792429924,-0.10623263567686081
1761479512292368000,4.460367919921875,-1.4743834733963013,0.3379096984863281,0.1641266942024231
1761479512302403800,4.47040380859375,-1.1336989402770996,0.5798289775848389,0.06090550869703293
1761479512312439800,4.480439697265625,-0.8004909157752991,0.6042456030845642,-0.36619389057159424
1761479512322477000,4.49047705078125,-0.5971030592918396,0.5518873929977417,-0.8279421925544739
1761479512332513000,4.500512939453125,-0.5201196074485779,0.695254385471344,-1.1769979000091553
1761479512342549000,4.510549072265625,-0.6110715866088867,0.5847241878509521,-1.4510962963104248
1761479512352585000,4.5205849609375,-0.7918272614479065,0.6490933299064636,-1.3115559816360474
1761479512362621200,4.53062109375,-1.0096365213394165,0.9912851452827454,-0.9577445983886719
1761479512372657200,4.5406572265625,-1.1040527820587158,1.2014192342758179,-0.5128947496414185
1761479512382693000,4.550693115234375,-0.9684646129608154,1.173499584197998,-0.07748518139123917
1761479512392729000,4.56072900390625,-0.6793236136436462,0.8480036854743958,0.2882978618144989
1761479512402766000,4.57076611328125,-0.2825448215007782,0.26349830627441406,0.4715622663497925
1761479512412802000,4.580802001953125,0.19177082180976868,-0.32780465483665466,0.46868738532066345
1761479512422839000,4.590839111328125,0.6198734641075134,-0.7288027405738831,0.34485000371932983
1761479512432875000,4.600875,0.9090560078620911,-0.7530966401100159,0.13515885174274445
1761479512442911200,4.6109111328125,1.0209178924560547,-0.4663802981376648,-0.04203355312347412
1761479512452947200,4.620947265625,0.9815643429756165,-0.15543413162231445,-0.070891834795475
1761479512462983200,4.630983154296875,0.7974779009819031,-0.0005098236724734306,0.13525307178497314
1761479512473019100,4.64101904296875,0.5664049983024597,-0.09957701712846756,0.4567546844482422
1761479512483056000,4.65105615234375,0.31467440724372864,-0.27642908692359924,0.7747355103492737
1761479512493092000,4.661092041015625,0.13735182583332062,-0.40263256430625916,0.9690772891044617
1761479512503128000,4.671128173828125,0.056814104318618774,-0.5047368407249451,0.9696709513664246
1761479512513164000,4.6811640625,0.013480213470757008,-0.47705167531967163,0.8393462300300598
1761479512523200000,4.691199951171875,0.04007585346698761,-0.3889209032058716,0.6412814855575562
1761479512533236000,4.701236083984375,0.12380483746528625,-0.3317979574203491,0.4425486624240875
1761479512543272000,4.71127197265625,0.19723471999168396,-0.2538359761238098,0.26751118898391724
1761479512553308000,4.721307861328125,0.2082735300064087,-0.19873249530792236,0.09324219077825546
1761479512563344100,4.73134423828125,0.1119837760925293,-0.1858643889427185,-0.07755564898252487
1761479512573380900,4.741380859375,-0.04556962475180626,-0.15841972827911377,-0.17310668528079987
1761479512583416800,4.751416748046875,-0.1922997385263443,-0.1432403326034546,-0.1595122516155243
1761479512593453000,4.761453125,-0.29319944977760315,-0.13139300048351288,0.020822102203965187
1761479512603489000,4.771489013671875,-0.2969996929168701,-0.06467648595571518,0.3814718425273895
1761479512613525200,4.781525146484375,-0.22032569348812103,-0.10102890431880951,0.7333654165267944
1761479512623561200,4.791561279296875,-0.1405467391014099,-0.3005811274051666,0.947675347328186
1761479512633597200,4.80159716796875,-0.10513095557689667,-0.6124055981636047,1.0122500658035278
1761479512643633200,4.811633056640625,-0.07330448180437088,-0.7871502041816711,0.9785006642341614
1761479512653670100,4.821670166015625,0.035637978464365005,-0.7313175797462463,0.8366053104400635
1761479512663706000,4.8317060546875,0.26673439145088196,-0.43918636441230774,0.5711843371391296
1761479512673742000,4.8417421875,0.5264163613319397,-0.17358213663101196,0.37618690729141235
1761479512683778000,4.851778076171875,0.7344301342964172,-0.033413365483284,0.36315762996673584
1761479512693814000,4.86181396484375,0.8553216457366943,-0.1422671377658844,0.4428921341896057
1761479512703850000,4.87185009765625,0.9008525609970093,-0.22813382744789124,0.48534074425697327
1761479512713886000,4.881885986328125,0.9063556790351868,-0.026488592848181725,0.4253791272640228
1761479512723922000,4.891921875,0.9630628824234009,0.1106535941362381,0.2134067863225937
1761479512733959000,4.901958984375,1.2048473358154297,0.07350782305002213,-0.02037082426249981
1761479512743995000,4.911994873046875,1.5411370992660522,-0.06466278433799744,-0.21615815162658691
1761479512754030800,4.92203076171875,1.539739966392517,-0.08510148525238037,-0.38969504833221436
1761479512764066800,4.93206689453125,0.9631261229515076,0.11022984236478806,-0.5948794484138489
1761479512774103000,4.94210302734375,-0.27535349130630493,0.39246073365211487,-0.7107943296432495
1761479512784139000,4.952138916015625,-1.430161476135254,0.7575244903564453,-0.6594310402870178
1761479512794175200,4.96217529296875,-1.811316728591919,0.9333631992340088,-0.5222944617271423
1761479512804211200,4.972211181640625,-1.4658113718032837,0.7841869592666626,-0.41125398874282837
1761479512814248200,4.982248291015625,-0.8266460299491882,0.5121123194694519,-0.28151941299438477
1761479512824284200,4.9922841796875,-0.3466670513153076,0.4023057222366333,-0.1767292618751526
1761479512834320100,5.002320068359375,-0.2924157977104187,0.36408406496047974,-0.09960731863975525
1761479512844356000,5.012356201171875,-0.5394595265388489,0.4149585962295532,-0.03819812834262848
1761479512854392000,5.02239208984375,-0.9705805778503418,0.47884249687194824,-0.034748271107673645
1761479512864428000,5.032427978515625,-1.3101853132247925,0.6007845997810364,-0.17627987265586853
1761479512874464000,5.042464111328125,-1.361248254776001,0.6482146978378296,-0.3328827917575836
1761479512884500000,5.0525,-1.0932507514953613,0.5543618202209473,-0.4862864315509796
1761479512894537000,5.062536865234375,-0.6572591662406921,0.41549789905548096,-0.5716215372085571
1761479512904573000,5.072572998046875,-0.2161741703748703,0.2352643609046936,-0.5150301456451416
1761479512914609000,5.08260888671875,0.09199216961860657,0.026440300047397614,-0.3782789409160614
1761479512924644900,5.092644775390625,0.3282695710659027,-0.09499487280845642,-0.28507962822914124
1761479512934680800,5.102680908203125,0.45518437027931213,-0.156202033162117,-0.27019813656806946
1761479512944717000,5.112717041015625,0.46798157691955566,-0.1439688801765442,-0.3193379044532776
1761479512954753000,5.1227529296875,0.4154698848724365,-0.13343021273612976,-0.3462912440299988
1761479512964789200,5.132789306640625,0.2997409701347351,-0.1347036510705948,-0.3220472037792206
1761479512974826000,5.142825927734375,0.20476411283016205,-0.21563126146793365,-0.24106420576572418
1761479512984862200,5.1528623046875,0.20956625044345856,-0.33110639452934265,-0.03969966620206833
1761479512994898200,5.162898193359375,0.26700395345687866,-0.4467581510543823,0.22252316772937775
1761479513004934100,5.17293408203125,0.3243107795715332,-0.556776225566864,0.44248607754707336
1761479513014970000,5.18297021484375,0.3146001100540161,-0.6484605669975281,0.5557039976119995
1761479513025006000,5.193006103515625,0.2696564793586731,-0.6065515279769897,0.508628249168396
1761479513035042000,5.2030419921875,0.3420984447002411,-0.46031656861305237,0.3205033540725708
1761479513045078000,5.213078125,0.18168878555297852,-0.3538792133331299,0.16600240767002106
1761479513055114200,5.2231142578125,0.0679078921675682,-0.2345152646303177,0.06401905417442322
1761479513065150200,5.233150146484375,-0.03168351948261261,-0.07002624869346619,0.01296168938279152
1761479513075186200,5.243186279296875,-0.11432673037052155,0.05455109849572182,0.0027359500527381897
1761479513085222100,5.25322216796875,-0.13686352968215942,0.16959790885448456,-0.006912608165293932
1761479513095258000,5.263258056640625,-0.14641709625720978,0.147001251578331,-0.017704002559185028
1761479513105294300,5.27329443359375,-0.18655648827552795,-0.00017631729133427143,0.02813568525016308
1761479513115330300,5.283330322265625,-0.2518870234489441,-0.23316030204296112,0.12843139469623566
1761479513125366300,5.2933662109375,-0.23521962761878967,-0.47409820556640625,0.20904111862182617
1761479513135403500,5.303403564453125,-0.19064922630786896,-0.5967420935630798,0.314025342464447
1761479513145439500,5.313439453125,-0.08844584226608276,-0.4904412627220154,0.5268775820732117
1761479513155475500,5.323475341796875,0.06614426523447037,-0.4502352774143219,0.71610027551651
1761479513165511400,5.333511474609375,0.2632629871368408,-0.4596971273422241,0.7692209482192993
1761479513175547400,5.34354736328125,0.5314483642578125,-0.4452145993709564,0.6505465507507324
1761479513185583400,5.353583251953125,0.799986720085144,-0.4124882221221924,0.3640749156475067
1761479513195619300,5.363619384765625,0.9312190413475037,-0.28027108311653137,0.12107265740633011
1761479513205655300,5.3736552734375,0.9509859681129456,0.06382589787244797,0.01939602941274643
1761479513215691300,5.383691162109375,0.9151946902275085,0.38384729623794556,0.06564581394195557
1761479513225728300,5.393728271484375,0.8848291635513306,0.4217880964279175,0.2317204773426056
1761479513235764200,5.40376416015625,0.8887988924980164,0.37790748476982117,0.23478178679943085
1761479513245800200,5.41380029296875,1.0034630298614502,0.040364496409893036,-0.04896315559744835
1761479513255836200,5.423836181640625,1.138766884803772,0.0907677561044693,-0.46091610193252563
1761479513265872100,5.4338720703125,0.8074637651443481,0.22861827909946442,-0.9720926880836487
1761479513275908400,5.443908447265625,-0.19878265261650085,0.06143834814429283,-1.232214331626892
1761479513285944300,5.4539443359375,-1.4326893091201782,0.1280316859483719,-1.1387676000595093
1761479513295980300,5.463980224609375,-2.1686041355133057,0.4267358183860779,-0.7199620604515076
1761479513306017300,5.474017333984375,-2.2758281230926514,0.637891411781311,-0.11295504122972488
1761479513316053500,5.484053466796875,-1.75700843334198,1.0840444564819336,0.4551006853580475
1761479513326089500,5.49408935546875,-1.029130220413208,1.1563698053359985,0.6672595739364624
1761479513336125400,5.50412548828125,-0.4780891239643097,0.756514847278595,0.6302645206451416
1761479513346161400,5.514161376953125,-0.11195527017116547,0.2194383442401886,0.38970890641212463
1761479513356197400,5.524197265625,0.08171379566192627,-0.03986300155520439,-0.007436586543917656
1761479513366233300,5.5342333984375,0.0641157329082489,-0.0117654949426651,-0.4009115993976593
1761479513376269300,5.544269287109375,-0.17342650890350342,0.3059064745903015,-0.679374635219574
1761479513386306300,5.554306396484375,-0.5147680044174194,0.5976290702819824,-0.7840635180473328
1761479513396342300,5.56434228515625,-0.7412016987800598,0.875903308391571,-0.7686536908149719
1761479513406378200,5.574378173828125,-0.7995923161506653,1.0327287912368774,-0.6552990078926086
1761479513416414200,5.584414306640625,-0.6982553005218506,0.8660780191421509,-0.5387223362922668
1761479513426450200,5.5944501953125,-0.36624377965927124,0.7423524260520935,-0.47372907400131226
1761479513436486100,5.604486083984375,0.10066108405590057,0.5610076785087585,-0.4840483069419861
1761479513446522000,5.614522216796875,0.5044218301773071,0.20681032538414001,-0.4747975766658783
1761479513456558300,5.624558349609375,0.7699943780899048,-0.19140389561653137,-0.38499951362609863
1761479513466595000,5.634594970703125,0.847335159778595,-0.32588133215904236,-0.33096712827682495
1761479513476631300,5.64463134765625,0.6778875589370728,-0.3928702175617218,-0.21536436676979065
1761479513486667500,5.65466748046875,0.403861939907074,-0.4476427435874939,-0.028245091438293457
1761479513496703500,5.664703369140625,0.11883658915758133,-0.2989179790019989,0.21618835628032684
1761479513506739500,5.674739501953125,-0.1653558909893036,-0.15631547570228577,0.45129483938217163
1761479513516775400,5.684775390625,-0.3435328006744385,-0.052350446581840515,0.6746805310249329
1761479513526811400,5.694811279296875,-0.3865671455860138,-0.02623814158141613,0.8539243936538696
1761479513536847400,5.704847412109375,-0.3085884749889374,-0.15356360375881195,0.9356722235679626
1761479513546883300,5.71488330078125,-0.2060672491788864,-0.3946664333343506,0.9287340044975281
1761479513556920300,5.72492041015625,-0.15725257992744446,-0.5955010652542114,0.8637912273406982
1761479513566956300,5.734956298828125,-0.037311308085918427,-0.6711866855621338,0.8105908632278442
1761479513576992300,5.7449921875,0.14187495410442352,-0.6873962879180908,0.665654718875885
1761479513587028200,5.7550283203125,0.2735055088996887,-0.631058394908905,0.4955533444881439
1761479513597064200,5.765064208984375,0.20733262598514557,-0.5782729387283325,0.38856804370880127
1761479513607100200,5.77510009765625,0.06472842395305634,-0.40385934710502625,0.3043735921382904
1761479513617136000,5.78513623046875,-0.0923493355512619,-0.26138103008270264,0.3029157817363739
1761479513627172400,5.79517236328125,-0.18709531426429749,-0.3082199990749359,0.38664552569389343
1761479513637209000,5.805208984375,-0.1200166791677475,-0.3848372995853424,0.472526878118515
1761479513647245000,5.8152451171875,0.1441575288772583,-0.3873921036720276,0.6080171465873718
1761479513657281300,5.82528125,0.43878063559532166,-0.40545153617858887,0.734883725643158
1761479513667317500,5.8353173828125,0.6635160446166992,-0.2969309091567993,0.7811835408210754
1761479513677353500,5.845353515625,0.7629435658454895,-0.16268949210643768,0.6265947222709656
1761479513687389400,5.855389404296875,0.6833835244178772,-0.25081223249435425,0.337716281414032
1761479513697425400,5.86542529296875,0.49399206042289734,-0.34900563955307007,-0.0008502983255311847
1761479513707461400,5.87546142578125,0.32755541801452637,-0.25346484780311584,-0.32303324341773987
1761479513717497300,5.885497314453125,0.41496890783309937,-0.16269420087337494,-0.5042517781257629
1761479513727534300,5.895534423828125,0.8358921408653259,-0.22077789902687073,-0.5479051470756531
1761479513737570300,5.9055703125,1.42221200466156,-0.3002335727214813,-0.5760193467140198
1761479513747606300,5.915606201171875,1.5800154209136963,-0.03838948905467987,-0.7528254985809326
1761479513757642200,5.925642333984375,0.974027156829834,0.20373447239398956,-0.8489277958869934
1761479513767678200,5.93567822265625,-0.2240932732820511,0.31291329860687256,-0.8969466686248779
1761479513777714200,5.945714111328125,-1.5114070177078247,0.46325191855430603,-0.9280571341514587
1761479513787750100,5.955750244140625,-2.1569101810455322,0.7261008620262146,-0.8440510630607605
1761479513797786000,5.9657861328125,-2.0470893383026123,0.7906151413917542,-0.712803304195404
1761479513807823000,5.975822998046875,-1.4637229442596436,0.7354074716567993,-0.6528401374816895
1761479513817859000,5.985859130859375,-0.6883134841918945,0.5780783295631409,-0.7715833187103271
1761479513827895300,5.995895263671875,-0.09329597651958466,0.3649677634239197,-0.9954935312271118
1761479513837931500,6.005931640625,0.18758602440357208,0.3535473048686981,-1.2364184856414795
1761479513847967500,6.015967529296875,0.11753929406404495,0.38602402806282043,-1.4028517007827759
1761479513858003500,6.02600341796875,-0.27757152915000916,0.3834410309791565,-1.4685460329055786
1761479513868039400,6.036039306640625,-0.8185243010520935,0.4977557957172394,-1.3823918104171753
1761479513878075400,6.046075439453125,-1.236098289489746,0.6766011118888855,-1.0671101808547974
1761479513888111400,6.056111328125,-1.2446473836898804,0.6755373477935791,-0.579247236251831
1761479513898148400,6.0661484375,-0.8545987010002136,0.5453383326530457,-0.028293319046497345
1761479513908184300,6.076184326171875,-0.2464868575334549,0.35242241621017456,0.3549855053424835
1761479513918220300,6.08622021484375,0.294307142496109,0.2172187864780426,0.47404640913009644
1761479513928256300,6.09625634765625,0.559958815574646,0.2212231159210205,0.2910315692424774
1761479513938292200,6.106292236328125,0.6268464922904968,0.19297389686107635,0.001204823493026197
1761479513948328200,6.116328125,0.5734396576881409,0.18621030449867249,-0.2125510424375534
1761479513958364200,6.1263642578125,0.42779427766799927,0.2622944116592407,-0.25800958275794983
1761479513968400100,6.136400146484375,0.2782791554927826,0.33509600162506104,-0.05908714607357979
1761479513978436400,6.146436279296875,0.12692879140377045,0.5208285450935364,0.20760951936244965
1761479513988473000,6.15647314453125,0.06642831861972809,0.7357429265975952,0.41097185015678406
1761479513998509000,6.166509033203125,0.07568520307540894,0.7364779710769653,0.6336115598678589
1761479514008545300,6.176545166015625,0.09097612649202347,0.3852922022342682,0.9195613861083984
1761479514018581500,6.18658154296875,0.0726783499121666,0.04043787345290184,1.074954628944397
1761479514028617500,6.196617431640625,-0.029458463191986084,-0.22242553532123566,1.1281017065048218
1761479514038653400,6.2066533203125,-0.22787222266197205,-0.3403438925743103,1.0474090576171875
1761479514048689400,6.216689453125,-0.45113545656204224,-0.2336471527814865,0.8468515872955322
1761479514058724600,6.226724609375,-0.5953949093818665,-0.13118362426757812,0.634526252746582
1761479514068760600,6.236760498046875,-0.6093352437019348,-0.1494264006614685,0.41813555359840393
1761479514078797800,6.2467978515625,-0.4799303412437439,-0.21905209124088287,0.22400787472724915
1761479514088833800,6.256833740234375,-0.24344632029533386,-0.26434066891670227,0.0338948592543602
1761479514098869800,6.266869873046875,0.08531665056943893,-0.08828120678663254,-0.0854581668972969
1761479514108905700,6.27690576171875,0.16159673035144806,-0.015724705532193184,0.017934096977114677
1761479514118941700,6.286941650390625,0.09217344969511032,-0.1618366539478302,0.1778731644153595
1761479514128977700,6.296977783203125,0.07718312740325928,-0.07481444627046585,0.26265114545822144
1761479514139014000,6.307013916015625,0.1526869386434555,0.0639202669262886,0.3483639359474182
1761479514149049900,6.3170498046875,0.2934492230415344,-0.03499492257833481,0.4471886456012726
1761479514159085800,6.3270859375,0.5208043456077576,-0.24785500764846802,0.5719561576843262
1761479514169122800,6.337122802734375,0.6823206543922424,-0.4836667478084564,0.671845555305481
1761479514179158800,6.34715869140625,0.6686514616012573,-0.543131411075592,0.6244990825653076
1761479514189194800,6.35719482421875,0.49469777941703796,-0.5037285089492798,0.4130752980709076
1761479514199230700,6.367230712890625,0.2975013554096222,-0.3315868079662323,0.18972262740135193
1761479514209266700,6.3772666015625,0.2752020061016083,-0.09201248735189438,-0.0046137128956615925
1761479514219302700,6.387302734375,0.481106162071228,-0.0174703449010849,-0.054906975477933884
1761479514229338600,6.397338623046875,0.7766873240470886,-0.13640545308589935,-0.10425195097923279
1761479514239374600,6.40737451171875,1.043703556060791,-0.2815847396850586,-0.2902686893939972
1761479514249410600,6.41741064453125,1.0886614322662354,-0.3054793179035187,-0.681736171245575
1761479514259446500,6.427446533203125,0.7843729853630066,-0.1439056098461151,-1.0924681425094604
1761479514269483800,6.43748388671875,0.29235875606536865,0.08349332958459854,-1.2961012125015259
1761479514279519700,6.447519775390625,-0.3055989444255829,0.23815855383872986,-1.293614387512207
1761479514289555700,6.4575556640625,-0.8493958711624146,0.3129445016384125,-1.1765700578689575
1761479514299591700,6.467591796875,-1.2283012866973877,0.34151649475097656,-1.163223147392273
1761479514309627600,6.477627685546875,-1.3334144353866577,0.4547424912452698,-1.2300388813018799
1761479514319663900,6.487663818359375,-1.2139298915863037,0.7147551774978638,-1.2434576749801636
1761479514329699800,6.497699951171875,-0.9960386157035828,0.9779126048088074,-1.1890573501586914
1761479514339735800,6.50773583984375,-0.7941688895225525,1.0805420875549316,-0.9349087476730347
1761479514349771800,6.517771728515625,-0.6252527236938477,0.8749071359634399,-0.5691604018211365
1761479514359808800,6.527808837890625,-0.5242469906806946,0.5026150345802307,-0.2553846538066864
1761479514369844700,6.5378447265625,-0.48645612597465515,0.21883347630500793,-0.1670859158039093
1761479514379880700,6.547880615234375,-0.4480871558189392,0.061709094792604446,-0.22183145582675934
1761479514389916700,6.557916748046875,-0.3302617073059082,-0.12625843286514282,-0.21347986161708832
1761479514399952600,6.56795263671875,-0.11129685491323471,-0.10620588064193726,-0.13941575586795807
1761479514409988600,6.577988525390625,0.19795648753643036,0.12342936545610428,-0.12811990082263947
1761479514420024600,6.588024658203125,0.4331865906715393,0.34592822194099426,-0.1616046130657196
1761479514430060500,6.598060546875,0.5213285684585571,0.3215796649456024,-0.08824236690998077
1761479514440096500,6.608096435546875,0.5893020033836365,0.17929336428642273,0.10336434841156006
1761479514450133800,6.6181337890625,0.6444645524024963,-0.12974651157855988,0.36060553789138794
1761479514460169700,6.628169677734375,0.7179598212242126,-0.47261011600494385,0.6213441491127014
1761479514470205700,6.638205810546875,0.7962803244590759,-0.6576663255691528,0.8801803588867188
1761479514480241700,6.64824169921875,0.818979024887085,-0.581373929977417,0.9551457166671753
1761479514490278000,6.65827783203125,0.7574529051780701,-0.2338327020406723,0.9526847004890442
1761479514500313900,6.66831396484375,0.4923858046531677,-0.049707598984241486,1.0319013595581055
1761479514510349800,6.678349853515625,0.13702785968780518,0.032929833978414536,1.2157107591629028
1761479514520385800,6.6883857421875,-0.22739697992801666,0.22161851823329926,1.4842796325683594
1761479514530421800,6.698421875,-0.5539957880973816,0.4418744146823883,1.7010048627853394
1761479514540458800,6.708458740234375,-0.8830282688140869,0.6163862943649292,1.8247387409210205
1761479514550494700,6.71849462890625,-1.2221778631210327,0.5344101190567017,1.8977653980255127
1761479514560530700,6.72853076171875,-1.3749034404754639,0.313149631023407,1.850733757019043
1761479514570566700,6.738566650390625,-1.6377867460250854,0.2729775309562683,1.8622002601623535
1761479514580602600,6.7486025390625,-1.5144586563110352,-0.403524249792099,0.9523685574531555
1761479514590638600,6.758638671875,-0.9921057820320129,-0.18911272287368774,0.48244765400886536
1761479514600674600,6.768674560546875,-0.2785085439682007,-0.26489269733428955,-0.021665062755346298
1761479514610710500,6.77871044921875,0.14737164974212646,-0.3233729600906372,-0.49089086055755615
1761479514620746500,6.78874658203125,0.34639713168144226,-0.5039360523223877,-0.7877675294876099
1761479514630782700,6.79878271484375,0.3253854215145111,-0.8596006631851196,-0.7145274877548218
1761479514640819700,6.80881982421875,0.3251827657222748,-0.9929003715515137,-0.47403019666671753
