time,seconds_elapsed,z,y,x
1761479507911595500,0.079595458984375,0.19360168278217316,-0.5445112586021423,0.19987636804580688
1761479507921631500,0.089631591796875,0.3480066955089569,-0.4799942970275879,0.14784644544124603
1761479507931667500,0.09966748046875,0.5117484927177429,-0.4169149398803711,0.07510380446910858
1761479507941703700,0.10970361328125,0.6239544153213501,-0.2898848056793213,-0.00307568465359509
1761479507951740400,0.119740478515625,0.6842728853225708,-0.18766869604587555,-0.12054851651191711
1761479507961776400,0.1297763671875,0.7197123765945435,-0.06712231040000916,-0.21423159539699554
1761479507971812600,0.1398125,0.6963849067687988,-0.07633019238710403,-0.18586280941963196
1761479507981848600,0.1498486328125,0.5279368162155151,-0.249965101480484,0.04303428530693054
1761479507991884500,0.159884521484375,0.3311574161052704,-0.32723724842071533,0.36435267329216003
1761479508001920500,0.16992041015625,0.17111901938915253,-0.2848849892616272,0.6649646759033203
1761479508011956500,0.17995654296875,0.057199105620384216,-0.22346824407577515,0.7937471866607666
1761479508021993700,0.18999365234375,0.019589412957429886,-0.18393094837665558,0.7794651389122009
1761479508032029700,0.20002978515625,0.11458303779363632,-0.17406927049160004,0.6898407340049744
1761479508042065700,0.210065673828125,0.321654736995697,-0.1628861278295517,0.5418965816497803
1761479508052102000,0.220101806640625,0.5386688113212585,-0.15526175498962402,0.38847798109054565
1761479508062137900,0.230137939453125,0.6993575692176819,-0.19454897940158844,0.252621591091156
1761479508072173800,0.240173828125,0.7460874915122986,-0.20292675495147705,0.180723175406456
1761479508082209800,0.250209716796875,0.5178077220916748,-0.20179463922977448,0.23877103626728058
1761479508092247000,0.2602470703125,0.14760597050189972,0.010889665223658085,0.21748092770576477
1761479508102283000,0.270282958984375,-0.08894532173871994,0.10244355350732803,0.10123953223228455
1761479508112319000,0.280319091796875,-0.07543563842773438,0.34952259063720703,0.009720271453261375
1761479508122355000,0.29035498046875,-0.016051137819886208,0.3119211494922638,-0.05837755650281906
1761479508132391000,0.300390869140625,-0.011693674139678478,0.012399145402014256,-0.06509937345981598
1761479508142427000,0.310427001953125,-0.0917365774512291,-0.29288965463638306,-0.05551998317241669
1761479508152462800,0.320462890625,-0.2975187599658966,-0.4712008237838745,-0.08248768746852875
1761479508162499000,0.3304990234375,-0.5506189465522766,-0.6531434655189514,-0.17266099154949188
1761479508172535800,0.340535888671875,-0.719833254814148,-0.7453785538673401,-0.26546549797058105
1761479508182571800,0.35057177734375,-0.7083560824394226,-0.6776695847511292,-0.305554062128067
1761479508192608000,0.36060791015625,-0.6170163154602051,-0.42982009053230286,-0.2383449226617813
1761479508202644000,0.37064404296875,-0.5223976969718933,-0.21706600487232208,-0.14126764237880707
1761479508212680000,0.380679931640625,-0.5302191376686096,-0.17063485085964203,-0.027058249339461327
1761479508222716000,0.3907158203125,-0.5549982190132141,-0.23553742468357086,-0.05992139130830765
1761479508232751900,0.400751953125,-0.566655158996582,-0.18667080998420715,-0.20168039202690125
1761479508242789000,0.4107890625,-0.547374963760376,-0.07023927569389343,-0.4030638337135315
1761479508252825000,0.4208251953125,-0.4356265664100647,0.09942325949668884,-0.6213693022727966
1761479508262861000,0.430861083984375,-0.3612671196460724,0.27899569272994995,-0.7967275381088257
1761479508272897000,0.44089697265625,-0.3389708697795868,0.4419614374637604,-0.909468948841095
1761479508282933000,0.45093310546875,-0.31052377820014954,0.44912534952163696,-0.9497330188751221
1761479508292969000,0.460968994140625,-0.27445098757743835,0.4791804552078247,-0.8981010317802429
1761479508303005000,0.4710048828125,-0.20770445466041565,0.5214269757270813,-0.7606547474861145
1761479508313041000,0.481041015625,-0.14439712464809418,0.3870534300804138,-0.6202901601791382
1761479508323078000,0.491077880859375,-0.05807209014892578,0.15539118647575378,-0.559329628944397
1761479508333113900,0.50111376953125,0.07414107024669647,-0.020172646269202232,-0.5015355348587036
1761479508343149800,0.51114990234375,0.2883950471878052,-0.08327225595712662,-0.3160834014415741
1761479508353185800,0.521185791015625,0.6496336460113525,-0.03436596319079399,0.03501923754811287
1761479508363221800,0.5312216796875,0.9362941980361938,-0.18191386759281158,0.4884168207645416
1761479508373258000,0.541258056640625,1.0670136213302612,-0.42273420095443726,0.9314687848091125
1761479508383294000,0.5512939453125,1.0261121988296509,-0.5189331769943237,1.2479602098464966
1761479508393330700,0.56133056640625,0.847822368144989,-0.6053367853164673,1.3620699644088745
1761479508403367000,0.571366943359375,0.5891977548599243,-0.6340458989143372,1.3134942054748535
1761479508413403000,0.58140283203125,0.3221343755722046,-0.5759509205818176,1.170893669128418
1761479508423439000,0.591439208984375,0.06790155172348022,-0.47841691970825195,1.010252594947815
1761479508433475000,0.60147509765625,-0.08736926317214966,-0.3398318588733673,0.8770769238471985
1761479508443511000,0.611510986328125,-0.05054599791765213,-0.15344440937042236,0.7382785677909851
1761479508453547000,0.621547119140625,0.10546410828828812,0.04231656342744827,0.5049079060554504
1761479508463583000,0.6315830078125,0.21544493734836578,0.10986391454935074,0.29985862970352173
1761479508473620000,0.641619873046875,0.23847542703151703,0.18654803931713104,0.17464131116867065
1761479508483656000,0.651656005859375,0.188812255859375,0.23633530735969543,0.03861503675580025
1761479508493692000,0.66169189453125,0.055629175156354904,0.29503723978996277,-0.12951511144638062
1761479508503727900,0.671727783203125,-0.12293018400669098,0.4569683372974396,-0.3006426692008972
1761479508513763800,0.681763916015625,-0.257441908121109,0.6880015730857849,-0.42704400420188904
1761479508523799800,0.6917998046875,-0.3290386199951172,0.8098475933074951,-0.4439569413661957
1761479508533835800,0.701835693359375,-0.3329997956752777,0.8104789853096008,-0.3825407028198242
1761479508543872800,0.711872802734375,-0.2763671576976776,0.7261553406715393,-0.25289350748062134
1761479508553908700,0.72190869140625,-0.201531782746315,0.5398539304733276,-0.033848244696855545
1761479508563944700,0.73194482421875,-0.15872333943843842,0.30097076296806335,0.2205086648464203
1761479508573981000,0.74198095703125,-0.18935927748680115,0.06466900557279587,0.4636384844779968
1761479508584017000,0.752016845703125,-0.24341638386249542,-0.12056023627519608,0.636962890625
1761479508594053000,0.76205322265625,-0.2763194739818573,-0.2620268166065216,0.7090794444084167
1761479508604089000,0.772089111328125,-0.23243004083633423,-0.4167623221874237,0.7280664443969727
1761479508614126000,0.7821259765625,-0.10078040510416031,-0.609465479850769,0.7276778817176819
1761479508624162000,0.792162109375,0.08870110660791397,-0.8175515532493591,0.6961069107055664
1761479508634198000,0.802197998046875,0.3231881856918335,-0.8994006514549255,0.6700395941734314
1761479508644234000,0.81223388671875,0.5278622508049011,-0.8203257918357849,0.6251214146614075
1761479508654270000,0.82227001953125,0.7340776920318604,-0.8971979022026062,0.5049931406974792
1761479508664306000,0.832305908203125,0.8820338845252991,-1.149888277053833,0.3692401051521301
1761479508674342000,0.842341796875,0.9340206384658813,-1.4654070138931274,0.24329707026481628
1761479508684377900,0.8523779296875,0.858649730682373,-1.707821249961853,0.1552729457616806
1761479508694414800,0.862414794921875,0.6700974106788635,-1.882872223854065,0.2400655895471573
1761479508704450800,0.872450927734375,0.47136247158050537,-1.7956496477127075,0.39214247465133667
1761479508714486800,0.88248681640625,0.23038606345653534,-1.27431321144104,0.4750991463661194
1761479508724522800,0.892522705078125,-0.08615725487470627,-0.7691962718963623,0.4738181531429291
1761479508734558700,0.902558837890625,-0.5056812763214111,-0.5148388147354126,0.41655033826828003
1761479508744594700,0.9125947265625,-0.962204098701477,-0.21736747026443481,0.24293434619903564
1761479508754631000,0.922630859375,-1.2958086729049683,0.22762197256088257,-0.057249173521995544
1761479508764668000,0.93266796875,-1.3846259117126465,0.6187026500701904,-0.3703431785106659
1761479508774703900,0.942703857421875,-1.3314396142959595,0.9020131826400757,-0.5811587572097778
1761479508784740000,0.952739990234375,-1.0910874605178833,1.2772448062896729,-0.7360271215438843
1761479508794776000,0.962776123046875,-0.8488008379936218,1.5822113752365112,-0.7975651025772095
1761479508804812000,0.97281201171875,-0.7041462063789368,1.3843705654144287,-0.782895028591156
1761479508814848000,0.982847900390625,-0.5148859620094299,1.1320327520370483,-0.8210483193397522
1761479508824884000,0.992884033203125,-0.361181378364563,1.1131237745285034,-0.9028124213218689
1761479508834921000,1.0029208984375,-0.32807934284210205,1.309271216392517,-1.0150971412658691
1761479508844957000,1.01295703125,-0.3501380383968353,1.5636276006698608,-1.077341914176941
1761479508854993000,1.022992919921875,-0.3336240351200104,1.583705186843872,-1.0153144598007202
1761479508865028900,1.03302880859375,-0.23637525737285614,1.3457711935043335,-0.8133285641670227
1761479508875064800,1.04306494140625,-0.055028896778821945,0.9910160303115845,-0.503670871257782
1761479508885100800,1.053100830078125,0.13965722918510437,0.4634177088737488,-0.16730962693691254
1761479508895136800,1.06313671875,0.2860128581523895,-0.10954274237155914,0.1376396268606186
1761479508905174000,1.073174072265625,0.33683741092681885,-0.3773278594017029,0.4207059442996979
1761479508915210000,1.0832099609375,0.3399895429611206,-0.3139720559120178,0.674552321434021
1761479508925246000,1.093245849609375,0.36447036266326904,-0.13948918879032135,0.8085106611251831
1761479508935282000,1.103281982421875,0.43127548694610596,-0.011188206262886524,0.8145014643669128
1761479508945318000,1.11331787109375,0.51390141248703,-0.0678059458732605,0.7322515845298767
1761479508955353900,1.123353759765625,0.5873223543167114,-0.29496586322784424,0.5794359445571899
1761479508965390000,1.13339013671875,0.603499174118042,-0.4953990876674652,0.41763079166412354
1761479508975426800,1.1434267578125,0.5660088062286377,-0.6118170619010925,0.31657874584198
1761479508985462800,1.153462890625,0.44379183650016785,-0.657294511795044,0.30687418580055237
1761479508995499000,1.1634990234375,0.28847548365592957,-0.5208101868629456,0.3004322648048401
1761479509005535000,1.173534912109375,0.13412638008594513,-0.24801352620124817,0.22480061650276184
1761479509015571000,1.183571044921875,-0.03147616609930992,0.03422242030501366,0.0704219713807106
1761479509025607000,1.19360693359375,-0.18375279009342194,0.2757152020931244,-0.13616901636123657
1761479509035643000,1.203642822265625,-0.29483962059020996,0.4459633529186249,-0.3988991975784302
1761479509045679900,1.213679931640625,-0.3593270182609558,0.5489752292633057,-0.6588101387023926
1761479509055715800,1.2237158203125,-0.39409324526786804,0.5640990734100342,-0.8220270276069641
1761479509065752000,1.233751953125,-0.36120933294296265,0.5468327403068542,-0.817249059677124
1761479509075788000,1.2437880859375,-0.3351340591907501,0.5370341539382935,-0.6368081569671631
1761479509085824000,1.253823974609375,-0.33393484354019165,0.5603908896446228,-0.35010847449302673
1761479509095860000,1.26385986328125,-0.32628411054611206,0.5707577466964722,-0.036561205983161926
1761479509105897000,1.27389697265625,-0.33669519424438477,0.4777921438217163,0.24370001256465912
1761479509115933000,1.283932861328125,-0.3328778147697449,0.29676589369773865,0.4568237364292145
1761479509125969000,1.293968994140625,-0.23571878671646118,0.1414676457643509,0.6031729578971863
1761479509136004900,1.3040048828125,-0.05077210068702698,0.0693572387099266,0.6769046783447266
1761479509146040800,1.314040771484375,0.2291165441274643,0.05338625982403755,0.684643566608429
1761479509156076800,1.324076904296875,0.5145807862281799,-0.01056023221462965,0.6250918507575989
1761479509166113000,1.334113037109375,0.7491626739501953,-0.24096840620040894,0.4947594106197357
1761479509176149800,1.344149658203125,0.8770663142204285,-0.9866790771484375,0.29878029227256775
1761479509186185700,1.354185791015625,0.8365119695663452,-1.8122475147247314,0.03729810193181038
1761479509196222000,1.364221923828125,0.7142733931541443,-2.126350164413452,-0.14664216339588165
1761479509206258000,1.3742578125,0.6208305358886719,-1.817520022392273,-0.12327266484498978
1761479509216294000,1.3842939453125,0.554842472076416,-1.0091047286987305,0.03861397132277489
1761479509226329900,1.394329833984375,0.5207989811897278,-0.08667657524347305,0.12850843369960785
1761479509236365800,1.40436572265625,0.2425098419189453,0.4473487436771393,-0.03401762247085571
1761479509246403000,1.414403076171875,-0.3984139561653137,0.3465832471847534,-0.39141303300857544
1761479509256439000,1.42443896484375,-1.2019399404525757,-0.08696898818016052,-0.7570506930351257
1761479509266475000,1.43447509765625,-1.8256964683532715,-0.42514917254447937,-0.9744492769241333
1761479509276511000,1.444510986328125,-1.955357551574707,-0.2778222858905792,-1.1336756944656372
1761479509286547000,1.454546875,-1.6393588781356812,0.17538194358348846,-1.2079288959503174
1761479509296583000,1.4645830078125,-1.114266037940979,0.3977487087249756,-1.105882167816162
1761479509306619000,1.474618896484375,-0.5472505688667297,0.2597772479057312,-0.9125622510910034
1761479509316655900,1.48465576171875,-0.021513814106583595,0.11918524652719498,-0.8866520524024963
1761479509326691800,1.49469189453125,0.30561238527297974,0.24333035945892334,-1.023700475692749
1761479509336727800,1.504727783203125,0.3889240622520447,0.4176558256149292,-1.1287994384765625
1761479509346763800,1.514763671875,0.23806822299957275,0.5487680435180664,-1.039758563041687
1761479509356799700,1.5247998046875,0.01829272136092186,0.6129342317581177,-0.8396914601325989
1761479509366835700,1.534835693359375,-0.11432577669620514,0.6482232809066772,-0.5705215334892273
1761479509376873000,1.544873046875,-0.03232571482658386,0.6323241591453552,-0.23861311376094818
1761479509386909000,1.554908935546875,0.247333362698555,0.8299036026000977,0.028124844655394554
1761479509396945000,1.56494482421875,0.5386099219322205,0.9770293831825256,0.31681764125823975
1761479509406980900,1.57498095703125,0.715570867061615,0.7036465406417847,0.5902920365333557
1761479509417017000,1.58501708984375,0.732829749584198,0.09315124899148941,0.8478212952613831
1761479509427053000,1.595052978515625,0.5704288482666016,-0.5241228938102722,0.9723811149597168
1761479509437089000,1.605089111328125,0.30062082409858704,-0.7112666964530945,0.8798612952232361
1761479509447126000,1.6151259765625,-0.017425861209630966,-0.7567843794822693,0.7051384449005127
1761479509457162000,1.625161865234375,-0.3250531852245331,-0.8039364218711853,0.5647294521331787
1761479509467198000,1.635197998046875,-0.5657472610473633,-0.7702860236167908,0.4746599793434143
1761479509477234000,1.64523388671875,-0.6493988037109375,-0.5344106554985046,0.39250466227531433
1761479509487270000,1.655269775390625,-0.5929669141769409,-0.12412913888692856,0.2838303744792938
1761479509497305900,1.665305908203125,-0.4163056015968323,0.25912824273109436,0.13416099548339844
1761479509507341800,1.675341796875,-0.1983061581850052,0.5078347325325012,-0.026565298438072205
1761479509517378800,1.68537890625,-0.024827584624290466,0.6214161515235901,-0.2157520055770874
1761479509527414800,1.695414794921875,0.12007314711809158,0.6038142442703247,-0.3847820460796356
1761479509537451000,1.705450927734375,0.22241123020648956,0.48517388105392456,-0.5030343532562256
1761479509547487000,1.715487060546875,0.23446309566497803,0.3037036955356598,-0.4935881495475769
1761479509557523000,1.72552294921875,0.15526148676872253,0.1286328136920929,-0.27157291769981384
1761479509567559000,1.735558837890625,0.07402895390987396,0.07582206279039383,-0.00026498452643863857
1761479509577595000,1.745594970703125,0.03434811905026436,0.19913414120674133,0.1713472455739975
1761479509587631900,1.7556318359375,0.023677099496126175,0.4098588824272156,0.2179405838251114
1761479509597667800,1.765667724609375,-0.0905485451221466,0.432652086019516,0.3326687514781952
1761479509607703800,1.775703857421875,-0.1857203245162964,0.3456498086452484,0.5093287825584412
1761479509617740000,1.785739990234375,-0.18266302347183228,0.21307046711444855,0.6947963237762451
1761479509627776000,1.79577587890625,-0.11252840608358383,0.07697360962629318,0.831235945224762
1761479509637812000,1.80581201171875,0.01871855929493904,-0.06124897673726082,0.8749019503593445
1761479509647848000,1.815847900390625,0.22943904995918274,-0.2654375433921814,0.8270244598388672
1761479509657885000,1.825885009765625,0.4413795471191406,-0.47341522574424744,0.7317658066749573
1761479509667921000,1.8359208984375,0.6334000825881958,-0.6112316846847534,0.46856722235679626
1761479509677956900,1.845956787109375,0.7783405184745789,-0.6298748850822449,0.05843108519911766
1761479509687992800,1.855992919921875,0.8287128806114197,-0.5721356868743896,-0.4276573359966278
1761479509698028800,1.86602880859375,0.7455263733863831,-0.26757392287254333,-0.952189564704895
1761479509708064800,1.876064697265625,0.6456463932991028,0.08752212673425674,-1.3114206790924072
1761479509718101000,1.88610107421875,0.5376006364822388,0.479534387588501,-1.545619010925293
1761479509728138000,1.896137939453125,0.416545569896698,0.8618143796920776,-1.6592265367507935
1761479509738174000,1.906174072265625,0.21438392996788025,1.0914342403411865,-1.6617193222045898
1761479509748210000,1.9162099609375,-0.25753727555274963,0.7999792098999023,-1.4103443622589111
1761479509758246000,1.926245849609375,-0.8840243220329285,0.32655441761016846,-0.9310072660446167
1761479509768281900,1.93628173828125,-1.4411603212356567,0.239450141787529,-0.4077723026275635
1761479509778317800,1.94631787109375,-1.566307783126831,0.44871360063552856,0.0016255935188382864
1761479509788354800,1.956354736328125,-1.2456318140029907,0.6522248983383179,0.2538042962551117
1761479509798390800,1.966390869140625,-0.8057116866111755,0.5464540123939514,0.47072598338127136
1761479509808426800,1.9764267578125,-0.425624281167984,0.2805024981498718,0.6064393520355225
1761479509818463000,1.986462890625,-0.1564631164073944,0.0050099384970963,0.560824990272522
1761479509828499000,1.9964990234375,-0.031142206862568855,-0.18722528219223022,0.32728517055511475
1761479509838535000,2.006534912109375,-0.09073975682258606,-0.23467722535133362,0.05270875245332718
1761479509848571000,2.01657080078125,-0.21304649114608765,-0.11475986987352371,-0.05163869261741638
1761479509858608000,2.026608154296875,-0.2240179181098938,0.0572877898812294,0.06390654295682907
1761479509868644000,2.03664404296875,-0.08239660412073135,0.24855361878871918,0.19435828924179077
1761479509878680000,2.04668017578125,0.08566030859947205,0.40902504324913025,0.18532831966876984
1761479509888716000,2.056716064453125,0.2381342649459839,0.4784741699695587,0.1924448162317276
1761479509898752000,2.066751953125,0.4303756058216095,0.24020567536354065,0.2539433240890503
1761479509908788000,2.0767880859375,0.6329963803291321,-0.2091984897851944,0.40869322419166565
1761479509918824000,2.086823974609375,0.7923538088798523,-0.6585632562637329,0.5516802072525024
1761479509928861000,2.09686083984375,0.8676983714103699,-0.8727993965148926,0.5891351699829102
1761479509938897000,2.10689697265625,0.8092667460441589,-1.0293903350830078,0.5957054495811462
1761479509948932900,2.116932861328125,0.6415424346923828,-1.1141821146011353,0.5950703024864197
1761479509958968800,2.12696875,0.42916974425315857,-1.0593717098236084,0.6143052577972412
1761479509969004800,2.1370048828125,0.24430695176124573,-0.8966194987297058,0.608791708946228
1761479509979040800,2.147040771484375,0.1264444887638092,-0.695252001285553,0.531994640827179
1761479509989076700,2.15707666015625,0.1042153537273407,-0.4932784140110016,0.35868704319000244
1761479509999113700,2.16711376953125,0.1805090606212616,-0.29790225625038147,0.11272015422582626
1761479510009150000,2.17714990234375,0.2990303635597229,-0.17063458263874054,-0.14415611326694489
1761479510019186000,2.18718603515625,0.3893173933029175,-0.022415027022361755,-0.4016489088535309
1761479510029222000,2.197221923828125,0.39480775594711304,0.14848214387893677,-0.5606619715690613
1761479510039258000,2.207258056640625,0.292106956243515,0.3462013602256775,-0.5876645445823669
1761479510049292800,2.217292724609375,0.11855274438858032,0.5270534157752991,-0.525865912437439
1761479510059328800,2.227328857421875,-0.06187108904123306,0.62718266248703,-0.44267383217811584
1761479510069365800,2.23736572265625,-0.17474757134914398,0.6013494729995728,-0.3631680905818939
1761479510079401700,2.247401611328125,-0.20904642343521118,0.5193800330162048,-0.2285333126783371
1761479510089437700,2.257437744140625,-0.1780424416065216,0.4066316783428192,-0.007063501980155706
1761479510099473700,2.2674736328125,-0.07858429104089737,0.24654772877693176,0.19270792603492737
1761479510109509600,2.277509521484375,0.030946729704737663,0.121760793030262,0.39067932963371277
1761479510119545600,2.287545654296875,0.1275329291820526,0.030231937766075134,0.5887657999992371
1761479510129581600,2.29758154296875,0.2523856461048126,-0.004839229863137007,0.7104573249816895
1761479510139618800,2.307618896484375,0.3901458978652954,-0.03952370584011078,0.6748825907707214
1761479510149654800,2.31765478515625,0.542887806892395,-0.07306835055351257,0.4560021460056305
1761479510159690800,2.327690673828125,0.6627036929130554,-0.2242424190044403,0.08338410407304764
1761479510169727000,2.33772705078125,0.6994350552558899,-0.5026718974113464,-0.37316131591796875
1761479510179763000,2.347762939453125,0.7303106784820557,-0.7446693778038025,-0.8196767568588257
1761479510189799000,2.357798828125,0.7880669236183167,-0.782370924949646,-1.0798481702804565
1761479510199835000,2.3678349609375,0.8379905223846436,-0.6163862347602844,-1.0897012948989868
1761479510209872000,2.377871826171875,0.8796708583831787,-0.2886078357696533,-1.0843111276626587
1761479510219907800,2.387907958984375,0.7983725666999817,0.11930109560489655,-1.2600408792495728
1761479510229943800,2.39794384765625,0.2722509503364563,0.5578092336654663,-1.4113634824752808
1761479510239979800,2.407979736328125,-0.7213126420974731,0.7730640172958374,-1.207295298576355
1761479510250015700,2.418015625,-1.4955151081085205,0.9242231249809265,-0.8176636695861816
1761479510260051700,2.4280517578125,-1.708944320678711,1.0331363677978516,-0.4465748369693756
1761479510270087700,2.438087646484375,-1.4726662635803223,0.8885301351547241,-0.4277191162109375
1761479510280125000,2.448125,-1.219976544380188,0.804041862487793,-0.5221513509750366
1761479510290161000,2.458160888671875,-1.174321174621582,0.7114243507385254,-0.36387380957603455
1761479510300196900,2.46819677734375,-1.2307873964309692,0.6047367453575134,0.021871211007237434
1761479510310232800,2.47823291015625,-1.2604014873504639,0.49954402446746826,0.45625966787338257
1761479510320268800,2.488268798828125,-1.2538777589797974,0.4426032602787018,0.7918123602867126
1761479510330304800,2.4983046875,-1.1535966396331787,0.4375528395175934,0.9162027835845947
1761479510340340700,2.5083408203125,-0.996284544467926,0.48016127943992615,0.853491485118866
1761479510350377700,2.518377685546875,-0.7859459519386292,0.48606815934181213,0.6763619780540466
1761479510360413700,2.52841357421875,-0.5326913595199585,0.392823189496994,0.44385814666748047
1761479510370449700,2.53844970703125,-0.24399322271347046,0.17550897598266602,0.19638335704803467
1761479510380486000,2.54848583984375,-0.016994962468743324,-0.07750464230775833,-0.006729808170348406
1761479510390521900,2.55852197265625,0.12170832604169846,-0.25347965955734253,-0.14148788154125214
1761479510400557800,2.568557861328125,0.16192951798439026,-0.3383396863937378,-0.10397113859653473
1761479510410593800,2.57859375,0.16972112655639648,-0.30448052287101746,0.07384040206670761
1761479510420630800,2.588630859375,0.17121621966362,-0.2671089172363281,0.3371170461177826
1761479510430666800,2.598666748046875,0.2011147290468216,-0.38354578614234924,0.619178295135498
1761479510440702700,2.60870263671875,0.2709057927131653,-0.7002806067466736,0.8727724552154541
1761479510450738700,2.61873876953125,0.33833810687065125,-1.0600957870483398,0.9253243803977966
1761479510460775000,2.62877490234375,0.36790212988853455,-1.2754038572311401,0.7686716318130493
1761479510470811000,2.638810791015625,0.40010079741477966,-1.23552405834198,0.47946301102638245
1761479510480846800,2.648846923828125,0.4331043064594269,-0.9670678377151489,0.16529788076877594
1761479510490883800,2.6588837890625,0.4535272717475891,-0.6678488850593567,-0.058813516050577164
1761479510500919800,2.668919921875,0.4162541925907135,-0.4922802746295929,-0.0962546318769455
1761479510510955800,2.678955810546875,0.4300895929336548,-0.4459223449230194,0.023964188992977142
1761479510520991700,2.68899169921875,0.5030149221420288,-0.3652235269546509,0.17144152522087097
1761479510531027700,2.69902783203125,0.5374900698661804,-0.184422567486763,0.2871529459953308
1761479510541063700,2.709063720703125,0.4371357858181,0.021075723692774773,0.3299430310726166
1761479510551100000,2.719099853515625,0.28074193000793457,0.26302844285964966,0.36157286167144775
1761479510561136600,2.72913671875,0.09826425462961197,0.49934324622154236,0.4751947522163391
1761479510571172600,2.739172607421875,-0.1455923467874527,0.5731365084648132,0.6793507933616638
1761479510581208800,2.749208740234375,-0.37220898270606995,0.2654862701892853,0.825484573841095
1761479510591244800,2.759244873046875,-0.4996822476387024,-0.14657984673976898,0.7323408126831055
1761479510601280800,2.76928076171875,-0.4334110915660858,-0.33188578486442566,0.5243561863899231
1761479510611316700,2.779316650390625,-0.18720318377017975,-0.45916280150413513,0.3542132079601288
1761479510621352700,2.789352783203125,0.18598665297031403,-0.5753408074378967,0.3023279011249542
1761479510631390000,2.799389892578125,0.5758441090583801,-0.713398277759552,0.26453205943107605
1761479510641426000,2.809426025390625,0.7634417414665222,-0.6522440910339355,0.3356325924396515
1761479510651462000,2.8194619140625,0.7827861309051514,-0.6971921324729919,0.49015265703201294
1761479510661497900,2.829497802734375,0.7483797073364258,-0.7450224757194519,0.5126643776893616
1761479510671533800,2.839533935546875,0.7259473204612732,-0.620968759059906,0.30855169892311096
1761479510681569800,2.84956982421875,0.7499086260795593,-0.5737383961677551,-0.02244378998875618
1761479510691605800,2.859605712890625,0.8366999626159668,-0.6331694722175598,-0.27224937081336975
1761479510701641700,2.869641845703125,0.8791451454162598,-0.5501086711883545,-0.4378279447555542
1761479510711678700,2.8796787109375,0.6864739656448364,-0.16704225540161133,-0.5568049550056458
1761479510721714700,2.889714599609375,0.08790615200996399,0.11982733756303787,-0.6324378848075867
1761479510731750700,2.899750732421875,-0.9299417734146118,0.29983705282211304,-0.706298828125
1761479510741786600,2.90978662109375,-1.8441979885101318,0.4789639115333557,-0.7091864943504333
1761479510751822600,2.919822509765625,-2.0220961570739746,0.7575289607048035,-0.6450597047805786
1761479510761858800,2.92985888671875,-1.6462604999542236,0.8433698415756226,-0.49668699502944946
1761479510771894800,2.939894775390625,-1.0398850440979004,0.838408350944519,-0.2737838625907898
1761479510781931800,2.949931884765625,-0.42450040578842163,0.8049532175064087,-0.17198960483074188
1761479510791967700,2.9599677734375,-0.016271647065877914,0.5985337495803833,-0.22437851130962372
1761479510802004000,2.97000390625,0.10072314739227295,0.2743431329727173,-0.511517345905304
1761479510812040000,2.9800400390625,-0.11107379198074341,0.31731751561164856,-0.8991734385490417
1761479510822076000,2.990075927734375,-0.540425717830658,0.679480791091919,-1.1080299615859985
1761479510832111900,3.00011181640625,-0.8438063263893127,0.9218776822090149,-1.0157784223556519
1761479510842147800,3.01014794921875,-0.7576557397842407,0.9309707880020142,-0.7676582932472229
1761479510852183800,3.020183837890625,-0.20744852721691132,0.8526583909988403,-0.459998220205307
1761479510862220800,3.030220703125,0.33133000135421753,0.5973278284072876,-0.13629472255706787
1761479510872256800,3.0402568359375,0.7132257223129272,0.22010280191898346,0.20085933804512024
1761479510882292700,3.050292724609375,0.9326869249343872,-0.00703900121152401,0.3962315022945404
1761479510892328700,3.06032861328125,0.9674664735794067,-0.06450548768043518,0.3936524987220764
1761479510902364700,3.07036474609375,0.8851668238639832,-0.07113835960626602,0.23555633425712585
1761479510912400600,3.080400634765625,0.7766925692558289,-0.07021903246641159,0.1558079719543457
1761479510922436600,3.0904365234375,0.6474000811576843,-0.11207673698663712,0.24609020352363586
1761479510932473900,3.100473876953125,0.5094382166862488,-0.18349818885326385,0.4424908757209778
1761479510942509800,3.110509765625,0.4109313488006592,-0.3069932162761688,0.6399738788604736
1761479510952545800,3.1205458984375,0.37340447306632996,-0.4299846589565277,0.7395917773246765
1761479510962581800,3.130581787109375,0.4408668875694275,-0.5067726373672485,0.6880148649215698
1761479510972618000,3.140617919921875,0.5468335151672363,-0.5750734210014343,0.541329562664032
1761479510982654000,3.150654052734375,0.7164677977561951,-0.4893853962421417,0.4007388949394226
1761479510992690000,3.16068994140625,0.7039834856987,-0.27077051997184753,0.31238213181495667
1761479511002727000,3.170726806640625,0.6124215722084045,-0.018864234909415245,0.1986643522977829
1761479511012763000,3.180762939453125,0.44932985305786133,0.20942619442939758,0.033187247812747955
1761479511022798800,3.190798828125,0.2436848282814026,0.23678697645664215,-0.165705606341362
1761479511032834800,3.200834716796875,0.03856177255511284,0.09483010321855545,-0.32181212306022644
1761479511042870800,3.210870849609375,-0.12243164330720901,-0.035947881639003754,-0.4090830981731415
1761479511052907800,3.22090771484375,-0.1966097354888916,-0.03960759565234184,-0.3273693323135376
1761479511062943700,3.23094384765625,-0.19315961003303528,0.00759933004155755,-0.029028188437223434
1761479511072979700,3.240979736328125,-0.18159270286560059,0.02905775047838688,0.3868270814418793
1761479511083016700,3.2510166015625,-0.15951429307460785,-0.06432119756937027,0.7676545977592468
1761479511093052700,3.261052734375,-0.11040294170379639,-0.2047502100467682,0.9538971781730652
1761479511103088600,3.271088623046875,0.021501829847693443,-0.3065463602542877,0.9406255483627319
1761479511113124600,3.28112451171875,0.2345925271511078,-0.2474564015865326,0.815093457698822
1761479511123160600,3.29116064453125,0.48941096663475037,-0.07628118991851807,0.6144216060638428
1761479511133196500,3.301196533203125,0.8132655024528503,0.2647443115711212,0.2957592308521271
1761479511143232500,3.311232421875,1.0817214250564575,0.4953077435493469,0.118539959192276
1761479511153269800,3.321269775390625,1.1684054136276245,0.41768884658813477,0.08148154616355896
1761479511163305700,3.3313056640625,1.13420569896698,0.18114155530929565,0.028536302968859673
1761479511173341700,3.341341796875,1.0828386545181274,-0.030290793627500534,-0.1657351702451706
1761479511183377700,3.351377685546875,0.9954768419265747,-0.21319003403186798,-0.38035932183265686
1761479511193413600,3.36141357421875,0.9133995175361633,-0.25988084077835083,-0.47203758358955383
1761479511203449600,3.37144970703125,0.8567703366279602,-0.034378744661808014,-0.4697722792625427
1761479511213485800,3.38148583984375,0.7177479863166809,0.35340678691864014,-0.4810928702354431
1761479511223521800,3.391521728515625,0.012560798786580563,0.2802433669567108,-0.28289908170700073
1761479511233558500,3.40155859375,-0.9503732919692993,-0.24567927420139313,-0.14702139794826508
1761479511243594800,3.4115947265625,-1.7966456413269043,-0.5511928200721741,-0.14142903685569763
1761479511253630700,3.421630615234375,-1.9415807723999023,-0.13836532831192017,-0.1657162606716156
1761479511263666700,3.431666748046875,-1.5352671146392822,0.3483119010925293,-0.27965959906578064
1761479511273702700,3.44170263671875,-1.0199097394943237,0.45737528800964355,-0.3618825674057007
1761479511283738600,3.451738525390625,-0.6019793152809143,0.39264342188835144,-0.39228734374046326
1761479511293774600,3.461774658203125,-0.35767558217048645,0.31801313161849976,-0.4132480323314667
1761479511303810600,3.471810546875,-0.4459790885448456,0.2813246250152588,-0.32404783368110657
1761479511313847800,3.481847900390625,-0.7717968821525574,0.24786385893821716,-0.19419370591640472
1761479511323883800,3.4918837890625,-1.1828621625900269,0.28049159049987793,-0.08704515546560287
1761479511333919700,3.501919677734375,-1.3772026300430298,0.49415698647499084,0.044136300683021545
1761479511343955700,3.511955810546875,-1.077945590019226,0.906387984752655,0.10601884126663208
1761479511353991700,3.52199169921875,-0.6010722517967224,1.2472730875015259,0.08332232385873795
1761479511364027600,3.532027587890625,-0.18169869482517242,1.2526023387908936,0.067142553627491
1761479511374063600,3.542063720703125,0.09552359580993652,1.0351824760437012,0.01942482963204384
1761479511384100600,3.5521005859375,0.26535096764564514,0.7309066653251648,-0.15214452147483826
1761479511394136600,3.562136474609375,0.33888670802116394,0.43222013115882874,-0.36217713356018066
1761479511404172500,3.572172607421875,0.3533213138580322,0.22334600985050201,-0.4839608073234558
1761479511414208800,3.582208740234375,0.362638384103775,-0.04592541232705116,-0.49750033020973206
1761479511424244700,3.59224462890625,0.3375053405761719,-0.07031197845935822,-0.43549874424934387
1761479511434280700,3.60228076171875,0.35452771186828613,0.2358037382364273,-0.33374255895614624
1761479511444316700,3.612316650390625,0.4192816913127899,0.536548912525177,-0.12552011013031006
1761479511454352600,3.6223525390625,0.5443817973136902,0.5114313364028931,0.3019856810569763
1761479511464389600,3.6323896484375,0.7115644216537476,0.27706223726272583,0.7571425437927246
1761479511474425600,3.642425537109375,0.7981429696083069,-0.11057977378368378,1.0841624736785889
1761479511484461600,3.652461669921875,0.7526364922523499,-0.47126418352127075,1.10310959815979
1761479511494497800,3.662497802734375,0.6306754350662231,-0.592954158782959,0.7365787029266357
1761479511504533800,3.67253369140625,0.46733710169792175,-0.5280638337135315,0.12445191293954849
1761479511514569700,3.68256982421875,0.26063185930252075,-0.39766719937324524,-0.43461376428604126
1761479511524605700,3.692605712890625,0.0821465328335762,-0.2605136036872864,-0.7393635511398315
1761479511534641700,3.7026416015625,-0.011501127853989601,-0.1303151249885559,-0.7504183650016785
1761479511544678700,3.7126787109375,-0.05050605162978172,-0.06397711485624313,-0.5778486728668213
1761479511554714600,3.722714599609375,-0.054364703595638275,-0.06091475114226341,-0.30755090713500977
1761479511564750600,3.73275048828125,-0.05379558727145195,-0.019180085510015488,0.011721903458237648
1761479511574786600,3.74278662109375,-0.05224083364009857,-0.026148779317736626,0.30762332677841187
1761479511584822500,3.752822509765625,0.011770373210310936,-0.1643356829881668,0.5536277890205383
1761479511594858800,3.762858642578125,-0.04214052855968475,-0.3710337281227112,0.7497346997261047
1761479511604894700,3.772894775390625,0.028907282277941704,-0.5635539293289185,0.8578406572341919
1761479511614930700,3.7829306640625,0.2795850336551666,-0.5798268914222717,0.9847229719161987
1761479511624967700,3.7929677734375,0.5448172688484192,-0.5090746879577637,1.2150558233261108
1761479511635003600,3.803003662109375,0.7952784895896912,-0.2543444037437439,1.4783353805541992
1761479511645039600,3.81303955078125,0.9589449167251587,0.30307385325431824,1.6743714809417725
1761479511655075600,3.82307568359375,0.9999738335609436,0.8775911927223206,1.59103262424469
1761479511665111800,3.83311181640625,0.915444552898407,1.148627519607544,1.2082111835479736
1761479511675147800,3.843147705078125,0.8663632869720459,1.004940152168274,0.553361713886261
1761479511685183700,3.853183837890625,0.9137468338012695,0.37226465344429016,-0.2636606693267822
1761479511695219700,3.8632197265625,0.9986065626144409,-0.3401908576488495,-0.8976863622665405
1761479511705256700,3.873256591796875,1.2031240463256836,-0.4402277171611786,-1.3415700197219849
1761479511715292700,3.883292724609375,1.3899540901184082,-0.3580670654773712,-1.9320123195648193
1761479511725328600,3.89332861328125,1.3866560459136963,-0.25287991762161255,-2.1877095699310303
1761479511735364600,3.903364501953125,0.9671815633773804,0.3224691152572632,-2.1445670127868652
1761479511745400600,3.913400634765625,-0.0804133489727974,0.9173418283462524,-1.6572833061218262
1761479511755436500,3.9234365234375,-1.1715445518493652,0.8875311613082886,-0.877553403377533
1761479511765472800,3.93347265625,-1.710426926612854,0.8140622973442078,-0.13497912883758545
1761479511775508700,3.9435087890625,-1.6789965629577637,0.6878290176391602,0.23263829946517944
1761479511785545500,3.95354541015625,-1.2773383855819702,0.5382986068725586,0.25625309348106384
1761479511795581700,3.963581787109375,-0.8191744685173035,0.38539615273475647,-0.013017531484365463
1761479511805617700,3.97361767578125,-0.5567311644554138,0.3119925260543823,-0.5225092768669128
1761479511815653600,3.983653564453125,-0.6024142503738403,0.34614941477775574,-1.082189917564392
1761479511825689600,3.993689697265625,-0.9220675826072693,0.3358357846736908,-1.4906615018844604
1761479511835725600,4.0037255859375,-1.3817853927612305,0.3879392147064209,-1.6398710012435913
1761479511845760500,4.013760498046875,-1.7039620876312256,0.48954784870147705,-1.4694592952728271
1761479511855796500,4.02379638671875,-1.694828748703003,0.4493919312953949,-1.1549357175827026
1761479511865832400,4.03383251953125,-1.2979341745376587,0.25266367197036743,-0.768999457359314
1761479511875868700,4.04386865234375,-0.6028054356575012,-0.07337567955255508,-0.34627485275268555
1761479511885904600,4.053904541015625,0.16438227891921997,-0.4073440730571747,0.13210104405879974
1761479511895940900,4.06394091796875,0.7025527954101562,-0.8379828333854675,0.615528404712677
1761479511905977600,4.0739775390625,0.9235882759094238,-1.1253325939178467,0.8920748233795166
1761479511916013800,4.084013916015625,0.8732313513755798,-1.0302406549453735,0.8617019653320312
1761479511926049800,4.0940498046875,0.6685889959335327,-0.5994024276733398,0.5698530673980713
1761479511936085800,4.104085693359375,0.40070825815200806,-0.15544471144676208,0.2757282555103302
1761479511946121700,4.114121826171875,0.11238166689872742,-0.05553649738430977,0.24821247160434723
1761479511956157700,4.12415771484375,-0.08252124488353729,-0.07870333641767502,0.4008672535419464
1761479511966193700,4.134193603515625,-0.21311679482460022,-0.17104923725128174,0.7165551781654358
1761479511976229600,4.144229736328125,-0.3213074505329132,-0.3030552268028259,0.9963181018829346
1761479511986266600,4.1542666015625,-0.2545321583747864,-0.21713630855083466,1.160595417022705
1761479511996302600,4.164302490234375,-0.0733458548784256,-0.11900841444730759,1.1110905408859253
1761479512006338600,4.174338623046875,0.14084820449352264,-0.22970536351203918,0.8834775686264038
1761479512016374500,4.18437451171875,0.2925596833229065,-0.3001406490802765,0.5754830241203308
1761479512026410500,4.194410400390625,0.36356863379478455,-0.3332346975803375,0.14265941083431244
1761479512036446500,4.204446533203125,0.34015172719955444,-0.28969866037368774,-0.3420065939426422
1761479512046482700,4.214482666015625,0.19461235404014587,-0.18120653927326202,-0.6132996082305908
1761479512056519000,4.224518798828125,0.041366349905729294,-0.10601191967725754,-0.6907816529273987
1761479512066556000,4.234555908203125,-0.14467968046665192,0.07933876663446426,-0.532507061958313
1761479512076591900,4.244591796875,-0.23918728530406952,0.3577069938182831,-0.21244995296001434
1761479512086627800,4.2546279296875,-0.2745593786239624,0.5592110753059387,0.23104174435138702
1761479512096664000,4.2646640625,-0.23636965453624725,0.4321937561035156,0.6016645431518555
1761479512106700000,4.274699951171875,-0.16057077050209045,0.045225802809000015,0.6264559030532837
1761479512116736000,4.284736083984375,-0.1269044131040573,-0.3828192949295044,0.4720407724380493
1761479512126772000,4.29477197265625,-0.1235610842704773,-0.6837098598480225,0.3727317750453949
1761479512136808000,4.304807861328125,-0.10782766342163086,-0.9235906600952148,0.469676673412323
1761479512146844200,4.31484423828125,-0.10327871888875961,-0.8223998546600342,0.6820136904716492
1761479512156881200,4.324881103515625,-0.01581651344895363,-0.39811328053474426,0.6879725456237793
1761479512166917000,4.334917236328125,0.10273836553096771,-0.05216892808675766,0.5187025666236877
1761479512176953000,4.344953125,0.29331231117248535,-0.15928898751735687,0.20763042569160461
1761479512186989000,4.354989013671875,0.5422509908676147,-0.47966673970222473,-0.1400654911994934
1761479512197025000,4.36502490234375,0.7521552443504333,-0.41928648948669434,-0.370824933052063
1761479512207061000,4.37506103515625,0.8138236999511719,-0.17507727444171906,-0.41160085797309875
1761479512217097000,4.385096923828125,0.7831525802612305,0.03362134471535683,-0.3362714946269989
1761479512227133000,4.3951328125,0.7666729688644409,0.11317555606365204,-0.43093568086624146
1761479512237170000,4.405169921875,0.759871244430542,0.02273940108716488,-0.7446931004524231
1761479512247206000,4.415205810546875,0.6203745603561401,-0.17401067912578583,-1.1147276163101196
1761479512257241900,4.425241943359375,0.06298429518938065,-0.4035053849220276,-1.1296939849853516
1761479512267278000,4.435278076171875,-0.78812575340271,-0.6292964220046997,-0.835118293762207
1761479512277314000,4.44531396484375,-1.3962771892547607,-0.3551429212093353,-0.3412180542945862
1761479512287350000,4.45535009765625,-1.5633083581924438,0.12079699337482452,0.06972715258598328
1761479512297386000,4.465385986328125,-1.323316216468811,0.48785436153411865,0.16147971153259277
1761479512307422000,4.475421875,-0.9649127721786499,0.6092897057533264,-0.1300932914018631
1761479512317458200,4.485458251953125,-0.6827921271324158,0.5717164874076843,-0.6095728278160095
1761479512327495200,4.4954951171875,-0.5481368899345398,0.5796048045158386,-1.0143882036209106
1761479512337531100,4.50553125,-0.5525867342948914,0.6966725587844849,-1.343271017074585
1761479512347567000,4.515567138671875,-0.6982179880142212,0.5390704274177551,-1.4341018199920654
1761479512357603000,4.52560302734375,-0.9056204557418823,0.8216847777366638,-1.1465920209884644
1761479512367639000,4.53563916015625,-1.1002594232559204,1.1244885921478271,-0.7447977066040039
1761479512377675000,4.545675048828125,-1.0661579370498657,1.2081563472747803,-0.2925700843334198
1761479512387711000,4.5557109375,-0.8503584861755371,1.0570464134216309,0.11969204246997833
1761479512397747000,4.565746826171875,-0.504945695400238,0.5620148777961731,0.3995298147201538
1761479512407784000,4.575783935546875,-0.052675727754831314,-0.046191997826099396,0.49118277430534363
1761479512417821000,4.585821044921875,0.41261181235313416,-0.5718624591827393,0.4145585596561432
1761479512427857000,4.59585693359375,0.7817456126213074,-0.7898632287979126,0.2448505014181137
1761479512437893000,4.60589306640625,0.9745725989341736,-0.6348190307617188,0.03038107603788376
1761479512447929000,4.61592919921875,1.0188026428222656,-0.3010256290435791,-0.08274921029806137
1761479512457965000,4.625965087890625,0.8971851468086243,-0.04771745577454567,0.002379534300416708
1761479512468001000,4.6360009765625,0.678955078125,-0.03224315866827965,0.2881825268268585
1761479512478037000,4.646037109375,0.4297977089881897,-0.19203442335128784,0.622326135635376
1761479512488074000,4.656073974609375,0.20675423741340637,-0.35311251878738403,0.8941864371299744
1761479512498110000,4.66610986328125,0.08376120775938034,-0.4547044038772583,0.9928038120269775
1761479512508146000,4.67614599609375,0.020066652446985245,-0.5199907422065735,0.916625440120697
1761479512518182100,4.68618212890625,0.012818593531847,-0.436242014169693,0.7421513795852661
1761479512528218000,4.696218017578125,0.07343214005231857,-0.36614468693733215,0.5379896759986877
1761479512538254000,4.706254150390625,0.15541142225265503,-0.29337942600250244,0.3526182472705841
1761479512548290000,4.7162900390625,0.21038652956485748,-0.2308526486158371,0.17904485762119293
1761479512558326000,4.726325927734375,0.16612878441810608,-0.19007965922355652,0.004235225263983011
1761479512568363000,4.736363037109375,0.029168805107474327,-0.18496958911418915,-0.1380992829799652
1761479512578399000,4.74639892578125,-0.1271744668483734,-0.14598649740219116,-0.1810251772403717
1761479512588435000,4.75643505859375,-0.2637823820114136,-0.1518971174955368,-0.09803841263055801
1761479512598471000,4.766470947265625,-0.31271371245384216,-0.09809327870607376,0.1884804368019104
1761479512608507000,4.7765068359375,-0.27174654603004456,-0.06803098320960999,0.568449079990387
1761479512618543000,4.786543212890625,-0.18249498307704926,-0.18538664281368256,0.857451319694519
1761479512628579000,4.7965791015625,-0.1207360029220581,-0.45956680178642273,0.9938115477561951
1761479512638615000,4.806614990234375,-0.10107521712779999,-0.7316182851791382,1.0030516386032104
1761479512648652000,4.816652099609375,-0.03899986296892166,-0.7961142063140869,0.9268293380737305
1761479512658688000,4.82668798828125,0.13472212851047516,-0.6058377027511597,0.7064679265022278
1761479512668724000,4.836723876953125,0.39605918526649475,-0.2986695170402527,0.450882226228714
1761479512678760000,4.846760009765625,0.6311782002449036,-0.08429091423749924,0.3474045693874359
1761479512688796200,4.856796142578125,0.8070299625396729,-0.06811460852622986,0.4020784795284271
1761479512698832100,4.86683203125,0.875983715057373,-0.21144619584083557,0.4680337905883789
1761479512708868000,4.8768681640625,0.899159848690033,-0.1614927500486374,0.4699949324131012
1761479512718904000,4.886904052734375,0.9166059494018555,0.07568597048521042,0.3375878930091858
1761479512728941000,4.896941162109375,1.046265721321106,0.10405875742435455,0.08691518753767014
1761479512738977000,4.90697705078125,1.378000259399414,0.0033427998423576355,-0.12085611373186111
1761479512749013000,4.917012939453125,1.5961123704910278,-0.1091427356004715,-0.30557748675346375
1761479512759049000,4.927049072265625,1.3240834474563599,-0.016409333795309067,-0.48317599296569824
1761479512769085000,4.9370849609375,0.39935484528541565,0.24140410125255585,-0.680601179599762
1761479512779121000,4.947120849609375,-0.9312285780906677,0.575407087802887,-0.7076980471611023
1761479512789157000,4.9571572265625,-1.738143801689148,0.8734624981880188,-0.5891420841217041
1761479512799193000,4.967193115234375,-1.7125273942947388,0.9093297123908997,-0.4726048409938812
1761479512809229000,4.97722900390625,-1.160578727722168,0.6282833814620972,-0.35208481550216675
1761479512819266000,4.98726611328125,-0.5425500869750977,0.44592714309692383,-0.2216719388961792
1761479512829302000,4.997302001953125,-0.2787858247756958,0.36343440413475037,-0.13342756032943726
1761479512839338000,5.007337890625,-0.3855897784233093,0.38527870178222656,-0.07126698642969131
1761479512849374000,5.0173740234375,-0.7576461434364319,0.43815550208091736,-0.01727912202477455
1761479512859410000,5.027409912109375,-1.1692638397216797,0.5371569395065308,-0.09186920523643494
1761479512869446100,5.037446044921875,-1.3855491876602173,0.6338517665863037,-0.2548445463180542
1761479512879482000,5.047482177734375,-1.2525330781936646,0.6167678833007812,-0.4095529019832611
1761479512889518000,5.05751806640625,-0.8959853649139404,0.4837152659893036,-0.5505097508430481
1761479512899555000,5.06755517578125,-0.42359307408332825,0.3313656747341156,-0.5594057440757751
1761479512909591000,5.077591064453125,-0.05919807404279709,0.124226875603199,-0.4492742121219635
1761479512919627000,5.087626953125,0.2217739373445511,-0.04814356192946434,-0.32423239946365356
1761479512929663000,5.0976630859375,0.39670342206954956,-0.1381799727678299,-0.2735505700111389
1761479512939699000,5.107698974609375,0.4642912447452545,-0.15447239577770233,-0.2919154763221741
1761479512949735000,5.11773486328125,0.4451684057712555,-0.1405981332063675,-0.3391892611980438
1761479512959771100,5.127771240234375,0.35638660192489624,-0.13526780903339386,-0.3400992453098297
1761479512969808100,5.13780810546875,0.23806555569171906,-0.16036517918109894,-0.2957802414894104
1761479512979844000,5.147843994140625,0.1883384883403778,-0.284633606672287,-0.15696591138839722
1761479512989880000,5.157880126953125,0.23287372291088104,-0.3903416395187378,0.09368041902780533
1761479512999916000,5.167916015625,0.2903045415878296,-0.5039779543876648,0.3386526107788086
1761479513009952000,5.177951904296875,0.3270590901374817,-0.6125180125236511,0.5160290002822876
1761479513019988000,5.187988037109375,0.27414846420288086,-0.6489380598068237,0.5492743253707886
1761479513030024000,5.19802392578125,0.34324097633361816,-0.5434318780899048,0.41989848017692566
1761479513040060200,5.20806005859375,0.2569092810153961,-0.40152212977409363,0.23340262472629547
1761479513050095400,5.218095458984375,0.11001278460025787,-0.3063538074493408,0.1035841852426529
1761479513060132400,5.22813232421875,0.013794109225273132,-0.1543605476617813,0.03238803520798683
1761479513070168300,5.238168212890625,-0.0928276777267456,-0.00637880340218544,0.0028658276423811913
1761479513080204300,5.248204345703125,-0.13477858901023865,0.1116061583161354,-0.0012482235906645656
1761479513090240300,5.258240234375,-0.14757055044174194,0.17672044038772583,-0.016759272664785385
1761479513100276200,5.268276123046875,-0.1703067570924759,0.08015662431716919,-0.001800030586309731
1761479513110312200,5.278312255859375,-0.22289246320724487,-0.11287328600883484,0.07364652305841446
1761479513120348200,5.28834814453125,-0.25787094235420227,-0.361936092376709,0.17415449023246765
1761479513130384100,5.298384033203125,-0.2263127714395523,-0.5757375955581665,0.2520652711391449
1761479513140421400,5.30842138671875,-0.15180844068527222,-0.5594902038574219,0.41072919964790344
1761479513150457300,5.318457275390625,-0.021196365356445312,-0.45645782351493835,0.6340914368629456
1761479513160493300,5.328493408203125,0.15021958947181702,-0.46504998207092285,0.7623509168624878
1761479513170529300,5.338529296875,0.39023858308792114,-0.45350250601768494,0.7309093475341797
1761479513180565200,5.348565185546875,0.6701288223266602,-0.43087443709373474,0.5166252851486206
1761479513190601500,5.3586015625,0.8779081106185913,-0.38361024856567383,0.22325119376182556
1761479513200637400,5.368637451171875,0.9458006024360657,-0.12643809616565704,0.05247519165277481
1761479513210673400,5.37867333984375,0.9298184514045715,0.24086427688598633,0.02407470904290676
1761479513220710400,5.38871044921875,0.8917693495750427,0.43812620639801025,0.14750663936138153
1761479513230746400,5.398746337890625,0.8741381168365479,0.41283735632896423,0.2748850882053375
1761479513240782300,5.4087822265625,0.917826235294342,0.20076586306095123,0.10985672473907471
1761479513250818300,5.418818359375,1.0783480405807495,-0.004575310740619898,-0.2223406583070755
1761479513260854300,5.428854248046875,1.0561907291412354,0.18622872233390808,-0.7357733249664307
1761479513270890200,5.43889013671875,0.3672906458377838,0.16771815717220306,-1.14227294921875
1761479513280926200,5.44892626953125,-0.8475667238235474,0.018809907138347626,-1.2350808382034302
1761479513290962200,5.458962158203125,-1.8901317119598389,0.3029486835002899,-0.9546241760253906
1761479513300999400,5.46899951171875,-2.3021907806396484,0.5017344951629639,-0.4458206295967102
1761479513311035400,5.479035400390625,-2.0954980850219727,0.8508250713348389,0.2134033590555191
1761479513321071400,5.4890712890625,-1.3965609073638916,1.1915630102157593,0.6007462739944458
1761479513331107300,5.499107421875,-0.7316132187843323,0.9981564879417419,0.6713331341743469
1761479513341143300,5.509143310546875,-0.27894216775894165,0.471200555562973,0.5317986607551575
1761479513351179300,5.51917919921875,-0.001163268811069429,0.0534357950091362,0.19754555821418762
1761479513361215200,5.52921533203125,0.09561680257320404,-0.07463748753070831,-0.21227897703647614
1761479513371251500,5.53925146484375,-0.03387780487537384,0.12188062816858292,-0.5628279447555542
1761479513381287400,5.549287353515625,-0.3567221760749817,0.4687989056110382,-0.7528657913208008
1761479513391324200,5.55932421875,-0.6587371230125427,0.7235009670257568,-0.7967999577522278
1761479513401360400,5.5693603515625,-0.7916755080223083,1.0010974407196045,-0.7193427085876465
1761479513411396400,5.579396240234375,-0.7880184650421143,0.9553347229957581,-0.5962018966674805
1761479513421432300,5.589432373046875,-0.5601610541343689,0.7953733205795288,-0.4970742166042328
1761479513431468300,5.59946826171875,-0.14296381175518036,0.6665058732032776,-0.4769010543823242
1761479513441504300,5.609504150390625,0.3077719509601593,0.4006185233592987,-0.4875161349773407
1761479513451540200,5.619540283203125,0.6495111584663391,-0.00905767735093832,-0.43518635630607605
1761479513461576200,5.629576171875,0.831160843372345,-0.3011521100997925,-0.3522273004055023
1761479513471613200,5.63961328125,0.7828567028045654,-0.34729936718940735,-0.28593215346336365
1761479513481649400,5.6496494140625,0.5365779399871826,-0.45143482089042664,-0.1269579529762268
1761479513491685400,5.659685302734375,0.25603097677230835,-0.39224153757095337,0.09223432093858719
1761479513501721300,5.669721435546875,-0.03572577238082886,-0.22403283417224884,0.33439555764198303
1761479513511757300,5.67975732421875,-0.27880606055259705,-0.10464198887348175,0.5642071962356567
1761479513521793300,5.689793212890625,-0.38614052534103394,-0.026210831478238106,0.7720077633857727
1761479513531829200,5.699829345703125,-0.363238662481308,-0.0754002183675766,0.9068796038627625
1761479513541865500,5.709865478515625,-0.2571849226951599,-0.27365177869796753,0.9413070678710938
1761479513551902200,5.719902099609375,-0.16787634789943695,-0.5038618445396423,0.8974536061286926
1761479513561938200,5.729938232421875,-0.1290663778781891,-0.654902994632721,0.839902937412262
1761479513571974400,5.739974365234375,0.04628920182585716,-0.6912548542022705,0.7512583136558533
1761479513582010400,5.75001025390625,0.22051160037517548,-0.6667575240135193,0.5749841928482056
1761479513592046300,5.76004638671875,0.2519289255142212,-0.6140586137771606,0.4353208541870117
1761479513602082300,5.770082275390625,0.13915948569774628,-0.5044266581535339,0.34181085228919983
1761479513612118300,5.7801181640625,-0.0261067021638155,-0.31974151730537415,0.28713297843933105
1761479513622154200,5.790154296875,-0.15740427374839783,-0.265584796667099,0.3420470952987671
1761479513632190200,5.800190185546875,-0.1877928078174591,-0.3608767092227936,0.4217248857021332
1761479513642227200,5.810227294921875,-0.012317120097577572,-0.3884710371494293,0.5354783535003662
1761479513652263400,5.820263427734375,0.2917618155479431,-0.40776270627975464,0.6780540943145752
1761479513662299400,5.83029931640625,0.553964376449585,-0.3780950903892517,0.7768357992172241
1761479513672335400,5.84033544921875,0.7269667983055115,-0.213261678814888,0.7243044376373291
1761479513682371300,5.850371337890625,0.7378556728363037,-0.1868806630373001,0.49235111474990845
1761479513692407300,5.8604072265625,0.5898030996322632,-0.3243754208087921,0.1725531369447708
1761479513702443300,5.870443359375,0.3839242160320282,-0.31961846351623535,-0.1716710925102234
1761479513712479200,5.880479248046875,0.32389044761657715,-0.20030832290649414,-0.44016033411026
1761479513722516200,5.89051611328125,0.5768558382987976,-0.1665080189704895,-0.5406888127326965
1761479513732552200,5.90055224609375,1.135995864868164,-0.29264330863952637,-0.5481134057044983
1761479513742588200,5.910588134765625,1.586860179901123,-0.20283938944339752,-0.6636946201324463
1761479513752624400,5.920624267578125,1.3593472242355347,0.10498740524053574,-0.8152604699134827
1761479513762660400,5.930660400390625,0.42106467485427856,0.26425403356552124,-0.876361608505249
1761479513772696300,5.9406962890625,-0.916181743144989,0.3634527623653412,-0.9174728393554688
1761479513782732300,5.950732177734375,-1.946848750114441,0.5926982164382935,-0.9029098749160767
1761479513792768300,5.960768310546875,-2.1889021396636963,0.7871928811073303,-0.7777543663978577
1761479513802804200,5.97080419921875,-1.8047046661376953,0.7630262970924377,-0.6671663522720337
1761479513812841200,5.98084130859375,-1.084243655204773,0.6715781092643738,-0.6882029175758362
1761479513822877200,5.990877197265625,-0.3602713644504547,0.45077410340309143,-0.8769709467887878
1761479513832913400,6.000913330078125,0.07779093831777573,0.3303430378437042,-1.1175947189331055
1761479513842949400,6.010949462890625,0.19262084364891052,0.37946608662605286,-1.3377870321273804
1761479513852985300,6.0209853515625,-0.05487656593322754,0.36937111616134644,-1.4483181238174438
1761479513863021300,6.031021240234375,-0.548421323299408,0.426037073135376,-1.4517908096313477
1761479513873057300,6.041057373046875,-1.071959137916565,0.5914984345436096,-1.2498161792755127
1761479513883093200,6.05109326171875,-1.308395266532898,0.6998182535171509,-0.842953622341156
1761479513893129500,6.06112939453125,-1.0961626768112183,0.6224291920661926,-0.3006112277507782
1761479513903166200,6.071166259765625,-0.5704064965248108,0.4442988932132721,0.19366614520549774
1761479513913202200,6.0812021484375,0.048465803265571594,0.26454564929008484,0.4495629072189331
1761479513923238400,6.09123828125,0.4536071717739105,0.2045598030090332,0.414715975522995
1761479513933274400,6.1012744140625,0.6015633344650269,0.21229974925518036,0.13877226412296295
1761479513943310300,6.111310302734375,0.6076595783233643,0.174541175365448,-0.11979883909225464
1761479513953346300,6.12134619140625,0.5010433793067932,0.22175289690494537,-0.26670145988464355
1761479513963382300,6.13138232421875,0.34537631273269653,0.2918001711368561,-0.18406730890274048
1761479513973418200,6.141418212890625,0.19191856682300568,0.4076748192310333,0.0789070650935173
1761479513983454200,6.1514541015625,0.08019949495792389,0.6338751912117004,0.3139912188053131
1761479513993491200,6.1614912109375,0.0588579885661602,0.7789890170097351,0.5081402063369751
1761479514003527400,6.17152734375,0.07904235273599625,0.5806559324264526,0.7842655181884766
1761479514013563400,6.1815634765625,0.08189912885427475,0.18896432220935822,1.0147850513458252
1761479514023599400,6.191599365234375,0.030725155025720596,-0.09125588089227676,1.1116173267364502
1761479514033635300,6.20163525390625,-0.1248340755701065,-0.32782208919525146,1.1160988807678223
1761479514043671300,6.21167138671875,-0.3440399169921875,-0.3035745322704315,0.9452991485595703
1761479514053706800,6.221706787109375,-0.5481970310211182,-0.17833192646503448,0.7422174215316772
1761479514063742700,6.23174267578125,-0.627101719379425,-0.1308688074350357,0.5251487493515015
1761479514073778700,6.24177880859375,-0.5700317621231079,-0.18757149577140808,0.315385103225708
1761479514083816000,6.25181591796875,-0.3773518204689026,-0.25270575284957886,0.12784424424171448
1761479514093852000,6.261851806640625,-0.06573453545570374,-0.1853935569524765,-0.04375573620200157
1761479514103888000,6.271887939453125,0.13684040307998657,-0.028973061591386795,-0.06274726986885071
1761479514113923800,6.281923828125,0.12612465023994446,-0.09681335836648941,0.1037471666932106
1761479514123959800,6.291959716796875,0.07013967633247375,-0.163052037358284,0.22519849240779877
1761479514133995800,6.301995849609375,0.09443888813257217,0.018975822255015373,0.30335721373558044
1761479514144031700,6.31203173828125,0.20687514543533325,0.0336783342063427,0.3902881145477295
1761479514154067700,6.322067626953125,0.396860271692276,-0.12897422909736633,0.5037055015563965
1761479514164103700,6.332103759765625,0.6123568415641785,-0.3846094608306885,0.6305622458457947
1761479514174140700,6.342140625,0.6961588263511658,-0.5339803099632263,0.6735008955001831
1761479514184176600,6.3521767578125,0.5920199155807495,-0.5419564843177795,0.5313842296600342
1761479514194212600,6.362212646484375,0.38003361225128174,-0.4379485845565796,0.30109113454818726
1761479514204248600,6.37224853515625,0.24892167747020721,-0.21254955232143402,0.0740547850728035
1761479514214284500,6.382284423828125,0.3546483516693115,-0.022521819919347763,-0.042813509702682495
1761479514224320800,6.39232080078125,0.6200198531150818,-0.06222742050886154,-0.07192345708608627
1761479514234356700,6.402356689453125,0.9172789454460144,-0.21357832849025726,-0.17639847099781036
1761479514244392700,6.412392822265625,1.1001648902893066,-0.31980517506599426,-0.46762579679489136
1761479514254428700,6.4224287109375,0.973048985004425,-0.24654346704483032,-0.9048454761505127
1761479514264466000,6.4324658203125,0.5480788350105286,-0.03546345233917236,-1.2273164987564087
1761479514274502000,6.442501953125,-0.009022257290780544,0.17276804149150848,-1.31682288646698
1761479514284537900,6.452537841796875,-0.5993473529815674,0.2866882383823395,-1.2373616695404053
1761479514294573800,6.46257373046875,-1.0746656656265259,0.3207433819770813,-1.1495494842529297
1761479514304609800,6.47260986328125,-1.313075065612793,0.38127732276916504,-1.2023296356201172
1761479514314645800,6.482645751953125,-1.3090405464172363,0.5639541745185852,-1.2456059455871582
1761479514324681700,6.492681640625,-1.1065019369125366,0.8650570511817932,-1.2333040237426758
1761479514334717700,6.5027177734375,-0.8994861245155334,1.0448918342590332,-1.0955642461776733
1761479514344753700,6.512753662109375,-0.7111441493034363,1.0202487707138062,-0.7550857663154602
1761479514354790700,6.522790771484375,-0.5681838393211365,0.6872244477272034,-0.39446181058883667
1761479514364826600,6.53282666015625,-0.507850706577301,0.3358190059661865,-0.18133942782878876
1761479514374862600,6.542862548828125,-0.47997406125068665,0.1358499825000763,-0.1906394511461258
1761479514384898600,6.552898681640625,-0.40582767128944397,-0.03845764324069023,-0.23380877077579498
1761479514394934500,6.5629345703125,-0.23710575699806213,-0.15945996344089508,-0.18066245317459106
1761479514404970800,6.572970703125,0.03496171161532402,-0.013697436079382896,-0.11803369224071503
1761479514415006700,6.5830068359375,0.3311518430709839,0.25722113251686096,-0.1577688604593277
1761479514425042700,6.593042724609375,0.48036181926727295,0.3629007041454315,-0.14104127883911133
1761479514435078700,6.60307861328125,0.5501281023025513,0.2453671544790268,-0.014054832980036736
1761479514445116000,6.613115966796875,0.6071389317512512,0.05402568355202675,0.23275628685951233
1761479514455151900,6.62315185546875,0.6744441986083984,-0.3260550796985626,0.4825519919395447
1761479514465187800,6.633187744140625,0.752189576625824,-0.5873433947563171,0.7691856026649475
1761479514475223800,6.643223876953125,0.8055183291435242,-0.6694222688674927,0.9375945925712585
1761479514485259800,6.653259765625,0.7930262684822083,-0.41970857977867126,0.9498991966247559
1761479514495295700,6.663295654296875,0.6401078104972839,-0.11481340229511261,0.9775561690330505
1761479514505331700,6.673331787109375,0.3136301040649414,-0.019157448783516884,1.110581874847412
1761479514515367700,6.68336767578125,-0.054368168115615845,0.11480887234210968,1.3434169292449951
1761479514525403600,6.693403564453125,-0.4030159115791321,0.32136523723602295,1.6099351644515991
1761479514535439600,6.703439697265625,-0.7179578542709351,0.5612534880638123,1.7668243646621704
1761479514545476600,6.7134765625,-1.0790135860443115,0.589664876461029,1.8686269521713257
1761479514555512600,6.7235126953125,-1.3154915571212769,0.42591962218284607,1.896390438079834
1761479514565548500,6.733548583984375,-1.4445507526397705,0.3063974678516388,1.9185223579406738
1761479514575584800,6.743584716796875,-1.6991212368011475,-0.09309878200292587,1.4260002374649048
1761479514585620700,6.753620849609375,-1.2723286151885986,-0.3045700192451477,0.6874947547912598
1761479514595656700,6.76365673828125,-0.6330546736717224,-0.22754128277301788,0.22756710648536682
1761479514605692700,6.773692626953125,-0.033416811376810074,-0.29430726170539856,-0.26325666904449463
1761479514615728600,6.783728759765625,0.2707127332687378,-0.3871051073074341,-0.681655764579773
1761479514625764600,6.7937646484375,0.3421778380870819,-0.6735121011734009,-0.7879430651664734
1761479514635800600,6.803800537109375,0.285495400428772,-0.9707174301147461,-0.6049865484237671
