time,seconds_elapsed,z,y,x
1761505509847814000,0.08181396484375,-0.987579345703125,0.00689697265625,-0.168487548828125
1761505509857849900,0.091849853515625,-0.980194091796875,0.0094451904296875,-0.18218994140625
1761505509867885800,0.1018857421875,-0.97296142578125,0.019378662109375,-0.1856536865234375
1761505509877921800,0.111921875,-0.9828948974609375,0.030242919921875,-0.1845855712890625
1761505509887957800,0.121957763671875,-0.9906005859375,0.0302276611328125,-0.18475341796875
1761505509897993700,0.13199365234375,-0.9986419677734375,0.026031494140625,-0.1816558837890625
1761505509908030700,0.14203076171875,-1.00286865234375,0.02044677734375,-0.1869049072265625
1761505509918066700,0.152066650390625,-0.9915618896484375,0.01171875,-0.187774658203125
1761505509928102700,0.1621025390625,-0.9879302978515625,0.0047607421875,-0.180450439453125
1761505509938138600,0.172138671875,-0.9808197021484375,-0.003631591796875,-0.1774749755859375
1761505509948174600,0.182174560546875,-0.9665985107421875,-0.007843017578125,-0.1744232177734375
1761505509958210800,0.1922109375,-0.9621734619140625,-0.004058837890625,-0.1723785400390625
1761505509968246800,0.202246826171875,-0.9770050048828125,0.001312255859375,-0.1784210205078125
1761505509978282800,0.21228271484375,-0.9893341064453125,0.00311279296875,-0.190887451171875
1761505509988318700,0.222318603515625,-1.0118408203125,0.002899169921875,-0.2029571533203125
1761505509998354700,0.232354736328125,-1.0191650390625,-0.002105712890625,-0.1978302001953125
1761505510008391000,0.242390869140625,-1.022308349609375,-0.0039520263671875,-0.192779541015625
1761505510018427000,0.252427001953125,-1.01715087890625,-0.002197265625,-0.19287109375
1761505510028462800,0.262462890625,-1.00140380859375,-0.0028228759765625,-0.193511962890625
1761505510038498800,0.272498779296875,-0.981903076171875,-0.0030364990234375,-0.1893768310546875
1761505510048535800,0.282535888671875,-0.9626922607421875,-0.0093841552734375,-0.1844482421875
1761505510058571800,0.29257177734375,-0.9608917236328125,-0.017425537109375,-0.18170166015625
1761505510068607700,0.302607666015625,-0.984832763671875,-0.0149688720703125,-0.18475341796875
1761505510078643700,0.312643798828125,-1.0074462890625,-0.0088348388671875,-0.1838226318359375
1761505510088679700,0.3226796875,-1.0308074951171875,-0.002349853515625,-0.1863250732421875
1761505510098716000,0.3327158203125,-1.0285491943359375,-0.004547119140625,-0.190948486328125
1761505510108752000,0.342751953125,-1.0102386474609375,-0.0092010498046875,-0.196990966796875
1761505510118787800,0.352787841796875,-1.0052490234375,-0.0129241943359375,-0.1910400390625
1761505510128823800,0.36282373046875,-1.00726318359375,-0.0079345703125,-0.1885223388671875
1761505510138859800,0.37285986328125,-1.014129638671875,-0.0027618408203125,-0.1875457763671875
1761505510148895700,0.382895751953125,-1.011260986328125,-0.0058441162109375,-0.1907958984375
1761505510158931700,0.392931640625,-0.994781494140625,-0.0117645263671875,-0.189910888671875
1761505510168967700,0.4029677734375,-0.989288330078125,-0.0172882080078125,-0.1900787353515625
1761505510179003600,0.413003662109375,-0.9935760498046875,-0.0145263671875,-0.1917724609375
1761505510189039600,0.42303955078125,-1.008819580078125,-0.00506591796875,-0.1899566650390625
1761505510199075600,0.43307568359375,-1.0318603515625,0.0046234130859375,-0.1853790283203125
1761505510209112800,0.44311279296875,-1.046539306640625,0.010650634765625,-0.1820526123046875
1761505510219148800,0.453148681640625,-1.0494384765625,0.0113372802734375,-0.177581787109375
1761505510229184800,0.463184814453125,-1.0401763916015625,0.00714111328125,-0.17730712890625
1761505510239220700,0.473220703125,-1.0103759765625,0.002655029296875,-0.1775054931640625
1761505510249257000,0.483257080078125,-0.977874755859375,-0.0002899169921875,-0.176055908203125
1761505510259293000,0.49329296875,-0.954986572265625,-0.0046234130859375,-0.172882080078125
1761505510269329000,0.503328857421875,-0.95587158203125,-0.0082550048828125,-0.1740875244140625
1761505510279364900,0.51336474609375,-0.9698486328125,-0.0041961669921875,-0.182403564453125
1761505510289400800,0.52340087890625,-0.977020263671875,0.0003814697265625,-0.187774658203125
1761505510299436800,0.533436767578125,-0.991607666015625,0.00177001953125,-0.1855621337890625
1761505510309472800,0.54347265625,-1.00592041015625,-0.00006103515625,-0.1802520751953125
1761505510319508700,0.5535087890625,-1.0110321044921875,-0.0035400390625,-0.1743316650390625
1761505510329544700,0.563544677734375,-1.0066680908203125,-0.00640869140625,-0.166900634765625
1761505510339580700,0.57358056640625,-0.9945220947265625,-0.0077056884765625,-0.1625823974609375
1761505510349616600,0.58361669921875,-0.982757568359375,-0.009979248046875,-0.1633758544921875
1761505510359652900,0.59365283203125,-0.9831695556640625,-0.008697509765625,-0.1685028076171875
1761505510369689600,0.603689697265625,-1.0064849853515625,-0.00054931640625,-0.17999267578125
1761505510379725600,0.6137255859375,-1.0052032470703125,0.005584716796875,-0.18511962890625
1761505510389761800,0.62376171875,-1.0062103271484375,0.0041656494140625,-0.1824951171875
1761505510399797800,0.6337978515625,-1.002655029296875,-0.0011138916015625,-0.1828765869140625
1761505510409833700,0.643833740234375,-0.986114501953125,-0.0069122314453125,-0.176605224609375
1761505510419870000,0.653869873046875,-0.9841156005859375,-0.0159149169921875,-0.167022705078125
1761505510429906000,0.663906005859375,-0.9922027587890625,-0.02069091796875,-0.1623687744140625
1761505510439942000,0.67394189453125,-1.00067138671875,-0.018585205078125,-0.165802001953125
1761505510449977900,0.683977783203125,-1.0187225341796875,-0.0102386474609375,-0.171173095703125
1761505510460013800,0.694013916015625,-1.01739501953125,-0.007415771484375,-0.177825927734375
1761505510470049800,0.7040498046875,-0.998260498046875,-0.00823974609375,-0.1798095703125
1761505510480085800,0.714085693359375,-0.9817352294921875,-0.0073089599609375,-0.1804351806640625
1761505510490121700,0.724121826171875,-0.969573974609375,-0.00799560546875,-0.1835784912109375
1761505510500158000,0.734157958984375,-0.9732818603515625,-0.0121002197265625,-0.1774139404296875
1761505510510194000,0.74419384765625,-0.992431640625,-0.008758544921875,-0.172332763671875
1761505510520230700,0.754230712890625,-1.0144500732421875,0.001251220703125,-0.1739959716796875
1761505510530267000,0.764266845703125,-1.031951904296875,0.009033203125,-0.1781005859375
1761505510540302800,0.774302734375,-1.0329742431640625,0.0082550048828125,-0.1796417236328125
1761505510550338800,0.7843388671875,-1.0215911865234375,0.002899169921875,-0.178131103515625
1761505510560374800,0.794374755859375,-1.0056304931640625,-0.005126953125,-0.1766204833984375
1761505510570410800,0.80441064453125,-0.9934539794921875,-0.0089874267578125,-0.1739044189453125
1761505510580446700,0.81444677734375,-0.975860595703125,-0.011260986328125,-0.1708984375
1761505510590482700,0.824482666015625,-0.9631805419921875,-0.01763916015625,-0.170074462890625
1761505510600518700,0.8345185546875,-0.9587860107421875,-0.0234222412109375,-0.1760101318359375
1761505510610554600,0.8445546875,-0.96124267578125,-0.02056884765625,-0.1798553466796875
1761505510620590300,0.85459033203125,-0.983184814453125,-0.0157470703125,-0.177093505859375
1761505510630626600,0.86462646484375,-1.0220184326171875,-0.00848388671875,-0.176544189453125
1761505510640662500,0.87466259765625,-1.0628204345703125,-0.000518798828125,-0.1793670654296875
1761505510650698500,0.884698486328125,-1.0710906982421875,0.00006103515625,-0.1733551025390625
1761505510660734500,0.894734375,-1.055206298828125,-0.0010833740234375,-0.16717529296875
1761505510670770400,0.9047705078125,-1.01348876953125,-0.003387451171875,-0.1602020263671875
1761505510680807400,0.914807373046875,-0.9730987548828125,-0.0118408203125,-0.159423828125
1761505510690843400,0.924843505859375,-0.9412841796875,-0.0259246826171875,-0.1593475341796875
1761505510700879400,0.93487939453125,-0.92315673828125,-0.0351104736328125,-0.1617431640625
1761505510710915300,0.944915283203125,-0.92626953125,-0.0364837646484375,-0.16229248046875
1761505510720951300,0.954951416015625,-0.9513397216796875,-0.0286865234375,-0.163970947265625
1761505510730987300,0.9649873046875,-0.9845123291015625,-0.015472412109375,-0.1727294921875
1761505510741023200,0.975023193359375,-1.0228271484375,-0.0021514892578125,-0.181610107421875
1761505510751059200,0.98505908203125,-1.0463409423828125,0.00262451171875,-0.1747894287109375
1761505510761095400,0.995095458984375,-1.0616912841796875,0.00836181640625,-0.1723480224609375
1761505510771131400,1.00513134765625,-1.057037353515625,0.012298583984375,-0.1685943603515625
1761505510781167600,1.015167724609375,-1.0468902587890625,0.0107574462890625,-0.168609619140625
1761505510791203600,1.02520361328125,-1.0287017822265625,0.0026397705078125,-0.168975830078125
1761505510801239600,1.035239501953125,-1.007568359375,-0.009674072265625,-0.16802978515625
1761505510811275500,1.045275634765625,-0.9884490966796875,-0.0200347900390625,-0.165740966796875
1761505510821311500,1.0553115234375,-0.977752685546875,-0.0263824462890625,-0.1590423583984375
1761505510831348500,1.065348388671875,-0.9793243408203125,-0.025787353515625,-0.1571807861328125
1761505510841384400,1.075384521484375,-0.9824676513671875,-0.0204315185546875,-0.1580352783203125
1761505510851420400,1.08542041015625,-0.9868316650390625,-0.014404296875,-0.158782958984375
1761505510861456400,1.095456298828125,-0.993804931640625,-0.0125274658203125,-0.158538818359375
1761505510871492400,1.105492431640625,-1.00469970703125,-0.009063720703125,-0.1635894775390625
1761505510881528300,1.1155283203125,-1.0068817138671875,-0.0059051513671875,-0.168731689453125
1761505510891564300,1.125564208984375,-0.99798583984375,-0.011444091796875,-0.16583251953125
1761505510901600300,1.135600341796875,-0.99072265625,-0.019287109375,-0.1618499755859375
1761505510911636500,1.145636474609375,-0.9805450439453125,-0.024871826171875,-0.1544189453125
1761505510921672400,1.15567236328125,-0.975555419921875,-0.0264892578125,-0.143524169921875
1761505510931708400,1.16570849609375,-0.98284912109375,-0.0211334228515625,-0.14141845703125
1761505510941744400,1.175744384765625,-0.98876953125,-0.0144805908203125,-0.14794921875
1761505510951780400,1.1857802734375,-0.9961090087890625,-0.012542724609375,-0.1526336669921875
1761505510961816300,1.19581640625,-1.013153076171875,-0.0115203857421875,-0.164520263671875
1761505510971852300,1.205852294921875,-1.02313232421875,-0.0109710693359375,-0.174652099609375
1761505510981889500,1.2158896484375,-1.0352325439453125,-0.0131072998046875,-0.1783599853515625
1761505510991925500,1.225925537109375,-1.0247955322265625,-0.0180816650390625,-0.175140380859375
1761505511001961500,1.23596142578125,-1.0110931396484375,-0.01885986328125,-0.1692657470703125
1761505511011997400,1.24599755859375,-0.9981689453125,-0.019287109375,-0.1637420654296875
1761505511022033400,1.256033447265625,-0.9884185791015625,-0.0245513916015625,-0.159881591796875
1761505511032069400,1.2660693359375,-0.98138427734375,-0.028900146484375,-0.157958984375
1761505511042105300,1.276105224609375,-0.978607177734375,-0.030548095703125,-0.15673828125
1761505511052141300,1.286141357421875,-0.9865264892578125,-0.0272064208984375,-0.1571807861328125
1761505511062177500,1.296177490234375,-1.011749267578125,-0.020111083984375,-0.161590576171875
1761505511072213500,1.306213623046875,-1.0315704345703125,-0.015716552734375,-0.1720123291015625
1761505511082249500,1.31624951171875,-1.0337371826171875,-0.01251220703125,-0.1726837158203125
1761505511092285400,1.326285400390625,-1.0252838134765625,-0.013214111328125,-0.17047119140625
1761505511102321400,1.3363212890625,-1.0042877197265625,-0.01861572265625,-0.1631317138671875
1761505511112357400,1.346357421875,-0.9885101318359375,-0.023040771484375,-0.15887451171875
1761505511122394400,1.356394287109375,-0.9776458740234375,-0.0261077880859375,-0.1581878662109375
1761505511132430300,1.366430419921875,-0.9734039306640625,-0.02899169921875,-0.157745361328125
1761505511142466300,1.37646630859375,-0.9803924560546875,-0.032257080078125,-0.15020751953125
1761505511152502300,1.386502197265625,-0.9893951416015625,-0.0302581787109375,-0.1524658203125
1761505511162538500,1.39653857421875,-0.9997406005859375,-0.0231781005859375,-0.1624298095703125
1761505511172574500,1.406574462890625,-1.0040435791015625,-0.01513671875,-0.1689910888671875
1761505511182610400,1.4166103515625,-1.010589599609375,-0.0125274658203125,-0.172271728515625
1761505511192646400,1.426646484375,-1.0129241943359375,-0.0153656005859375,-0.1700286865234375
1761505511202682400,1.436682373046875,-1.0088958740234375,-0.0204620361328125,-0.1601715087890625
1761505511212718600,1.446718505859375,-1.0102386474609375,-0.0223236083984375,-0.1533966064453125
1761505511222754600,1.456754638671875,-1.0086517333984375,-0.0198211669921875,-0.1548919677734375
1761505511232790500,1.46679052734375,-1.001861572265625,-0.01824951171875,-0.1565093994140625
1761505511242826500,1.476826416015625,-0.9900665283203125,-0.0228118896484375,-0.1537322998046875
1761505511252862500,1.486862548828125,-0.9771575927734375,-0.02667236328125,-0.1527557373046875
1761505511262898400,1.4968984375,-0.965667724609375,-0.0310211181640625,-0.1553955078125
1761505511272934400,1.506934326171875,-0.9775238037109375,-0.03216552734375,-0.1561431884765625
1761505511282971400,1.516971435546875,-1.008026123046875,-0.0256500244140625,-0.1590423583984375
1761505511293007400,1.52700732421875,-1.021453857421875,-0.016693115234375,-0.163909912109375
1761505511303043300,1.537043212890625,-1.0205535888671875,-0.01141357421875,-0.166656494140625
1761505511313079300,1.547079345703125,-1.0165863037109375,-0.013458251953125,-0.1659088134765625
1761505511323115300,1.557115234375,-1.0040740966796875,-0.01641845703125,-0.16259765625
1761505511333151200,1.567151123046875,-0.99566650390625,-0.019561767578125,-0.1585235595703125
1761505511343187500,1.5771875,-0.989593505859375,-0.0250244140625,-0.153564453125
1761505511353223400,1.587223388671875,-0.9875640869140625,-0.027740478515625,-0.1477203369140625
1761505511363259400,1.59725927734375,-0.9832916259765625,-0.0277557373046875,-0.1429290771484375
1761505511373295400,1.60729541015625,-0.9771728515625,-0.026397705078125,-0.141845703125
1761505511383331300,1.617331298828125,-0.9782562255859375,-0.0229034423828125,-0.143341064453125
1761505511393367600,1.627367431640625,-0.9868927001953125,-0.020965576171875,-0.1493377685546875
1761505511403403500,1.637403564453125,-1.0068817138671875,-0.020355224609375,-0.15826416015625
1761505511413439500,1.647439453125,-1.023590087890625,-0.019317626953125,-0.17047119140625
1761505511423475500,1.657475341796875,-1.0287628173828125,-0.0193328857421875,-0.177001953125
1761505511433512400,1.667512451171875,-1.0188140869140625,-0.0220184326171875,-0.1735076904296875
1761505511443548400,1.67754833984375,-1.0069427490234375,-0.0268096923828125,-0.1641387939453125
1761505511453584400,1.68758447265625,-0.9992828369140625,-0.0298004150390625,-0.1574859619140625
1761505511463620400,1.697620361328125,-0.998565673828125,-0.0323486328125,-0.1546630859375
1761505511473656300,1.70765625,-1.0034332275390625,-0.02734375,-0.15875244140625
1761505511483692300,1.7176923828125,-1.013427734375,-0.0177154541015625,-0.16595458984375
1761505511493728500,1.727728515625,-1.020263671875,-0.018280029296875,-0.1693572998046875
1761505511503764500,1.737764404296875,-1.02459716796875,-0.0239410400390625,-0.1687469482421875
1761505511513800400,1.747800537109375,-1.03338623046875,-0.0222625732421875,-0.1744384765625
1761505511523836400,1.75783642578125,-1.0166168212890625,-0.0214385986328125,-0.17242431640625
1761505511533872400,1.767872314453125,-0.9929046630859375,-0.024810791015625,-0.1651458740234375
1761505511543908400,1.777908447265625,-0.98211669921875,-0.028106689453125,-0.1578369140625
1761505511553944300,1.7879443359375,-0.9872589111328125,-0.024505615234375,-0.1576385498046875
1761505511563980300,1.797980224609375,-0.9906768798828125,-0.0175933837890625,-0.1573028564453125
1761505511574016300,1.808016357421875,-0.98797607421875,-0.0156097412109375,-0.1567535400390625
1761505511584052200,1.81805224609375,-0.984130859375,-0.0186004638671875,-0.159149169921875
1761505511594089500,1.82808935546875,-0.99468994140625,-0.0197601318359375,-0.1649932861328125
1761505511604125400,1.83812548828125,-1.016265869140625,-0.015533447265625,-0.169586181640625
1761505511614161400,1.848161376953125,-1.0237579345703125,-0.01202392578125,-0.166168212890625
1761505511624197400,1.858197265625,-1.01898193359375,-0.014862060546875,-0.15875244140625
1761505511634233600,1.868233642578125,-1.005767822265625,-0.023712158203125,-0.1528778076171875
1761505511644269600,1.87826953125,-0.9910430908203125,-0.0305938720703125,-0.147918701171875
1761505511654305500,1.888305419921875,-0.975311279296875,-0.0333404541015625,-0.1473388671875
1761505511664341500,1.898341552734375,-0.9631805419921875,-0.031890869140625,-0.148101806640625
1761505511674377500,1.90837744140625,-0.9718475341796875,-0.0256195068359375,-0.148834228515625
1761505511684413400,1.918413330078125,-0.9915618896484375,-0.020721435546875,-0.15484619140625
1761505511694449400,1.928449462890625,-1.0045013427734375,-0.0198974609375,-0.16387939453125
1761505511704485600,1.938485595703125,-1.0091400146484375,-0.0189666748046875,-0.16790771484375
1761505511714521600,1.948521484375,-1.0080718994140625,-0.019287109375,-0.1716766357421875
1761505511724557600,1.9585576171875,-1.0095367431640625,-0.0226593017578125,-0.170562744140625
1761505511734593500,1.968593505859375,-1.0108489990234375,-0.0267333984375,-0.1683807373046875
1761505511744630500,1.978630615234375,-1.01214599609375,-0.0298614501953125,-0.1622314453125
1761505511754666500,1.98866650390625,-1.015380859375,-0.033203125,-0.153350830078125
1761505511764702500,1.998702392578125,-1.0155181884765625,-0.0349273681640625,-0.1531982421875
1761505511774738400,2.008738525390625,-1.0091094970703125,-0.0361175537109375,-0.156097412109375
1761505511784774700,2.018774658203125,-0.9984893798828125,-0.035736083984375,-0.1557769775390625
1761505511794810600,2.028810546875,-0.9933319091796875,-0.0367584228515625,-0.158416748046875
1761505511804846600,2.0388466796875,-0.9912261962890625,-0.0362701416015625,-0.1618804931640625
1761505511814882600,2.048882568359375,-1.0025787353515625,-0.027679443359375,-0.1627349853515625
1761505511824918500,2.05891845703125,-1.0108642578125,-0.0205841064453125,-0.164337158203125
1761505511834954500,2.06895458984375,-1.0240936279296875,-0.0219573974609375,-0.1666259765625
1761505511844990500,2.078990478515625,-1.0181427001953125,-0.0233917236328125,-0.1602020263671875
1761505511855026400,2.0890263671875,-1.002899169921875,-0.020050048828125,-0.15313720703125
1761505511865062400,2.0990625,-0.9932708740234375,-0.0257110595703125,-0.1486053466796875
1761505511875098400,2.109098388671875,-0.98846435546875,-0.035308837890625,-0.1434173583984375
1761505511885134300,2.11913427734375,-0.9825897216796875,-0.0357818603515625,-0.1410980224609375
1761505511895170600,2.129170654296875,-0.990264892578125,-0.03173828125,-0.1464385986328125
1761505511905206500,2.13920654296875,-1.0092315673828125,-0.025665283203125,-0.158203125
1761505511915243500,2.149243408203125,-1.0111236572265625,-0.019561767578125,-0.16656494140625
1761505511925279700,2.15927978515625,-1.00567626953125,-0.0164794921875,-0.1632080078125
1761505511935315700,2.169315673828125,-1.010162353515625,-0.0175018310546875,-0.163543701171875
1761505511945351700,2.1793515625,-1.02001953125,-0.0235595703125,-0.1672821044921875
1761505511955387600,2.1893876953125,-1.0337371826171875,-0.0288543701171875,-0.1658782958984375
1761505511965423600,2.199423583984375,-1.020111083984375,-0.02862548828125,-0.158355712890625
1761505511975459600,2.20945947265625,-0.99462890625,-0.0318756103515625,-0.1494903564453125
1761505511985495600,2.21949560546875,-0.98455810546875,-0.0439453125,-0.1464691162109375
1761505511995531500,2.229531494140625,-0.977630615234375,-0.054718017578125,-0.139373779296875
1761505512005567500,2.2395673828125,-0.9714202880859375,-0.0374298095703125,-0.151885986328125
1761505512015603500,2.249603515625,-0.98260498046875,-0.02947998046875,-0.1641845703125
1761505512025639400,2.259639404296875,-0.99078369140625,-0.03399658203125,-0.171417236328125
1761505512035675600,2.269675537109375,-1.004974365234375,-0.035369873046875,-0.1741180419921875
1761505512045711600,2.279711669921875,-1.0139312744140625,-0.0323638916015625,-0.1715240478515625
1761505512055747600,2.28974755859375,-1.0205230712890625,-0.0318450927734375,-0.1671600341796875
1761505512065783600,2.299783447265625,-1.013702392578125,-0.0334625244140625,-0.1624603271484375
1761505512075819500,2.309819580078125,-1.003326416015625,-0.0362701416015625,-0.1585845947265625
1761505512085855500,2.31985546875,-0.986724853515625,-0.03759765625,-0.1631317138671875
1761505512095892500,2.329892578125,-0.976470947265625,-0.0344085693359375,-0.166595458984375
1761505512105928400,2.339928466796875,-0.9744415283203125,-0.034881591796875,-0.168701171875
1761505512115964700,2.349964599609375,-0.9734649658203125,-0.034515380859375,-0.1707305908203125
1761505512126000600,2.360000732421875,-0.9874114990234375,-0.0279998779296875,-0.171722412109375
1761505512136036600,2.37003662109375,-1.0078582763671875,-0.0271759033203125,-0.171966552734375
1761505512146072600,2.380072509765625,-1.0186309814453125,-0.023895263671875,-0.16851806640625
1761505512156108500,2.390108642578125,-1.0238494873046875,-0.02105712890625,-0.167327880859375
1761505512166144500,2.40014453125,-1.01861572265625,-0.0240325927734375,-0.1688385009765625
1761505512176180500,2.410180419921875,-1.0034027099609375,-0.0303497314453125,-0.166717529296875
1761505512186216700,2.420216796875,-0.99725341796875,-0.034820556640625,-0.162017822265625
1761505512196252700,2.430252685546875,-0.994415283203125,-0.0364837646484375,-0.15838623046875
1761505512206288600,2.44028857421875,-0.9921722412109375,-0.0369415283203125,-0.1617431640625
1761505512216324600,2.45032470703125,-0.98699951171875,-0.037078857421875,-0.1613616943359375
1761505512226360600,2.460360595703125,-0.9858245849609375,-0.0366973876953125,-0.159332275390625
1761505512236396500,2.470396484375,-0.9957275390625,-0.0373687744140625,-0.162078857421875
1761505512246432500,2.4804326171875,-1.0178375244140625,-0.0359344482421875,-0.16650390625
1761505512256468500,2.490468505859375,-1.0332489013671875,-0.0316925048828125,-0.16802978515625
1761505512266504400,2.50050439453125,-1.0357208251953125,-0.0329742431640625,-0.1681365966796875
1761505512276540400,2.51054052734375,-1.02545166015625,-0.036773681640625,-0.1679229736328125
1761505512286576400,2.520576416015625,-1.0040283203125,-0.040496826171875,-0.161590576171875
1761505512296613400,2.53061328125,-0.9950714111328125,-0.04443359375,-0.1539459228515625
1761505512306649300,2.5406494140625,-0.9849853515625,-0.0480499267578125,-0.15032958984375
1761505512316685300,2.550685302734375,-0.97662353515625,-0.0482330322265625,-0.1496124267578125
1761505512326721500,2.560721435546875,-0.97833251953125,-0.0476837158203125,-0.1528778076171875
1761505512336757500,2.570757568359375,-0.9809417724609375,-0.0401153564453125,-0.1585540771484375
1761505512346793700,2.580793701171875,-0.992218017578125,-0.0336456298828125,-0.1656036376953125
1761505512356829700,2.59082958984375,-1.0035552978515625,-0.0297088623046875,-0.17303466796875
1761505512366865700,2.60086572265625,-1.0193634033203125,-0.0284881591796875,-0.1759796142578125
1761505512376901600,2.610901611328125,-1.0265045166015625,-0.0292205810546875,-0.1709747314453125
1761505512386937600,2.6209375,-1.0244598388671875,-0.032928466796875,-0.1613006591796875
1761505512396973600,2.6309736328125,-1.0101776123046875,-0.0384368896484375,-0.153076171875
1761505512407009500,2.641009521484375,-0.985595703125,-0.0412139892578125,-0.147552490234375
1761505512417045500,2.65104541015625,-0.9658660888671875,-0.0403289794921875,-0.1453094482421875
1761505512427081500,2.66108154296875,-0.9643096923828125,-0.0374755859375,-0.145477294921875
1761505512437117700,2.67111767578125,-0.983245849609375,-0.0325164794921875,-0.1537017822265625
1761505512447153700,2.681153564453125,-1.0003509521484375,-0.026580810546875,-0.1630401611328125
1761505512457189600,2.691189697265625,-1.0097808837890625,-0.022552490234375,-0.1699676513671875
1761505512467225600,2.7012255859375,-1.0076904296875,-0.02301025390625,-0.1719818115234375
1761505512477261600,2.711261474609375,-1.00103759765625,-0.028594970703125,-0.1698455810546875
1761505512487297500,2.721297607421875,-1.0002288818359375,-0.0370330810546875,-0.1632080078125
1761505512497333500,2.73133349609375,-1.0048828125,-0.0420684814453125,-0.15533447265625
1761505512507369500,2.741369384765625,-1.019256591796875,-0.0428466796875,-0.1553192138671875
1761505512517406500,2.751406494140625,-1.0269775390625,-0.03961181640625,-0.1581573486328125
1761505512527442400,2.7614423828125,-1.01824951171875,-0.0376434326171875,-0.1578216552734375
1761505512537478400,2.771478515625,-1.0032806396484375,-0.03912353515625,-0.1599884033203125
1761505512547514400,2.781514404296875,-0.9876708984375,-0.039886474609375,-0.162841796875
1761505512557550300,2.79155029296875,-0.98822021484375,-0.03961181640625,-0.1706390380859375
1761505512567586300,2.80158642578125,-0.993255615234375,-0.039703369140625,-0.176788330078125
1761505512577622500,2.81162255859375,-1.003997802734375,-0.0371246337890625,-0.1757354736328125
1761505512587658800,2.82165869140625,-1.0134429931640625,-0.037811279296875,-0.1732025146484375
1761505512597694700,2.83169482421875,-1.0124664306640625,-0.036163330078125,-0.1703948974609375
1761505512607730700,2.841730712890625,-1.01068115234375,-0.0374298095703125,-0.1646881103515625
1761505512617766700,2.8517666015625,-1.0017852783203125,-0.041168212890625,-0.160888671875
1761505512627802600,2.861802734375,-0.986328125,-0.03875732421875,-0.16241455078125
1761505512637838600,2.871838623046875,-0.9777679443359375,-0.036468505859375,-0.165252685546875
1761505512647874600,2.88187451171875,-0.9767608642578125,-0.0358734130859375,-0.1681060791015625
1761505512657910500,2.89191064453125,-0.975860595703125,-0.035888671875,-0.1692047119140625
1761505512667946500,2.901946533203125,-0.9761962890625,-0.0346527099609375,-0.165679931640625
1761505512677982500,2.911982421875,-0.98712158203125,-0.03070068359375,-0.1630706787109375
1761505512688018700,2.922018798828125,-1.0079345703125,-0.0253448486328125,-0.1637725830078125
1761505512698054700,2.9320546875,-1.02813720703125,-0.0181427001953125,-0.1639556884765625
1761505512708090600,2.942090576171875,-1.0331573486328125,-0.015472412109375,-0.163055419921875
1761505512718126800,2.952126953125,-1.024017333984375,-0.0228118896484375,-0.162109375
1761505512728162800,2.962162841796875,-1.006622314453125,-0.0306854248046875,-0.15557861328125
1761505512738198800,2.97219873046875,-0.998016357421875,-0.0301055908203125,-0.150848388671875
1761505512748235800,2.98223583984375,-0.9951019287109375,-0.0312042236328125,-0.1518096923828125
1761505512758271700,2.992271728515625,-0.999755859375,-0.034820556640625,-0.1494903564453125
1761505512768307700,3.0023076171875,-1.009765625,-0.03326416015625,-0.1562652587890625
1761505512778343700,3.01234375,-1.0094757080078125,-0.029144287109375,-0.1653594970703125
1761505512788379600,3.022379638671875,-1.0084991455078125,-0.0284271240234375,-0.1707763671875
1761505512798415600,3.03241552734375,-1.000732421875,-0.0356903076171875,-0.17413330078125
1761505512808451600,3.04245166015625,-0.99334716796875,-0.038543701171875,-0.1780242919921875
1761505512818487600,3.052487548828125,-0.9920196533203125,-0.0384674072265625,-0.175262451171875
1761505512828523500,3.0625234375,-0.9916839599609375,-0.0376739501953125,-0.1724853515625
1761505512838559700,3.072559814453125,-0.9975433349609375,-0.0405120849609375,-0.1693878173828125
1761505512848595700,3.082595703125,-0.99560546875,-0.0405120849609375,-0.16351318359375
1761505512858631700,3.092631591796875,-0.9943695068359375,-0.0396270751953125,-0.1613006591796875
1761505512868667600,3.102667724609375,-0.987060546875,-0.036285400390625,-0.162109375
1761505512878703600,3.11270361328125,-0.9893035888671875,-0.0348052978515625,-0.1628265380859375
1761505512888739600,3.122739501953125,-1.0079345703125,-0.0338134765625,-0.1641082763671875
1761505512898775600,3.132775634765625,-1.0201416015625,-0.0329742431640625,-0.1637420654296875
1761505512908811500,3.1428115234375,-1.0241546630859375,-0.03082275390625,-0.1639404296875
1761505512918847500,3.152847412109375,-1.0140533447265625,-0.0318756103515625,-0.162811279296875
1761505512928883500,3.162883544921875,-0.9968414306640625,-0.0326690673828125,-0.15692138671875
1761505512938919400,3.17291943359375,-0.9772796630859375,-0.0361175537109375,-0.1536865234375
1761505512948955600,3.18295556640625,-0.967742919921875,-0.039794921875,-0.155181884765625
1761505512958992000,3.192991943359375,-0.97540283203125,-0.0390777587890625,-0.159423828125
1761505512969027800,3.20302783203125,-0.991424560546875,-0.0377960205078125,-0.1623382568359375
1761505512979063800,3.213063720703125,-1.0042877197265625,-0.0312347412109375,-0.1662750244140625
1761505512989099800,3.223099853515625,-1.0148468017578125,-0.02642822265625,-0.168365478515625
1761505512999136800,3.23313671875,-1.03082275390625,-0.026885986328125,-0.16925048828125
1761505513009172700,3.2431728515625,-1.0414276123046875,-0.025726318359375,-0.1699981689453125
1761505513019208700,3.253208740234375,-1.0278167724609375,-0.02935791015625,-0.1634063720703125
1761505513029244700,3.26324462890625,-1.011199951171875,-0.0345916748046875,-0.1543121337890625
1761505513039280600,3.27328076171875,-0.99420166015625,-0.0400543212890625,-0.14764404296875
1761505513049316600,3.283316650390625,-0.98431396484375,-0.0426483154296875,-0.149627685546875
1761505513059352600,3.2933525390625,-0.9792938232421875,-0.040618896484375,-0.1594085693359375
1761505513069388500,3.303388427734375,-0.9753570556640625,-0.039031982421875,-0.1644744873046875
1761505513079424500,3.313424560546875,-0.9785308837890625,-0.04052734375,-0.1686248779296875
1761505513089460700,3.323460693359375,-0.991973876953125,-0.0373687744140625,-0.1702728271484375
1761505513099496700,3.33349658203125,-1.0076446533203125,-0.0315093994140625,-0.1710052490234375
1761505513109532700,3.34353271484375,-1.0159149169921875,-0.03045654296875,-0.17071533203125
1761505513119568600,3.353568603515625,-1.013336181640625,-0.03271484375,-0.16912841796875
1761505513129604600,3.3636044921875,-1.0052642822265625,-0.0331878662109375,-0.1617279052734375
1761505513139640600,3.373640625,-0.9965667724609375,-0.0315704345703125,-0.16021728515625
1761505513149676500,3.383676513671875,-0.9976348876953125,-0.0328521728515625,-0.158843994140625
1761505513159712500,3.39371240234375,-0.9991607666015625,-0.0374298095703125,-0.1547698974609375
1761505513169748500,3.40374853515625,-0.9979095458984375,-0.035675048828125,-0.155517578125
1761505513179784700,3.41378466796875,-0.9939422607421875,-0.03106689453125,-0.163330078125
1761505513189820700,3.423820556640625,-0.9923553466796875,-0.0287933349609375,-0.16656494140625
1761505513199856600,3.433856689453125,-0.990478515625,-0.032440185546875,-0.1676483154296875
1761505513209892900,3.443892822265625,-0.9892425537109375,-0.036529541015625,-0.1685943603515625
1761505513219928800,3.4539287109375,-0.9925384521484375,-0.0389404296875,-0.1661529541015625
1761505513229964800,3.46396484375,-1.0001373291015625,-0.040252685546875,-0.1614532470703125
1761505513240000800,3.474000732421875,-1.0059814453125,-0.040557861328125,-0.1582489013671875
1761505513250036700,3.48403662109375,-1.01654052734375,-0.039154052734375,-0.158935546875
1761505513260073700,3.49407373046875,-1.0217132568359375,-0.0340728759765625,-0.160064697265625
1761505513270109700,3.504109619140625,-1.0241546630859375,-0.03204345703125,-0.1652679443359375
1761505513280145700,3.514145751953125,-1.0166778564453125,-0.0345458984375,-0.170806884765625
1761505513290181600,3.524181640625,-1.0077667236328125,-0.0382843017578125,-0.1689300537109375
1761505513300217600,3.534217529296875,-0.99755859375,-0.0408477783203125,-0.1636962890625
1761505513310253600,3.544253662109375,-0.9938507080078125,-0.0434417724609375,-0.161590576171875
1761505513320289500,3.55428955078125,-0.999603271484375,-0.041748046875,-0.161102294921875
1761505513330325500,3.564325439453125,-1.0009307861328125,-0.045318603515625,-0.1642608642578125
1761505513340361500,3.574361572265625,-0.99871826171875,-0.0463714599609375,-0.1631317138671875
1761505513350397700,3.584397705078125,-0.9925689697265625,-0.041717529296875,-0.1588134765625
1761505513360433700,3.59443359375,-0.9877777099609375,-0.0341033935546875,-0.1554718017578125
1761505513370469600,3.6044697265625,-0.9946136474609375,-0.0292816162109375,-0.1578826904296875
1761505513380505600,3.614505615234375,-1.0135498046875,-0.02801513671875,-0.15826416015625
1761505513390541600,3.62454150390625,-1.0281982421875,-0.0257720947265625,-0.1596832275390625
1761505513400577500,3.63457763671875,-1.028228759765625,-0.0284271240234375,-0.160400390625
1761505513410613800,3.64461376953125,-1.009979248046875,-0.0321502685546875,-0.1561431884765625
1761505513420649700,3.654649658203125,-0.985626220703125,-0.036590576171875,-0.1491851806640625
1761505513430685700,3.664685791015625,-0.9657440185546875,-0.0412445068359375,-0.150665283203125
1761505513440721700,3.6747216796875,-0.9551239013671875,-0.0448455810546875,-0.153961181640625
1761505513450757600,3.684757568359375,-0.955230712890625,-0.0435943603515625,-0.1597442626953125
1761505513460793900,3.6947939453125,-0.968658447265625,-0.0387725830078125,-0.16571044921875
1761505513470829800,3.704829833984375,-0.991363525390625,-0.0352935791015625,-0.1666107177734375
1761505513480865800,3.71486572265625,-1.0078582763671875,-0.0332489013671875,-0.1666259765625
1761505513490901800,3.72490185546875,-1.016204833984375,-0.03082275390625,-0.1648101806640625
1761505513500937700,3.734937744140625,-1.020751953125,-0.0303955078125,-0.1615753173828125
1761505513510973700,3.7449736328125,-1.024017333984375,-0.030303955078125,-0.1645660400390625
1761505513521009700,3.755009765625,-1.02459716796875,-0.030303955078125,-0.161956787109375
1761505513531045600,3.765045654296875,-1.0184326171875,-0.032501220703125,-0.1621551513671875
1761505513541082600,3.77508251953125,-1.007049560546875,-0.03802490234375,-0.159759521484375
1761505513551118600,3.78511865234375,-0.9898529052734375,-0.041412353515625,-0.158203125
1761505513561154600,3.795154541015625,-0.982147216796875,-0.046234130859375,-0.159423828125
1761505513571190500,3.8051904296875,-0.992950439453125,-0.0479278564453125,-0.1590118408203125
1761505513581226500,3.8152265625,-1.0032196044921875,-0.0427703857421875,-0.1592864990234375
1761505513591262500,3.825262451171875,-1.0161895751953125,-0.0352783203125,-0.1656494140625
1761505513601298700,3.835298583984375,-1.024505615234375,-0.031097412109375,-0.1713409423828125
1761505513611334700,3.845334716796875,-1.0272216796875,-0.0352020263671875,-0.1698455810546875
1761505513621371000,3.855370849609375,-1.0184326171875,-0.0379486083984375,-0.1646270751953125
1761505513631406800,3.86540673828125,-1.002593994140625,-0.03729248046875,-0.1605377197265625
1761505513641442800,3.87544287109375,-0.983367919921875,-0.0389862060546875,-0.1578216552734375
1761505513651478800,3.885478759765625,-0.968536376953125,-0.0422210693359375,-0.1555328369140625
1761505513661514800,3.8955146484375,-0.9629058837890625,-0.0414276123046875,-0.15521240234375
1761505513671550700,3.90555078125,-0.968475341796875,-0.0397186279296875,-0.15814208984375
1761505513681587000,3.9155869140625,-0.984466552734375,-0.0376739501953125,-0.1592864990234375
1761505513691623000,3.925622802734375,-1.00439453125,-0.0329132080078125,-0.1598968505859375
1761505513701659000,3.935658935546875,-1.024688720703125,-0.02880859375,-0.16473388671875
1761505513711694800,3.94569482421875,-1.040283203125,-0.029083251953125,-0.1667633056640625
1761505513721731000,3.95573095703125,-1.0399627685546875,-0.030670166015625,-0.165771484375
1761505513731767000,3.96576708984375,-1.0290374755859375,-0.0322265625,-0.1646728515625
1761505513741803000,3.975802978515625,-1.0111083984375,-0.0394287109375,-0.16033935546875
1761505513751839000,3.9858388671875,-0.9908294677734375,-0.0469970703125,-0.15594482421875
1761505513761875000,3.995875,-0.97503662109375,-0.0518951416015625,-0.154876708984375
1761505513771911000,4.005910888671875,-0.9723358154296875,-0.049957275390625,-0.162109375
1761505513781947000,4.01594677734375,-0.976043701171875,-0.04254150390625,-0.17071533203125
1761505513791981800,4.02598193359375,-0.9889373779296875,-0.038726806640625,-0.174102783203125
1761505513802018000,4.03601806640625,-0.996337890625,-0.0359954833984375,-0.1692657470703125
1761505513812054000,4.046053955078125,-1.005218505859375,-0.0348052978515625,-0.16162109375
1761505513822090000,4.056090087890625,-1.0158538818359375,-0.03558349609375,-0.15570068359375
1761505513832126000,4.0661259765625,-1.0240020751953125,-0.034576416015625,-0.1557769775390625
1761505513842162000,4.076161865234375,-1.01788330078125,-0.03472900390625,-0.1551971435546875
1761505513852198000,4.086197998046875,-1.0005035400390625,-0.0366973876953125,-0.15289306640625
1761505513862233900,4.09623388671875,-0.9800567626953125,-0.040435791015625,-0.1552886962890625
1761505513872269800,4.106269775390625,-0.97515869140625,-0.042205810546875,-0.1551055908203125
1761505513882305800,4.116305908203125,-0.9925994873046875,-0.0392913818359375,-0.159393310546875
1761505513892341800,4.126341796875,-1.011566162109375,-0.0342559814453125,-0.163330078125
1761505513902377700,4.136377685546875,-1.02294921875,-0.0358123779296875,-0.163299560546875
1761505513912414000,4.1464140625,-1.021697998046875,-0.041717529296875,-0.160308837890625
1761505513922450000,4.156449951171875,-1.01104736328125,-0.04425048828125,-0.1556396484375
1761505513932486000,4.16648583984375,-0.99908447265625,-0.044677734375,-0.1551361083984375
1761505513942521900,4.17652197265625,-0.9866943359375,-0.047821044921875,-0.154449462890625
1761505513952557800,4.186557861328125,-0.977813720703125,-0.0467376708984375,-0.15411376953125
1761505513962593800,4.19659375,-0.97784423828125,-0.042144775390625,-0.1538238525390625
1761505513972629800,4.206629638671875,-0.9907073974609375,-0.038330078125,-0.150421142578125
1761505513982665700,4.216665771484375,-1.0015716552734375,-0.0354156494140625,-0.15130615234375
1761505513992701700,4.22670166015625,-1.010833740234375,-0.036773681640625,-0.1549072265625
1761505514002737700,4.236737548828125,-1.013580322265625,-0.039306640625,-0.15545654296875
1761505514012773600,4.246773681640625,-1.0170440673828125,-0.040771484375,-0.1566619873046875
1761505514022809900,4.256809814453125,-1.0154571533203125,-0.0409698486328125,-0.158477783203125
1761505514032846800,4.266846923828125,-1.01263427734375,-0.044525146484375,-0.154266357421875
1761505514042882800,4.2768828125,-1.010406494140625,-0.0437469482421875,-0.1510009765625
1761505514052918800,4.286918701171875,-1.00653076171875,-0.039764404296875,-0.1527557373046875
1761505514062955000,4.296955078125,-1.0079345703125,-0.039886474609375,-0.158721923828125
1761505514072991000,4.306990966796875,-1.00836181640625,-0.0407867431640625,-0.1632843017578125
1761505514083027000,4.31702685546875,-1.004119873046875,-0.0443878173828125,-0.1661224365234375
1761505514093063000,4.32706298828125,-0.996612548828125,-0.0474090576171875,-0.166473388671875
1761505514103099000,4.337098876953125,-0.9900054931640625,-0.0471343994140625,-0.166473388671875
1761505514113134800,4.347134765625,-0.983795166015625,-0.04351806640625,-0.1708221435546875
1761505514123170800,4.3571708984375,-0.9806060791015625,-0.0406036376953125,-0.172698974609375
1761505514133206800,4.367206787109375,-0.9833526611328125,-0.0399627685546875,-0.170318603515625
1761505514143242800,4.37724267578125,-0.9927978515625,-0.040679931640625,-0.1659698486328125
1761505514153278700,4.38727880859375,-0.9959869384765625,-0.0399169921875,-0.164154052734375
1761505514163315000,4.39731494140625,-0.9947052001953125,-0.03912353515625,-0.16485595703125
1761505514173351000,4.407350830078125,-0.9962005615234375,-0.0412750244140625,-0.165557861328125
1761505514183387000,4.417386962890625,-0.997528076171875,-0.0416717529296875,-0.166015625
1761505514193422800,4.4274228515625,-1.001220703125,-0.0406494140625,-0.1678924560546875
1761505514203458800,4.437458740234375,-1.0033721923828125,-0.04229736328125,-0.1695556640625
1761505514213494800,4.447494873046875,-1.0044097900390625,-0.044769287109375,-0.1681976318359375
1761505514223530800,4.45753076171875,-1.003173828125,-0.0435333251953125,-0.17156982421875
1761505514233566700,4.467566650390625,-1.000946044921875,-0.04425048828125,-0.1750335693359375
1761505514243602700,4.477602783203125,-1.00732421875,-0.04998779296875,-0.1697540283203125
1761505514253639000,4.487638916015625,-1.00848388671875,-0.05096435546875,-0.164703369140625
1761505514263675000,4.4976748046875,-0.9972381591796875,-0.049835205078125,-0.15960693359375
1761505514273710800,4.5077109375,-0.9924163818359375,-0.0493621826171875,-0.15338134765625
1761505514283747000,4.5177470703125,-0.9939117431640625,-0.0518798828125,-0.150390625
1761505514293783000,4.527782958984375,-0.9955902099609375,-0.0506134033203125,-0.1490936279296875
1761505514303819000,4.537819091796875,-1.003173828125,-0.047760009765625,-0.1515655517578125
1761505514313855000,4.54785498046875,-1.009735107421875,-0.0467987060546875,-0.160888671875
1761505514323891000,4.557890869140625,-1.006866455078125,-0.043609619140625,-0.1634674072265625
1761505514333927000,4.567927001953125,-1.002105712890625,-0.043670654296875,-0.1634063720703125
1761505514343963000,4.577962890625,-1.005462646484375,-0.047119140625,-0.160125732421875
1761505514353998800,4.587998779296875,-1.0153045654296875,-0.0470733642578125,-0.15838623046875
1761505514364035800,4.598035888671875,-1.0113983154296875,-0.042633056640625,-0.1614227294921875
1761505514374071800,4.60807177734375,-1.000396728515625,-0.044403076171875,-0.16339111328125
1761505514384107800,4.618107666015625,-0.9875030517578125,-0.0507965087890625,-0.161102294921875
1761505514394143700,4.628143798828125,-0.97882080078125,-0.0568389892578125,-0.158050537109375
1761505514404180700,4.6381806640625,-0.98150634765625,-0.0563201904296875,-0.1577606201171875
1761505514414216700,4.648216796875,-0.99237060546875,-0.052581787109375,-0.1581268310546875
1761505514424253000,4.6582529296875,-1.0069427490234375,-0.051605224609375,-0.1595458984375
1761505514434289000,4.668288818359375,-1.0177001953125,-0.051116943359375,-0.1586151123046875
1761505514444324900,4.678324951171875,-1.018402099609375,-0.0507049560546875,-0.1598358154296875
1761505514454361000,4.688361083984375,-1.008331298828125,-0.050018310546875,-0.1589508056640625
1761505514464397000,4.69839697265625,-0.9950714111328125,-0.0538787841796875,-0.154205322265625
1761505514474433000,4.70843310546875,-0.9849090576171875,-0.056365966796875,-0.15594482421875
1761505514484469000,4.718468994140625,-0.984130859375,-0.05328369140625,-0.1578216552734375
1761505514494505000,4.7285048828125,-1.0008697509765625,-0.05474853515625,-0.1551513671875
1761505514504541000,4.738541015625,-1.01519775390625,-0.051483154296875,-0.1552581787109375
1761505514514577000,4.748576904296875,-1.022613525390625,-0.0516204833984375,-0.160736083984375
1761505514524612900,4.75861279296875,-1.019500732421875,-0.0495147705078125,-0.166961669921875
1761505514534648800,4.76864892578125,-1.01092529296875,-0.0497283935546875,-0.1678619384765625
1761505514544684800,4.778684814453125,-1.002166748046875,-0.056488037109375,-0.1629486083984375
1761505514554720800,4.788720703125,-0.9942169189453125,-0.0573577880859375,-0.156951904296875
1761505514564757000,4.798757080078125,-0.9918212890625,-0.054595947265625,-0.1576385498046875
1761505514574793000,4.80879296875,-0.995147705078125,-0.0522003173828125,-0.1583099365234375
1761505514584829000,4.818828857421875,-0.996490478515625,-0.0511627197265625,-0.1572113037109375
1761505514594865000,4.828864990234375,-1.00054931640625,-0.05145263671875,-0.1612091064453125
1761505514604900900,4.83890087890625,-0.99481201171875,-0.0528717041015625,-0.165496826171875
1761505514614936800,4.848936767578125,-0.9935302734375,-0.05316162109375,-0.1645660400390625
1761505514624972500,4.85897265625,-0.9938507080078125,-0.052276611328125,-0.16522216796875
1761505514635008500,4.869008544921875,-1.00006103515625,-0.050567626953125,-0.167877197265625
1761505514645044500,4.87904443359375,-0.9969024658203125,-0.0468597412109375,-0.1708526611328125
1761505514655080400,4.88908056640625,-0.991729736328125,-0.048675537109375,-0.1668548583984375
1761505514665116700,4.89911669921875,-0.98785400390625,-0.0533447265625,-0.1570587158203125
1761505514675152600,4.909152587890625,-0.9872283935546875,-0.0544891357421875,-0.15667724609375
1761505514685188600,4.919188720703125,-0.990966796875,-0.051727294921875,-0.1607208251953125
1761505514695224600,4.929224609375,-0.99664306640625,-0.0466156005859375,-0.1601715087890625
1761505514705260500,4.939260498046875,-1.004913330078125,-0.047943115234375,-0.1587066650390625
1761505514715296500,4.949296630859375,-1.00933837890625,-0.0515899658203125,-0.156158447265625
1761505514725332500,4.95933251953125,-1.0109100341796875,-0.0529632568359375,-0.1563262939453125
1761505514735368400,4.969368408203125,-1.0083160400390625,-0.054534912109375,-0.15533447265625
1761505514745404400,4.979404296875,-1.0049285888671875,-0.056549072265625,-0.1536407470703125
1761505514755440400,4.9894404296875,-0.9970550537109375,-0.0561676025390625,-0.1566314697265625
1761505514765476400,4.999476318359375,-0.9920654296875,-0.056640625,-0.15899658203125
1761505514775512600,5.0095126953125,-0.99224853515625,-0.0561676025390625,-0.1578369140625
1761505514785548500,5.019548583984375,-1.001007080078125,-0.0519866943359375,-0.1605224609375
1761505514795584500,5.02958447265625,-1.013214111328125,-0.050323486328125,-0.162261962890625
1761505514805621500,5.03962158203125,-1.017425537109375,-0.049285888671875,-0.159088134765625
1761505514815657500,5.049657470703125,-1.0122833251953125,-0.0524444580078125,-0.1585235595703125
1761505514825693700,5.059693603515625,-0.99896240234375,-0.0551300048828125,-0.1558990478515625
1761505514835729700,5.069729736328125,-0.980194091796875,-0.05938720703125,-0.1566925048828125
1761505514845765600,5.079765625,-0.9670867919921875,-0.0610198974609375,-0.1615142822265625
1761505514855801600,5.089801513671875,-0.9745635986328125,-0.056243896484375,-0.1663360595703125
1761505514865837600,5.099837646484375,-0.992431640625,-0.0526885986328125,-0.1742095947265625
1761505514875873500,5.10987353515625,-1.0123443603515625,-0.0511016845703125,-0.1773529052734375
1761505514885909500,5.119909423828125,-1.0222015380859375,-0.05364990234375,-0.1720733642578125
1761505514895945500,5.129945556640625,-1.0196075439453125,-0.04962158203125,-0.167236328125
1761505514905981400,5.1399814453125,-1.0092620849609375,-0.0489044189453125,-0.166748046875
1761505514916017400,5.150017333984375,-1.00030517578125,-0.0561065673828125,-0.1603240966796875
1761505514926053600,5.1600537109375,-0.9950714111328125,-0.0618133544921875,-0.1530303955078125
1761505514936089600,5.170089599609375,-0.99835205078125,-0.063079833984375,-0.1523284912109375
1761505514946125600,5.18012548828125,-0.996490478515625,-0.0597381591796875,-0.155242919921875
1761505514956161500,5.19016162109375,-0.99468994140625,-0.0549468994140625,-0.1536102294921875
1761505514966197500,5.200197509765625,-0.9875030517578125,-0.051513671875,-0.15277099609375
1761505514976233500,5.2102333984375,-0.9819183349609375,-0.05194091796875,-0.1570892333984375
1761505514986269400,5.22026953125,-0.9868316650390625,-0.0547332763671875,-0.161346435546875
1761505514996305400,5.230305419921875,-0.9985504150390625,-0.0588226318359375,-0.162109375
1761505515006341400,5.24034130859375,-1.011077880859375,-0.05914306640625,-0.156829833984375
1761505515016377300,5.25037744140625,-1.0254974365234375,-0.059356689453125,-0.1488800048828125
1761505515026413600,5.26041357421875,-1.0263824462890625,-0.0604705810546875,-0.14715576171875
1761505515036449500,5.270449462890625,-1.022247314453125,-0.05938720703125,-0.1470947265625
1761505515046485500,5.280485595703125,-1.012847900390625,-0.0583953857421875,-0.1455841064453125
1761505515056521500,5.290521484375,-1.001861572265625,-0.0590057373046875,-0.148406982421875
1761505515066557400,5.300557373046875,-0.9908599853515625,-0.059967041015625,-0.1508636474609375
1761505515076593400,5.310593505859375,-0.983154296875,-0.0612640380859375,-0.1507720947265625
1761505515086629400,5.32062939453125,-0.9838714599609375,-0.063262939453125,-0.1540374755859375
1761505515096665300,5.330665283203125,-0.986541748046875,-0.0635223388671875,-0.1565704345703125
1761505515106701600,5.34070166015625,-0.99884033203125,-0.06085205078125,-0.157745361328125
1761505515116737500,5.350737548828125,-1.02197265625,-0.051483154296875,-0.16534423828125
1761505515126773500,5.3607734375,-1.0240936279296875,-0.0475616455078125,-0.172027587890625
1761505515136809500,5.3708095703125,-1.0175323486328125,-0.050384521484375,-0.1705780029296875
1761505515146845700,5.380845703125,-0.999481201171875,-0.057403564453125,-0.1659698486328125
1761505515156881700,5.390881591796875,-0.9915924072265625,-0.0573272705078125,-0.16278076171875
1761505515166917600,5.400917724609375,-0.9947662353515625,-0.0538787841796875,-0.1565093994140625
1761505515176953600,5.41095361328125,-1.005218505859375,-0.053863525390625,-0.15576171875
1761505515186989600,5.420989501953125,-1.01226806640625,-0.0516510009765625,-0.15850830078125
1761505515197025500,5.431025634765625,-1.00543212890625,-0.053924560546875,-0.162994384765625
1761505515207061500,5.4410615234375,-0.996734619140625,-0.056884765625,-0.1620635986328125
1761505515217097500,5.451097412109375,-0.994232177734375,-0.0590667724609375,-0.1577606201171875
1761505515227133400,5.461133544921875,-1.0001220703125,-0.0607452392578125,-0.15277099609375
1761505515237169400,5.47116943359375,-1.004058837890625,-0.0584564208984375,-0.148284912109375
1761505515247205400,5.481205322265625,-1.002471923828125,-0.0567474365234375,-0.146759033203125
1761505515257242400,5.491242431640625,-0.998565673828125,-0.056549072265625,-0.14935302734375
1761505515267278300,5.5012783203125,-0.992919921875,-0.0592498779296875,-0.153106689453125
1761505515277314300,5.511314208984375,-0.984375,-0.0587005615234375,-0.1554412841796875
1761505515287350500,5.5213505859375,-0.9798126220703125,-0.05792236328125,-0.15447998046875
1761505515297386500,5.531386474609375,-0.982818603515625,-0.0563812255859375,-0.1511993408203125
1761505515307422500,5.54142236328125,-0.9922332763671875,-0.054351806640625,-0.1478729248046875
1761505515317458400,5.55145849609375,-1.00665283203125,-0.0579986572265625,-0.1447906494140625
1761505515327494400,5.561494384765625,-1.016204833984375,-0.0604400634765625,-0.149810791015625
1761505515337530600,5.571530517578125,-1.0153350830078125,-0.0575103759765625,-0.1592254638671875
1761505515347566600,5.581566650390625,-1.00567626953125,-0.058563232421875,-0.163818359375
1761505515357602600,5.5916025390625,-0.98992919921875,-0.060455322265625,-0.166351318359375
1761505515367638500,5.601638427734375,-0.98699951171875,-0.058380126953125,-0.17010498046875
1761505515377674500,5.611674560546875,-1.000091552734375,-0.056396484375,-0.169647216796875
1761505515387710500,5.62171044921875,-1.01092529296875,-0.0582122802734375,-0.1681365966796875
1761505515397746700,5.63174658203125,-1.0130615234375,-0.0643768310546875,-0.1621856689453125
1761505515407782700,5.64178271484375,-1.0033111572265625,-0.0683441162109375,-0.1600799560546875
1761505515417818600,5.651818603515625,-0.994873046875,-0.0661163330078125,-0.15966796875
1761505515427854600,5.6618544921875,-0.9921875,-0.0666656494140625,-0.1595611572265625
1761505515437890600,5.671890625,-0.9939117431640625,-0.0705718994140625,-0.1575775146484375
1761505515447926500,5.681926513671875,-0.9932861328125,-0.0652008056640625,-0.155120849609375
1761505515457962500,5.69196240234375,-0.9926910400390625,-0.0594482421875,-0.1544036865234375
1761505515467998500,5.70199853515625,-0.98980712890625,-0.06072998046875,-0.1512908935546875
1761505515478034400,5.712034423828125,-0.9889373779296875,-0.063873291015625,-0.1497802734375
1761505515488070400,5.7220703125,-0.9931488037109375,-0.066131591796875,-0.15301513671875
1761505515498106400,5.7321064453125,-0.9924468994140625,-0.068389892578125,-0.152496337890625
1761505515508142600,5.742142578125,-0.9892425537109375,-0.0688323974609375,-0.1506805419921875
1761505515518178600,5.752178466796875,-0.992218017578125,-0.06744384765625,-0.149505615234375
1761505515528214500,5.762214599609375,-1.00634765625,-0.068328857421875,-0.1438751220703125
1761505515538250500,5.77225048828125,-1.015899658203125,-0.0684356689453125,-0.1416015625
1761505515548286500,5.782286376953125,-1.0184478759765625,-0.0658721923828125,-0.14642333984375
1761505515558322400,5.792322509765625,-1.0122528076171875,-0.0629730224609375,-0.1510009765625
1761505515568358400,5.8023583984375,-1.001800537109375,-0.060943603515625,-0.156097412109375
1761505515578394400,5.812394287109375,-1.0011138916015625,-0.0645294189453125,-0.15533447265625
1761505515588430300,5.822430419921875,-1.014892578125,-0.0718841552734375,-0.1495208740234375
1761505515598466300,5.83246630859375,-1.0247344970703125,-0.0735015869140625,-0.14947509765625
1761505515608502300,5.842502197265625,-1.0307159423828125,-0.064544677734375,-0.1483612060546875
1761505515618538500,5.85253857421875,-1.0208282470703125,-0.0525970458984375,-0.15283203125
1761505515628575000,5.862574951171875,-1.0054168701171875,-0.0538330078125,-0.1499176025390625
1761505515638611000,5.87261083984375,-0.9944610595703125,-0.0640106201171875,-0.1443939208984375
1761505515648647000,5.88264697265625,-0.988250732421875,-0.066741943359375,-0.1461639404296875
1761505515658683000,5.892682861328125,-0.9909210205078125,-0.064971923828125,-0.1476287841796875
1761505515668718800,5.90271875,-0.9962921142578125,-0.0625152587890625,-0.151153564453125
1761505515678754800,5.9127548828125,-1.001800537109375,-0.0603179931640625,-0.1515655517578125
1761505515688790800,5.922790771484375,-1.0008544921875,-0.0589752197265625,-0.1503143310546875
1761505515698826800,5.93282666015625,-0.99786376953125,-0.053375244140625,-0.154571533203125
1761505515708862700,5.94286279296875,-0.99249267578125,-0.0532989501953125,-0.15814208984375
1761505515718898700,5.952898681640625,-0.991668701171875,-0.0557861328125,-0.1560211181640625
1761505515728934700,5.9629345703125,-0.99664306640625,-0.055816650390625,-0.1591796875
1761505515738971000,5.972970947265625,-1.00177001953125,-0.0573883056640625,-0.1591644287109375
1761505515749006800,5.9830068359375,-1.0045928955078125,-0.059844970703125,-0.1582794189453125
1761505515759042800,5.993042724609375,-1.0076751708984375,-0.0632476806640625,-0.157440185546875
1761505515769078800,6.003078857421875,-1.010711669921875,-0.0610504150390625,-0.1569671630859375
1761505515779114800,6.01311474609375,-1.0098876953125,-0.0551300048828125,-0.1590576171875
1761505515789150700,6.023150634765625,-1.006072998046875,-0.0526123046875,-0.1631317138671875
1761505515799186700,6.033186767578125,-1.00177001953125,-0.0563201904296875,-0.1593017578125
1761505515809222700,6.04322265625,-0.993560791015625,-0.0633544921875,-0.1541900634765625
1761505515819258600,6.053258544921875,-0.985687255859375,-0.066741943359375,-0.1538238525390625
1761505515829294600,6.063294677734375,-0.9786224365234375,-0.064910888671875,-0.1568145751953125
1761505515839330600,6.07333056640625,-0.9753265380859375,-0.06011962890625,-0.161590576171875
1761505515849366800,6.08336669921875,-0.977203369140625,-0.05426025390625,-0.1615142822265625
1761505515859403000,6.093403076171875,-0.984832763671875,-0.053558349609375,-0.1566162109375
1761505515869439000,6.10343896484375,-0.9962921142578125,-0.055908203125,-0.152740478515625
1761505515879475000,6.113474853515625,-1.01220703125,-0.0541229248046875,-0.1533660888671875
1761505515889511000,6.123510986328125,-1.0322265625,-0.0550537109375,-0.158660888671875
1761505515899547000,6.133546875,-1.0325164794921875,-0.05780029296875,-0.16259765625
1761505515909582800,6.143582763671875,-1.0265350341796875,-0.0589752197265625,-0.156280517578125
1761505515919618800,6.153618896484375,-1.017303466796875,-0.0628662109375,-0.1527099609375
1761505515929654800,6.16365478515625,-1.0012359619140625,-0.071533203125,-0.1458587646484375
1761505515939690800,6.173690673828125,-0.9860992431640625,-0.0787506103515625,-0.13775634765625
1761505515949726700,6.183726806640625,-0.9748687744140625,-0.0787506103515625,-0.132904052734375
1761505515959762700,6.1937626953125,-0.974639892578125,-0.0740814208984375,-0.131683349609375
1761505515969799000,6.203798828125,-0.994598388671875,-0.0673065185546875,-0.1362457275390625
1761505515979835000,6.2138349609375,-1.0112152099609375,-0.0648956298828125,-0.1449432373046875
1761505515989870800,6.223870849609375,-1.018798828125,-0.066802978515625,-0.1519775390625
1761505515999906800,6.23390673828125,-1.00970458984375,-0.0668182373046875,-0.1515045166015625
1761505516009942800,6.24394287109375,-1.0015411376953125,-0.06585693359375,-0.1463775634765625
1761505516019978800,6.253978759765625,-0.9993896484375,-0.0654754638671875,-0.1411590576171875
1761505516030014700,6.2640146484375,-1.0069580078125,-0.0669708251953125,-0.1369476318359375
1761505516040050700,6.27405078125,-1.008758544921875,-0.0663299560546875,-0.13677978515625
1761505516050086700,6.284086669921875,-1.0101165771484375,-0.065338134765625,-0.1470794677734375
1761505516060122600,6.29412255859375,-1.006683349609375,-0.0651397705078125,-0.1606597900390625
1761505516070158800,6.304158935546875,-1.0067291259765625,-0.068817138671875,-0.1661834716796875
1761505516080194800,6.31419482421875,-0.999847412109375,-0.073486328125,-0.1673126220703125
1761505516090230800,6.324230712890625,-0.9967498779296875,-0.0711517333984375,-0.162017822265625
1761505516100266800,6.334266845703125,-0.9962921142578125,-0.0691375732421875,-0.1556854248046875
1761505516110302700,6.344302734375,-0.9966888427734375,-0.070587158203125,-0.1527557373046875
1761505516120340000,6.354340087890625,-0.9915618896484375,-0.0692138671875,-0.1464691162109375
1761505516130374700,6.364374755859375,-0.9845123291015625,-0.06243896484375,-0.1409149169921875
1761505516140411000,6.374410888671875,-0.98663330078125,-0.0558013916015625,-0.1410980224609375
1761505516150447900,6.38444775390625,-1.0025634765625,-0.0562591552734375,-0.1391143798828125
1761505516160482800,6.39448291015625,-1.0261993408203125,-0.060333251953125,-0.13714599609375
1761505516170519800,6.404519775390625,-1.0272979736328125,-0.0604400634765625,-0.14483642578125
1761505516180554800,6.4145546875,-1.010467529296875,-0.058563232421875,-0.153106689453125
1761505516190591700,6.424591796875,-0.9946136474609375,-0.0630645751953125,-0.1571502685546875
1761505516200627700,6.434627685546875,-0.9926300048828125,-0.0670928955078125,-0.1473236083984375
1761505516210663700,6.44466357421875,-1.003936767578125,-0.068695068359375,-0.1462554931640625
1761505516220699000,6.454698974609375,-1.0069732666015625,-0.0675201416015625,-0.1428985595703125
1761505516230736000,6.46473583984375,-1.0128326416015625,-0.0680084228515625,-0.132843017578125
1761505516240770800,6.474770751953125,-1.0070343017578125,-0.06768798828125,-0.131744384765625
1761505516250807800,6.484807861328125,-0.9992523193359375,-0.0637359619140625,-0.1389312744140625
1761505516260843800,6.49484375,-1.0028228759765625,-0.0576324462890625,-0.155120849609375
1761505516270879700,6.504879638671875,-1.0109405517578125,-0.0620574951171875,-0.16766357421875
1761505516280915700,6.514915771484375,-1.0098876953125,-0.06268310546875,-0.1649017333984375
1761505516290951700,6.52495166015625,-0.99560546875,-0.0560302734375,-0.166015625
1761505516300987600,6.534987548828125,-0.98260498046875,-0.0610504150390625,-0.1633758544921875
1761505516311023600,6.545023681640625,-0.975341796875,-0.0780487060546875,-0.15673828125
1761505516321059600,6.5550595703125,-0.9770660400390625,-0.08001708984375,-0.154876708984375
1761505516331095800,6.565095703125,-0.99127197265625,-0.0696563720703125,-0.1595916748046875
1761505516341131800,6.5751318359375,-1.0082855224609375,-0.0608062744140625,-0.16119384765625
1761505516351166700,6.585166748046875,-1.0266571044921875,-0.0559539794921875,-0.16436767578125
1761505516361203700,6.59520361328125,-1.03045654296875,-0.0508575439453125,-0.16436767578125
1761505516371240000,6.605239990234375,-1.0223388671875,-0.0481719970703125,-0.15679931640625
1761505516381276000,6.61527587890625,-1.0032806396484375,-0.052642822265625,-0.1501922607421875
1761505516391312000,6.625311767578125,-0.9833221435546875,-0.06341552734375,-0.1439971923828125
1761505516401347800,6.635347900390625,-0.975616455078125,-0.0723419189453125,-0.1417999267578125
1761505516411382800,6.6453828125,-0.9781951904296875,-0.07501220703125,-0.1440582275390625
1761505516421418800,6.655418701171875,-0.9827423095703125,-0.0674285888671875,-0.1451568603515625
1761505516431455700,6.665455810546875,-0.9869537353515625,-0.0605926513671875,-0.14910888671875
1761505516441491000,6.675490966796875,-0.9904327392578125,-0.060089111328125,-0.14703369140625
1761505516451528000,6.68552783203125,-0.996612548828125,-0.05902099609375,-0.1437835693359375
1761505516461564000,6.69556396484375,-1.0047454833984375,-0.05743408203125,-0.1446990966796875
1761505516471598800,6.705598876953125,-1.0184783935546875,-0.0594940185546875,-0.143768310546875
1761505516481634800,6.715634765625,-1.0230712890625,-0.0600128173828125,-0.1439666748046875
1761505516491670800,6.7256708984375,-1.017242431640625,-0.0612640380859375,-0.1435089111328125
1761505516501706800,6.735706787109375,-1.0097198486328125,-0.06341552734375,-0.140899658203125
1761505516511742700,6.74574267578125,-0.9988250732421875,-0.0687255859375,-0.1429901123046875
1761505516521779000,6.755779052734375,-0.986785888671875,-0.0686187744140625,-0.14654541015625
1761505516531815000,6.76581494140625,-0.9815673828125,-0.0681915283203125,-0.1500244140625
1761505516541851000,6.775850830078125,-0.984222412109375,-0.0659332275390625,-0.1533966064453125
1761505516551886800,6.785886962890625,-0.99176025390625,-0.061309814453125,-0.1568756103515625
1761505516561922800,6.7959228515625,-0.9972381591796875,-0.060302734375,-0.157196044921875
1761505516571958800,6.805958740234375,-0.99957275390625,-0.061279296875,-0.15850830078125
1761505516581994800,6.815994873046875,-0.999755859375,-0.0630950927734375,-0.158905029296875
1761505516592030700,6.82603076171875,-1.0047760009765625,-0.0654296875,-0.1617279052734375
1761505516602066700,6.836066650390625,-1.01123046875,-0.061859130859375,-0.1640777587890625
1761505516612102700,6.8461025390625,-1.0127716064453125,-0.06109619140625,-0.160888671875
1761505516622138600,6.856138671875,-1.00830078125,-0.06683349609375,-0.16070556640625
1761505516632174600,6.866174560546875,-1.00091552734375,-0.071197509765625,-0.160430908203125
1761505516642210600,6.87621044921875,-0.9974365234375,-0.06768798828125,-0.1588134765625
1761505516652246500,6.88624658203125,-0.998992919921875,-0.0645751953125,-0.1586151123046875
1761505516662282500,6.896282470703125,-1.005340576171875,-0.061798095703125,-0.1552276611328125
1761505516672318500,6.906318359375,-1.0124053955078125,-0.0608978271484375,-0.1483306884765625
1761505516682354400,6.9163544921875,-1.0151519775390625,-0.06085205078125,-0.140472412109375
1761505516692390400,6.926390380859375,-1.0078887939453125,-0.06427001953125,-0.1341705322265625
1761505516702426400,6.93642626953125,-0.9961700439453125,-0.06524658203125,-0.1312255859375
1761505516712462300,6.94646240234375,-0.9940032958984375,-0.067657470703125,-0.1367340087890625
1761505516722498300,6.956498291015625,-0.999267578125,-0.0677032470703125,-0.1449737548828125
1761505516732534500,6.966534423828125,-1.002685546875,-0.062744140625,-0.150054931640625
1761505516742570500,6.976570556640625,-1.001312255859375,-0.058868408203125,-0.1553802490234375
1761505516752606500,6.9866064453125,-0.9936676025390625,-0.06109619140625,-0.1555023193359375
1761505516762642400,6.996642333984375,-0.9931793212890625,-0.0647125244140625,-0.153839111328125
1761505516772678400,7.006678466796875,-0.9974365234375,-0.0645904541015625,-0.145660400390625
1761505516782714600,7.016714599609375,-1.0043487548828125,-0.0632476806640625,-0.1390533447265625
1761505516792750600,7.02675048828125,-1.0146484375,-0.0631561279296875,-0.1369781494140625
1761505516802786600,7.03678662109375,-1.021820068359375,-0.064666748046875,-0.1385498046875
1761505516812822500,7.046822509765625,-1.024078369140625,-0.063873291015625,-0.1513214111328125
1761505516822858500,7.0568583984375,-1.0123291015625,-0.060394287109375,-0.1589202880859375
1761505516832894500,7.06689453125,-0.9966278076171875,-0.0584716796875,-0.1605377197265625
1761505516842930400,7.076930419921875,-0.9814910888671875,-0.0619049072265625,-0.1591644287109375
1761505516852966700,7.086966552734375,-0.9842529296875,-0.06781005859375,-0.155181884765625
1761505516863002600,7.097002685546875,-0.9965667724609375,-0.068328857421875,-0.1532135009765625
1761505516873038600,7.10703857421875,-1.0051422119140625,-0.0632171630859375,-0.154083251953125
1761505516883074600,7.117074462890625,-1.00775146484375,-0.0652313232421875,-0.1566925048828125
1761505516893110500,7.127110595703125,-0.999847412109375,-0.0668487548828125,-0.1579742431640625
1761505516903146500,7.137146484375,-0.995635986328125,-0.0648651123046875,-0.155242919921875
1761505516913182500,7.147182373046875,-1.0014190673828125,-0.0608978271484375,-0.156463623046875
1761505516923218400,7.157218505859375,-0.9990386962890625,-0.056732177734375,-0.156982421875
1761505516933254400,7.16725439453125,-0.9974365234375,-0.05352783203125,-0.151885986328125
1761505516943290400,7.177290283203125,-0.9963531494140625,-0.0541534423828125,-0.14752197265625
1761505516953326300,7.187326416015625,-0.98883056640625,-0.0554962158203125,-0.1416015625
1761505516963362600,7.197362548828125,-0.983978271484375,-0.0551910400390625,-0.1387939453125
1761505516973398500,7.2073984375,-0.9840240478515625,-0.053619384765625,-0.146728515625
1761505516983434500,7.2174345703125,-0.9921417236328125,-0.0554351806640625,-0.157440185546875
1761505516993470500,7.227470458984375,-1.00885009765625,-0.0602874755859375,-0.1649169921875
1761505517003506400,7.23750634765625,-1.01690673828125,-0.0635528564453125,-0.1720428466796875
1761505517013542400,7.24754248046875,-1.02178955078125,-0.057647705078125,-0.166656494140625
1761505517023578400,7.257578369140625,-1.016387939453125,-0.0543212890625,-0.1590423583984375
1761505517033614300,7.2676142578125,-1.00830078125,-0.060211181640625,-0.15081787109375
1761505517043650300,7.277650390625,-0.9996185302734375,-0.0634613037109375,-0.144256591796875
1761505517053686300,7.287686279296875,-0.9970855712890625,-0.0620880126953125,-0.146453857421875
1761505517063722500,7.297722412109375,-0.9962310791015625,-0.060791015625,-0.1516265869140625
1761505517073758700,7.3077587890625,-1.008056640625,-0.05865478515625,-0.1546783447265625
1761505517083794700,7.317794677734375,-1.0118408203125,-0.0557861328125,-0.1570587158203125
1761505517093830700,7.32783056640625,-1.004486083984375,-0.051116943359375,-0.1598968505859375
1761505517103866600,7.33786669921875,-0.9927520751953125,-0.052093505859375,-0.1577606201171875
1761505517113902600,7.347902587890625,-0.983154296875,-0.0594482421875,-0.15679931640625
1761505517123938600,7.3579384765625,-0.9799652099609375,-0.066009521484375,-0.16162109375
1761505517133974500,7.367974609375,-0.9889678955078125,-0.0617218017578125,-0.164215087890625
1761505517144010500,7.378010498046875,-1.0070037841796875,-0.0561676025390625,-0.1715087890625
1761505517154046500,7.38804638671875,-1.022247314453125,-0.052459716796875,-0.168304443359375
1761505517164082400,7.39808251953125,-1.02337646484375,-0.0464324951171875,-0.159393310546875
1761505517174118400,7.408118408203125,-1.013427734375,-0.0485992431640625,-0.147613525390625
1761505517184154600,7.418154541015625,-0.996612548828125,-0.052001953125,-0.141143798828125
1761505517194190600,7.428190673828125,-0.98968505859375,-0.0522918701171875,-0.1379852294921875
1761505517204226600,7.4382265625,-0.9942626953125,-0.0506744384765625,-0.1386566162109375
1761505517214262500,7.448262451171875,-1.0032196044921875,-0.05279541015625,-0.1453704833984375
1761505517224298500,7.458298583984375,-1.010162353515625,-0.0575714111328125,-0.1541900634765625
1761505517234334500,7.46833447265625,-1.01318359375,-0.0516815185546875,-0.152587890625
1761505517244370400,7.478370361328125,-1.0074920654296875,-0.0382537841796875,-0.1578369140625
1761505517254406400,7.488406494140625,-0.99658203125,-0.0381011962890625,-0.1650390625
1761505517264442400,7.4984423828125,-0.9927825927734375,-0.051666259765625,-0.1651458740234375
1761505517274478300,7.508478271484375,-0.98602294921875,-0.0557708740234375,-0.162628173828125
1761505517284514300,7.518514404296875,-0.98858642578125,-0.053924560546875,-0.1578216552734375
1761505517294550500,7.528550537109375,-0.9898834228515625,-0.05389404296875,-0.1491241455078125
1761505517304586500,7.53858642578125,-0.9970550537109375,-0.056365966796875,-0.1357879638671875
1761505517314622500,7.54862255859375,-1.011474609375,-0.0540771484375,-0.1338043212890625
1761505517324658400,7.558658447265625,-1.0248260498046875,-0.047088623046875,-0.1431884765625
1761505517334694400,7.5686943359375,-1.025970458984375,-0.040496826171875,-0.1543121337890625
1761505517344730400,7.57873046875,-1.0100250244140625,-0.0391387939453125,-0.162750244140625
1761505517354766600,7.5887666015625,-0.9973602294921875,-0.049957275390625,-0.164794921875
1761505517364802600,7.598802490234375,-0.989471435546875,-0.0642242431640625,-0.153167724609375
1761505517374838500,7.608838623046875,-0.990570068359375,-0.072906494140625,-0.1480712890625
1761505517384873500,7.61887353515625,-0.9998779296875,-0.072265625,-0.14935302734375
1761505517394909400,7.628909423828125,-1.0112152099609375,-0.0638885498046875,-0.149749755859375
1761505517404945700,7.638945556640625,-1.00994873046875,-0.0569000244140625,-0.154998779296875
1761505517414981600,7.648981689453125,-0.99462890625,-0.0565643310546875,-0.156524658203125
1761505517425017600,7.659017578125,-0.9793243408203125,-0.0609130859375,-0.15673828125
1761505517435053600,7.669053466796875,-0.9760284423828125,-0.062774658203125,-0.151824951171875
1761505517445089500,7.679089599609375,-0.9814300537109375,-0.0600738525390625,-0.149627685546875
1761505517455125500,7.68912548828125,-0.9791259765625,-0.060394287109375,-0.1439056396484375
1761505517465161500,7.699161376953125,-0.9784698486328125,-0.05712890625,-0.142608642578125
1761505517475197400,7.709197509765625,-0.9771728515625,-0.0523681640625,-0.14471435546875
1761505517485233700,7.719233642578125,-0.9889373779296875,-0.0489654541015625,-0.144287109375
1761505517495269600,7.72926953125,-1.010162353515625,-0.046356201171875,-0.1459197998046875
1761505517505305600,7.7393056640625,-1.0342864990234375,-0.0336761474609375,-0.153411865234375
1761505517515341600,7.749341552734375,-1.048797607421875,-0.031463623046875,-0.1542816162109375
1761505517525377500,7.75937744140625,-1.0518798828125,-0.0484466552734375,-0.1426239013671875
1761505517535413500,7.76941357421875,-1.02520751953125,-0.0445709228515625,-0.1539306640625
1761505517545449500,7.779449462890625,-1.0006103515625,-0.0373077392578125,-0.1621856689453125
1761505517555485400,7.7894853515625,-0.98345947265625,-0.0426483154296875,-0.1568603515625
1761505517565521400,7.799521484375,-0.988677978515625,-0.0549774169921875,-0.15350341796875
1761505517575557400,7.809557373046875,-1.0018310546875,-0.0629730224609375,-0.1504669189453125
1761505517585593300,7.81959326171875,-1.0095672607421875,-0.0580902099609375,-0.147430419921875
1761505517595629600,7.829629638671875,-1.004791259765625,-0.0476531982421875,-0.144378662109375
1761505517605665500,7.83966552734375,-1.000396728515625,-0.046173095703125,-0.140594482421875
1761505517615701500,7.849701416015625,-0.9990386962890625,-0.0534820556640625,-0.1423492431640625
1761505517625737700,7.85973779296875,-0.9978179931640625,-0.056396484375,-0.1459503173828125
1761505517635773700,7.869773681640625,-0.9927825927734375,-0.057708740234375,-0.1535491943359375
1761505517645809700,7.8798095703125,-0.9906158447265625,-0.059295654296875,-0.15594482421875
1761505517655845600,7.889845703125,-0.9935302734375,-0.0512542724609375,-0.1671295166015625
1761505517665881600,7.899881591796875,-1.0059051513671875,-0.0469512939453125,-0.163055419921875
1761505517675917600,7.90991748046875,-1.0167694091796875,-0.047821044921875,-0.1461944580078125
1761505517685953500,7.91995361328125,-1.0197906494140625,-0.0537567138671875,-0.12982177734375
1761505517695989500,7.929989501953125,-1.0171051025390625,-0.05426025390625,-0.1317596435546875
1761505517706025700,7.940025634765625,-1.0151519775390625,-0.049072265625,-0.1381988525390625
1761505517716061700,7.950061767578125,-1.015838623046875,-0.0489044189453125,-0.1418914794921875
1761505517726097700,7.96009765625,-1.007293701171875,-0.0464630126953125,-0.1486053466796875
1761505517736133600,7.970133544921875,-1.0014495849609375,-0.0469207763671875,-0.146942138671875
1761505517746169600,7.980169677734375,-1.004425048828125,-0.0473175048828125,-0.1419525146484375
1761505517756205600,7.99020556640625,-1.0053558349609375,-0.0373687744140625,-0.14306640625
1761505517766241500,8.000241455078125,-1.0068359375,-0.0360870361328125,-0.14202880859375
1761505517776277500,8.010277587890625,-1.0032501220703125,-0.0390625,-0.1431427001953125
1761505517786313500,8.0203134765625,-0.9938201904296875,-0.0452423095703125,-0.1490478515625
1761505517796348700,8.0303486328125,-0.9917755126953125,-0.0548248291015625,-0.1533203125
1761505517806384600,8.040384521484375,-0.986785888671875,-0.04852294921875,-0.1519012451171875
1761505517816420600,8.050420654296875,-0.98223876953125,-0.0388031005859375,-0.156036376953125
1761505517826455600,8.06045556640625,-0.9862518310546875,-0.041107177734375,-0.1512451171875
1761505517836492500,8.070492431640625,-1.0010833740234375,-0.0490264892578125,-0.1501007080078125
1761505517846527500,8.080527587890625,-1.012725830078125,-0.04962158203125,-0.1443328857421875
1761505517856563500,8.0905634765625,-1.020263671875,-0.0356292724609375,-0.14849853515625
1761505517866599700,8.100599609375,-1.0224609375,-0.0333404541015625,-0.1560821533203125
1761505517876635600,8.1106357421875,-1.018157958984375,-0.0476837158203125,-0.154052734375
1761505517886671600,8.120671630859375,-1.011077880859375,-0.06195068359375,-0.153778076171875
1761505517896707600,8.13070751953125,-0.989288330078125,-0.0588836669921875,-0.1523895263671875
1761505517906743600,8.14074365234375,-0.9771575927734375,-0.0448150634765625,-0.154205322265625
1761505517916779500,8.150779541015625,-0.983245849609375,-0.0454864501953125,-0.1509552001953125
1761505517926815500,8.1608154296875,-0.9975128173828125,-0.0533447265625,-0.1444854736328125
1761505517936851500,8.1708515625,-1.010162353515625,-0.048065185546875,-0.139190673828125
1761505517946887700,8.1808876953125,-1.023529052734375,-0.0394287109375,-0.141693115234375
1761505517956923600,8.190923583984375,-1.0125732421875,-0.045867919921875,-0.1565399169921875
1761505517966959600,8.200959716796875,-1.0083160400390625,-0.050872802734375,-0.1572418212890625
1761505517976995600,8.21099560546875,-1.0177764892578125,-0.010498046875,-0.1598052978515625
1761505517987031800,8.22103173828125,-1.014312744140625,-0.031707763671875,-0.1248779296875
1761505517997067800,8.23106787109375,-1.017333984375,-0.073760986328125,-0.0901641845703125
1761505518007103700,8.241103759765625,-1.004913330078125,-0.080657958984375,-0.06927490234375
1761505518017139700,8.2511396484375,-0.9799652099609375,-0.058319091796875,-0.0994110107421875
1761505518027175700,8.26117578125,-0.972198486328125,-0.0298919677734375,-0.14129638671875
1761505518037211600,8.271211669921875,-0.9859161376953125,-0.0387420654296875,-0.149627685546875
1761505518047247600,8.28124755859375,-1.003936767578125,-0.061798095703125,-0.1416473388671875
1761505518057283600,8.29128369140625,-1.0215911865234375,-0.0777435302734375,-0.146453857421875
1761505518067319600,8.301319580078125,-1.0465240478515625,-0.051788330078125,-0.1581878662109375
1761505518077355500,8.31135546875,-1.072723388671875,-0.003082275390625,-0.162261962890625
