time,seconds_elapsed,z,y,x
1761505509862867700,0.09686767578125,0.032280805879831315,0.03931172742992639,-0.012613982379436492
1761505509872904000,0.106904052734375,0.10216975014209746,0.14032353970855474,-0.040837037301063535
1761505509882940000,0.11693994140625,0.004510755422711372,0.24977935520559547,-0.02895692215412855
1761505509892975900,0.126975830078125,-0.07042261274755,0.2536694945119321,-0.033934856697171924
1761505509903012900,0.137012939453125,-0.14804711969792841,0.21838227335773408,-0.010136340219527482
1761505509913048800,0.147048828125,-0.18772563461363315,0.17128135335631667,-0.07113967497572303
1761505509923084800,0.157084716796875,-0.07518295901715755,0.09367284769266843,-0.08867460101395845
1761505509933120800,0.167120849609375,-0.03880348564684391,0.03303725027032196,-0.020993542059510945
1761505509943156700,0.17715673828125,0.030472879675030706,-0.043019934298098084,0.010732114155590534
1761505509953192700,0.187192626953125,0.16830957100391386,-0.08268675877600908,0.04959785138368606
1761505509963228700,0.197228759765625,0.2093120279997587,-0.04900777653604745,0.08269932599663735
1761505509973264600,0.2072646484375,0.0614081161648035,-0.0010197726434387731,0.036720980284363026
1761505509983300600,0.217300537109375,-0.061677580755949014,0.012870806684717535,-0.07384908006489277
1761505509993336600,0.227336669921875,-0.2841962963312864,0.009229016116261481,-0.18258593363761902
1761505510003372500,0.23737255859375,-0.3569821310788393,-0.03866970319934189,-0.12718451054170726
1761505510013409000,0.247408935546875,-0.38771921464800835,-0.054397725946083664,-0.07810483781322837
1761505510023445000,0.257445068359375,-0.33613924953639507,-0.03369147639535367,-0.08431246028169989
1761505510033481000,0.26748095703125,-0.18017594988644123,-0.03716813952997327,-0.09879910466521978
1761505510043517000,0.277516845703125,0.01255962184369564,-0.040232203275710345,-0.06630348699092864
1761505510053554000,0.287553955078125,0.20192074870467186,-0.10885587684251367,-0.023235914158821105
1761505510063590000,0.29758984375,0.21964462144374847,-0.19836692868061362,0.0032078561305999755
1761505510073625900,0.3076259765625,-0.015533084696531295,-0.18438494588360188,-0.024765315683186052
1761505510083661800,0.317661865234375,-0.23817688795626163,-0.12980251102037726,-0.011014145967364311
1761505510093697800,0.32769775390625,-0.46861061443984503,-0.06667633889131247,-0.02837926839664578
1761505510103733800,0.337733642578125,-0.4476642725229263,-0.08601816822104155,-0.06725026632174849
1761505510113769700,0.347769775390625,-0.2690910816580057,-0.13003982690759003,-0.1211811784736812
1761505510123805700,0.3578056640625,-0.2209060196816921,-0.1662736812621355,-0.05884922546222806
1761505510133841700,0.367841552734375,-0.24095219788849354,-0.11660641790404914,-0.032579496565461157
1761505510143877600,0.377877685546875,-0.3082692458361387,-0.06402487453445792,-0.02307107898592949
1761505510153913900,0.387913818359375,-0.2796902170836925,-0.09322941477410494,-0.05729688145369291
1761505510163949800,0.39794970703125,-0.11712474268972874,-0.15273279329612852,-0.053739481233060354
1761505510173985800,0.40798583984375,-0.06204758311212062,-0.21123006351552903,-0.061929509690403936
1761505510184021800,0.418021728515625,-0.10285539431869983,-0.18985994322858749,-0.08532660576030611
1761505510194057700,0.4280576171875,-0.2513625327438116,-0.10132489681579172,-0.07291194534525275
1761505510204093700,0.43809375,-0.47657940136194227,-0.005704349121451378,-0.03197159380018711
1761505510214131000,0.448130859375,-0.620009967175126,0.0599519260071218,-0.0019913199476897714
1761505510224167000,0.4581669921875,-0.6482178245276212,0.07881919662766158,0.04090776444971561
1761505510234203000,0.468202880859375,-0.5571767866432666,0.05341127219200134,0.04267769673168659
1761505510244238800,0.47823876953125,-0.2645768191039562,0.025195304598286745,0.038868659837543965
1761505510254274800,0.48827490234375,0.054745151144266126,0.007752002366259694,0.04983268305286765
1761505510264310800,0.498310791015625,0.2802005046933889,-0.029639351460337637,0.0754877871826291
1761505510274346800,0.5083466796875,0.2729687998741865,-0.06492160417847335,0.055762365362793206
1761505510284382700,0.5183828125,0.13814590340852737,-0.02724807240962982,-0.03810308229252696
1761505510294418700,0.528418701171875,0.07043897936046123,0.014825082557648419,-0.10527166168019175
1761505510304455000,0.538454833984375,-0.0701572398096323,0.02673668882139027,-0.09727978614345192
1761505510314491000,0.548490966796875,-0.20853812101781366,0.010195376930385828,-0.056345718208700414
1761505510324526800,0.55852685546875,-0.2575485279023647,-0.018857772139832377,-0.004649287110567093
1761505510334562800,0.568562744140625,-0.21476853983998298,-0.04005830801352858,0.06824132318571209
1761505510344598800,0.578598876953125,-0.09665420159101486,-0.04565985434763133,0.11611702695190906
1761505510354634800,0.588634765625,0.017064532047510145,-0.062077832119911906,0.11752207144424319
1761505510364671700,0.598671630859375,0.010960369953513144,-0.04433656528803985,0.07867796152606606
1761505510374707700,0.608707763671875,-0.21927403456568717,0.040844713717442936,-0.025298838037997484
1761505510384743700,0.61874365234375,-0.20701719506084917,0.10562865842431783,-0.07397519066259264
1761505510394779600,0.628779541015625,-0.21596914780139922,0.09507854977212846,-0.05346797081530094
1761505510404815600,0.638815673828125,-0.17911621170043945,0.04475596431046724,-0.06833981512412428
1761505510414851800,0.648851806640625,-0.014506079736351965,-0.013688991199806332,-0.02028904705196619
1761505510424887800,0.6588876953125,0.007170330020785332,-0.10581994321271776,0.062061611637473105
1761505510434923800,0.668923828125,-0.07057809557020664,-0.1568655822519213,0.0989350060045719
1761505510444960000,0.6789599609375,-0.152857734850049,-0.13824227645508944,0.060921209430694574
1761505510454996000,0.688995849609375,-0.3299316270679235,-0.05454802113696933,0.008500847972184419
1761505510465032000,0.699031982421875,-0.317297186422348,-0.021867324652778915,-0.05468436086773872
1761505510475068000,0.70906787109375,-0.13017302483320237,-0.02500934900555294,-0.07131415475979447
1761505510485103900,0.719103759765625,0.03138590286672115,-0.013504058520379475,-0.07468450797572732
1761505510495139800,0.729139892578125,0.15042437022328375,-0.02169175345674157,-0.10419424170702696
1761505510505175800,0.73917578125,0.11393033056259154,-0.06547346590757369,-0.04287292704284191
1761505510515211800,0.749211669921875,-0.07401917593479156,-0.03510178158469498,0.00790624307990074
1761505510525248800,0.759248779296875,-0.29028233824670313,0.06411335653550923,-0.006525017854571342
1761505510535284700,0.76928466796875,-0.4622866721153259,0.1458516554802656,-0.044848172638565297
1761505510545320700,0.77932080078125,-0.4725777645051479,0.14734722780026493,-0.05878814292475581
1761505510555356700,0.789356689453125,-0.36105040343105793,0.10558503847829998,-0.043848347946256395
1761505510565392600,0.799392578125,-0.20439561438560486,0.03712890349812806,-0.03029021658450365
1761505510575428600,0.8094287109375,-0.08456745795607566,0.007445274504646659,-0.0064645198389887805
1761505510585464800,0.81946484375,0.08863222317695617,-0.01067913272618316,0.01897708767056465
1761505510595500800,0.829500732421875,0.21373452061712742,-0.07502103732055984,0.022862550801783798
1761505510605536800,0.839536865234375,0.25780805562138553,-0.14027422067411244,-0.04046849624961615
1761505510615572500,0.849572509765625,0.23494155929684638,-0.12475706419907509,-0.0845974147029221
1761505510625608400,0.8596083984375,0.020730068817734718,-0.0901938464704901,-0.06255334067717194
1761505510635644400,0.86964453125,-0.3598351824223995,-0.025428528832271695,-0.05844634374976158
1761505510645680400,0.879680419921875,-0.7601981900662184,0.05776844448819756,-0.08497136258184909
1761505510655716400,0.88971630859375,-0.8418781098872423,0.07885186592140235,-0.023337182576209304
1761505510665752300,0.89975244140625,-0.6866361102491617,0.08822102116071619,0.039235593453794716
1761505510675789300,0.909789306640625,-0.2776350381195545,0.08502652683518827,0.10698518759980798
1761505510685825300,0.9198251953125,0.11883563826084136,0.014206000811234116,0.11153291403204202
1761505510695861200,0.929861328125,0.4317828127801418,-0.12220021932311355,0.1066397351630032
1761505510705897200,0.939897216796875,0.610783873668313,-0.22092516277357935,0.07666925205215812
1761505510715933400,0.949933349609375,0.5810802248001098,-0.2506636637594551,0.06762509098351001
1761505510725969400,0.959969482421875,0.33533436289429663,-0.19314254509583115,0.05164718512892723
1761505510736005400,0.97000537109375,0.009137246179580689,-0.0798730895947665,-0.028317455206811427
1761505510746041300,0.980041259765625,-0.3682873689472675,0.040547192075592466,-0.10525222632735967
1761505510756077600,0.99007763671875,-0.6006704759329557,0.0842477244824171,-0.027957974244654175
1761505510766113500,1.000113525390625,-0.7520967166751623,0.143503777179867,0.0009757131643593311
1761505510776149500,1.0101494140625,-0.7057856318771839,0.1894009474147111,0.03366290788799524
1761505510786185500,1.020185546875,-0.6042687926858663,0.1832799072511494,0.021582740124315023
1761505510796221400,1.030221435546875,-0.4230255058288574,0.11285371430702507,0.0008636310920119285
1761505510806257400,1.04025732421875,-0.21277532019615172,-0.00007524806014262139,-0.007886807727068661
1761505510816293400,1.05029345703125,-0.022719196808338164,-0.09603160358010791,-0.0009450257651507853
1761505510826330400,1.060330322265625,0.0837993961930275,-0.15444675760716198,0.054810179204493756
1761505510836366300,1.070366455078125,0.06923837139904498,-0.14554390470534562,0.06775383192971349
1761505510846402300,1.08040234375,0.03887947349250316,-0.0902142956034746,0.056380205000191926
1761505510856438300,1.090438232421875,-0.003731587743759155,-0.028495661317929622,0.047746378298103805
1761505510866474500,1.100474609375,-0.07217267128527163,-0.006485927953198552,0.05022679693698883
1761505510876510500,1.110510498046875,-0.17900398349761962,0.033584435824304815,0.00018149404674768448
1761505510886546400,1.12054638671875,-0.20017711990773676,0.07224142567254603,-0.05220876453444361
1761505510896582400,1.13058251953125,-0.11250175906419753,0.024893800901062784,-0.026998189301788805
1761505510906618400,1.140618408203125,-0.04063303916156292,-0.04647339922022074,0.007686901240795851
1761505510916654300,1.150654296875,0.05969955868124961,-0.09864204180683009,0.07714329930469394
1761505510926690300,1.160690185546875,0.10858429335951804,-0.1152876269230619,0.1843377457410097
1761505510936726300,1.170726318359375,0.03661328212618828,-0.06567402084781788,0.20794936134442685
1761505510946762200,1.18076220703125,-0.02203063002228737,-0.004383393582841381,0.14779212202355266
1761505510956798200,1.190798095703125,-0.09474398405551909,0.010827181161055341,0.10663125959560274
1761505510966834400,1.20083447265625,-0.26253917579650876,0.01904635351449251,-0.005870791729539632
1761505510976871400,1.210871337890625,-0.36087270877659317,0.02703063026666641,-0.10261647099629044
1761505510986907400,1.220907470703125,-0.479672106680274,0.01318184539526701,-0.13876622726395726
1761505510996943400,1.230943359375,-0.3769815475344658,-0.02675236131455749,-0.1100314234279096
1761505511006979600,1.2409794921875,-0.241855868729949,-0.026189430202171207,-0.057738487741351124
1761505511017015600,1.251015625,-0.11407236938178539,-0.024524857990816235,-0.010457388867437838
1761505511027051500,1.261051513671875,-0.017470190238952635,-0.07348674955852329,0.021145663881301877
1761505511037087500,1.27108740234375,0.05226502476632595,-0.11698624753449112,0.03550064470916986
1761505511047123500,1.28112353515625,0.07992635415196418,-0.13655653359154238,0.04521832112520933
1761505511057159400,1.291159423828125,0.0022626842349767686,-0.1076399069151841,0.04128185845911503
1761505511067195400,1.3011953125,-0.24529344196319577,-0.03849233733844012,-0.0006667933456599712
1761505511077231400,1.3112314453125,-0.43967619637846944,0.009836590087972582,-0.10338292532414198
1761505511087267300,1.321267333984375,-0.46072950580120087,0.05094497341001406,-0.11219108567982912
1761505511097303300,1.33130322265625,-0.377438059130311,0.055438321040198205,-0.09419000343456864
1761505511107339300,1.34133935546875,-0.17097206821143626,0.012470537054445594,-0.026888883708417414
1761505511117375500,1.35137548828125,-0.015513795474171638,-0.024417780887149274,0.00951923123449087
1761505511127412200,1.361412109375,0.09191022193431854,-0.051863476494420316,0.010457681128382683
1761505511137448200,1.3714482421875,0.13405951087772847,-0.08081079056998715,0.011470219171792268
1761505511147484400,1.381484375,0.0655558834940195,-0.1154307251881808,0.0855371797710657
1761505511157520400,1.391520263671875,-0.02313888352513313,-0.09874065247625112,0.06629895694628357
1761505511167556600,1.401556640625,-0.12492109565436839,-0.031128366175387053,-0.029151714073866603
1761505511177592600,1.411592529296875,-0.1671405272245407,0.0475208624465391,-0.09333630921468138
1761505511187628500,1.421628662109375,-0.23106617916822433,0.07485551716107874,-0.12739362324774264
1761505511197664500,1.43166455078125,-0.2534445997148752,0.05024608615934849,-0.10901362468749284
1761505511207700500,1.441700439453125,-0.21369360408484933,0.004008139662817121,-0.014367840309441089
1761505511217736400,1.451736328125,-0.22711890284717082,-0.00966437532622367,0.05306260488480329
1761505511227772400,1.4617724609375,-0.21192717893421648,0.020308829464670268,0.03996288481503725
1761505511237808400,1.471808349609375,-0.14552549226582048,0.04049297310374677,0.024596096596121785
1761505511247844400,1.48184423828125,-0.02979951045811176,-0.002073682735208422,0.05117737566009164
1761505511257880600,1.491880615234375,0.09710837509930133,-0.042303785385377705,0.05913403375297784
1761505511267916500,1.50191650390625,0.2102227131038904,-0.09117368782069533,0.031389702259004115
1761505511277953300,1.511953369140625,0.09404781848490237,-0.1091986806645058,0.0243950210660696
1761505511287989500,1.521989501953125,-0.2052875947892666,-0.04882818218544125,-0.0022708675414323805
1761505511298025500,1.532025390625,-0.3373047861844301,0.03919328868202865,-0.047941608609259126
1761505511308061400,1.5420615234375,-0.32894027794301506,0.09321067354101688,-0.07229162148982286
1761505511318097400,1.552097412109375,-0.29038053792417046,0.07647548304572702,-0.0632531595095992
1761505511328133400,1.56213330078125,-0.16774726094603537,0.05014578585634008,-0.030712533649802205
1761505511338169300,1.57216943359375,-0.08515899410843848,0.02056278595943004,0.008215309029072523
1761505511348205300,1.582205322265625,-0.025356559574604032,-0.033310331590659915,0.055362406259775156
1761505511358241300,1.5922412109375,-0.005166004461050033,-0.06221588888373226,0.11118936129137873
1761505511368277200,1.60227734375,0.037080315116047854,-0.06729812405146658,0.15667013274505734
1761505511378313200,1.612313232421875,0.09727730192542075,-0.0614367760037072,0.1670662929445505
1761505511388349200,1.62234912109375,0.08653028246164321,-0.03584978694040328,0.1542348684221506
1761505511398385400,1.632385498046875,0.00137421096265316,-0.024782449481077492,0.09922668242752551
1761505511408421600,1.642421630859375,-0.19542320337891578,-0.023286548367515206,0.01697159306704998
1761505511418457600,1.65245751953125,-0.36005437813103197,-0.01301518359147012,-0.09795680862218141
1761505511428494300,1.662494384765625,-0.4113654631733894,-0.009826762813702225,-0.15879326237887142
1761505511438530600,1.672530517578125,-0.3141524586558342,-0.03246195286670699,-0.1227979660205543
1761505511448566500,1.68256640625,-0.19796061290204525,-0.07714899839311838,-0.029805940198898314
1761505511458602500,1.6926025390625,-0.12315817763507365,-0.10681479946896433,0.03740750124379992
1761505511468638500,1.702638427734375,-0.11629998230338096,-0.13481610139869152,0.06650953095704316
1761505511478674400,1.71267431640625,-0.16374445504546165,-0.08955964022018015,0.02507131289243698
1761505511488710400,1.72271044921875,-0.26107553298473357,0.0016581790031865238,-0.04937485628277063
1761505511498746400,1.732746337890625,-0.3272632846415043,-0.005281484066881239,-0.08780790118202567
1761505511508782300,1.7427822265625,-0.36913843281865116,-0.05883779075276106,-0.08587386437952518
1761505511518818300,1.752818359375,-0.4547486778259277,-0.03651672641653567,-0.1459448867216706
1761505511528854300,1.762854248046875,-0.28986323605179787,-0.020666538594849408,-0.12980287634655832
1761505511538890200,1.77289013671875,-0.057332245028018945,-0.04746785361766815,-0.05916238306462764
1761505511548926500,1.782926513671875,0.048185646498203276,-0.07553396441191434,0.013683365176618098
1761505511558962400,1.79296240234375,-0.0025298107385635375,-0.03696183983553201,0.016990736158937213
1761505511568998400,1.802998291015625,-0.03634381753504276,0.03388433208633214,0.021707973939180374
1761505511579035600,1.81303564453125,-0.010298691174387932,0.055690213442035015,0.029508710817992684
1761505511589071600,1.823071533203125,0.02707856106162071,0.027004655575193465,0.007976677967607974
1761505511599107600,1.833107666015625,-0.07627075425386429,0.01597374113611877,-0.050616088515520095
1761505511609143600,1.8431435546875,-0.28702538227736946,0.05987096972540021,-0.10113748448491096
1761505511619179500,1.853179443359375,-0.35942777066528797,0.09907591231260449,-0.07492299290671944
1761505511629215500,1.863215576171875,-0.3117927437871694,0.07747731703203171,-0.00806508690342307
1761505511639251500,1.87325146484375,-0.1820113486200571,-0.0028184732205234465,0.047375791420042515
1761505511649287400,1.883287353515625,-0.03816811035275459,-0.06535966680217534,0.09874737447798251
1761505511659323400,1.893323486328125,0.11495850456655025,-0.09053303356328979,0.11133607628569006
1761505511669359400,1.903359375,0.23237083202600478,-0.07818815044881776,0.113742991296947
1761505511679395300,1.913395263671875,0.14563713594675062,-0.020128084336593747,0.11777926107570529
1761505511689431600,1.923431640625,-0.04919511580169201,0.02453528805328533,0.06848799142315984
1761505511699467500,1.933467529296875,-0.17700667220056057,0.029822233746573328,-0.014111819721758364
1761505511709503700,1.943503662109375,-0.22253332862257957,0.03642565059959888,-0.05303659366071224
1761505511719539700,1.953539794921875,-0.21105039609968662,0.030754107769206163,-0.09577771101742982
1761505511729575700,1.96357568359375,-0.2237076330989599,-0.005155994523689151,-0.09490355853140353
1761505511739611600,1.973611572265625,-0.23461305799484253,-0.04790606237184256,-0.08521013977378607
1761505511749648600,1.983648681640625,-0.24583529375493526,-0.08030519740171731,-0.033948446831107135
1761505511759684600,1.9936845703125,-0.2769628379464149,-0.11316164774503558,0.04944499890953302
1761505511769720600,2.003720458984375,-0.27860300636887547,-0.1279725556468591,0.05248115173503756
1761505511779756500,2.013756591796875,-0.2166243968397379,-0.13598667954802512,0.028943916542083024
1761505511789792500,2.02379248046875,-0.11351648906469344,-0.1289232074351981,0.038059973803162575
1761505511799828500,2.033828369140625,-0.06363222195506095,-0.13727334009138867,0.016214929480850696
1761505511809864400,2.043864501953125,-0.043241760355234145,-0.1321411831010133,-0.01620294678211212
1761505511819900400,2.053900390625,-0.1544476343899965,-0.04781202741283923,-0.025362258663028478
1761505511829936400,2.063936279296875,-0.23533728061616419,0.02264963870346546,-0.04344137458056211
1761505511839972600,2.07397265625,-0.36436756515502927,0.011722586497664451,-0.0706149204492569
1761505511850008600,2.084008544921875,-0.30498247925043104,0.0010074234768748284,-0.014479483990371226
1761505511860044500,2.09404443359375,-0.15454115789234638,0.0368230706856586,0.048411710339039564
1761505511870080500,2.10408056640625,-0.059437692874670024,-0.016206965370103715,0.08820844480693339
1761505511880116500,2.114116455078125,-0.012055763974785805,-0.10857486794404685,0.13727291996628047
1761505511890152400,2.12415234375,0.04514788623750209,-0.11221947152409702,0.16241276805028318
1761505511900188400,2.1341884765625,-0.03120645464658737,-0.07097259304681793,0.1165871286816895
1761505511910224400,2.144224365234375,-0.21809446939229965,-0.008230689261294902,0.0062495619140565395
1761505511920261600,2.15426171875,-0.23668635713756084,0.05528422645702958,-0.07610065838396549
1761505511930297600,2.164297607421875,-0.1827028380155563,0.08881992776878178,-0.047212709812819956
1761505511940333600,2.17433349609375,-0.22601357195377347,0.08340769346170127,-0.05551759682148694
1761505511950369500,2.18436962890625,-0.3225894476115703,0.03263880727095529,-0.0941876653470099
1761505511960405500,2.194405517578125,-0.4578331998378038,-0.005810933034773915,-0.07827507981359959
1761505511970441500,2.20444140625,-0.325337285014987,0.011447897742129861,-0.00020458266139030456
1761505511980477700,2.214477783203125,-0.07681143700182437,-0.008093947671726345,0.09288637349009514
1761505511990513700,2.224513671875,0.02049859814941883,-0.11851035182923078,0.12992986372709273
1761505512000549600,2.234549560546875,0.08739479033648967,-0.22057207501959053,0.20520079328864813
1761505512010585600,2.244585693359375,0.1477817467600107,-0.05180347166918218,0.08582461841031909
1761505512020621600,2.25462158203125,0.03817980079054832,0.023149441451765597,-0.03469020510911942
1761505512030657500,2.264657470703125,-0.04138590335547924,-0.0245570432273671,-0.10888327630609274
1761505512040693500,2.274693603515625,-0.17969664193689822,-0.04023673332035541,-0.14018719997778534
1761505512050729500,2.2847294921875,-0.26690906144380566,-0.010489135712571441,-0.11866393495574593
1761505512060765400,2.294765380859375,-0.3314315102368593,-0.0018480024868622422,-0.07731836361065507
1761505512070801400,2.304801513671875,-0.26521160987615583,-0.011791961939446628,-0.02827873063161969
1761505512080837400,2.31483740234375,-0.16440554930269718,-0.032671704893559216,0.014218202705681323
1761505512090873600,2.32487353515625,-0.0026344401568174363,-0.04145666703674942,-0.02488397362679243
1761505512100910300,2.334910400390625,0.09681962128579616,-0.009739047997631133,-0.05218626044169068
1761505512110946300,2.3449462890625,0.11588789437115192,-0.017405783233232795,-0.06712444798499345
1761505512120982500,2.354982421875,0.1250900224804878,-0.019750044804438947,-0.0835422065615654
1761505512131018800,2.365018798828125,-0.01171907936632633,0.037342911574989555,-0.09167597478702663
1761505512141054700,2.3750546875,-0.2119832930356264,0.040276261613145466,-0.09459098545089363
1761505512151090700,2.385090576171875,-0.31727789719998833,0.07037815255131571,-0.06249912627190351
1761505512161126700,2.395126708984375,-0.3682143037110567,0.09952445979770272,-0.052538142619282004
1761505512171162600,2.40516259765625,-0.3166758396536112,0.07341317286565899,-0.06924377822652458
1761505512181198600,2.415198486328125,-0.16743804886639116,0.014311653142794966,-0.04929930682852864
1761505512191234600,2.425234619140625,-0.10729951424598694,-0.027351350121013817,-0.00263122528642416
1761505512201270500,2.4352705078125,-0.07990998753905296,-0.04236030134558678,0.03542158812358975
1761505512211306500,2.445306396484375,-0.058536944642663,-0.04693056840319186,0.0063075757116079325
1761505512221342500,2.455342529296875,-0.008491934013366698,-0.05058521845322102,0.014640081379562615
1761505512231378400,2.46537841796875,0.0025251345634460447,-0.05176145915836095,0.03855301801711321
1761505512241414700,2.47541455078125,-0.09476210423409938,-0.06379475557301192,0.01369680918008089
1761505512251450600,2.48545068359375,-0.31130349896550175,-0.05230689114667475,-0.030922961530089377
1761505512261486600,2.495486572265625,-0.461799765381217,-0.009470040064211933,-0.04997238378450274
1761505512271522600,2.5055224609375,-0.48521980393528935,-0.017443813688680528,-0.05687792538926005
1761505512281558500,2.51555859375,-0.38357787705957885,-0.04851228463668376,-0.061685471801459786
1761505512291595500,2.525595458984375,-0.17274843023419378,-0.07892090343646704,-0.005311112020164728
1761505512301631500,2.535631591796875,-0.08453706281781197,-0.11212375606466084,0.06626227819770575
1761505512311667500,2.54566748046875,0.014198621222376823,-0.14353278407864273,0.10195990678369998
1761505512321703400,2.555703369140625,0.0951969885200262,-0.14315978604778645,0.114686701887846
1761505512331739400,2.565739501953125,0.07691314381062984,-0.1377539814814925,0.0919531842932105
1761505512341775400,2.575775390625,0.04981237091720104,-0.06604494565259665,0.045972354362905025
1761505512351811600,2.5858115234375,-0.06159165603816509,-0.007347294022887945,-0.0172451493114233
1761505512361847600,2.59584765625,-0.1723509553492069,0.02584591399412602,-0.09157587541341781
1761505512371883500,2.605883544921875,-0.3258066560924053,0.03390376743916422,-0.1291620942249894
1761505512381919700,2.615919677734375,-0.3938064256072044,0.025862499802745877,-0.09225845085009932
1761505512391955700,2.625955810546875,-0.37214988959431644,-0.007597834717854857,-0.0077982526607811445
1761505512401991700,2.63599169921875,-0.23134031993448734,-0.05629417068455368,0.06716682582199573
1761505512412027600,2.646027587890625,0.009506079491972923,-0.07887523766383528,0.12173515909463166
1761505512422063600,2.656063720703125,0.20197160210907458,-0.06829188432916998,0.14958806552961468
1761505512432099600,2.666099609375,0.2155295873403549,-0.04058620434515178,0.15844108794033526
1761505512442135600,2.676135498046875,0.027981062859296798,0.007299107499606907,0.08917407496869563
1761505512452171500,2.686171630859375,-0.14112170434892177,0.06531652178019284,0.005848287636786699
1761505512462207500,2.69620751953125,-0.23408406568467616,0.10441720027532428,-0.059078942564874885
1761505512472243500,2.706243408203125,-0.2129804873794317,0.09829995950404553,-0.08213233976364136
1761505512482279400,2.716279541015625,-0.1463268717765808,0.04018591644857079,-0.06903890330418944
1761505512492315600,2.726315673828125,-0.1367109021693468,-0.04719586827587336,-0.013258856154233216
1761505512502352400,2.736352294921875,-0.18109890995025635,-0.10046952209547161,0.05708119287639856
1761505512512388400,2.746388427734375,-0.3217033124268055,-0.10911628134436904,0.055263768190890544
1761505512522424600,2.756424560546875,-0.39784897899627686,-0.07486253142375499,0.029560148744285104
1761505512532460500,2.76646044921875,-0.3131020728200674,-0.05166333254612982,0.03724310446232557
1761505512542496500,2.77649658203125,-0.16712708322107792,-0.06325538799930364,0.02040127525478601
1761505512552532500,2.786532470703125,-0.014509002345800399,-0.07071549474690109,-0.004782265840470791
1761505512562568400,2.796568359375,-0.019853870505094528,-0.06960198054704815,-0.0811848297804594
1761505512572604400,2.8066044921875,-0.06877426101863383,-0.07203987521845846,-0.14397826282382012
1761505512582640600,2.816640625,-0.17361176906526088,-0.046993989028222855,-0.1366933665126562
1761505512592676600,2.826676513671875,-0.26588322552740573,-0.051167511853203174,-0.11453121906518936
1761505512602712600,2.836712646484375,-0.25637480794787404,-0.03053885758332908,-0.08748466057702899
1761505512612748500,2.84674853515625,-0.23932956512272358,-0.037951143133826554,-0.029732436571270227
1761505512622784500,2.856784423828125,-0.15253332520127297,-0.07042739852052182,0.00935059666931629
1761505512632820500,2.866820556640625,-0.0011029928058385848,-0.04539491980113089,-0.004973258367925882
1761505512642856700,2.876856689453125,0.08298106554746627,-0.024758155290037394,-0.033262072002142665
1761505512652892700,2.886892578125,0.09321078313887118,-0.022945443312264977,-0.0625645927235484
1761505512662928600,2.8969287109375,0.10238076254427432,-0.02929466620851308,-0.07414455588012933
1761505512672964600,2.906964599609375,0.099074706736207,-0.02527487264052033,-0.03786576640531421
1761505512683000600,2.91700048828125,-0.008353402325510979,0.005336209928803145,-0.008935586127638817
1761505512693036500,2.92703662109375,-0.21269699426293373,0.05257045571999624,-0.013361732006818056
1761505512703072500,2.937072509765625,-0.4107558068424463,0.12253635594230144,-0.015406389576941728
1761505512713108700,2.947108642578125,-0.4596516474366188,0.15072620271407067,-0.008993307664245366
1761505512723144700,2.957144775390625,-0.36938451653420923,0.08124280704539269,-0.004057604827731848
1761505512733180700,2.9671806640625,-0.1979009916692972,0.005532499685883522,0.05421820466071367
1761505512743216600,2.977216552734375,-0.11295008735358715,0.011613901958800852,0.09712649527788161
1761505512753253600,2.987253662109375,-0.08448971654474735,0.0006570391366258263,0.08847484065815805
1761505512763289600,2.99728955078125,-0.13102350418269634,-0.03455992979295552,0.11664748056679963
1761505512773325600,3.00732568359375,-0.2304045003890991,-0.017607443285174666,0.05731047158762812
1761505512783361800,3.01736181640625,-0.22871581664979457,0.025731055442802606,-0.0254353238992393
1761505512793397800,3.027397705078125,-0.21975684964656828,0.035676403134874995,-0.07538900298327207
1761505512803433700,3.037433837890625,-0.14325228663682937,-0.033237302887067194,-0.11081468276008963
1761505512813469700,3.0474697265625,-0.06961597253978252,-0.05967489916402846,-0.1566401759982109
1761505512823505700,3.057505615234375,-0.05497486824691295,-0.058316835618577895,-0.1395841195181012
1761505512833541600,3.067541748046875,-0.05040390706956386,-0.050318749536760146,-0.1202501812338829
1761505512843577600,3.07757763671875,-0.10734335338771342,-0.0772456637006253,-0.09327084276303649
1761505512853613600,3.087613525390625,-0.08874912755489349,-0.07667637591268867,-0.03324921252056956
1761505512863649500,3.0976494140625,-0.0776116474688053,-0.06858904064483941,-0.005384907908737659
1761505512873685500,3.107685546875,-0.007001987716555595,-0.038039113678224386,-0.0063397244155406944
1761505512883721500,3.117721435546875,-0.029938042145967483,-0.026441468734480437,-0.007063508645445108
1761505512893757700,3.1277578125,-0.21315292133688926,-0.017983108197152615,-0.016300269676744937
1761505512903793700,3.137793701171875,-0.33291970296800133,-0.008180310780927538,-0.01267068100273609
1761505512913829600,3.14782958984375,-0.37196050450205803,0.016483955680578945,-0.01723623535260558
1761505512923865600,3.157865478515625,-0.2724450682610273,0.01073898228779435,-0.009861614931374788
1761505512933901600,3.167901611328125,-0.10337854140996933,0.005891176930442452,0.04561974153295159
1761505512943937800,3.177937744140625,0.08835399075746536,-0.028101510901190337,0.07800663813576102
1761505512953973800,3.187973876953125,0.1813058306992054,-0.0674231386706233,0.06749108934029936
1761505512964009700,3.198009765625,0.10515314986705779,-0.06485222873669118,0.03307166399657726
1761505512974045700,3.208045654296875,-0.053155836126208306,-0.05645831173770129,0.012504092264175414
1761505512984081700,3.21808154296875,-0.18010171560645102,0.0047145343665033574,-0.020666063670814035
1761505512994117600,3.22811767578125,-0.28365502906143664,0.05019048351459205,-0.040821255210042
1761505513004154600,3.238154541015625,-0.43969840821027756,0.0474601087026298,-0.053609717373549935
1761505513014190600,3.248190673828125,-0.5425713381856679,0.0644426615551114,-0.06883256707713008
1761505513024226600,3.2582265625,-0.4080693442374468,0.03613441256806254,-0.011875438971817493
1761505513034262800,3.2682626953125,-0.24452713376581667,-0.00844111714158207,0.07234218263328075
1761505513044298800,3.278298828125,-0.07773615063130855,-0.05695738383363932,0.13609218574911355
1761505513054334700,3.288334716796875,0.018950199663639068,-0.07951682350300252,0.11773045349791646
1761505513064370700,3.29837060546875,0.06769114195704459,-0.05906820197515189,0.02468070613965392
1761505513074406700,3.30840673828125,0.10597615668773651,-0.04580514456983655,-0.022552608069777488
1761505513084442600,3.318442626953125,0.07481587927043437,-0.06458298334125429,-0.06217062496989965
1761505513094478600,3.328478515625,-0.056768181404471395,-0.0372041606914252,-0.07908288906514645
1761505513104514600,3.3385146484375,-0.20999065791368482,0.019037658751383423,-0.08878200691118836
1761505513114550500,3.348550537109375,-0.29052023865580556,0.030757943694107233,-0.08972878624200821
1761505513124586500,3.35858642578125,-0.26461364398300646,0.011256539888493716,-0.07849778265357017
1761505513134622500,3.36862255859375,-0.18492519024014473,0.009091507341712712,-0.009697218149900436
1761505513144658700,3.37865869140625,-0.09951368267536163,0.02667100317403674,0.004027355819940567
1761505513154694700,3.388694580078125,-0.11034019711613655,0.015375227253697811,0.019381284557282923
1761505513164730600,3.398730712890625,-0.1258224284082651,-0.02826967054232955,0.062244859249889845
1761505513174766800,3.408766845703125,-0.11387304741740226,-0.010749613279663025,0.05681085150241851
1761505513184802800,3.418802734375,-0.07471124985218047,0.03333093598727137,-0.021133096660673617
1761505513194838800,3.4288388671875,-0.05831716441214084,0.05334759583864361,-0.05746683119311929
1761505513204874800,3.438874755859375,-0.038946108987927434,0.01461775994990021,-0.07339622173085808
1761505513214910700,3.44891064453125,-0.02604512636065483,-0.029181816951185463,-0.08671031520366668
1761505513224946700,3.45894677734375,-0.058140054279565805,-0.05676175166368484,-0.06334463718533516
1761505513234982700,3.468982666015625,-0.13297171564102173,-0.07295205815993248,-0.01464227333664894
1761505513245018600,3.4790185546875,-0.19106617721319197,-0.0777971601035446,0.02197831531316042
1761505513255054600,3.4890546875,-0.29564123493134975,-0.06349924322515725,0.021430179911106823
1761505513265091600,3.499091552734375,-0.3473568091213703,-0.010740845451317727,0.015803279940038918
1761505513275127600,3.50912744140625,-0.371822557336092,0.013833952628448604,-0.03299085384532809
1761505513285163500,3.51916357421875,-0.2984954553186893,-0.00605743687544018,-0.08830679061487316
1761505513295199700,3.52919970703125,-0.2106365546017885,-0.03962075684648007,-0.07342354812920093
1761505513305235700,3.539235595703125,-0.10962941849827766,-0.06357322177682072,-0.027856998088210818
1761505513315271700,3.549271728515625,-0.07228489948809147,-0.08866667343582957,-0.013319938691705465
1761505513325307600,3.5593076171875,-0.1279448273897171,-0.07163472848366946,-0.013265139764547348
1761505513335343600,3.569343505859375,-0.14070318667590617,-0.10538644716627896,-0.04612316101044416
1761505513345379600,3.579379638671875,-0.11936404604911803,-0.1144666659289971,-0.033104543352872134
1761505513355415600,3.58941552734375,-0.05975275017321109,-0.06825133312307298,0.013387597100436686
1761505513365451500,3.599451416015625,-0.013519406786561012,0.0063182067034766075,0.05081073430478573
1761505513375487500,3.609487548828125,-0.08107727775275707,0.053394613318145275,0.03040302930921316
1761505513385523500,3.6195234375,-0.26705811452567574,0.06780070327874273,0.02795022932961583
1761505513395559400,3.629559326171875,-0.4107891245901584,0.0959314768070355,0.013177169220149516
1761505513405596000,3.639595947265625,-0.4110866462320089,0.07921203187014907,0.004045329868048429
1761505513415632000,3.6496318359375,-0.23204174620211124,0.052772280168719585,0.04299290016070008
1761505513425667800,3.659667724609375,0.006839490631222724,0.016686017591319977,0.10910130297094583
1761505513435703800,3.669703857421875,0.20193828436136244,-0.02622727799452841,0.09318579482808709
1761505513445739800,3.67973974609375,0.30634733786284923,-0.06452993797976524,0.05997472236081958
1761505513455775700,3.689775634765625,0.30573242083489893,-0.059766267241910094,0.002371843697875738
1761505513465811700,3.699811767578125,0.17448446024656294,-0.02215082233585417,-0.05657090526670217
1761505513475847700,3.70984765625,-0.04786532850265503,0.0027836393691599366,-0.06525105532854795
1761505513485883600,3.719883544921875,-0.20948387743532657,0.015588322015106676,-0.0646660950474441
1761505513495919600,3.729919677734375,-0.29123978510200976,0.034802214116230606,-0.04645955335795879
1761505513505955600,3.73995556640625,-0.3356225321859121,0.037321174667216836,-0.01566840151399374
1761505513515991800,3.74999169921875,-0.3673433660954237,0.0394528529336676,-0.04712386248558759
1761505513526027800,3.76002783203125,-0.37276948279738426,0.04317998369801789,-0.02394815408140421
1761505513536064500,3.770064453125,-0.31214404144287106,0.0262933655006811,-0.027979017032682893
1761505513546100700,3.780100830078125,-0.20039631561636922,-0.024791034646332262,-0.005900602345913648
1761505513556136700,3.79013671875,-0.031573534393310544,-0.05806191100943833,0.008248626776784658
1761505513566172700,3.800172607421875,0.04398059602379799,-0.1081289873400703,-0.003023439474403858
1761505513576208600,3.810208740234375,-0.06222820037603378,-0.1281682608820498,0.003414923010021448
1761505513586244600,3.82024462890625,-0.16324118169844148,-0.07966415955182164,0.003071370269358158
1761505513596280600,3.830280517578125,-0.29067805956602094,-0.005309796845912933,-0.05800488359257579
1761505513606316500,3.840316650390625,-0.3723077105045318,0.04001567444819957,-0.11429068830758332
1761505513616352500,3.8503525390625,-0.3988116865485906,0.007199300386942923,-0.10209741555824875
1761505513626388700,3.860388671875,-0.3123129682689905,-0.011193594187498093,-0.05477423110827803
1761505513636424700,3.8704248046875,-0.15666063426434992,0.0029576076965779066,-0.018520137683302164
1761505513646460700,3.880460693359375,0.032112463575601574,-0.00874145179502666,0.005513502724468708
1761505513656496600,3.89049658203125,0.1776712735891342,-0.039741606747172774,0.02709463541358709
1761505513666532900,3.900532958984375,0.23287819702625273,-0.03523443152103573,0.03107888274416327
1761505513676569000,3.910569091796875,0.17797873210310935,-0.02436900984197855,0.005496259328722953
1761505513686605000,3.92060498046875,0.020606734699010847,-0.010868709614686667,-0.0007817980274558067
1761505513696641000,3.93064111328125,-0.17539806796014307,0.031065657936409113,-0.002106763020902872
1761505513706677000,3.940677001953125,-0.37477848453223706,0.07028400799445808,-0.04707037873268127
1761505513716713000,3.950712890625,-0.5277285738408565,0.07052238332759589,-0.06750716369226574
1761505513726749000,3.9607490234375,-0.5243997216790914,0.061210693896561856,-0.06036605976596474
1761505513736785000,3.970784912109375,-0.417017205324769,0.054026810274459415,-0.05297931051552295
1761505513746820900,3.98082080078125,-0.2411404139369726,-0.009785115629062056,-0.012440379378199577
1761505513756856800,3.99085693359375,-0.04239186552762985,-0.08029770821500569,0.03049816024675965
1761505513766892800,4.000892822265625,0.11221066716313362,-0.1279406992038712,0.04256532239839434
1761505513776929000,4.010928955078125,0.13843348817825316,-0.11159333898238837,-0.026086335153877732
1761505513786964000,4.0209638671875,0.10196575200259685,-0.043308140122331674,-0.10876315705776214
1761505513797000000,4.031,-0.02416588848531246,-0.011179857923090458,-0.14265724335312843
1761505513807036000,4.041035888671875,-0.09587211130261421,0.010242138681560754,-0.09934183323979377
1761505513817071900,4.05107177734375,-0.18188801450133324,0.01766673572435975,-0.03005333908870816
1761505513827107800,4.06110791015625,-0.2852560345172882,0.009002696547098458,0.022448270912468433
1761505513837143800,4.071143798828125,-0.3648065410941839,0.022274448715522883,0.01868701868280768
1761505513847179800,4.0811796875,-0.30523031653165816,0.026922639847546816,0.025603812333941458
1761505513857216000,4.091216064453125,-0.13599486285448073,0.013062602929770946,0.05440291357785463
1761505513867252000,4.101251953125,0.06308394042253494,-0.021715061267092824,0.03937237157598138
1761505513877288000,4.111287841796875,0.1099456448405981,-0.040625915301032364,0.048773967780172824
1761505513887324000,4.121323974609375,-0.061513330104947084,-0.014970847703889012,0.01002338136434555
1761505513897360000,4.13135986328125,-0.2470095982313156,0.032085685166530306,-0.031133389410376546
1761505513907395800,4.141395751953125,-0.35749358773231504,0.01666084661744535,-0.03786810449287295
1761505513917431800,4.151431884765625,-0.34387831935584545,-0.039180246537365016,-0.017372575083374975
1761505513927467800,4.1614677734375,-0.23848493099212645,-0.06041749769225716,0.021650106272101403
1761505513937503700,4.171503662109375,-0.12081833651065825,-0.06020089579951018,0.023322277268022298
1761505513947539700,4.181539794921875,0.0005097030878067016,-0.08709555166158825,0.030203561214357612
1761505513957575700,4.19157568359375,0.0871457840114832,-0.07464739083573221,0.03587868424132466
1761505513967612000,4.20161181640625,0.08620178115963935,-0.02955653201509267,0.04273483374640345
1761505513977647900,4.21164794921875,-0.04054594539999962,0.006899842516332864,0.08009805745705961
1761505513987683800,4.221683837890625,-0.14753215591311453,0.03473915881738066,0.07436024445742369
1761505513997719800,4.2317197265625,-0.23855974979400632,0.02152688175123185,0.04024593954011798
1761505514007755800,4.241755859375,-0.26540684018731114,-0.001889795801974833,0.033966713140159845
1761505514017792000,4.2517919921875,-0.29915187340080734,-0.013880056792497633,0.020174773022532462
1761505514027829000,4.2618291015625,-0.283372704988718,-0.012942301018349825,0.0003001519903540611
1761505514037865000,4.271864990234375,-0.2555669986963272,-0.04478124488219618,0.040075405278801914
1761505514047901000,4.28190087890625,-0.23372575376629828,-0.034116314211301506,0.07136617720797657
1761505514057937000,4.29193701171875,-0.1959662242144346,0.008435125792212783,0.05481207890063524
1761505514067972900,4.301972900390625,-0.2102799962490797,0.012080971481278537,-0.0015371464394032955
1761505514078008800,4.3120087890625,-0.21538521043360231,0.010135499969311058,-0.04239011196196079
1761505514088044800,4.322044921875,-0.17507132022380828,-0.01685651532001793,-0.06447115699723363
1761505514098080800,4.332080810546875,-0.10280570995807647,-0.038648587346076964,-0.061657999272644516
1761505514108117000,4.342116943359375,-0.03896189107894897,-0.029951376551575957,-0.05745850175619125
1761505514118153000,4.352153076171875,0.021651275315880774,0.009155293292924761,-0.0993326270200312
1761505514128189000,4.36218896484375,0.05322013353407383,0.03870707606766373,-0.11981968086212873
1761505514138225000,4.372224853515625,0.026823124995827674,0.044344753161072725,-0.0996012148283422
1761505514148260900,4.3822607421875,-0.0653337651759386,0.036382688240706916,-0.059587768869847055
1761505514158296800,4.392296875,-0.09628712184429168,0.04290960579141974,-0.04349441994205117
1761505514168332800,4.402332763671875,-0.08361059562265873,0.049834838477335865,-0.05080240486785769
1761505514178368800,4.41236865234375,-0.09836801977157592,0.02825977020282298,-0.056978901545703405
1761505514188404700,4.42240478515625,-0.1117798745304346,0.024785993145033717,-0.05915683010667562
1761505514198440700,4.432440673828125,-0.14864800820052623,0.03588062047008425,-0.07381810040473938
1761505514208476700,4.4424765625,-0.1704308009415865,0.02128543767817318,-0.08636252467930317
1761505514218513000,4.452512939453125,-0.18100597096979618,-0.001210946692340076,-0.0710787385687232
1761505514228548900,4.462548828125,-0.16870003162622452,0.012252199862338602,-0.10565540030077099
1761505514238584800,4.472584716796875,-0.14618717104494572,0.005641001561656594,-0.1438316939599812
1761505514248621000,4.48262109375,-0.2078133138746023,-0.050470067640952763,-0.09778028301149606
1761505514258657000,4.492656982421875,-0.21806699686348438,-0.06038863692395389,-0.05507189888060093
1761505514268693000,4.50269287109375,-0.10663023668229579,-0.05085406198985874,-0.011831307569146155
1761505514278729000,4.51272900390625,-0.05862696101367473,-0.04829867841862142,0.04533405645936727
1761505514288765000,4.522764892578125,-0.07318155606687068,-0.07462032016571611,0.07443243291079997
1761505514298801000,4.53280078125,-0.09037292936444281,-0.06250044144615531,0.09179580177441239
1761505514308836900,4.5428369140625,-0.16599135718941688,-0.03329685105457902,0.07496843948364257
1761505514318872800,4.552872802734375,-0.23124738095402717,-0.021129845257662237,-0.011588000332564114
1761505514328908800,4.56290869140625,-0.2033738701224327,0.013338826055265962,-0.036176498144119974
1761505514338945000,4.572945068359375,-0.1564046136766672,0.015642134561575947,-0.0381404916934669
1761505514348981000,4.58298095703125,-0.18896657458543775,-0.01508303937409073,-0.009068418727070093
1761505514359017000,4.593016845703125,-0.285329099753499,-0.01027242422197014,0.005779314053803682
1761505514369054000,4.603053955078125,-0.24696517456769942,0.0384706004306674,-0.025863486183434724
1761505514379090000,4.61308984375,-0.1391337454020977,0.02483765026703477,-0.04590718017220497
1761505514389126000,4.6231259765625,-0.012678279787302016,-0.03724832862671464,-0.023714345325529573
1761505514399161900,4.633161865234375,0.07277355978786945,-0.09934895710032433,0.005135170931369066
1761505514409197800,4.64319775390625,0.04708265369236469,-0.09908289004266262,0.005376578471809625
1761505514419234800,4.65323486328125,-0.05870411790311336,-0.06662957714013755,-0.0017027122646570204
1761505514429271000,4.66327099609375,-0.20100304933786392,-0.05859587175566703,-0.01895297614261508
1761505514439307000,4.67330712890625,-0.3061515230298042,-0.05184603216927498,-0.012563421235978603
1761505514449343000,4.683343017578125,-0.31302491593062876,-0.04333448013998568,-0.02590688693374395
1761505514459379000,4.69337890625,-0.2144493908882141,-0.03111377139445394,-0.017690262730419636
1761505514469415000,4.703414794921875,-0.08474749069809913,-0.06510404807329177,0.02978182867094874
1761505514479451000,4.713450927734375,0.014569208100438116,-0.08791088663246482,0.014390344402194022
1761505514489486800,4.72348681640625,0.021774609434604644,-0.05788268198501318,-0.0012849252440035343
1761505514499522800,4.733522705078125,-0.1428542272299528,-0.0722196887647733,0.027865473655611275
1761505514509559000,4.74355908203125,-0.28386896407306195,-0.038298276071064175,0.029398820702731608
1761505514519595000,4.753594970703125,-0.3569721942067146,-0.03533975505903363,-0.023255203381180763
1761505514529631000,4.763630859375,-0.3266846079707145,-0.00889814019408077,-0.08459244626685976
1761505514539667000,4.7736669921875,-0.24271160877645015,-0.0052233606714755295,-0.09443447971493005
1761505514549703000,4.783702880859375,-0.1566495283484459,-0.06679371819328517,-0.04878770404458046
1761505514559739000,4.79373876953125,-0.07830956660509109,-0.07248327160440385,0.00675648852288723
1761505514569774800,4.80377490234375,-0.054359951218962664,-0.04426211637891829,-0.0031979192584753032
1761505514579810800,4.813810791015625,-0.08656944542825222,-0.019868118226155636,-0.012652414693683386
1761505514589846800,4.8238466796875,-0.09964286201298236,-0.008388948562927543,-0.0028870997436344623
1761505514599882800,4.8338828125,-0.13957096777558325,-0.009353994202800095,-0.04191387275233865
1761505514609918700,4.843918701171875,-0.08361234918832779,-0.021336071886867283,-0.08266849246695637
1761505514619954700,4.85395458984375,-0.0714513712733984,-0.022124299655109644,-0.07164324058368801
1761505514629990700,4.86399072265625,-0.07507073081433772,-0.010792904432117938,-0.07594795204028487
1761505514640026600,4.874026611328125,-0.1361930157750845,0.009194529324769973,-0.10165800122767686
1761505514650062600,4.8840625,-0.10518471404910087,0.048736229585669935,-0.13209011050090194
1761505514660098600,4.8940986328125,-0.05435644408762454,0.03291435454301536,-0.09417495199590921
1761505514670134500,4.904134521484375,-0.016216975307464597,-0.012856230170093476,0.0010617840126156807
1761505514680170500,4.91417041015625,-0.009818214181065559,-0.025540866632945834,0.0036298809349536894
1761505514690206500,4.92420654296875,-0.0460538951665163,-0.0003790989780798554,-0.038062019629776477
1761505514700242400,4.934242431640625,-0.10133972905874251,0.04792706862725317,-0.034465456442534924
1761505514710278400,4.9442783203125,-0.18232289878726005,0.034481202000938356,-0.020716770944744348
1761505514720314600,4.954314697265625,-0.22578853102624416,-0.00018613368924707174,0.004358341339975595
1761505514730350600,4.9643505859375,-0.24147008428275585,-0.01158979043085128,0.0037255963943898674
1761505514740386600,4.974386474609375,-0.21644202601015566,-0.0238110471656546,0.014976619857549667
1761505514750422500,4.984422607421875,-0.1836924335747957,-0.04020484034474939,0.03342003904283047
1761505514760458500,4.99445849609375,-0.10692249762713908,-0.034200448830798265,0.006113514444231987
1761505514770494500,5.004494384765625,-0.05826338839828968,-0.03822568575888872,-0.015579554186761378
1761505514780530400,5.014530517578125,-0.06007248364686966,-0.0345442938324064,-0.003800999718159437
1761505514790566400,5.02456640625,-0.1457961259007454,0.006053345222212374,-0.031057255434244868
1761505514800602400,5.034602294921875,-0.26532851425409315,0.023703495137952266,-0.0496790999263525
1761505514810639400,5.044639404296875,-0.3066454440265894,0.03743983261082321,-0.01964548845142126
1761505514820675600,5.054675537109375,-0.2564572255343199,0.011313384642265736,-0.014252835627645254
1761505514830711600,5.064711669921875,-0.12613047144412995,-0.01104742718245834,0.012050503277778625
1761505514840747500,5.07474755859375,0.057871758732199664,-0.05246909597106278,0.004480798675864935
1761505514850783500,5.084783447265625,0.18675766636431215,-0.07195427929423749,-0.04379267223626375
1761505514860819500,5.0948193359375,0.11391980916857719,-0.03064754212219268,-0.0922400384105742
1761505514870855700,5.104855712890625,-0.060875032201409336,-0.0010631722521036863,-0.1703837469294667
1761505514880891600,5.1148916015625,-0.2558142514556646,0.011153737101145087,-0.2022149093456566
1761505514890927600,5.124927734375,-0.35202830806374547,-0.01519132205415517,-0.15283376945257185
1761505514900963600,5.134963623046875,-0.3258756296753883,0.02471069941911846,-0.1100394606038928
1761505514910999600,5.14499951171875,-0.22343056972324846,0.032829452738538385,-0.11189283338561654
1761505514921035500,5.155035400390625,-0.1347153444379568,-0.03686506493017077,-0.05479819650575518
1761505514931071500,5.165071533203125,-0.08315174593925476,-0.09160882783494889,0.014796440985053777
1761505514941107500,5.175107421875,-0.11583879453241824,-0.10171411532908678,0.024176702140271664
1761505514951143400,5.185143310546875,-0.09859949043989182,-0.06549399723894894,0.0008871580980718136
1761505514961179400,5.195179443359375,-0.08200549851357937,-0.015610570379532873,0.022646716094017028
1761505514971215400,5.20521533203125,-0.012086159113049506,0.018910561772994695,0.034123949528485534
1761505514981251600,5.21525146484375,0.04292436496913433,0.012513225418701767,-0.00900602101534605
1761505514991287600,5.22528759765625,-0.004594342052936554,-0.019291633512452243,-0.05345365002900362
1761505515001323500,5.235323486328125,-0.1187555587619543,-0.06327427536286413,-0.06444499964267016
1761505515011359500,5.245359375,-0.24114333654642103,-0.06807999514415859,-0.01505947583541274
1761505515021395500,5.2553955078125,-0.38252398409247396,-0.06886230462826788,0.062289721304923294
1761505515031431400,5.265431396484375,-0.3914373583883047,-0.07593512909132986,0.07938479462116957
1761505515041467400,5.27546728515625,-0.3511591240137815,-0.0603300020718947,0.08002382317706942
1761505515051503400,5.28550341796875,-0.2590899121254682,-0.04580094331875443,0.09386544765532016
1761505515061539300,5.295539306640625,-0.1512380246937275,-0.04835672874879092,0.06427402698993682
1761505515071575300,5.3055751953125,-0.043025487256050106,-0.05654401725977659,0.03768441848903894
1761505515081611500,5.315611572265625,0.03299801423847675,-0.0706176969282329,0.036142888135463
1761505515091647500,5.3256474609375,0.02652268074452877,-0.0932729251222685,0.0016245324619114398
1761505515101683500,5.335683349609375,0.0007546177595853806,-0.09959135102145374,-0.024585575202107426
1761505515111719700,5.3457197265625,-0.12020517304837702,-0.07491265417579561,-0.03333221462890506
1761505515121755600,5.355755615234375,-0.34801731885671616,0.020608780525624752,-0.10297799778506159
1761505515131791600,5.36579150390625,-0.37022505901157854,0.06684183165133,-0.16227219053581357
1761505515141827600,5.37582763671875,-0.30733401081264017,0.04751498069502413,-0.14179755778387187
1761505515151863600,5.385863525390625,-0.13119301553070545,-0.015095204735919833,-0.09326382850036025
1761505515161899500,5.3958994140625,-0.0541623828202486,-0.011178469683602452,-0.061031391806900495
1761505515171935500,5.405935546875,-0.08537935886085032,0.024423918366990982,0.0004116495408117771
1761505515181971500,5.415971435546875,-0.18803484669327736,0.02722922157868743,0.0077523676924407476
1761505515192007400,5.42600732421875,-0.2573924605578184,0.052630679740943015,-0.019111235444247723
1761505515202043600,5.436043701171875,-0.19034020102620125,0.03344707318022847,-0.0643326253093779
1761505515212079600,5.44607958984375,-0.1046475384324789,0.006210837338864803,-0.05838350764662027
1761505515222115600,5.456115478515625,-0.07951894239485263,-0.013982567318901419,-0.020350567980855702
1761505515232151600,5.466151611328125,-0.13702186781466005,-0.02810509109776467,0.026085604501515626
1761505515242188500,5.4761884765625,-0.1759194614857435,-0.0014564824186265467,0.07035217785984277
1761505515252224500,5.486224609375,-0.161093648275733,0.02071994928251952,0.0879471635222435
1761505515262260500,5.496260498046875,-0.12358663218021392,0.02820486167781055,0.06546513647064567
1761505515272296400,5.50629638671875,-0.06866729351282119,0.005516827192716301,0.030027181734144686
1761505515282332400,5.51633251953125,0.015305121159553526,0.01190890285000205,0.00563625232130289
1761505515292368400,5.526368408203125,0.060822425231337546,0.017472016869857908,0.010949848559498786
1761505515302404400,5.536404296875,0.03231003197431564,0.02870294739305973,0.03847761469334364
1761505515312440300,5.5464404296875,-0.05940203703939914,0.045179961876198646,0.06849485955536365
1761505515322476300,5.556476318359375,-0.20081074163615703,0.008547280929796397,0.09906316242888569
1761505515332512300,5.56651220703125,-0.2951806316822767,-0.01242291678674519,0.05312938651069998
1761505515342548700,5.576548828125,-0.287744344201684,0.021542444646544753,-0.03426350412964821
1761505515352584700,5.586584716796875,-0.19396832839548586,0.015633658994175494,-0.07503054493442177
1761505515362620700,5.59662060546875,-0.039758009892702104,-0.001647109619900584,-0.09900237215235828
1761505515372656600,5.60665673828125,-0.0106225163012743,0.017676636063866318,-0.13797449236437678
1761505515382692600,5.616692626953125,-0.1382581316113472,0.035894027940928934,-0.13777590105235576
1761505515392728600,5.626728515625,-0.243733937561512,0.017304186022281644,-0.12752791715189815
1761505515402764500,5.6367646484375,-0.26388649875223635,-0.04357442637570202,-0.07407514390572906
1761505515412800500,5.646800537109375,-0.16739888589978216,-0.0828023479796946,-0.058855362942069764
1761505515422836500,5.65683642578125,-0.08396189327836036,-0.0609834610119462,-0.05921089838147163
1761505515432872400,5.66687255859375,-0.05731646293699741,-0.06602711773496121,-0.06028232700526714
1761505515442908400,5.676908447265625,-0.07425882990956306,-0.10296210609618574,-0.041153702034801246
1761505515452944600,5.686944580078125,-0.0683791242212057,-0.04855714669171721,-0.016098901885747908
1761505515462980600,5.696980712890625,-0.0628027853935957,0.009233801889233291,-0.007936930479109287
1761505515473016600,5.7070166015625,-0.0345820685595274,-0.0030651962568983434,0.02287248767390847
1761505515483052500,5.717052490234375,-0.026048633491992948,-0.034440504664368925,0.03787672619074583
1761505515493088500,5.727088623046875,-0.06741466310322285,-0.05787785967942327,0.007083674650639295
1761505515503124500,5.73712451171875,-0.06048223349153995,-0.08281126193851232,0.012943652725219726
1761505515513160400,5.747160400390625,-0.02865852372944355,-0.09168729989863932,0.0299469561047852
1761505515523196400,5.757196533203125,-0.05720715734362602,-0.08308803305327891,0.039355566571652886
1761505515533232400,5.767232421875,-0.19515724591910838,-0.0962777694940567,0.09234963626489043
1761505515543268400,5.777268310546875,-0.28845103116631504,-0.10031794826295226,0.11334434736818075
1761505515553304300,5.78730419921875,-0.31321547006666656,-0.07637388583477586,0.06505991667062044
1761505515563340500,5.797340576171875,-0.2521498837292194,-0.048191930108517404,0.01824921178743243
1761505515573376500,5.80737646484375,-0.1493769069969654,-0.02878660708852112,-0.03329349005371332
1761505515583412500,5.81741259765625,-0.14270458962619303,-0.064846968039684,-0.025074820023775098
1761505515593448400,5.827448486328125,-0.27811551511287685,-0.13689561108648776,0.0337659298710525
1761505515603484400,5.837484375,-0.3749433197051287,-0.1507966010691598,0.0354793096601963
1761505515613520400,5.847520263671875,-0.43361236629486083,-0.058951443727687,0.044947102968394756
1761505515623556900,5.857556884765625,-0.33623569564819333,0.06278309431243688,-0.003311754896491766
1761505515633592800,5.8675927734375,-0.1844032121926546,0.053998387897573406,0.019442951616644857
1761505515643628800,5.87762890625,-0.0761830759704113,-0.04423694540504366,0.06791632901504635
1761505515653664800,5.887664794921875,-0.014794249027967452,-0.07053951712548732,0.047194735764712094
1761505515663700700,5.89770068359375,-0.04101414743363857,-0.052417584979534144,0.03274637756496668
1761505515673736700,5.90773681640625,-0.09428864150345324,-0.026071904769726095,0.0012213584885001183
1761505515683773000,5.91777294921875,-0.14917992312014103,-0.0015691490128636359,0.0016869301736354826
1761505515693809000,5.927808837890625,-0.14058920490741728,0.014783325775153934,0.017156740375608204
1761505515703844900,5.937844970703125,-0.11150456472039222,0.07187931436188519,-0.02387903436794877
1761505515713880800,5.947880859375,-0.0585848754376173,0.07308942080400883,-0.06068272449970245
1761505515723916800,5.957916748046875,-0.04992693720757961,0.048225613182410594,-0.043445027842372655
1761505515733952800,5.967952880859375,-0.09808277308940887,0.047139681109227234,-0.07818725539967417
1761505515743988700,5.97798876953125,-0.14787994643747807,0.031143034021556375,-0.08094342224001884
1761505515754024700,5.988024658203125,-0.17533084794282913,0.0067936421955004335,-0.07367752289026976
1761505515764060700,5.998060791015625,-0.20559388425946235,-0.025910832456499337,-0.06548106469213962
1761505515774096600,6.0080966796875,-0.23546470638811587,-0.0026863164745271205,-0.06090776542723179
1761505515784132600,6.018132568359375,-0.22730770341753959,0.05758895973544567,-0.08280395541489124
1761505515794168800,6.0281689453125,-0.18960837962031363,0.08478661713209003,-0.12567673632726073
1761505515804204800,6.038204833984375,-0.14692600671350955,0.05080656958632171,-0.09227817846387625
1761505515814240800,6.04824072265625,-0.0660439592719078,-0.016399967191554603,-0.0453653283804655
1761505515824276700,6.05827685546875,0.011291209343075752,-0.048965983220934865,-0.042850276819616555
1761505515834312700,6.068312744140625,0.0804483321994543,-0.03159669607318938,-0.07111220244690776
1761505515844348700,6.0783486328125,0.11239479155838489,0.013631233130581677,-0.11474909959957003
1761505515854385000,6.088385009765625,0.09339315396845341,0.06796250624433159,-0.1088068500690162
1761505515864420900,6.0984208984375,0.017784663015604017,0.07106405245624482,-0.05407309710159897
1761505515874456800,6.108456787109375,-0.09552432077825068,0.04455781138986349,-0.008615706523507833
1761505515884492800,6.118492919921875,-0.2524982587754726,0.06016480157282203,-0.008149550316482781
1761505515894528800,6.12852880859375,-0.4492103329211473,0.05233348689265549,-0.05808277113437652
1761505515904564700,6.138564697265625,-0.4517518340975046,0.029436741560325025,-0.10024185081943869
1761505515914601000,6.14860107421875,-0.3923433673173189,0.02352934414744377,-0.045418373741954565
1761505515924637000,6.158636962890625,-0.3009182985514402,-0.009098229343444108,-0.018494564850628375
1761505515934673000,6.1686728515625,-0.14260288281738756,-0.09037106620091945,0.04226151714622974
1761505515944708900,6.178708984375,0.00639525399506092,-0.16087116463147103,0.11793138289749622
1761505515954744800,6.188744873046875,0.11698270387053489,-0.16418858208376913,0.1639034449994564
1761505515964780800,6.19878076171875,0.11942542084753513,-0.12380078638754784,0.17679259105846284
1761505515974816800,6.208816650390625,-0.07656359972059726,-0.06120861153732985,0.13535788012519478
1761505515984852700,6.218852783203125,-0.2401870587348938,-0.03794365394711494,0.05460413523837924
1761505515994888700,6.228888671875,-0.3151946611851454,-0.05431728112101555,-0.011149316654354334
1761505516004924700,6.238924560546875,-0.22628829724192617,-0.051717035494744774,-0.005815408280491829
1761505516014960600,6.248960693359375,-0.14610299989283085,-0.040436237947829065,0.042863574692606925
1761505516024996900,6.258996826171875,-0.12466039889156817,-0.03589994622506201,0.09145984781831502
1761505516035032800,6.26903271484375,-0.19850947895646093,-0.050354661100357766,0.13023571480587123
1761505516045068800,6.27906884765625,-0.21591537178754805,-0.04372340639233589,0.1300889998115599
1761505516055104800,6.289104736328125,-0.22906594526171684,-0.03307623057384044,0.027602584935724733
1761505516065140700,6.299140625,-0.19528817882239818,-0.02972867371160537,-0.10687485909312963
1761505516075176700,6.3091767578125,-0.1953863784998655,-0.06431329955440014,-0.1639690575815737
1761505516085214000,6.3192138671875,-0.12705226246416568,-0.10928487937692552,-0.1809920885749161
1761505516095248600,6.32924853515625,-0.09547346737384796,-0.08666475902888923,-0.13694661062136293
1761505516105284600,6.33928466796875,-0.08981646452546119,-0.06777019854262471,-0.08229249876141548
1761505516115320600,6.349320556640625,-0.0927659619808197,-0.08275189643409103,-0.05955620468780398
1761505516125357800,6.35935791015625,-0.041942368194460865,-0.0699087814738974,-0.0013153203822672366
1761505516135393800,6.369393798828125,0.027094927674531935,-0.004207973083853721,0.05410393063127994
1761505516145429000,6.379428955078125,0.005446574968099594,0.061195277131721376,0.057888855997472996
1761505516155465000,6.38946484375,-0.15244447787404058,0.05995579846464097,0.08714417657628655
1761505516165502000,6.399501953125,-0.386184844687581,0.026400588734820485,0.11671630801931022
1761505516175538000,6.409537841796875,-0.3980769425332546,0.0316387085840106,0.04602393841966986
1761505516185572900,6.41957275390625,-0.23281682222783565,0.052871977683529255,-0.03767579679116607
1761505516195609900,6.42960986328125,-0.0757645582973957,0.007385799402371048,-0.08722425607517362
1761505516205645800,6.439645751953125,-0.054229602837562556,-0.03592749181911349,-0.003136252199113369
1761505516215681800,6.449681884765625,-0.16346622262597083,-0.05494081984683871,-0.0023214286848902703
1761505516225716700,6.459716796875,-0.19287994863688945,-0.044051615433394906,0.028411709361523388
1761505516235753700,6.469753662109375,-0.25126959376335145,-0.04676028987020254,0.13240078388527035
1761505516245789700,6.479789794921875,-0.19585808766484258,-0.040281230049207806,0.15148849232345818
1761505516255825000,6.489824951171875,-0.12083119599223135,0.0016642799504101276,0.08825023812204599
1761505516265861600,6.499861572265625,-0.15662205581963062,0.06491429765485227,-0.06681611268818378
1761505516275897900,6.50989794921875,-0.23649872561097143,0.02544759885892272,-0.18973215213045477
1761505516285933800,6.519933837890625,-0.22594576741456984,0.023521672297641634,-0.16600713928043842
1761505516295969800,6.5299697265625,-0.08542962774336338,0.09159896402806043,-0.18122662798315287
1761505516306005800,6.540005859375,0.04251987582147121,0.04253047028072178,-0.15847995864599942
1761505516316041700,6.550041748046875,0.11413608226776123,-0.1267680386953056,-0.09484218373298645
1761505516326077700,6.56007763671875,0.09732231011092662,-0.15020152125284075,-0.07540230085626244
1761505516336113700,6.57011376953125,-0.04231178602874279,-0.05251256978660822,-0.11777473103106022
1761505516346149600,6.580149658203125,-0.2098006882995367,0.032104426399618385,-0.12825228590369223
1761505516356185600,6.590185546875,-0.39060616826117034,0.08099836729764938,-0.15566899287849664
1761505516366221800,6.600221923828125,-0.42818098889589307,0.1349960610754788,-0.15531944878846407
1761505516376256800,6.6102568359375,-0.34848318280279633,0.16564575862213968,-0.08358838379085064
1761505516386294000,6.6202939453125,-0.1611485933333635,0.12448219278044997,-0.02288593167737126
1761505516396330000,6.630330078125,0.035198154631257056,0.018915566741675136,0.033681612588465214
1761505516406366000,6.640365966796875,0.11132160936892031,-0.07093333874866366,0.05252499087676406
1761505516416400600,6.650400634765625,0.08635492589473724,-0.10067015923410653,0.029784020628035066
1761505516426438000,6.66043798828125,0.041780455631017684,-0.029896468026563525,0.020471856272965668
1761505516436472800,6.670472900390625,0.0002495908468961716,0.03369279156960547,-0.015238047272711991
1761505516446508800,6.6805087890625,-0.034224341163039206,0.0349135655362159,0.009100421300530433
1761505516456545800,6.6905458984375,-0.09518938973546028,0.04131225359737873,0.04512611279711127
1761505516466581000,6.7005810546875,-0.17528876236677168,0.053779009525850414,0.039738866800814864
1761505516476617700,6.71061767578125,-0.31035306637287136,0.032850787787511944,0.05176438176780939
1761505516486653000,6.72065283203125,-0.3557838612049818,0.029192411410436034,0.05179521529749036
1761505516496689000,6.73068896484375,-0.2990712093800306,0.019585721088200808,0.058124564449489116
1761505516506724900,6.740724853515625,-0.22577041084766386,0.0005216857865452766,0.08595394387841224
1761505516516760800,6.7507607421875,-0.11928162846267222,-0.05150441565737128,0.06775368579924106
1761505516526796800,6.760796875,-0.0013508300870656966,-0.05312295676991343,0.034891719030588866
1761505516536832800,6.770832763671875,0.049912324160337446,-0.05422799540236592,0.0024212357975542543
1761505516546868700,6.78086865234375,0.024177578923106194,-0.038629371188953515,-0.02991933744549751
1761505516556904700,6.79090478515625,-0.04940554368197918,0.000425312739983201,-0.06367459979206323
1761505516566940700,6.800940673828125,-0.10282266109287738,0.005091331789642572,-0.06668766400292515
1761505516576977000,6.810976806640625,-0.1254524260520935,-0.008936097584292292,-0.0795011144772172
1761505516587012900,6.821012939453125,-0.12715104666352273,-0.030341508380323647,-0.08258709779381751
1761505516597048800,6.831048828125,-0.17665128289163112,-0.05489508100897073,-0.10784633447378873
1761505516607084800,6.841084716796875,-0.24059914666712282,-0.01893777857348323,-0.12700535458251833
1761505516617120800,6.851120849609375,-0.2566600546300411,-0.009339344622939824,-0.09039733315333723
1761505516627156500,6.861156494140625,-0.21357903779447077,-0.06412409712523222,-0.08423281917423009
1761505516637192400,6.8711923828125,-0.14125322177410124,-0.10794117315039038,-0.08049377877637744
1761505516647228400,6.881228515625,-0.10627835450470446,-0.07736139903478324,-0.06868278334289789
1761505516657264400,6.891264404296875,-0.11996493455171585,-0.05251914565786719,-0.07477803147807717
1761505516667300400,6.90130029296875,-0.18054829033017158,-0.030429515457339584,-0.05046411282420158
1761505516677336600,6.911336669921875,-0.24864509047865865,-0.02403261749446392,0.010310089351236819
1761505516687372500,6.92137255859375,-0.27528350655734535,-0.023400493603385985,0.08534034202471374
1761505516697408500,6.931408447265625,-0.204576231649518,-0.055365913391113276,0.14997180415019393
1761505516707444500,6.941444580078125,-0.0907265651077032,-0.06320968569405376,0.18523571749404072
1761505516717480400,6.95148046875,-0.07069616899192332,-0.0854810656696558,0.13866890436932444
1761505516727516400,6.961516357421875,-0.12319558703601359,-0.08480057259220629,0.06313464769646525
1761505516737552400,6.971552490234375,-0.15698621295690535,-0.035799116199091076,0.014927812279760836
1761505516747588400,6.98158837890625,-0.14293898290395735,0.0004384279498830437,-0.04038213314041495
1761505516757624300,6.991624267578125,-0.0666150371581316,-0.02552084675822407,-0.04884381814599037
1761505516767660300,7.001660400390625,-0.060277650830149646,-0.0662578942835331,-0.04067468634620309
1761505516777696500,7.011696533203125,-0.10093582443296908,-0.07016564231179655,0.0342965296164155
1761505516787732500,7.021732421875,-0.16859890933930874,-0.0601463526006788,0.09948606401607393
1761505516797768700,7.031768798828125,-0.2705547244697809,-0.058999703316204244,0.12601736645847558
1761505516807804700,7.0418046875,-0.3425029393494129,-0.06993534068726003,0.11975275310575961
1761505516817840600,7.051840576171875,-0.3661667235314846,-0.056044141446240245,0.0020760756216943264
1761505516827876600,7.061876708984375,-0.2518020932048559,-0.01675590448975563,-0.06886544643342495
1761505516837912600,7.07191259765625,-0.09771920047402381,0.003444222169741988,-0.08593494691699743
1761505516847948500,7.081948486328125,0.051638417300581926,-0.033303828784637154,-0.0772470519401133
1761505516857984500,7.091984619140625,0.025734745237231252,-0.09703088941629975,-0.043664223551005125
1761505516868020500,7.1020205078125,-0.09410276354253291,-0.10769205722752957,-0.028259003017842767
1761505516878056400,7.112056396484375,-0.17793197035193442,-0.06089311584737152,-0.03727671447098255
1761505516888092400,7.122092529296875,-0.20370646307766435,-0.08163765158187597,-0.06126490830183029
1761505516898128400,7.13212841796875,-0.1266635554075241,-0.09725658793095499,-0.07085165181457996
1761505516908164600,7.14216455078125,-0.08588906194865703,-0.07717095449659973,-0.04086611726507544
1761505516918200600,7.15220068359375,-0.1427057586699724,-0.03747106799930334,-0.05245967055559158
1761505516928236500,7.162236572265625,-0.11902677691876888,0.004017820806615054,-0.059981882753968235
1761505516938272500,7.1722724609375,-0.10287760615050792,0.03588427373189479,-0.013031477139145134
1761505516948308500,7.18230859375,-0.0920814868479967,0.02963120468650013,0.028680443300306797
1761505516958344400,7.192344482421875,-0.01860416270494461,0.014897307543642819,0.08926438360065221
1761505516968380400,7.20238037109375,0.028323592686653135,0.014887005345337092,0.12222104291543363
1761505516978416400,7.21241650390625,0.027075053930282592,0.026427732470072806,0.05105944836884737
1761505516988452400,7.222452392578125,-0.05321662640273571,0.004794102408736944,-0.048140492182224985
1761505516998488300,7.23248828125,-0.21724106743335722,-0.04604395829439163,-0.11917013091221451
1761505517008524500,7.242524658203125,-0.29578093566298486,-0.08042027514874935,-0.19122326747104523
1761505517018560500,7.252560546875,-0.3427823408126831,-0.023776121982745826,-0.14366072130724786
1761505517028596500,7.262596435546875,-0.288850259616971,0.008181479824706912,-0.07499781170859933
1761505517038632400,7.272632568359375,-0.20873159776329994,-0.0505229668719694,0.0007074176169931889
1761505517048668400,7.28266845703125,-0.12313245867192744,-0.08411569560058414,0.06269508723542094
1761505517058704400,7.292704345703125,-0.09803951846957207,-0.07290792675726115,0.04031038307845592
1761505517068740600,7.30274072265625,-0.08972644815444945,-0.06204341839365661,-0.009307488179951905
1761505517078776600,7.312776611328125,-0.205974992531538,-0.04105608687922358,-0.037419191681593654
1761505517088812500,7.3228125,-0.24327333431243894,-0.011140037369355558,-0.060178135978430504
1761505517098848500,7.3328486328125,-0.1710445489257574,0.03632971594445407,-0.08929507099986075
1761505517108884500,7.342884521484375,-0.05565116007328033,0.026907113484852016,-0.07051262911856174
1761505517118920400,7.35292041015625,0.03892681976556778,-0.04736176289469003,-0.06329582960754633
1761505517128956700,7.362956787109375,0.07066752741932869,-0.11570665605273098,-0.11219766155108808
1761505517138992600,7.37299267578125,-0.0172843122780323,-0.07784300853926689,-0.13832725132480264
1761505517149028600,7.383028564453125,-0.19396599030792713,-0.025318638717010615,-0.21040990623906253
1761505517159064600,7.393064697265625,-0.3433440663486719,0.012421930406056344,-0.18020093819722532
1761505517169100500,7.4031005859375,-0.35435879683792587,0.07445252585075796,-0.09425152436345816
1761505517179136500,7.413136474609375,-0.25652678363919257,0.055052573125623165,0.018830226545780895
1761505517189172500,7.42317236328125,-0.09118366122543811,0.021135873139649628,0.07955079883784055
1761505517199208400,7.43320849609375,-0.0229834007024765,0.016141425853222608,0.10955445356592536
1761505517209244400,7.443244384765625,-0.06818564747571945,0.03005852672047913,0.10572539679706096
1761505517219280400,7.4532802734375,-0.15679390525519846,0.008345949671417474,0.0452991312764585
1761505517229316400,7.46331640625,-0.2258744557440281,-0.037638314324989916,-0.03495689322128892
1761505517239352600,7.4733525390625,-0.2564543029248714,0.02271214601304382,-0.013946838418394326
1761505517249388500,7.483388427734375,-0.20137480525970458,0.15795630009807646,-0.061901160378754136
1761505517259424500,7.493424560546875,-0.09458733218908309,0.16188253363110125,-0.13208075815066694
1761505517269460500,7.50346044921875,-0.05686930369138717,0.02933671525195241,-0.1362888773649931
1761505517279496400,7.513496337890625,0.01027472577691078,-0.012532660771533847,-0.11660144946798681
1761505517289532400,7.523532470703125,-0.014044307443499564,0.002612155259773135,-0.07377338448017835
1761505517299568400,7.533568359375,-0.02627601250708103,-0.0002990925444290042,0.0094721772223711
1761505517309604400,7.543604248046875,-0.09683657242059707,-0.026775121135637164,0.14257190315723417
1761505517319640300,7.553640380859375,-0.2390191839993,-0.004346468239091336,0.16711232404336332
1761505517329676300,7.56367626953125,-0.37095629589557644,0.06625372956506907,0.0809080586656928
1761505517339712300,7.573712158203125,-0.3827624690234661,0.1339707000831142,-0.025475948170572516
1761505517349748700,7.583748779296875,-0.22626725445389748,0.14979195407126097,-0.10992635561823844
1761505517359784700,7.59378466796875,-0.1014753381371498,0.044165378006175156,-0.13401274912655353
1761505517369820700,7.603820556640625,-0.023498949009180068,-0.09771620479933917,-0.023294366347789763
1761505517379855400,7.61385546875,-0.03388590298891067,-0.18547091448940337,0.02509089437574148
1761505517389892600,7.623892578125,-0.12503098576962948,-0.18018983228132127,0.012002718613296746
1761505517399927300,7.63392724609375,-0.2361789921373129,-0.09633322600834071,0.0072859192244708534
1761505517409963500,7.643963623046875,-0.22343056972324846,-0.02565707689113915,-0.047120209223777056
1761505517419999500,7.65399951171875,-0.07225859600305556,-0.022782325172424314,-0.0680962156265974
1761505517430035700,7.66403564453125,0.07922492788434028,-0.0694477763660252,-0.0779794578678906
1761505517440071700,7.67407177734375,0.11291501604020594,-0.09403415528573095,-0.036619273475557566
1761505517450107600,7.684107666015625,0.06104337450563907,-0.07437401725444942,-0.019976912362873554
1761505517460143600,7.6941435546875,0.0844441238373518,-0.08582447227984666,0.03367518284767866
1761505517470179600,7.7041796875,0.09161503838002681,-0.0640268472958356,0.04500307093933224
1761505517480215600,7.714215576171875,0.10504501331746578,-0.029668650620058176,0.023767975208908318
1761505517490251500,7.72425146484375,-0.010046177718043326,-0.008429755497351287,0.030096301447600126
1761505517500287500,7.73428759765625,-0.2185135715872049,0.008924041820317506,0.018898469476401804
1761505517510323500,7.744323486328125,-0.45587972768247126,0.13176416648216543,-0.04883198157772421
1761505517520359400,7.754359375,-0.59954351772964,0.1570478800162673,-0.049485477050393814
1761505517530395400,7.7643955078125,-0.6307230843693018,-0.003634191783890128,0.06925882966518401
1761505517540431600,7.774431640625,-0.3691156364649534,0.03947561275474727,-0.04354220460653305
1761505517550467600,7.784467529296875,-0.12680267161726952,0.11241075631249696,-0.1323173433855176
1761505517560503600,7.794503662109375,0.04298106359243393,0.05816507912296801,-0.09008680589944124
1761505517570539500,7.80453955078125,-0.0068932666450738905,-0.06592208645790815,-0.06485255753025412
1761505517580575500,7.814575439453125,-0.13536299469172955,-0.14651508782505987,-0.037845454269647597
1761505517590611500,7.824611572265625,-0.21138415809869765,-0.09912088396549225,-0.006864040550589561
1761505517600647400,7.8346474609375,-0.165153737321496,0.003944317178986966,0.026905980973690746
1761505517610683400,7.844683349609375,-0.12280980258882045,0.020252222172915935,0.06847118641883135
1761505517620719400,7.85471923828125,-0.11024784265756607,-0.04956760237589478,0.05570639739185571
1761505517630755600,7.864755615234375,-0.09883563728332519,-0.07707403346076608,0.023764760338515042
1761505517640791600,7.87479150390625,-0.04952595519125461,-0.0910161957040429,-0.04993438986167311
1761505517650827500,7.88482763671875,-0.0275888486713171,-0.1101346646066755,-0.07685469162166118
1761505517660863700,7.89486376953125,-0.054428340280056,-0.0363805328162387,-0.1965406631015241
1761505517670899700,7.904899658203125,-0.17366145342588424,0.0005425093788653612,-0.1692109037578106
1761505517680935700,7.914935791015625,-0.2785369553953409,-0.012418898198753595,-0.013770751199126243
1761505517690971600,7.9249716796875,-0.307455591365695,-0.07285586777646094,0.1426597275711596
1761505517701007600,7.935007568359375,-0.28118308598995206,-0.07777995324041694,0.12408625226542352
1761505517711043600,7.945043701171875,-0.26268296818137166,-0.025062691194564102,0.06481368682458996
1761505517721079600,7.95507958984375,-0.27003508450984953,-0.020081249520182608,0.031740999914705754
1761505517731115500,7.965115478515625,-0.18649346247017382,0.006713745359703898,-0.03328223800733685
1761505517741151500,7.9751513671875,-0.12910861047208308,0.0036754371097311375,-0.017944091361016035
1761505517751187500,7.9851875,-0.15803367618322373,0.0006943754723295569,0.028953707283735274
1761505517761223700,7.9952236328125,-0.1667535737335682,0.09994297747071831,0.014695318698137998
1761505517771259600,8.005259765625,-0.1809779139190912,0.11517112440392374,0.02200403427630663
1761505517781295600,8.015295654296875,-0.145599142023921,0.0883184810526669,0.008840455190092324
1761505517791330600,8.02533056640625,-0.052832010999321936,0.028944574129208922,-0.051482642216980457
1761505517801366500,8.035366455078124,-0.032255086916685105,-0.06491064439304173,-0.09703706342875956
1761505517811402500,8.045402587890624,0.017315291938185692,-0.004698788808099925,-0.08699336992874741
1761505517821438500,8.0554384765625,0.06250701731741427,0.08692395795434713,-0.13045973282009363
1761505517831474400,8.065474365234374,0.02361117721199989,0.05892521330788731,-0.08485796533524989
1761505517841509600,8.075509521484374,-0.12148469146490096,-0.024648338240012526,-0.07413505739942193
1761505517851545600,8.085545654296874,-0.2353419567912817,-0.03498725182693451,-0.018302841670811174
1761505517861581600,8.09558154296875,-0.30900808150470255,0.10026851963065564,-0.06029021805077791
1761505517871617500,8.105617431640624,-0.33023207131922244,0.12385675435848534,-0.1372813955336809
1761505517881653500,8.115653564453124,-0.28765432783067224,-0.014054098185151815,-0.12091712071001529
1761505517891689500,8.125689453125,-0.21745675601065156,-0.15244897138606756,-0.12407543861046433
1761505517901725400,8.135725341796874,-0.0025040917754173275,-0.12340104648023843,-0.11904621227160095
1761505517911761400,8.145761474609374,0.1178928044527769,0.010794731063023208,-0.145762369761616
1761505517921797600,8.155797607421874,0.059572717431187625,-0.0018566972499713301,-0.12176248549297451
1761505517931833600,8.16583349609375,-0.07880816377699375,-0.08518548025656492,-0.06723916040584445
1761505517941869800,8.175869873046874,-0.20127894366979598,-0.03987053035646677,-0.024620792645961044
1761505517951905800,8.18590576171875,-0.3304571122467518,0.03755699271708727,-0.06068111706450581
1761505517961941800,8.195941650390624,-0.22013211269974708,-0.03432473279759288,-0.22472411666512487
1761505517971977700,8.205977783203124,-0.17518939364552497,-0.08976466127298771,-0.2534600895449519
1761505517982013700,8.216013671875,-0.2660889772325754,0.3075359631255269,-0.29325492431670425
1761505517992049700,8.226049560546874,-0.23302841915190217,0.10595781731344758,0.05408902532309293
1761505518002085600,8.236085693359374,-0.2666565479874611,-0.29905524462591854,0.4221653818681836
1761505518012121600,8.24612158203125,-0.14889175382852554,-0.36388208319302645,0.6558139787450432
1761505518022157600,8.256157470703124,0.09449088607728481,-0.1502053206451237,0.37121260874420403
1761505518032193500,8.266193603515624,0.1727519373655319,0.11494191875793039,-0.05049480022341012
1761505518042229800,8.276229736328125,0.04249883303344249,0.009448467553220688,-0.15791735632717607
1761505518052265700,8.286265625,-0.12919628875553607,-0.2384184781597927,-0.11103504751250147
1761505518062301700,8.2963017578125,-0.2975947070866823,-0.41496662947051227,-0.18887918856292962
1761505518072337700,8.306337646484375,-0.5391051233798265,-0.16560966439545152,-0.3260772897273302
1761505518082373600,8.31637353515625,-0.7955600108265877,0.32449403912387786,-0.3733510820776224
