time,seconds_elapsed,z,y,x
1761505509862867700,0.09686767578125,0.24463306367397308,-0.0830431878566742,0.09572545439004898
1761505509872904000,0.106904052734375,0.2330067902803421,-0.04716397821903229,0.07861720770597458
1761505509882940000,0.11693994140625,0.20091544091701508,0.004806543700397015,0.08000418543815613
1761505509892975900,0.126975830078125,0.16658815741539001,0.03809748589992523,0.0845530778169632
1761505509903012900,0.137012939453125,0.13378120958805084,0.06819413602352142,0.09729444235563278
1761505509913048800,0.147048828125,0.114386647939682,0.09467407315969467,0.10122141987085342
1761505509923084800,0.157084716796875,0.09977521747350693,0.06558995693922043,0.10231518000364304
1761505509933120800,0.167120849609375,0.09043489396572113,0.009136118926107883,0.09511718899011612
1761505509943156700,0.17715673828125,0.09480088204145432,-0.05411422252655029,0.07326355576515198
1761505509953192700,0.187192626953125,0.11478062719106674,-0.11192380636930466,0.03374851122498512
1761505509963228700,0.197228759765625,0.13418789207935333,-0.13978101313114166,0.007943809032440186
1761505509973264600,0.2072646484375,0.13105441629886627,-0.12795086205005646,0.004929670132696629
1761505509983300600,0.217300537109375,0.10246086120605469,-0.11701007187366486,0.01345045492053032
1761505509993336600,0.227336669921875,0.07001177221536636,-0.0777377039194107,0.02694098837673664
1761505510003372500,0.23737255859375,0.045158084481954575,-0.027391711249947548,0.035693999379873276
1761505510013409000,0.247408935546875,0.03956230729818344,0.026111025363206863,0.03560313582420349
1761505510023445000,0.257445068359375,0.04689372330904007,0.06634659320116043,0.03784125670790672
1761505510033481000,0.26748095703125,0.057946331799030304,0.0817064419388771,0.016598885878920555
1761505510043517000,0.277516845703125,0.06953427940607071,0.07065938413143158,-0.024798886850476265
1761505510053554000,0.287553955078125,0.08548478037118912,0.02773619070649147,-0.078354611992836
1761505510063590000,0.29758984375,0.10203472524881363,0.0012792831985279918,-0.09648914635181427
1761505510073625900,0.3076259765625,0.09049949049949646,-0.017243893817067146,-0.07042627781629562
1761505510083661800,0.317661865234375,0.0667310431599617,-0.0621035099029541,-0.02571260929107666
1761505510093697800,0.32769775390625,0.0436985157430172,-0.0769638642668724,0.02060069888830185
1761505510103733800,0.337733642578125,0.03843797370791435,-0.055489733815193176,0.02836114913225174
1761505510113769700,0.347769775390625,0.04230848699808121,-0.050394125282764435,0.010988365858793259
1761505510123805700,0.3578056640625,0.04396311193704605,-0.02575243078172207,0.006780304946005344
1761505510133841700,0.367841552734375,0.03533441200852394,-0.0079253651201725,0.014971302822232246
1761505510143877600,0.377877685546875,0.022860167548060417,0.01061529666185379,0.015928709879517555
1761505510153913900,0.387913818359375,0.007878424599766731,0.03808662295341492,-0.004621232394129038
1761505510163949800,0.39794970703125,-0.009922943077981472,0.061413783580064774,-0.03717757761478424
1761505510173985800,0.40798583984375,-0.020903974771499634,0.07124366611242294,-0.06461136788129807
1761505510184021800,0.418021728515625,-0.03436092659831047,0.06551893800497055,-0.07175423204898834
1761505510194057700,0.4280576171875,-0.0363292396068573,0.04831278696656227,-0.03808969259262085
1761505510204093700,0.43809375,-0.030321944504976273,0.03703216835856438,0.024743063375353813
1761505510214131000,0.448130859375,-0.011645209975540638,0.017084401100873947,0.09298814833164215
1761505510224167000,0.4581669921875,0.007850727997720242,0.005464763380587101,0.14944423735141754
1761505510234203000,0.468202880859375,0.02776571922004223,0.015464632771909237,0.1729871779680252
1761505510244238800,0.47823876953125,0.03686147928237915,0.025456013157963753,0.15097296237945557
1761505510254274800,0.48827490234375,0.041887231171131134,0.04855944588780403,0.0896487683057785
1761505510264310800,0.498310791015625,0.04368380084633827,0.06938643753528595,0.024731822311878204
1761505510274346800,0.5083466796875,0.029593421146273613,0.10338453948497772,-0.0060005784034729
1761505510284382700,0.5183828125,0.013249868527054787,0.1435364931821823,-0.022074086591601372
1761505510294418700,0.528418701171875,-0.0020629973150789738,0.14242056012153625,-0.02409895695745945
1761505510304455000,0.538454833984375,-0.007155227940529585,0.12729141116142273,-0.0015076277777552605
1761505510314491000,0.548490966796875,0.002248127479106188,0.09347885102033615,0.03711273521184921
1761505510324526800,0.55852685546875,0.011352410539984703,0.03509463369846344,0.06801871955394745
1761505510334562800,0.568562744140625,0.017904747277498245,-0.030764784663915634,0.07706958055496216
1761505510344598800,0.578598876953125,0.02726282924413681,-0.07924097031354904,0.07136642187833786
1761505510354634800,0.588634765625,0.028760578483343124,-0.10474569350481033,0.057459112256765366
1761505510364671700,0.598671630859375,0.006521586328744888,-0.11276287585496902,0.057272423058748245
1761505510374707700,0.608707763671875,-0.010407602414488792,-0.04827065020799637,0.0568830631673336
1761505510384743700,0.61874365234375,-0.011370068415999413,0.021192047744989395,0.0448751337826252
1761505510394779600,0.628779541015625,0.004167255479842424,0.08466947078704834,0.031237751245498657
1761505510404815600,0.638815673828125,0.018240196630358696,0.12759484350681305,0.002380269579589367
1761505510414851800,0.648851806640625,0.035023704171180725,0.12069351971149445,-0.02523777447640896
1761505510424887800,0.6588876953125,0.05154229700565338,0.09519288688898087,-0.040630873292684555
1761505510434923800,0.668923828125,0.05795808508992195,0.06973445415496826,-0.03322600573301315
1761505510444960000,0.6789599609375,0.042325593531131744,0.01520889438688755,0.0038212258368730545
1761505510454996000,0.688995849609375,0.019096028059720993,-0.01352199912071228,0.04881924390792847
1761505510465032000,0.699031982421875,-0.010358799248933792,-0.020837968215346336,0.06226394325494766
1761505510475068000,0.70906787109375,-0.027951156720519066,-0.030427895486354828,0.041070837527513504
1761505510485103900,0.719103759765625,-0.02989313192665577,-0.016994643956422806,0.0003377882530912757
1761505510495139800,0.729139892578125,-0.020381078124046326,-0.010234007611870766,-0.04035085439682007
1761505510505175800,0.73917578125,-0.011643514968454838,-0.02056227996945381,-0.04924687743186951
1761505510515211800,0.749211669921875,-0.006457390263676643,-0.02174859121441841,-0.02459976263344288
1761505510525248800,0.759248779296875,-0.007844896987080574,-0.02810928411781788,0.026380330324172974
1761505510535284700,0.76928466796875,-0.004595670383423567,-0.019610900431871414,0.0768316388130188
1761505510545320700,0.77932080078125,-0.002894709352403879,-0.0073547689244151115,0.10615011304616928
1761505510555356700,0.789356689453125,-0.001963523682206869,0.007757518440485001,0.11015932261943817
1761505510565392600,0.799392578125,-0.010064594447612762,0.026333600282669067,0.09922730922698975
1761505510575428600,0.8094287109375,-0.012528175488114357,0.0411476269364357,0.0676351934671402
1761505510585464800,0.81946484375,-0.015177486464381218,0.0445154570043087,0.01147631835192442
1761505510595500800,0.829500732421875,-0.014264555647969246,0.0419367216527462,-0.05195511877536774
1761505510605536800,0.839536865234375,-0.02549191191792488,0.06123664975166321,-0.11133988201618195
1761505510615572500,0.849572509765625,-0.036175549030303955,0.06747112423181534,-0.13667894899845123
1761505510625608400,0.8596083984375,-0.036055173724889755,0.032750699669122696,-0.10957436263561249
1761505510635644400,0.86964453125,-0.038686156272888184,-0.002207698067650199,-0.016486965119838715
1761505510645680400,0.879680419921875,-0.031619198620319366,-0.018607977777719498,0.10809224843978882
1761505510655716400,0.88971630859375,-0.02891053631901741,-0.03019505925476551,0.19157283008098602
1761505510665752300,0.89975244140625,-0.02350511960685253,-0.007633291184902191,0.21598921716213226
1761505510675789300,0.909789306640625,-0.010533018037676811,0.021882981061935425,0.16497041285037994
1761505510685825300,0.9198251953125,0.004738079849630594,0.046902578324079514,0.0704505667090416
1761505510695861200,0.929861328125,0.016874685883522034,0.0730443149805069,-0.03792630136013031
1761505510705897200,0.939897216796875,0.02202710323035717,0.05975541099905968,-0.13236600160598755
1761505510715933400,0.949933349609375,0.01810363680124283,0.020025277510285378,-0.18913860619068146
1761505510725969400,0.959969482421875,-0.0017430377192795277,-0.03244219347834587,-0.18961796164512634
1761505510736005400,0.97000537109375,-0.024610022082924843,-0.09146780520677567,-0.14313066005706787
1761505510746041300,0.980041259765625,-0.036366015672683716,-0.1170908734202385,-0.07463415712118149
1761505510756077600,0.99007763671875,-0.03108598291873932,-0.09579689055681229,-0.0030207522213459015
1761505510766113500,1.000113525390625,-0.010437695309519768,-0.00465100072324276,0.055634304881095886
1761505510776149500,1.0101494140625,0.015600549057126045,0.08864469826221466,0.08600577712059021
1761505510786185500,1.020185546875,0.030831698328256607,0.1548418253660202,0.09867922216653824
1761505510796221400,1.030221435546875,0.03096907027065754,0.18802252411842346,0.09488481283187866
1761505510806257400,1.04025732421875,0.025653667747974396,0.18293190002441406,0.06917039304971695
1761505510816293400,1.05029345703125,0.02458009123802185,0.13661091029644012,0.05264632776379585
1761505510826330400,1.060330322265625,0.026881063356995583,0.07480985671281815,0.04028819501399994
1761505510836366300,1.070366455078125,0.03186827152967453,0.03734048828482628,0.03608532249927521
1761505510846402300,1.08040234375,0.03321370109915733,0.021804139018058777,0.037209175527095795
1761505510856438300,1.090438232421875,0.03244562819600105,0.0013319915160536766,0.03623922914266586
1761505510866474500,1.100474609375,0.029388587921857834,-0.0038281495217233896,0.05980208143591881
1761505510876510500,1.110510498046875,0.010730029083788395,0.013594669289886951,0.07939840853214264
1761505510886546400,1.12054638671875,-0.002370859030634165,0.02728251740336418,0.07715442776679993
1761505510896582400,1.13058251953125,-0.00819924846291542,0.03914233297109604,0.062253549695014954
1761505510906618400,1.140618408203125,-0.0009975279681384563,0.046401310712099075,0.04069872200489044
1761505510916654300,1.150654296875,0.01867162436246872,0.017068644985556602,0.005039959214627743
1761505510926690300,1.160690185546875,0.04364781454205513,-0.023732846602797508,-0.014887942001223564
1761505510936726300,1.170726318359375,0.0664859339594841,-0.03924112021923065,-0.025689715519547462
1761505510946762200,1.18076220703125,0.08087553083896637,-0.04693339392542839,-0.027993615716695786
1761505510956798200,1.190798095703125,0.07999559491872787,-0.04907461255788803,-0.014195684343576431
1761505510966834400,1.20083447265625,0.05643833428621292,-0.030825568363070488,0.015142497606575489
1761505510976871400,1.210871337890625,0.02254161424934864,-0.01849987544119358,0.055796973407268524
1761505510986907400,1.220907470703125,-0.001116577535867691,0.010768266394734383,0.08169940859079361
1761505510996943400,1.230943359375,-0.013049190863966942,0.03378027677536011,0.08158840239048004
1761505511006979600,1.2409794921875,-0.006709270644932985,0.05378754436969757,0.06845396012067795
1761505511017015600,1.251015625,0.01100890338420868,0.06323698908090591,0.04704092815518379
1761505511027051500,1.261051513671875,0.034696921706199646,0.05154731497168541,0.01821460761129856
1761505511037087500,1.27108740234375,0.05385284125804901,0.030196741223335266,-0.011995258741080761
1761505511047123500,1.28112353515625,0.050748925656080246,0.016217809170484543,-0.0298799816519022
1761505511057159400,1.291159423828125,0.03687116876244545,-0.01098963338881731,-0.020515816286206245
1761505511067195400,1.3011953125,0.013248397037386894,0.00040283682756125927,0.025837300345301628
1761505511077231400,1.3112314453125,-0.0050799488089978695,0.017583465203642845,0.07682933658361435
1761505511087267300,1.321267333984375,-0.020580077543854713,0.029871024191379547,0.11082698404788971
1761505511097303300,1.33130322265625,-0.019261037930846214,0.04575160890817642,0.1116325631737709
1761505511107339300,1.34133935546875,-0.00852503627538681,0.05150989443063736,0.08352182805538177
1761505511117375500,1.35137548828125,0.012701076455414295,0.05978047475218773,0.04486033320426941
1761505511127412200,1.361412109375,0.02305491454899311,0.0517348013818264,0.00863654911518097
1761505511137448200,1.3714482421875,0.03133852034807205,0.01670856401324272,-0.01547501515597105
1761505511147484400,1.381484375,0.02854592725634575,-0.017799612134695053,-0.022855699062347412
1761505511157520400,1.391520263671875,0.024385500699281693,-0.02810257114470005,-0.01507546380162239
1761505511167556600,1.401556640625,0.005486113019287586,-0.005351185332983732,-0.0036528990603983402
1761505511177592600,1.411592529296875,-0.014744856394827366,0.007985658943653107,0.009485805407166481
1761505511187628500,1.421628662109375,-0.02159157767891884,0.0309359822422266,0.024002164602279663
1761505511197664500,1.43166455078125,-0.013530454598367214,0.03404895216226578,0.031470201909542084
1761505511207700500,1.441700439453125,-0.00844807829707861,0.006896692328155041,0.036710504442453384
1761505511217736400,1.451736328125,-0.0025809225626289845,-0.018876411020755768,0.04903406649827957
1761505511227772400,1.4617724609375,0.006394462659955025,-0.01488912757486105,0.05227939411997795
1761505511237808400,1.471808349609375,0.019476665183901787,-0.0008803026285022497,0.04039670154452324
1761505511247844400,1.48184423828125,0.026768933981657028,0.014516763389110565,0.00842199195176363
1761505511257880600,1.491880615234375,0.028605926781892776,0.03179791942238808,-0.03594169020652771
1761505511267916500,1.50191650390625,0.02381250262260437,0.019320210441946983,-0.06426254659891129
1761505511277953300,1.511953369140625,0.0142324548214674,-0.012165842577815056,-0.0532071515917778
1761505511287989500,1.521989501953125,0.002841582056134939,-0.024081092327833176,-0.017713874578475952
1761505511298025500,1.532025390625,0.0007485016249120235,-0.029064379632472992,0.016237281262874603
1761505511308061400,1.5420615234375,-0.0016898890025913715,-0.030263599008321762,0.03202609717845917
1761505511318097400,1.552097412109375,-0.004668683744966984,-0.009241020306944847,0.0323617160320282
1761505511328133400,1.56213330078125,-0.0035019526258111,0.0013005702057853341,0.01823284849524498
1761505511338169300,1.57216943359375,0.00845408532768488,0.01676361821591854,0.0035776691511273384
1761505511348205300,1.582205322265625,0.02466927468776703,0.015435764566063881,-0.014669512398540974
1761505511358241300,1.5922412109375,0.04817163944244385,0.015353965573012829,-0.03485512360930443
1761505511368277200,1.60227734375,0.06753069162368774,0.011847914196550846,-0.05302906408905983
1761505511378313200,1.612313232421875,0.07699063420295715,-0.007078567519783974,-0.06708091497421265
1761505511388349200,1.62234912109375,0.06948238611221313,-0.02431960590183735,-0.07360166311264038
1761505511398385400,1.632385498046875,0.05213918909430504,-0.04811076447367668,-0.056554071605205536
1761505511408421600,1.642421630859375,0.034250203520059586,-0.0535271018743515,-0.01704714074730873
1761505511418457600,1.65245751953125,0.010712608695030212,-0.046155668795108795,0.023136569187045097
1761505511428494300,1.662494384765625,0.004250448662787676,-0.027799302712082863,0.03788835182785988
1761505511438530600,1.672530517578125,0.004605405498296022,-0.018081627786159515,0.03005126863718033
1761505511448566500,1.68256640625,0.011295532807707787,-0.02123348042368889,0.008795781061053276
1761505511458602500,1.6926025390625,0.015355781652033329,-0.03348476439714432,-0.019693657755851746
1761505511468638500,1.702638427734375,0.020228568464517593,-0.008850792422890663,-0.03954166918992996
1761505511478674400,1.71267431640625,0.022438008338212967,0.024871353060007095,-0.0351148322224617
1761505511488710400,1.72271044921875,0.022191133350133896,0.04892023280262947,-0.023296792060136795
1761505511498746400,1.732746337890625,0.012261470779776573,0.05358260124921799,0.0009578469325788319
1761505511508782300,1.7427822265625,-0.00852210447192192,0.04293341562151909,0.038736388087272644
1761505511518818300,1.752818359375,-0.02489519864320755,0.04673708975315094,0.07235468924045563
1761505511528854300,1.762854248046875,-0.023918617516756058,0.023009121417999268,0.07181380689144135
1761505511538890200,1.77289013671875,-0.013146787881851196,-0.005511327181011438,0.04846955090761185
1761505511548926500,1.782926513671875,-0.0005036960355937481,-0.01778796687722206,0.03296515718102455
1761505511558962400,1.79296240234375,0.010524715296924114,-0.011840010061860085,0.03400591388344765
1761505511568998400,1.802998291015625,0.009349196217954159,-0.015349524095654488,0.03377102315425873
1761505511579035600,1.81303564453125,-0.00014704465866088867,-0.02667963318526745,0.015960291028022766
1761505511589071600,1.823071533203125,-0.011166938580572605,-0.005021475721150637,-0.003985453862696886
1761505511599107600,1.833107666015625,-0.023534739390015602,0.039832450449466705,0.009204396046698093
1761505511609143600,1.8431435546875,-0.02526499517261982,0.07611934840679169,0.03419869765639305
1761505511619179500,1.853179443359375,-0.02511834166944027,0.07216095924377441,0.05082707479596138
1761505511629215500,1.863215576171875,-0.01729450561106205,0.0442156121134758,0.06711842864751816
1761505511639251500,1.87325146484375,-0.002974211238324642,-0.001054228050634265,0.06469793617725372
1761505511649287400,1.883287353515625,0.013910229317843914,-0.05373049154877663,0.040880490094423294
1761505511659323400,1.893323486328125,0.022903403267264366,-0.08803076297044754,0.003874851856380701
1761505511669359400,1.903359375,0.024643778800964355,-0.10941141843795776,-0.025909142568707466
1761505511679395300,1.913395263671875,0.018959153443574905,-0.110411636531353,-0.030415639281272888
1761505511689431600,1.923431640625,0.014301018789410591,-0.07976424694061279,-0.02260432206094265
1761505511699467500,1.933467529296875,0.005479894112795591,-0.04225735738873482,-0.017033293843269348
1761505511709503700,1.943503662109375,-0.009641800075769424,0.02061827853322029,-0.022623268887400627
1761505511719539700,1.953539794921875,-0.01594327762722969,0.07614100724458694,-0.03466913476586342
1761505511729575700,1.96357568359375,-0.013394900597631931,0.11078367382287979,-0.03882020711898804
1761505511739611600,1.973611572265625,0.0019610924646258354,0.10961317270994186,-0.033215273171663284
1761505511749648600,1.983648681640625,0.020835448056459427,0.06656637042760849,-0.010892659425735474
1761505511759684600,1.9936845703125,0.024414541199803352,0.0049913604743778706,0.013593480922281742
1761505511769720600,2.003720458984375,0.018995007500052452,-0.036398954689502716,0.03761306405067444
1761505511779756500,2.013756591796875,0.008746596053242683,-0.06012846902012825,0.04254411906003952
1761505511789792500,2.02379248046875,-0.00412259716540575,-0.05409427732229233,0.02937745302915573
1761505511799828500,2.033828369140625,-0.012809636071324348,-0.021062269806861877,0.009504834190011024
1761505511809864400,2.043864501953125,-0.01865793764591217,-0.0031959214247763157,-0.004341739695519209
1761505511819900400,2.053900390625,-0.017537090927362442,0.01742212101817131,-0.002393619157373905
1761505511829936400,2.063936279296875,-0.01237721461802721,0.028593815863132477,0.010610329918563366
1761505511839972600,2.07397265625,-0.0023352699354290962,0.06048038601875305,0.029827779158949852
1761505511850008600,2.084008544921875,0.00007142871618270874,0.07228884100914001,0.032970838248729706
1761505511860044500,2.09404443359375,0.0026185791939496994,0.05544619262218475,0.023027552291750908
1761505511870080500,2.10408056640625,0.00924186035990715,0.03384343162178993,0.02298414148390293
1761505511880116500,2.114116455078125,0.02100308984518051,0.0009708285797387362,0.01048739068210125
1761505511890152400,2.12415234375,0.023362118750810623,-0.05082286149263382,0.010979009792208672
1761505511900188400,2.1341884765625,0.014704650267958641,-0.07235050946474075,0.028315160423517227
1761505511910224400,2.144224365234375,0.010229473933577538,-0.024947309866547585,0.041539356112480164
1761505511920261600,2.15426171875,0.011463968083262444,0.02751944586634636,0.03832642361521721
1761505511930297600,2.164297607421875,0.0055389669723808765,0.051194943487644196,0.03665529191493988
1761505511940333600,2.17433349609375,0.0033356158528476954,0.040570709854364395,0.0647037923336029
1761505511950369500,2.18436962890625,-0.0023648804053664207,-0.010617905296385288,0.11247611045837402
1761505511960405500,2.194405517578125,-0.0052505419589579105,-0.03937555104494095,0.15266010165214539
1761505511970441500,2.20444140625,-0.005590094719082117,-0.062345582991838455,0.143666610121727
1761505511980477700,2.214477783203125,0.003998377360403538,-0.07164294272661209,0.1070641577243805
1761505511990513700,2.224513671875,0.029328234493732452,-0.07314816117286682,0.06637824326753616
1761505512000549600,2.234549560546875,0.03663084656000137,-0.03859070688486099,0.024317409843206406
1761505512010585600,2.244585693359375,0.029021130874753,-0.023933202028274536,-0.012291998602449894
1761505512020621600,2.25462158203125,0.019361266866326332,0.01930049993097782,-0.024755127727985382
1761505512030657500,2.264657470703125,0.01495986059308052,0.044185344129800797,-0.027434000745415688
1761505512040693500,2.274693603515625,0.008787156082689762,0.05073641240596771,-0.008869550190865993
1761505512050729500,2.2847294921875,-0.0006553479470312595,0.02497672289609909,0.020740807056427002
1761505512060765400,2.294765380859375,0.0036163129843771458,-0.012652561068534851,0.04903056100010872
1761505512070801400,2.304801513671875,0.007288279477506876,-0.051379717886447906,0.0634305402636528
1761505512080837400,2.31483740234375,0.013029428198933601,-0.052298057824373245,0.05668141320347786
1761505512090873600,2.32487353515625,0.011738327331840992,-0.06428948044776917,0.02703031152486801
1761505512100910300,2.334910400390625,-0.003026568330824375,-0.06603037565946579,-0.015388480387628078
1761505512110946300,2.3449462890625,-0.014501330442726612,-0.0422091968357563,-0.05092543363571167
1761505512120982500,2.354982421875,-0.017450176179409027,-0.021341316401958466,-0.07380308210849762
1761505512131018800,2.365018798828125,-0.012988582253456116,-0.006783945951610804,-0.06705623120069504
1761505512141054700,2.3750546875,-0.006290740799158812,0.014052733778953552,-0.040103185921907425
1761505512151090700,2.385090576171875,-0.00456474581733346,0.015308680012822151,-0.006403546314686537
1761505512161126700,2.395126708984375,-0.013845961540937424,0.016519853845238686,0.022030076012015343
1761505512171162600,2.40516259765625,-0.01666118949651718,0.01715182140469551,0.030059507116675377
1761505512181198600,2.415198486328125,-0.01285682711750269,0.004351647570729256,0.023937353864312172
1761505512191234600,2.425234619140625,-0.01502330880612135,-0.010948744602501392,0.01604614220559597
1761505512201270500,2.4352705078125,-0.018138770014047623,-0.02868228778243065,0.005638365168124437
1761505512211306500,2.445306396484375,-0.025216119363904,-0.04097730293869972,-0.010780822485685349
1761505512221342500,2.455342529296875,-0.025656137615442276,-0.04791828989982605,-0.03952321410179138
1761505512231378400,2.46537841796875,-0.021872850134968758,-0.03618280589580536,-0.0583975687623024
1761505512241414700,2.47541455078125,-0.020232489332556725,-0.007333813235163689,-0.04398249834775925
1761505512251450600,2.48545068359375,-0.021723326295614243,0.03232837840914726,-0.010301765985786915
1761505512261486600,2.495486572265625,-0.026484103873372078,0.04975809529423714,0.026851028203964233
1761505512271522600,2.5055224609375,-0.027511553838849068,0.06637755036354065,0.054886121302843094
1761505512281558500,2.51555859375,-0.027199216187000275,0.06984808295965195,0.058999430388212204
1761505512291595500,2.525595458984375,-0.022759728133678436,0.04619442671537399,0.05475834384560585
1761505512301631500,2.535631591796875,-0.00976637378334999,0.022130409255623817,0.04783141613006592
1761505512311667500,2.54566748046875,-0.0038299215957522392,-0.030233461409807205,0.0297288466244936
1761505512321703400,2.555703369140625,0.0004964293912053108,-0.08425148576498032,0.009728708304464817
1761505512331739400,2.565739501953125,-0.00086258165538311,-0.10283049941062927,-0.011072443798184395
1761505512341775400,2.575775390625,-0.004782850854098797,-0.0936695784330368,-0.040241923183202744
1761505512351811600,2.5858115234375,-0.017091449350118637,-0.028511878103017807,-0.05833357572555542
1761505512361847600,2.59584765625,-0.019368784502148628,0.05298730731010437,-0.05895805358886719
1761505512371883500,2.605883544921875,-0.02967148832976818,0.1144980788230896,-0.035712119191884995
1761505512381919700,2.615919677734375,-0.033039212226867676,0.11850200593471527,-0.0024879523552954197
1761505512391955700,2.625955810546875,-0.03197900205850601,0.0844644084572792,0.03827465698122978
1761505512401991700,2.63599169921875,-0.017341896891593933,0.0215466246008873,0.04896421357989311
1761505512412027600,2.646027587890625,0.0027716264594346285,-0.032162144780159,0.030013427138328552
1761505512422063600,2.656063720703125,0.01745240017771721,-0.08629965037107468,0.00651517603546381
1761505512432099600,2.666099609375,0.021577371284365654,-0.11832096427679062,-0.004453851841390133
1761505512442135600,2.676135498046875,0.018588632345199585,-0.099574513733387,0.003430357202887535
1761505512452171500,2.686171630859375,0.007479522377252579,-0.058140527456998825,0.004275910556316376
1761505512462207500,2.69620751953125,-0.0032959007658064365,-0.0030111202504485846,-0.007178619969636202
1761505512472243500,2.706243408203125,-0.0054810238070786,0.055913712829351425,-0.02611316181719303
1761505512482279400,2.716279541015625,0.002372641349211335,0.08523692935705185,-0.047901276499032974
1761505512492315600,2.726315673828125,0.011967744678258896,0.08506142348051071,-0.048876527696847916
1761505512502352400,2.736352294921875,0.017854979261755943,0.04268429055809975,-0.030371341854333878
1761505512512388400,2.746388427734375,0.020628929138183594,-0.0080505246296525,0.01212471816688776
1761505512522424600,2.756424560546875,0.02827399969100952,-0.03469138965010643,0.04258305951952934
1761505512532460500,2.76646044921875,0.026959460228681564,-0.04942533001303673,0.04864920675754547
1761505512542496500,2.77649658203125,0.026437927037477493,-0.034905970096588135,0.025405801832675934
1761505512552532500,2.786532470703125,0.019721433520317078,-0.015118416398763657,-0.005819761194288731
1761505512562568400,2.796568359375,0.006383761763572693,0.017161602154374123,-0.01670786924660206
1761505512572604400,2.8066044921875,-0.007405553478747606,0.02804487571120262,-0.018596317619085312
1761505512582640600,2.816640625,-0.016625499352812767,0.025965765118598938,0.004287567920982838
1761505512592676600,2.826676513671875,-0.026104753836989403,0.01810437999665737,0.03188271075487137
1761505512602712600,2.836712646484375,-0.023304175585508347,-0.011017818003892899,0.04698709398508072
1761505512612748500,2.84674853515625,-0.013345018029212952,-0.025258006528019905,0.047984182834625244
1761505512622784500,2.856784423828125,-0.003347559366375208,-0.013362403027713299,0.028655817732214928
1761505512632820500,2.866820556640625,-0.003214400727301836,0.002677283715456724,-0.007065160199999809
1761505512642856700,2.876856689453125,-0.012575479224324226,0.01633462682366371,-0.03593352809548378
1761505512652892700,2.886892578125,-0.018237892538309097,0.01812160760164261,-0.05586382746696472
1761505512662928600,2.8969287109375,-0.023173101246356964,-0.0008549925405532122,-0.08124737441539764
1761505512672964600,2.906964599609375,-0.02579072117805481,-0.024225562810897827,-0.09669983386993408
1761505512683000600,2.91700048828125,-0.02313177101314068,-0.034008000046014786,-0.08153372257947922
1761505512693036500,2.92703662109375,-0.02110350877046585,-0.01569477654993534,-0.03888425603508949
1761505512703072500,2.937072509765625,-0.027377158403396606,0.012012974359095097,0.003352483967319131
1761505512713108700,2.947108642578125,-0.02896812930703163,0.03352172672748566,0.020446516573429108
1761505512723144700,2.957144775390625,-0.01347716897726059,0.05926935002207756,0.017661212012171745
1761505512733180700,2.9671806640625,-0.00010064290836453438,0.057065319269895554,0.007558510173112154
1761505512743216600,2.977216552734375,0.007218893151730299,0.022373098880052567,0.000031241681426763535
1761505512753253600,2.987253662109375,0.015481083653867245,-0.034210287034511566,-0.0021911661606281996
1761505512763289600,2.99728955078125,0.030564628541469574,-0.07062841206789017,0.014977999031543732
1761505512773325600,3.00732568359375,0.03728564456105232,-0.07334616780281067,0.036181289702653885
1761505512783361800,3.01736181640625,0.030254211276769638,-0.059140413999557495,0.04736805707216263
1761505512793397800,3.027397705078125,0.018870795145630836,-0.005940308328717947,0.035794224590063095
1761505512803433700,3.037433837890625,0.007074772845953703,0.05399841070175171,0.020968280732631683
1761505512813469700,3.0474697265625,-0.01602255553007126,0.09466993808746338,0.009511895477771759
1761505512823505700,3.057505615234375,-0.036964960396289825,0.09609229862689972,-0.005672005005180836
1761505512833541600,3.067541748046875,-0.047010667622089386,0.05549480766057968,-0.0035417424514889717
1761505512843577600,3.07757763671875,-0.039953410625457764,0.001302913180552423,0.0022174357436597347
1761505512853613600,3.087613525390625,-0.030374018475413322,-0.05361546203494072,-0.002674524672329426
1761505512863649500,3.0976494140625,-0.021216796711087227,-0.0700480043888092,-0.014739396050572395
1761505512873685500,3.107685546875,-0.012902941554784775,-0.06854598224163055,-0.03145898878574371
1761505512883721500,3.117721435546875,-0.017871582880616188,-0.049325957894325256,-0.03301185369491577
1761505512893757700,3.1277578125,-0.022169658914208412,-0.00929598044604063,-0.006610874552279711
1761505512903793700,3.137793701171875,-0.01789844036102295,0.01458436343818903,0.023820199072360992
1761505512913829600,3.14782958984375,-0.014035791158676147,0.04045431315898895,0.0410255491733551
1761505512923865600,3.157865478515625,-0.0054961382411420345,0.03513028472661972,0.04070897400379181
1761505512933901600,3.167901611328125,-0.0031797210685908794,0.011616171337664127,0.013449388556182384
1761505512943937800,3.177937744140625,0.0032477560453116894,-0.025932734832167625,-0.022171946242451668
1761505512953973800,3.187973876953125,0.002710862783715129,-0.058244604617357254,-0.04487992078065872
1761505512964009700,3.198009765625,0.0021990651730448008,-0.08350208401679993,-0.04543256759643555
1761505512974045700,3.208045654296875,-0.011337781324982643,-0.07858002930879593,-0.04080932214856148
1761505512984081700,3.21808154296875,-0.02196512557566166,-0.03639742732048035,-0.028747865930199623
1761505512994117600,3.22811767578125,-0.03478308767080307,0.016469603404402733,-0.009372684173285961
1761505513004154600,3.238154541015625,-0.041097063571214676,0.06269262731075287,0.03447775915265083
1761505513014190600,3.248190673828125,-0.04130692034959793,0.08275874704122543,0.06479997932910919
1761505513024226600,3.2582265625,-0.03281164914369583,0.0640314444899559,0.06882502883672714
1761505513034262800,3.2682626953125,-0.0027778497897088528,0.034070346504449844,0.062405213713645935
1761505513044298800,3.278298828125,0.02471044473350048,0.0041869753040373325,0.04305180534720421
1761505513054334700,3.288334716796875,0.030646629631519318,-0.021079763770103455,0.025330599397420883
1761505513064370700,3.29837060546875,0.019485319033265114,-0.029136838391423225,-0.0032531116157770157
1761505513074406700,3.30840673828125,0.0026533417403697968,-0.01923920027911663,-0.030575016513466835
1761505513084442600,3.318442626953125,-0.013671676628291607,-0.0037890628445893526,-0.04020942747592926
1761505513094478600,3.328478515625,-0.03279317170381546,0.01747068576514721,-0.028212418779730797
1761505513104514600,3.3385146484375,-0.0482926070690155,0.02654830366373062,-0.004960514139384031
1761505513114550500,3.348550537109375,-0.04672373831272125,0.03592689335346222,0.014145003631711006
1761505513124586500,3.35858642578125,-0.028138291090726852,0.039803646504879,0.021943474188447
1761505513134622500,3.36862255859375,-0.012457598000764847,0.02694324031472206,0.01821052096784115
1761505513144658700,3.37865869140625,0.0023560344707220793,-0.006103833671659231,0.013417593203485012
1761505513154694700,3.388694580078125,0.012665929272770882,-0.025504697114229202,0.012396004982292652
1761505513164730600,3.398730712890625,0.015363656915724277,-0.025265052914619446,0.010335568338632584
1761505513174766800,3.408766845703125,0.007743820082396269,-0.0023919607046991587,-0.002577301114797592
1761505513184802800,3.418802734375,-0.00795023888349533,0.03896651417016983,-0.015995584428310394
1761505513194838800,3.4288388671875,-0.017113910987973213,0.057283200323581696,-0.028342796489596367
1761505513204874800,3.438874755859375,-0.019099880009889603,0.053939931094646454,-0.036864593625068665
1761505513214910700,3.44891064453125,-0.01583297923207283,0.02377297356724739,-0.042640190571546555
1761505513224946700,3.45894677734375,-0.012355692684650421,-0.01297566294670105,-0.040647879242897034
1761505513234982700,3.468982666015625,-0.004338778555393219,-0.04503905773162842,-0.02870546653866768
1761505513245018600,3.4790185546875,0.00020514894276857376,-0.06390319019556046,-0.008158977143466473
1761505513255054600,3.4890546875,0.004931727424263954,-0.06684865057468414,0.018994612619280815
1761505513265091600,3.499091552734375,-0.004003983922302723,-0.04268940910696983,0.045454975217580795
1761505513275127600,3.50912744140625,-0.00440585520118475,-0.004269047640264034,0.05091418698430061
1761505513285163500,3.51916357421875,-0.006035972386598587,0.024941246956586838,0.040045298635959625
1761505513295199700,3.52919970703125,-0.005730507895350456,0.050981100648641586,0.01966838911175728
1761505513305235700,3.539235595703125,-0.012396608479321003,0.06508178263902664,0.002347673289477825
1761505513315271700,3.549271728515625,-0.011320426128804684,0.057939719408750534,-0.0014838165370747447
1761505513325307600,3.5593076171875,-0.015559912659227848,0.03535238653421402,0.005889943800866604
1761505513335343600,3.569343505859375,-0.01764090731739998,-0.006604385562241077,0.011303883977234364
1761505513345379600,3.579379638671875,-0.01941148191690445,-0.03601812571287155,0.008579840883612633
1761505513355415600,3.58941552734375,-0.020954519510269165,-0.04847479611635208,-0.001591569627635181
1761505513365451500,3.599451416015625,-0.016063295304775238,-0.03967444971203804,-0.007291576825082302
1761505513375487500,3.609487548828125,-0.007837856188416481,-0.022955920547246933,0.0010212147608399391
1761505513385523500,3.6195234375,-0.0008302913047373295,-0.0011353602167218924,0.03693552687764168
1761505513395559400,3.629559326171875,0.0009577549062669277,0.01385131198912859,0.08102362602949142
1761505513405596000,3.639595947265625,0.008750750683248043,0.030034106224775314,0.10681016743183136
1761505513415632000,3.6496318359375,0.015401462092995644,0.02638797089457512,0.09510716795921326
1761505513425667800,3.659667724609375,0.018556999042630196,0.018057558685541153,0.05562454089522362
1761505513435703800,3.669703857421875,0.023673998191952705,0.010371409356594086,0.0017519862158223987
1761505513445739800,3.67973974609375,0.021724721416831017,0.00751231424510479,-0.0499609038233757
1761505513455775700,3.689775634765625,0.009040085598826408,0.007583953440189362,-0.08742545545101166
1761505513465811700,3.699811767578125,-0.0023961695842444897,-0.0014400379732251167,-0.09482627362012863
1761505513475847700,3.70984765625,-0.009661806747317314,-0.007784486748278141,-0.08186866343021393
1761505513485883600,3.719883544921875,-0.009050446562469006,-0.011341971345245838,-0.06055314838886261
1761505513495919600,3.729919677734375,0.007457955740392208,-0.0012981256004422903,-0.031581152230501175
1761505513505955600,3.73995556640625,0.014356395229697227,0.0137930391356349,-0.0013420742470771074
1761505513515991800,3.74999169921875,0.020223340019583702,0.023015033453702927,0.024743322283029556
1761505513526027800,3.76002783203125,0.013690073043107986,0.02694745734333992,0.04463926702737808
1761505513536064500,3.770064453125,0.0015258179046213627,0.0182770024985075,0.04221898689866066
1761505513546100700,3.780100830078125,0.003447338007390499,0.01944606751203537,0.015863751992583275
1761505513556136700,3.79013671875,0.015965526923537254,0.006335859186947346,-0.015423329547047615
1761505513566172700,3.800172607421875,0.019866742193698883,-0.018527882173657417,-0.030577989295125008
1761505513576208600,3.810208740234375,0.028002699837088585,-0.026586076244711876,-0.023238318040966988
1761505513586244600,3.82024462890625,0.018179038539528847,-0.02333460934460163,-0.003922097850590944
1761505513596280600,3.830280517578125,-0.0032775183208286762,-0.00440326239913702,0.028464335948228836
1761505513606316500,3.840316650390625,-0.011636491864919662,0.012746291235089302,0.06238112598657608
1761505513616352500,3.8503525390625,-0.014783550053834915,0.03447262570261955,0.08505980670452118
1761505513626388700,3.860388671875,-0.009184721857309341,0.041221488267183304,0.08507174998521805
1761505513636424700,3.8704248046875,-0.006107173394411802,0.03336596116423607,0.06554758548736572
1761505513646460700,3.880460693359375,-0.0031914925202727318,0.01809314824640751,0.02790108509361744
1761505513656496600,3.89049658203125,0.0023665244225412607,0.0001453077420592308,-0.018085313960909843
1761505513666532900,3.900532958984375,0.008133390918374062,-0.019521085545420647,-0.04906085878610611
1761505513676569000,3.910569091796875,0.006342681124806404,-0.04319232702255249,-0.06302168220281601
1761505513686605000,3.92060498046875,0.0061802309937775135,-0.050848547369241714,-0.05857925862073898
1761505513696641000,3.93064111328125,0.003566072089597583,-0.03969256579875946,-0.03178652748465538
1761505513706677000,3.940677001953125,0.004582597874104977,-0.01015288382768631,0.009562509134411812
1761505513716713000,3.950712890625,0.007582115940749645,0.016590846702456474,0.05058583989739418
1761505513726749000,3.9607490234375,0.005271070636808872,0.037545979022979736,0.07880224287509918
1761505513736785000,3.970784912109375,0.010863176546990871,0.030265428125858307,0.08441831171512604
1761505513746820900,3.98082080078125,0.02083059400320053,0.012802171520888805,0.05712863802909851
1761505513756856800,3.99085693359375,0.02727517858147621,-0.007391246967017651,0.025999482721090317
1761505513766892800,4.000892822265625,0.013454372063279152,-0.0225791335105896,-0.009364328347146511
1761505513776929000,4.010928955078125,-0.0062500908970832825,-0.024793818593025208,-0.03579327091574669
1761505513786964000,4.0209638671875,-0.024519305676221848,-0.011046921834349632,-0.05093976855278015
1761505513797000000,4.031,-0.028897810727357864,0.026903655380010605,-0.05682162567973137
1761505513807036000,4.041035888671875,-0.03631647303700447,0.04996640235185623,-0.054541803896427155
1761505513817071900,4.05107177734375,-0.022934885695576668,0.06250136345624924,-0.03435797244310379
1761505513827107800,4.06110791015625,-0.004848187789320946,0.046443019062280655,0.011181976646184921
1761505513837143800,4.071143798828125,0.012645583599805832,0.011255202814936638,0.05213446915149689
1761505513847179800,4.0811796875,0.016379760578274727,-0.03664854168891907,0.06694681197404861
1761505513857216000,4.091216064453125,0.02144908718764782,-0.07704310119152069,0.04086753726005554
1761505513867252000,4.101251953125,0.018880199640989304,-0.0852048397064209,0.0024394537322223186
1761505513877288000,4.111287841796875,0.011963704600930214,-0.05447675287723541,-0.02546807751059532
1761505513887324000,4.121323974609375,0.0020457208156585693,0.000007813563570380211,-0.026826713234186172
1761505513897360000,4.13135986328125,-0.0052167195826768875,0.04813726246356964,-0.014432627707719803
1761505513907395800,4.141395751953125,0.0015847831964492798,0.0844830572605133,0.013785376213490963
1761505513917431800,4.151431884765625,0.00471346452832222,0.08117008209228516,0.03580785542726517
1761505513927467800,4.1614677734375,0.004772419109940529,0.04769136384129524,0.045159962028265
1761505513937503700,4.171503662109375,0.00022800080478191376,0.013836993835866451,0.04541855305433273
1761505513947539700,4.181539794921875,-0.0026992852799594402,-0.014243443496525288,0.0291705634444952
1761505513957575700,4.19157568359375,0.004029191564768553,-0.03472954407334328,0.007415200583636761
1761505513967612000,4.20161181640625,0.005622130818665028,-0.04367746412754059,-0.003023435827344656
1761505513977647900,4.21164794921875,0.011209443211555481,-0.03513484448194504,-0.00731938099488616
1761505513987683800,4.221683837890625,0.01988384686410427,-0.02549356035888195,-0.000963687663897872
1761505513997719800,4.2317197265625,0.02824963442981243,-0.0022777197882533073,0.010634378530085087
1761505514007755800,4.241755859375,0.027105752378702164,0.013504132628440857,0.023431986570358276
1761505514017792000,4.2517919921875,0.03080994263291359,0.021809998899698257,0.029016368091106415
1761505514027829000,4.2618291015625,0.03465991094708443,0.01855916902422905,0.033210206776857376
1761505514037865000,4.271864990234375,0.04804442450404167,0.01259608380496502,0.03650080785155296
1761505514047901000,4.28190087890625,0.06041837856173515,0.001115442835725844,0.04073672369122505
1761505514057937000,4.29193701171875,0.059650320559740067,-0.014817452058196068,0.05228792130947113
1761505514067972900,4.301972900390625,0.052461542189121246,-0.03171699494123459,0.07155732810497284
1761505514078008800,4.3120087890625,0.03432222083210945,-0.05159163475036621,0.08883192390203476
1761505514088044800,4.322044921875,0.013038663193583488,-0.06905949860811234,0.0915127694606781
1761505514098080800,4.332080810546875,-0.0005889981985092163,-0.060403961688280106,0.07456067949533463
1761505514108117000,4.342116943359375,-0.003899997565895319,-0.0271673072129488,0.05213383212685585
1761505514118153000,4.352153076171875,-0.0025668186135590076,0.0035405377857387066,0.022912027314305305
1761505514128189000,4.36218896484375,0.005316932685673237,0.028019625693559647,0.0009425435564480722
1761505514138225000,4.372224853515625,0.012032626196742058,0.028359178453683853,-0.004894572775810957
1761505514148260900,4.3822607421875,0.015607714653015137,0.026193581521511078,-0.005572927184402943
1761505514158296800,4.392296875,0.020165981724858284,0.01308603584766388,-0.0029648931231349707
1761505514168332800,4.402332763671875,0.02311111055314541,-0.00010575354099273682,-0.006154514383524656
1761505514178368800,4.41236865234375,0.027599601075053215,-0.011239897459745407,0.005374842323362827
1761505514188404700,4.42240478515625,0.026409704238176346,-0.02699500136077404,0.010652699507772923
1761505514198440700,4.432440673828125,0.023746011778712273,-0.03346754610538483,0.020259520038962364
1761505514208476700,4.4424765625,0.016298910602927208,-0.02797188237309456,0.024401376023888588
1761505514218513000,4.452512939453125,0.00903407298028469,0.00023951497860252857,0.020519020035862923
1761505514228548900,4.462548828125,-0.006721723359078169,0.03395311161875725,0.010783299803733826
1761505514238584800,4.472584716796875,-0.01787104643881321,0.05184955522418022,0.001875558984465897
1761505514248621000,4.48262109375,-0.021278878673911095,0.06530172377824783,-0.0009489336516708136
1761505514258657000,4.492656982421875,-0.01570834405720234,0.07426964491605759,-0.009335760027170181
1761505514268693000,4.50269287109375,-0.007206151261925697,0.061126887798309326,-0.01837245374917984
1761505514278729000,4.51272900390625,0.00643535889685154,0.02595159038901329,-0.020191125571727753
1761505514288765000,4.522764892578125,0.012636100873351097,-0.016977999359369278,-0.007513789460062981
1761505514298801000,4.53280078125,0.012617991305887699,-0.0683426484465599,0.005838234908878803
1761505514308836900,4.5428369140625,0.006393227726221085,-0.06651346385478973,0.02039017528295517
1761505514318872800,4.552872802734375,0.0019305688329041004,-0.02320992574095726,0.0356663316488266
1761505514328908800,4.56290869140625,0.005533827934414148,0.015339221805334091,0.02913013845682144
1761505514338945000,4.572945068359375,0.0067346468567848206,0.03920407220721245,0.029585540294647217
1761505514348981000,4.58298095703125,0.01290273666381836,0.02453784830868244,0.03844139724969864
1761505514359017000,4.593016845703125,0.019606979563832283,0.02079237997531891,0.05522943288087845
1761505514369054000,4.603053955078125,0.015071509405970573,0.0135645791888237,0.05159485712647438
1761505514379090000,4.61308984375,0.011404337361454964,-0.0010423255153000355,0.02656807005405426
1761505514389126000,4.6231259765625,0.012820715084671974,0.003981331363320351,-0.008069640956819057
1761505514399161900,4.633161865234375,0.01627829670906067,0.019829003140330315,-0.041123732924461365
1761505514409197800,4.64319775390625,0.010851088911294937,0.0357951782643795,-0.048490624874830246
1761505514419234800,4.65323486328125,0.004237927962094545,0.03839122876524925,-0.03095237724483013
1761505514429271000,4.66327099609375,0.005135259125381708,0.02993859350681305,0.002916538156569004
1761505514439307000,4.67330712890625,0.005637264810502529,0.020904354751110077,0.03644121065735817
1761505514449343000,4.683343017578125,0.0055513521656394005,0.010162151418626308,0.05778207629919052
1761505514459379000,4.69337890625,0.0018753907643258572,-0.0038572608027607203,0.05167597904801369
1761505514469415000,4.703414794921875,0.005854205694049597,-0.010750913992524147,0.026332754641771317
1761505514479451000,4.713450927734375,0.005421708337962627,-0.023990552872419357,0.0017997145187109709
1761505514489486800,4.72348681640625,0.008275494910776615,-0.028620708733797073,-0.007945806719362736
1761505514499522800,4.733522705078125,0.014729399234056473,-0.030265744775533676,0.009304818697273731
1761505514509559000,4.74355908203125,0.018111184239387512,-0.02245412766933441,0.03358155116438866
1761505514519595000,4.753594970703125,0.009601052850484848,-0.0044652726501226425,0.05669539421796799
1761505514529631000,4.763630859375,-0.004866312257945538,0.005833599716424942,0.05901259928941727
1761505514539667000,4.7736669921875,-0.010734587907791138,0.016265733167529106,0.05404740199446678
1761505514549703000,4.783702880859375,-0.0024568825028836727,0.031102772802114487,0.03884977102279663
1761505514559739000,4.79373876953125,0.011036822572350502,0.03285939246416092,0.018471794202923775
1761505514569774800,4.80377490234375,0.024435345083475113,0.03449172154068947,0.011511462740600109
1761505514579810800,4.813810791015625,0.03326079249382019,0.022479798644781113,0.013222810812294483
1761505514589846800,4.8238466796875,0.03240475058555603,0.0011883239494636655,0.022488322108983994
1761505514599882800,4.8338828125,0.031838562339544296,-0.0041624996811151505,0.02600822225213051
1761505514609918700,4.843918701171875,0.029068075120449066,-0.013728839345276356,0.02540474943816662
1761505514619954700,4.85395458984375,0.023183021694421768,-0.019826414063572884,0.025197021663188934
1761505514629990700,4.86399072265625,0.01110994815826416,-0.015255485661327839,0.028910158202052116
1761505514640026600,4.874026611328125,-0.0002593523822724819,0.007865012623369694,0.03228331729769707
1761505514650062600,4.8840625,-0.004081249237060547,0.015786366537213326,0.030698208138346672
1761505514660098600,4.8940986328125,-0.004112407565116882,0.009758833795785904,0.010363908484578133
1761505514670134500,4.904134521484375,0.0032751434482634068,0.007884303107857704,-0.007918376475572586
1761505514680170500,4.91417041015625,0.005947359371930361,0.017920425161719322,-0.01684875413775444
1761505514690206500,4.92420654296875,0.007754739373922348,0.028036784380674362,-0.021243397146463394
1761505514700242400,4.934242431640625,0.0006552841514348984,0.013569162227213383,-0.014314651489257812
1761505514710278400,4.9442783203125,-0.0022923005744814873,0.008564228191971779,0.003800705075263977
1761505514720314600,4.954314697265625,-0.0024925703182816505,-0.0014210273511707783,0.018594298511743546
1761505514730350600,4.9643505859375,-0.0025434871204197407,-0.008645854890346527,0.030891500413417816
1761505514740386600,4.974386474609375,0.004147971048951149,-0.015872342512011528,0.03670278564095497
1761505514750422500,4.984422607421875,0.004460780415683985,-0.019958991557359695,0.029616214334964752
1761505514760458500,4.99445849609375,0.0037161605432629585,-0.018936870619654655,0.015284146182239056
1761505514770494500,5.004494384765625,0.0015733763575553894,-0.008397568017244339,-0.000767797464504838
1761505514780530400,5.014530517578125,-0.000967811793088913,0.001310453750193119,-0.008538901805877686
1761505514790566400,5.02456640625,0.000082382932305336,0.014817078597843647,0.0049640219658613205
1761505514800602400,5.034602294921875,0.00559992017224431,0.013338757678866386,0.025370493531227112
1761505514810639400,5.044639404296875,0.00915689766407013,0.006892719306051731,0.04654284566640854
1761505514820675600,5.054675537109375,0.012989719398319721,-0.003358852816745639,0.05266838148236275
1761505514830711600,5.064711669921875,0.008839396759867668,-0.009297853335738182,0.025392338633537292
1761505514840747500,5.07474755859375,0.007016463205218315,0.004574819467961788,-0.019052891060709953
1761505514850783500,5.084783447265625,-0.005744606722146273,0.014335893094539642,-0.05249447003006935
1761505514860819500,5.0948193359375,-0.025860261172056198,0.012502040714025497,-0.06461558490991592
1761505514870855700,5.104855712890625,-0.05002951622009277,0.005570419132709503,-0.052946943789720535
1761505514880891600,5.1148916015625,-0.05468924716114998,0.010707390494644642,-0.03148479387164116
1761505514890927600,5.124927734375,-0.05598157271742821,0.032408613711595535,-0.010429681278765202
1761505514900963600,5.134963623046875,-0.05137936398386955,0.053948260843753815,0.0016743858577683568
1761505514910999600,5.14499951171875,-0.04395686835050583,0.06927555799484253,0.004602265078574419
1761505514921035500,5.155035400390625,-0.03283284232020378,0.04394915699958801,0.0023670741356909275
1761505514931071500,5.165071533203125,-0.023475613445043564,-0.0017527556046843529,0.01098964549601078
1761505514941107500,5.175107421875,-0.019152769818902016,-0.039935026317834854,0.029363859444856644
1761505514951143400,5.185143310546875,-0.016698136925697327,-0.056168217211961746,0.03335407376289368
1761505514961179400,5.195179443359375,-0.019285397604107857,-0.04893187806010246,0.02145986072719097
1761505514971215400,5.20521533203125,-0.026959771290421486,-0.008582069538533688,-0.011126630008220673
1761505514981251600,5.21525146484375,-0.03535246104001999,0.021829897537827492,-0.038820043206214905
1761505514991287600,5.22528759765625,-0.0329965204000473,0.03610394522547722,-0.05356793850660324
1761505515001323500,5.235323486328125,-0.03691163286566734,0.03298777714371681,-0.04000845551490784
1761505515011359500,5.245359375,-0.038602426648139954,0.01031596027314663,-0.011079122312366962
1761505515021395500,5.2553955078125,-0.03167074918746948,-0.0020877120550721884,0.02050250582396984
1761505515031431400,5.265431396484375,-0.023406265303492546,-0.0016366068739444017,0.04513898491859436
1761505515041467400,5.27546728515625,-0.014495061710476875,0.0025003475602716208,0.04982561618089676
1761505515051503400,5.28550341796875,-0.004522696603089571,0.01728975400328636,0.043636005371809006
1761505515061539300,5.295539306640625,-0.005046007689088583,0.02600068971514702,0.024247923865914345
1761505515071575300,5.3055751953125,-0.006229407619684935,0.02873769961297512,-0.0024242715444415808
1761505515081611500,5.315611572265625,-0.004690366331487894,0.025510480627417564,-0.029205817729234695
1761505515091647500,5.3256474609375,0.004507762845605612,0.021275877952575684,-0.034710947424173355
1761505515101683500,5.335683349609375,0.010424774140119553,-0.010685250163078308,-0.03394875302910805
1761505515111719700,5.3457197265625,0.013595269992947578,-0.04899003729224205,0.009891674853861332
1761505515121755600,5.355755615234375,0.007404219824820757,-0.062369491904973984,0.06458021700382233
1761505515131791600,5.36579150390625,-0.0026801088824868202,-0.07514679431915283,0.08829806745052338
1761505515141827600,5.37582763671875,-0.009370502084493637,-0.057787515223026276,0.07534950971603394
1761505515151863600,5.385863525390625,-0.008657839149236679,-0.02105272375047207,0.04433007910847664
1761505515161899500,5.3958994140625,0.0074670687317848206,-0.004710502456873655,0.018852148205041885
1761505515171935500,5.405935546875,0.008475073613226414,0.0011069612810388207,0.017993543297052383
1761505515181971500,5.415971435546875,-0.0034175384789705276,-0.0033114890102297068,0.0320395864546299
1761505515192007400,5.42600732421875,-0.023859532549977303,-0.00017783744260668755,0.03489753231406212
1761505515202043600,5.436043701171875,-0.031633034348487854,0.0228960569947958,0.02449682541191578
1761505515212079600,5.44607958984375,-0.028899673372507095,0.0455351322889328,0.01068071834743023
1761505515222115600,5.456115478515625,-0.029008861631155014,0.03866684064269066,0.01321365125477314
1761505515232151600,5.466151611328125,-0.023399392142891884,0.013490742072463036,0.031102316454052925
1761505515242188500,5.4761884765625,-0.019178815186023712,-0.018179036676883698,0.04809195175766945
1761505515252224500,5.486224609375,-0.02022453211247921,-0.03560326620936394,0.05534522980451584
1761505515262260500,5.496260498046875,-0.02558281272649765,-0.026920562610030174,0.05013022571802139
1761505515272296400,5.50629638671875,-0.02662528119981289,-0.005226487293839455,0.024666788056492805
1761505515282332400,5.51633251953125,-0.02476532757282257,0.03360666334629059,-0.008142290636897087
1761505515292368400,5.526368408203125,-0.016541380435228348,0.05088357627391815,-0.035229410976171494
1761505515302404400,5.536404296875,-0.0013893251307308674,0.03852437809109688,-0.04188678041100502
1761505515312440300,5.5464404296875,0.011767061427235603,0.009231030009686947,-0.025040263310074806
1761505515322476300,5.556476318359375,0.023129170760512352,-0.025727219879627228,0.015661627054214478
1761505515332512300,5.56651220703125,0.018180275335907936,-0.048164211213588715,0.052043285220861435
1761505515342548700,5.576548828125,0.00481413584202528,-0.0553656667470932,0.06017497926950455
1761505515352584700,5.586584716796875,-0.01081201434135437,-0.027814771980047226,0.030081048607826233
1761505515362620700,5.59662060546875,-0.02392648532986641,0.009385860525071621,-0.00670945830643177
1761505515372656600,5.60665673828125,-0.031010068953037262,0.031045690178871155,-0.01810315251350403
1761505515382692600,5.616692626953125,-0.03871326148509979,0.04708830639719963,-0.013668723404407501
1761505515392728600,5.626728515625,-0.03409363701939583,0.03782261908054352,-0.007622921373695135
1761505515402764500,5.6367646484375,-0.02254803478717804,0.04903559014201164,-0.007792032789438963
1761505515412800500,5.646800537109375,-0.024220870807766914,0.0506955049932003,-0.004661380313336849
1761505515422836500,5.65683642578125,-0.03714492544531822,0.03267495706677437,-0.0046818871051073074
1761505515432872400,5.66687255859375,-0.03940344601869583,0.011433986946940422,0.002163394121453166
1761505515442908400,5.676908447265625,-0.03468911722302437,0.0015451371436938643,0.012277014553546906
1761505515452944600,5.686944580078125,-0.03629111498594284,-0.01039965357631445,0.013113086111843586
1761505515462980600,5.696980712890625,-0.0288971159607172,-0.005626736208796501,0.008268795907497406
1761505515473016600,5.7070166015625,-0.02183649316430092,0.0006933724507689476,-0.004597518593072891
1761505515483052500,5.717052490234375,-0.027297306805849075,-0.0068606846034526825,-0.016164159402251244
1761505515493088500,5.727088623046875,-0.03853349760174751,-0.012526663951575756,-0.029025843366980553
1761505515503124500,5.73712451171875,-0.04133008420467377,-0.0018607042729854584,-0.04959237203001976
1761505515513160400,5.747160400390625,-0.044548459351062775,0.015278276056051254,-0.0633508488535881
1761505515523196400,5.757196533203125,-0.041434161365032196,0.021362800151109695,-0.062431786209344864
1761505515533232400,5.767232421875,-0.03563123941421509,0.017633482813835144,-0.047205328941345215
1761505515543268400,5.777268310546875,-0.02684067375957966,0.0048665557987987995,-0.025884859263896942
1761505515553304300,5.78730419921875,-0.019387125968933105,0.015130831860005856,-0.010362249799072742
1761505515563340500,5.797340576171875,-0.016542870551347733,0.02036474272608757,-0.0074197230860590935
1761505515573376500,5.80737646484375,-0.02312151901423931,0.004728921223431826,-0.016596602275967598
1761505515583412500,5.81741259765625,-0.018874842673540115,-0.019707711413502693,-0.013414124958217144
1761505515593448400,5.827448486328125,-0.0042528631165623665,-0.020992932841181755,0.0032571032643318176
1761505515603484400,5.837484375,0.0075667789205908775,-0.005462177097797394,0.02962692454457283
1761505515613520400,5.847520263671875,0.0051972041837871075,0.02751305140554905,0.04670247063040733
1761505515623556900,5.857556884765625,0.004563372116535902,0.05308259651064873,0.042558591812849045
1761505515633592800,5.8675927734375,0.010900204069912434,0.06171787157654762,0.024129411205649376
1761505515643628800,5.87762890625,0.018476897850632668,0.05305301025509834,0.010118786245584488
1761505515653664800,5.887664794921875,0.02119784988462925,0.01967167668044567,0.0053751664236187935
1761505515663700700,5.89770068359375,0.013368422165513039,-0.013408512808382511,0.016480548307299614
1761505515673736700,5.90773681640625,0.015352742746472359,-0.04656599089503288,0.026817871257662773
1761505515683773000,5.91777294921875,0.02023538202047348,-0.045798465609550476,0.03372025489807129
1761505515693809000,5.927808837890625,0.027058400213718414,-0.021114634349942207,0.037373580038547516
1761505515703844900,5.937844970703125,0.026399269700050354,0.007311679422855377,0.020201249048113823
1761505515713880800,5.947880859375,0.011228039860725403,0.027285974472761154,0.002359670354053378
1761505515723916800,5.957916748046875,0.0032755748834460974,0.04087209329009056,-0.010779567994177341
1761505515733952800,5.967952880859375,-0.0017089038155972958,0.03227947652339935,-0.008899535052478313
1761505515743988700,5.97798876953125,-0.0012798681855201721,0.025857532396912575,-0.005848085507750511
1761505515754024700,5.988024658203125,0.001886468380689621,0.0038329469971358776,0.0012563170166686177
1761505515764060700,5.998060791015625,0.006336077582091093,-0.0052026258781552315,0.01473084744066
1761505515774096600,6.0080966796875,0.0030615627765655518,0.007850151509046555,0.023802803829312325
1761505515784132600,6.018132568359375,0.0000796215608716011,0.02335134707391262,0.02919384092092514
1761505515794168800,6.0281689453125,0.002003968460485339,0.042837392538785934,0.0279478020966053
1761505515804204800,6.038204833984375,0.009458156302571297,0.043370820581912994,0.026097703725099564
1761505515814240800,6.04824072265625,0.0144453514367342,0.02748231217265129,0.01796797476708889
1761505515824276700,6.05827685546875,0.00882421713322401,0.005021209828555584,0.0027818316593766212
1761505515834312700,6.068312744140625,-0.0005933060310781002,-0.02010202594101429,-0.010812218300998211
1761505515844348700,6.0783486328125,-0.011389494873583317,-0.042148739099502563,-0.026926472783088684
1761505515854385000,6.088385009765625,-0.0068263281136751175,-0.06121118739247322,-0.036177072674036026
1761505515864420900,6.0984208984375,0.0006808564066886902,-0.0720667690038681,-0.03287262097001076
1761505515874456800,6.108456787109375,0.006876114755868912,-0.07229796797037125,-0.027233321219682693
1761505515884492800,6.118492919921875,0.003715209197252989,-0.04989918693900108,-0.0020536668598651886
1761505515894528800,6.12852880859375,-0.007786080706864595,0.008434396237134933,0.026037240400910378
1761505515904564700,6.138564697265625,-0.019074687734246254,0.06141505390405655,0.04684931039810181
1761505515914601000,6.14860107421875,-0.036574531346559525,0.08443950861692429,0.05430397763848305
1761505515924637000,6.158636962890625,-0.039175376296043396,0.08060003072023392,0.04529290646314621
1761505515934673000,6.1686728515625,-0.026986777782440186,0.05561913922429085,0.021364571526646614
1761505515944708900,6.178708984375,-0.006349675357341766,0.027968868613243103,-0.013170769438147545
1761505515954744800,6.188744873046875,0.015740230679512024,0.006649983115494251,-0.04409918189048767
1761505515964780800,6.19878076171875,0.01499135047197342,-0.023456785827875137,-0.04625874012708664
1761505515974816800,6.208816650390625,0.0030239042825996876,-0.039845291525125504,-0.018488358706235886
1761505515984852700,6.218852783203125,-0.016604125499725342,-0.04344401881098747,0.013776370324194431
1761505515994888700,6.228888671875,-0.024871643632650375,-0.024383889511227608,0.027115870267152786
1761505516004924700,6.238924560546875,-0.026146765798330307,0.004542300943285227,0.019518937915563583
1761505516014960600,6.248960693359375,-0.015788396820425987,0.0218371469527483,0.006203144788742065
1761505516024996900,6.258996826171875,0.007879381068050861,0.023969806730747223,0.0022560732904821634
1761505516035032800,6.26903271484375,0.03685494512319565,0.020754540339112282,0.0014333062572404742
1761505516045068800,6.27906884765625,0.043804727494716644,0.013261204585433006,0.009315463714301586
1761505516055104800,6.289104736328125,0.025154132395982742,0.010041061788797379,0.01695362478494644
1761505516065140700,6.299140625,-0.011849424801766872,0.01137157715857029,0.01475332211703062
1761505516075176700,6.3091767578125,-0.0375836044549942,0.044663235545158386,0.007680557668209076
1761505516085214000,6.3192138671875,-0.053599320352077484,0.06954595446586609,-0.00425652926787734
1761505516095248600,6.32924853515625,-0.05462091788649559,0.07650765031576157,-0.014922777190804482
1761505516105284600,6.33928466796875,-0.04132934659719467,0.061582762748003006,-0.016790185123682022
1761505516115320600,6.349320556640625,-0.02333766780793667,0.04790697246789932,-0.01156894862651825
1761505516125357800,6.35935791015625,-0.011561436578631401,0.013204652816057205,-0.009956138208508492
1761505516135393800,6.369393798828125,-0.002930661663413048,-0.03182508423924446,-0.006145150866359472
1761505516145429000,6.379428955078125,0.002174085471779108,-0.07579733431339264,0.013253314420580864
1761505516155465000,6.38946484375,0.006190130021423101,-0.10830393433570862,0.05127233266830444
1761505516165502000,6.399501953125,0.011547877453267574,-0.07886189222335815,0.07058744132518768
1761505516175538000,6.409537841796875,0.012482533231377602,-0.00908530130982399,0.05067320913076401
1761505516185572900,6.41957275390625,0.007142096292227507,0.07173657417297363,0.00790976919233799
1761505516195609900,6.42960986328125,0.0020686816424131393,0.12543164193630219,-0.03361916169524193
1761505516205645800,6.439645751953125,0.005309482105076313,0.11975831538438797,-0.04273276403546333
1761505516215681800,6.449681884765625,0.011931801214814186,0.06830159574747086,-0.020897090435028076
1761505516225716700,6.459716796875,0.024846002459526062,-0.020597653463482857,0.017268937081098557
1761505516235753700,6.469753662109375,0.03541433438658714,-0.08345567435026169,0.039343513548374176
1761505516245789700,6.479789794921875,0.05819927528500557,-0.08962488919496536,0.04254090413451195
1761505516255825000,6.489824951171875,0.06011941283941269,-0.05319412052631378,0.04392548277974129
1761505516265861600,6.499861572265625,0.044272538274526596,-0.014692268334329128,0.045485299080610275
1761505516275897900,6.50989794921875,0.03601332753896713,0.025602351874113083,0.047721754759550095
1761505516285933800,6.519933837890625,0.017115537077188492,0.04339599609375,0.04319145157933235
1761505516295969800,6.5299697265625,0.001677142921835184,0.03914560750126839,0.01584724150598049
1761505516306005800,6.540005859375,0.005204233340919018,0.021325599402189255,-0.010965997353196144
1761505516316041700,6.550041748046875,0.011598901823163033,-0.00262063043192029,-0.03814852610230446
1761505516326077700,6.56007763671875,0.00014810869470238686,-0.035459004342556,-0.04488153010606766
1761505516336113700,6.57011376953125,-0.01836756430566311,-0.05193452164530754,-0.035898081958293915
1761505516346149600,6.580149658203125,-0.024289103224873543,-0.051494300365448,-0.006854980252683163
1761505516356185600,6.590185546875,-0.022522257640957832,-0.01759212464094162,0.02962115965783596
1761505516366221800,6.600221923828125,-0.01793815754354,0.017758408561348915,0.048296310007572174
1761505516376256800,6.6102568359375,-0.01202572975307703,0.04161218926310539,0.03805277869105339
1761505516386294000,6.6202939453125,0.0006770165637135506,0.049463722854852676,0.01365129929035902
1761505516396330000,6.630330078125,0.006987585686147213,0.03995789587497711,-0.017690865322947502
1761505516406366000,6.640365966796875,0.0037473177071660757,0.02122761681675911,-0.037983618676662445
1761505516416400600,6.650400634765625,-0.010060260072350502,0.001235737232491374,-0.038320597261190414
1761505516426438000,6.66043798828125,-0.02449858747422695,-0.0206152331084013,-0.03185497596859932
1761505516436472800,6.670472900390625,-0.031047513708472252,-0.0329599529504776,-0.03342416509985924
1761505516446508800,6.6805087890625,-0.018858224153518677,-0.04225172474980354,-0.03315092623233795
1761505516456545800,6.6905458984375,-0.003414235543459654,-0.0400489866733551,-0.03279012441635132
1761505516466581000,6.7005810546875,0.005395235028117895,-0.03609525412321091,-0.01720690354704857
1761505516476617700,6.71061767578125,0.019268227741122246,-0.025089114904403687,0.007339398376643658
1761505516486653000,6.72065283203125,0.026777008548378944,-0.02004295587539673,0.023114100098609924
1761505516496689000,6.73068896484375,0.029968436807394028,-0.02200291119515896,0.030378783121705055
1761505516506724900,6.740724853515625,0.02919984795153141,-0.022280411794781685,0.01856100559234619
1761505516516760800,6.7507607421875,0.03043331950902939,-0.02250915952026844,-0.008397537283599377
1761505516526796800,6.760796875,0.026498496532440186,-0.020716318860650063,-0.03541716933250427
1761505516536832800,6.770832763671875,0.023648854345083237,-0.015821214765310287,-0.05558045953512192
1761505516546868700,6.78086865234375,0.021405939012765884,-0.006976858247071505,-0.0642642229795456
1761505516556904700,6.79090478515625,0.018608927726745605,-0.007385995239019394,-0.05305562540888786
1761505516566940700,6.800940673828125,0.0274311825633049,-0.0053675854578614235,-0.042828820645809174
1761505516576977000,6.810976806640625,0.026542222127318382,-0.006766164675354958,-0.03927242383360863
1761505516587012900,6.821012939453125,0.02266785502433777,-0.021603701636195183,-0.029044287279248238
1761505516597048800,6.831048828125,0.019406745210289955,-0.03330739587545395,-0.003603089600801468
1761505516607084800,6.841084716796875,0.004501299001276493,-0.050019264221191406,0.016442522406578064
1761505516617120800,6.851120849609375,-0.010256706736981869,-0.056100938469171524,0.018386486917734146
1761505516627156500,6.861156494140625,-0.013246904127299786,-0.03358124941587448,0.004710090346634388
1761505516637192400,6.8711923828125,-0.023238062858581543,0.011187153868377209,-0.03190750256180763
1761505516647228400,6.881228515625,-0.03459457680583,0.06682804226875305,-0.056949470192193985
1761505516657264400,6.891264404296875,-0.03956851363182068,0.09201706200838089,-0.06812548637390137
1761505516667300400,6.90130029296875,-0.03711068257689476,0.08964898437261581,-0.04899626597762108
1761505516677336600,6.911336669921875,-0.02527671679854393,0.051771488040685654,-0.015107758343219757
1761505516687372500,6.92137255859375,-0.004056914243847132,-0.003756487276405096,0.011704415082931519
1761505516697408500,6.931408447265625,0.014446727931499481,-0.049254730343818665,0.020158885046839714
1761505516707444500,6.941444580078125,0.02767917700111866,-0.07464903593063354,0.01699718087911606
1761505516717480400,6.95148046875,0.03006148524582386,-0.06545598059892654,0.0144891869276762
1761505516727516400,6.961516357421875,0.015754451975226402,-0.0364869087934494,0.008544744923710823
1761505516737552400,6.971552490234375,-0.0062873647548258305,0.004907212220132351,-0.006444173865020275
1761505516747588400,6.98158837890625,-0.017802074551582336,0.05813554674386978,-0.03484918177127838
1761505516757624300,6.991624267578125,-0.021419553086161613,0.08179109543561935,-0.0522933155298233
1761505516767660300,7.001660400390625,-0.007880309596657753,0.06912217289209366,-0.05921034514904022
1761505516777696500,7.011696533203125,0.009381234645843506,0.02201990596950054,-0.04671905189752579
1761505516787732500,7.021732421875,0.030546175315976143,-0.04215162247419357,-0.016258617863059044
1761505516797768700,7.031768798828125,0.04491504654288292,-0.08838459104299545,0.025060532614588737
1761505516807804700,7.0418046875,0.04414592310786247,-0.09288053959608078,0.06318581104278564
1761505516817840600,7.051840576171875,0.03382495418190956,-0.06034594401717186,0.06892003864049911
1761505516827876600,7.061876708984375,0.021929413080215454,-0.00841456651687622,0.04245727136731148
1761505516837912600,7.07191259765625,0.019931131973862648,0.0376465730369091,-0.008548825979232788
1761505516847948500,7.081948486328125,0.031528931111097336,0.057581931352615356,-0.04709222540259361
1761505516857984500,7.091984619140625,0.04281849414110184,0.05026944354176521,-0.05853758752346039
1761505516868020500,7.1020205078125,0.04111567139625549,0.02034270577132702,-0.04362867772579193
1761505516878056400,7.112056396484375,0.0319429375231266,-0.015497698448598385,-0.016731033101677895
1761505516888092400,7.122092529296875,0.015573286451399326,-0.02620333805680275,-0.0022229303140193224
1761505516898128400,7.13212841796875,0.002829156816005707,-0.03691156581044197,0.004017764236778021
1761505516908164600,7.14216455078125,-0.004923305008560419,-0.022012511268258095,0.005492622964084148
1761505516918200600,7.15220068359375,-0.003335897345095873,0.01854782924056053,0.006732972804456949
1761505516928236500,7.162236572265625,0.005984367802739143,0.0367119163274765,0.00378884794190526
1761505516938272500,7.1722724609375,0.019979331642389297,0.02708575315773487,0.002010334748774767
1761505516948308500,7.18230859375,0.04182390868663788,-0.002840188331902027,-0.005189254879951477
1761505516958344400,7.192344482421875,0.05662725120782852,-0.03999973088502884,-0.018341965973377228
1761505516968380400,7.20238037109375,0.05998576432466507,-0.06093031167984009,-0.03304154798388481
1761505516978416400,7.21241650390625,0.05070428550243378,-0.06493625789880753,-0.03974886238574982
1761505516988452400,7.222452392578125,0.027715612202882767,-0.04512766748666763,-0.03646092489361763
1761505516998488300,7.23248828125,0.0016785240732133389,0.0026922421529889107,-0.03023749217391014
1761505517008524500,7.242524658203125,-0.013128917664289474,0.04280317574739456,-0.020894855260849
1761505517018560500,7.252560546875,-0.022129354998469353,0.057795632630586624,-0.010301103815436363
1761505517028596500,7.262596435546875,-0.014077553525567055,0.05698017403483391,-0.010172473266720772
1761505517038632400,7.272632568359375,0.003350132843479514,0.032853398472070694,-0.012937020510435104
1761505517048668400,7.28266845703125,0.022695867344737053,0.014959353022277355,-0.01711631938815117
1761505517058704400,7.292704345703125,0.024035274982452393,0.00274175894446671,-0.019584111869335175
1761505517068740600,7.30274072265625,0.01234559714794159,-0.0152652058750391,-0.011717667803168297
1761505517078776600,7.312776611328125,0.0073929461650550365,-0.010881355963647366,0.0110703706741333
1761505517088812500,7.3228125,0.0009835166856646538,0.013888439163565636,0.019111786037683487
1761505517098848500,7.3328486328125,-0.003664894960820675,0.020560095086693764,0.011943572200834751
1761505517108884500,7.342884521484375,0.0006952323019504547,0.025251252576708794,-0.010183568112552166
1761505517118920400,7.35292041015625,-0.0022169388830661774,0.02187851071357727,-0.0367579311132431
1761505517128956700,7.362956787109375,-0.017484841868281364,0.0076164850033819675,-0.051204781979322433
1761505517138992600,7.37299267578125,-0.040467288345098495,-0.0005763871595263481,-0.043749112635850906
1761505517149028600,7.383028564453125,-0.05288347974419594,0.004651930648833513,-0.012686272151768208
1761505517159064600,7.393064697265625,-0.06233870983123779,0.009171467274427414,0.01856214553117752
1761505517169100500,7.4031005859375,-0.05679693818092346,0.01745549589395523,0.02127750590443611
1761505517179136500,7.413136474609375,-0.030226586386561394,0.03197839856147766,0.0036862483248114586
1761505517189172500,7.42317236328125,-0.004887675400823355,0.025329284369945526,-0.016803046688437462
1761505517199208400,7.43320849609375,0.006010522600263357,-0.0032175013329833746,-0.028029050678014755
1761505517209244400,7.443244384765625,0.010744024999439716,-0.04075608775019646,-0.019588161259889603
1761505517219280400,7.4532802734375,0.017007460817694664,-0.056578557938337326,-0.0003441054141148925
1761505517229316400,7.46331640625,0.035901255905628204,-0.05438917130231857,0.02586406283080578
1761505517239352600,7.4733525390625,0.02664112113416195,-0.04442968964576721,0.04119352623820305
1761505517249388500,7.483388427734375,-0.0005452265031635761,-0.023859165608882904,0.03932318836450577
1761505517259424500,7.493424560546875,-0.01542884111404419,0.008325817994773388,0.015061777085065842
1761505517269460500,7.50346044921875,-0.02434137649834156,0.04515653848648071,-0.009903494268655777
1761505517279496400,7.513496337890625,-0.03983985260128975,0.04072066396474838,-0.030406421050429344
1761505517289532400,7.523532470703125,-0.04880937933921814,0.032820925116539,-0.04166839271783829
1761505517299568400,7.533568359375,-0.031668152660131454,-0.0034402550663799047,-0.0350656695663929
1761505517309604400,7.543604248046875,-0.0017027975991368294,-0.04376397654414177,-0.01642007753252983
1761505517319640300,7.553640380859375,0.016452135518193245,-0.06355778872966766,0.01961340568959713
1761505517329676300,7.56367626953125,0.02659318596124649,-0.04373295232653618,0.040386863052845
1761505517339712300,7.573712158203125,0.022751828655600548,0.0020790507551282644,0.03989734500646591
1761505517349748700,7.583748779296875,0.00952630490064621,0.04157106578350067,0.019635215401649475
1761505517359784700,7.59378466796875,-0.004292826633900404,0.044061027467250824,-0.009070709347724915
1761505517369820700,7.603820556640625,-0.014529485255479813,0.024430599063634872,-0.030743248760700226
1761505517379855400,7.61385546875,-0.018643653020262718,0.003681550733745098,-0.024722818285226822
1761505517389892600,7.623892578125,-0.024293283000588417,-0.004431236535310745,-0.0005325274541974068
1761505517399927300,7.63392724609375,-0.02946912683546543,0.007336321286857128,0.023937411606311798
1761505517409963500,7.643963623046875,-0.03247104585170746,0.042439449578523636,0.01419556699693203
1761505517419999500,7.65399951171875,-0.03269907459616661,0.0751742273569107,-0.020493406802415848
1761505517430035700,7.66403564453125,-0.027055302634835243,0.08386864513158798,-0.057849034667015076
1761505517440071700,7.67407177734375,-0.027236614376306534,0.0628100037574768,-0.07318544387817383
1761505517450107600,7.684107666015625,-0.029963426291942596,0.03603138402104378,-0.0887761190533638
1761505517460143600,7.6941435546875,-0.021390704438090324,0.014145909808576107,-0.10843103379011154
1761505517470179600,7.7041796875,-0.02123650722205639,0.010743188671767712,-0.1292380392551422
1761505517480215600,7.714215576171875,-0.017898118123412132,-0.004194119945168495,-0.1387948840856552
1761505517490251500,7.72425146484375,-0.011420510709285736,-0.03729427978396416,-0.11825685203075409
1761505517500287500,7.73428759765625,-0.008534716442227364,-0.04537256434559822,-0.05722466856241226
1761505517510323500,7.744323486328125,-0.00797518715262413,-0.07320951670408249,0.0046988846734166145
1761505517520359400,7.754359375,0.00745543884113431,-0.07210452109575272,0.04792892187833786
1761505517530395400,7.7643955078125,0.019032731652259827,-0.013415905646979809,0.06084604933857918
1761505517540431600,7.774431640625,0.014090267941355705,0.0543174110352993,0.03480366989970207
1761505517550467600,7.784467529296875,-0.0007509957067668438,0.09865931421518326,-0.005117645021528006
1761505517560503600,7.794503662109375,-0.014872679486870766,0.09577025473117828,-0.033674728125333786
1761505517570539500,7.80453955078125,-0.019968638196587563,0.052032358944416046,-0.03383877873420715
1761505517580575500,7.814575439453125,-0.020361758768558502,0.0022869869135320187,-0.011780803091824055
1761505517590611500,7.824611572265625,-0.016827212646603584,-0.027970783412456512,0.007601682562381029
1761505517600647400,7.8346474609375,-0.006575747858732939,-0.04926992952823639,0.01485863234847784
1761505517610683400,7.844683349609375,0.006332327611744404,-0.05070270970463753,0.022673677653074265
1761505517620719400,7.85471923828125,0.007101919502019882,-0.04183406010270119,0.019221462309360504
1761505517630755600,7.864755615234375,-0.022733474150300026,-0.025370396673679352,0.0029479493387043476
1761505517640791600,7.87479150390625,-0.06505472958087921,0.005591169930994511,-0.033878885209560394
1761505517650827500,7.88482763671875,-0.0838470607995987,0.06525609642267227,-0.062215182930231094
1761505517660863700,7.89486376953125,-0.086391381919384,0.12292300909757614,-0.07313285768032074
1761505517670899700,7.904899658203125,-0.06782861799001694,0.12304418534040451,-0.06353162974119186
1761505517680935700,7.914935791015625,-0.04278853163123131,0.06740652769804001,-0.04091237857937813
1761505517690971600,7.9249716796875,-0.024973316118121147,0.01507886964827776,-0.014921522699296474
1761505517701007600,7.935007568359375,-0.017793143168091774,-0.029739711433649063,0.003441817592829466
1761505517711043600,7.945043701171875,-0.027708090841770172,-0.043306123465299606,0.022631756961345673
1761505517721079600,7.95507958984375,-0.03959590196609497,-0.01954895630478859,0.026126112788915634
1761505517731115500,7.965115478515625,-0.041971441358327866,0.0077833328396081924,0.012547984719276428
1761505517741151500,7.9751513671875,-0.03162592649459839,0.018972281366586685,0.0033105704933404922
1761505517751187500,7.9851875,-0.019851822406053543,0.03239967301487923,0.008748745545744896
1761505517761223700,7.9952236328125,-0.008287252858281136,0.027897009626030922,0.024055490270256996
1761505517771259600,8.005259765625,-0.0016863415949046612,0.02048330195248127,0.026623843237757683
1761505517781295600,8.015295654296875,0.006004430819302797,0.01989055797457695,0.020255034789443016
1761505517791330600,8.02533056640625,0.0031015852000564337,0.029833203181624413,0.00812087394297123
1761505517801366500,8.035366455078124,-0.015647221356630325,0.042335983365774155,-0.007838744670152664
1761505517811402500,8.045402587890624,-0.035193756222724915,0.033801883459091187,-0.030214890837669373
1761505517821438500,8.0554384765625,-0.036580152809619904,0.019207533448934555,-0.05406942218542099
1761505517831474400,8.065474365234374,-0.03289353847503662,0.00420647906139493,-0.06427732110023499
1761505517841509600,8.075509521484374,-0.0223324466496706,0.0036937633994966745,-0.054724596440792084
1761505517851545600,8.085545654296874,-0.023151101544499397,0.004957966040819883,-0.032877884805202484
1761505517861581600,8.09558154296875,-0.020187245681881905,0.019275402650237083,-0.0050237285904586315
1761505517871617500,8.105617431640624,-0.02009749785065651,0.03533506020903587,0.0219303909689188
1761505517881653500,8.115653564453124,-0.028524411842226982,0.04465121775865555,0.01813984289765358
1761505517891689500,8.125689453125,-0.040099576115608215,0.08126676082611084,-0.0002026798902079463
1761505517901725400,8.135725341796874,-0.06479267030954361,0.1003059595823288,-0.0279482901096344
1761505517911761400,8.145761474609374,-0.08013647794723511,0.08484924584627151,-0.06350068747997284
1761505517921797600,8.155797607421874,-0.0729006752371788,0.0812021940946579,-0.0787731409072876
1761505517931833600,8.16583349609375,-0.06430426239967346,0.0991780012845993,-0.0700739249587059
1761505517941869800,8.175869873046874,-0.06803900003433228,0.09582678973674774,-0.07147502899169922
1761505517951905800,8.18590576171875,-0.06473162025213242,0.15169590711593628,-0.0889914408326149
1761505517961941800,8.195941650390624,-0.06382571905851364,0.2235213965177536,-0.10963056236505508
1761505517971977700,8.205977783203124,-0.07947605103254318,0.2098846733570099,-0.04083046317100525
1761505517982013700,8.216013671875,-0.1012241318821907,0.08467676490545273,0.03310062736272812
1761505517992049700,8.226049560546874,-0.04957904666662216,-0.18878619372844696,0.074111707508564
1761505518002085600,8.236085693359374,0.018602337688207626,-0.3315090239048004,0.06117170304059982
1761505518012121600,8.24612158203125,0.041049323976039886,-0.22603237628936768,-0.0037234071642160416
1761505518022157600,8.256157470703124,0.03331322222948074,0.00925820879638195,-0.09847983717918396
1761505518032193500,8.266193603515624,0.000252739991992712,0.2101002335548401,-0.1689974069595337
1761505518042229800,8.276229736328125,-0.05121747404336929,0.3103953003883362,-0.22248955070972443
1761505518052265700,8.286265625,-0.12183119356632233,0.3339349627494812,-0.24742180109024048
1761505518062301700,8.2963017578125,-0.23929601907730103,0.28483352065086365,-0.1756589263677597
1761505518072337700,8.306337646484375,-0.33726680278778076,0.14194108545780182,0.00011078256648033857
1761505518082373600,8.31637353515625,-0.3451269268989563,-0.04918307065963745,0.1360129863023758
