time,seconds_elapsed,z,y,x
1761505509847814000,0.08181396484375,0.23424045741558075,-0.13380226492881775,0.12446682900190353
1761505509857849900,0.091849853515625,0.24176841974258423,-0.11161547899246216,0.1060958132147789
1761505509867885800,0.1018857421875,0.23681440949440002,-0.06755267828702927,0.08398784697055817
1761505509877921800,0.111921875,0.21274635195732117,-0.025534654036164284,0.0737336054444313
1761505509887957800,0.121957763671875,0.17779263854026794,0.02370666153728962,0.08228235691785812
1761505509897993700,0.13199365234375,0.14446264505386353,0.04777524620294571,0.09182365983724594
1761505509908030700,0.14203076171875,0.11841772496700287,0.08000588417053223,0.10107707977294922
1761505509918066700,0.152066650390625,0.09973564743995667,0.08297078311443329,0.09999903291463852
1761505509928102700,0.1621025390625,0.09056425094604492,0.03479393199086189,0.0958828553557396
1761505509938138600,0.172138671875,0.085075743496418,-0.02779754251241684,0.08634927123785019
1761505509948174600,0.182174560546875,0.09763308614492416,-0.087913878262043,0.05145759880542755
1761505509958210800,0.1922109375,0.119548499584198,-0.13532426953315735,0.015560051426291466
1761505509968246800,0.202246826171875,0.1310778558254242,-0.1377546638250351,0.00621075788512826
1761505509978282800,0.21228271484375,0.11250284314155579,-0.12849672138690948,0.005646434146910906
1761505509988318700,0.222318603515625,0.07977019250392914,-0.10481269657611847,0.01625726744532585
1761505509998354700,0.232354736328125,0.050630953162908554,-0.05277373269200325,0.03296167775988579
1761505510008391000,0.242390869140625,0.03531111776828766,-0.0037060549948364496,0.033542245626449585
1761505510018427000,0.252427001953125,0.034390997141599655,0.046605318784713745,0.03902995586395264
1761505510028462800,0.262462890625,0.04433098062872887,0.08026447892189026,0.02883058227598667
1761505510038498800,0.272498779296875,0.0539841391146183,0.0744907483458519,-0.0036599822342395782
1761505510048535800,0.282535888671875,0.07021983712911606,0.050523627549409866,-0.05272499471902847
1761505510058571800,0.29257177734375,0.09169130772352219,0.006803577765822411,-0.09589776396751404
1761505510068607700,0.302607666015625,0.0949866995215416,-0.007346063386648893,-0.09008382260799408
1761505510078643700,0.312643798828125,0.0723479688167572,-0.04362284392118454,-0.05049513280391693
1761505510088679700,0.3226796875,0.045088380575180054,-0.07839174568653107,-0.0012924320762977004
1761505510098716000,0.3327158203125,0.0347776859998703,-0.06709940731525421,0.0261828675866127
1761505510108752000,0.342751953125,0.03274383023381233,-0.05399505794048309,0.01907728798687458
1761505510118787800,0.352787841796875,0.038415566086769104,-0.043042007833719254,0.005230980925261974
1761505510128823800,0.36282373046875,0.03699610009789467,-0.01666712760925293,0.0073018549010157585
1761505510138859800,0.37285986328125,0.0233487319201231,-0.002852511825039983,0.01623702608048916
1761505510148895700,0.382895751953125,0.007408381439745426,0.020475447177886963,0.005363606382161379
1761505510158931700,0.392931640625,-0.007507450878620148,0.0485406368970871,-0.02117372862994671
1761505510168967700,0.4029677734375,-0.020927919074892998,0.05979089438915253,-0.05160779878497124
1761505510179003600,0.413003662109375,-0.031613584607839584,0.06778969615697861,-0.07046377658843994
1761505510189039600,0.42303955078125,-0.04041692987084389,0.06030302122235298,-0.0611610934138298
1761505510199075600,0.43307568359375,-0.04181908443570137,0.03969787806272507,-0.0099636847153306
1761505510209112800,0.44311279296875,-0.027591681107878685,0.025792980566620827,0.059301406145095825
1761505510219148800,0.453148681640625,-0.006880276836454868,0.005251220893114805,0.12423726171255112
1761505510229184800,0.463184814453125,0.012122442945837975,0.006944192573428154,0.16576740145683289
1761505510239220700,0.473220703125,0.029253225773572922,0.017245033755898476,0.16990621387958527
1761505510249257000,0.483257080078125,0.03605813533067703,0.03045031800866127,0.12174374610185623
1761505510259293000,0.49329296875,0.039805203676223755,0.05598337575793266,0.055453140288591385
1761505510269329000,0.503328857421875,0.030954720452427864,0.07722581177949905,0.007111172657459974
1761505510279364900,0.51336474609375,0.014978683553636074,0.12556111812591553,-0.01877608522772789
1761505510289400800,0.52340087890625,-0.0014652712270617485,0.1472770720720291,-0.024896562099456787
1761505510299436800,0.533436767578125,-0.01167689636349678,0.13627049326896667,-0.01555099617689848
1761505510309472800,0.54347265625,-0.008018777705729008,0.1099211722612381,0.01582024246454239
1761505510319508700,0.5535087890625,-0.0005992112564854324,0.06280692666769028,0.05579375848174095
1761505510329544700,0.563544677734375,0.004846686962991953,-0.002496979897841811,0.07467211037874222
1761505510339580700,0.57358056640625,0.01732918992638588,-0.05819646269083023,0.07717574387788773
1761505510349616600,0.58361669921875,0.025199629366397858,-0.09635157138109207,0.06130117550492287
1761505510359652900,0.59365283203125,0.010899253189563751,-0.12142709642648697,0.053586527705192566
1761505510369689600,0.603689697265625,-0.009276854805648327,-0.08816234767436981,0.05469014123082161
1761505510379725600,0.6137255859375,-0.020655743777751923,-0.012011389248073101,0.04911534860730171
1761505510389761800,0.62376171875,-0.010465158149600029,0.04995504394173622,0.03778333216905594
1761505510399797800,0.6337978515625,0.006666957400739193,0.10797387361526489,0.019573435187339783
1761505510409833700,0.643833740234375,0.01823919080197811,0.12858007848262787,-0.014974421821534634
1761505510419870000,0.653869873046875,0.03912796080112457,0.10577463358640671,-0.036307405680418015
1761505510429906000,0.663906005859375,0.0498165600001812,0.07927937805652618,-0.04081001505255699
1761505510439942000,0.67394189453125,0.04531048983335495,0.03904327377676964,-0.017223728820681572
1761505510449977900,0.683977783203125,0.02804335206747055,-0.0035926043055951595,0.026513898745179176
1761505510460013800,0.694013916015625,-0.0025659557431936264,-0.017972076311707497,0.05874747037887573
1761505510470049800,0.7040498046875,-0.025922143831849098,-0.028548553586006165,0.052569467574357986
1761505510480085800,0.714085693359375,-0.036381710320711136,-0.02743109129369259,0.022605443373322487
1761505510490121700,0.724121826171875,-0.03316301479935646,-0.01128168310970068,-0.022175343707203865
1761505510500158000,0.734157958984375,-0.02100754715502262,-0.015519305132329464,-0.05248717591166496
1761505510510194000,0.74419384765625,-0.015210910700261593,-0.020854149013757706,-0.042452652007341385
1761505510520230700,0.754230712890625,-0.015367504209280014,-0.03032195381820202,-0.0016157397767528892
1761505510530267000,0.764266845703125,-0.012054266408085823,-0.02815919928252697,0.051055993884801865
1761505510540302800,0.774302734375,-0.009730923920869827,-0.015181349590420723,0.09262260794639587
1761505510550338800,0.7843388671875,-0.009892311878502369,-0.0023305322974920273,0.11000080406665802
1761505510560374800,0.794374755859375,-0.011956794187426567,0.012613529339432716,0.10384970158338547
1761505510570410800,0.80441064453125,-0.01731986738741398,0.03266207128763199,0.08060962706804276
1761505510580446700,0.81444677734375,-0.019686885178089142,0.04302097111940384,0.03784618154168129
1761505510590482700,0.824482666015625,-0.02093590795993805,0.03813673183321953,-0.021863220259547234
1761505510600518700,0.8345185546875,-0.023390278220176697,0.04675179347395897,-0.08896476030349731
1761505510610554600,0.8445546875,-0.03624375909566879,0.0626753643155098,-0.12513794004917145
1761505510620590300,0.85459033203125,-0.043654002249240875,0.05061284452676773,-0.13463637232780457
1761505510630626600,0.86462646484375,-0.04433577135205269,0.008917062543332577,-0.07466704398393631
1761505510640662500,0.87466259765625,-0.04211096838116646,-0.015115569345653057,0.04590517282485962
1761505510650698500,0.884698486328125,-0.0354384183883667,-0.033254627138376236,0.154460147023201
1761505510660734500,0.894734375,-0.03137070685625076,-0.02436233125627041,0.2086900919675827
1761505510670770400,0.9047705078125,-0.022119948640465736,0.004010454285889864,0.1982198804616928
1761505510680807400,0.914807373046875,-0.0073596457950770855,0.030918501317501068,0.12317386269569397
1761505510690843400,0.924843505859375,0.005529255140572786,0.059363991022109985,0.01804904080927372
1761505510700879400,0.93487939453125,0.014458834193646908,0.06727650761604309,-0.08853119611740112
1761505510710915300,0.944915283203125,0.013946708291769028,0.033238913863897324,-0.16798260807991028
1761505510720951300,0.954951416015625,0.003721234854310751,-0.00737402681261301,-0.19642090797424316
1761505510730987300,0.9649873046875,-0.019360115751624107,-0.06639926135540009,-0.1733507513999939
1761505510741023200,0.975023193359375,-0.03778919205069542,-0.11256515979766846,-0.11214571446180344
1761505510751059200,0.98505908203125,-0.040765807032585144,-0.115774005651474,-0.03845950961112976
1761505510761095400,0.995095458984375,-0.025855032727122307,-0.05868754908442497,0.02522040158510208
1761505510771131400,1.00513134765625,-0.0033907366450875998,0.03867495805025101,0.07368167489767075
1761505510781167600,1.015167724609375,0.01890578120946884,0.12181591987609863,0.09245722740888596
1761505510791203600,1.02520361328125,0.025676334276795387,0.17969785630702972,0.09420639276504517
1761505510801239600,1.035239501953125,0.022467225790023804,0.18390299379825592,0.08197981864213943
1761505510811275500,1.045275634765625,0.018098309636116028,0.15893985331058502,0.06054750084877014
1761505510821311500,1.0553115234375,0.019541211426258087,0.09961128234863281,0.04231762886047363
1761505510831348500,1.065348388671875,0.02460920624434948,0.051117513328790665,0.03780943155288696
1761505510841384400,1.075384521484375,0.02623666450381279,0.028617529198527336,0.03666453808546066
1761505510851420400,1.08542041015625,0.024938905611634254,0.010723484680056572,0.03454173356294632
1761505510861456400,1.095456298828125,0.026763970032334328,-0.004886367823928595,0.04550330340862274
1761505510871492400,1.105492431640625,0.014616759493947029,0.0022740731947124004,0.07091731578111649
1761505510881528300,1.1155283203125,-0.004765992984175682,0.017585385590791702,0.0810578316450119
1761505510891564300,1.125564208984375,-0.01756168343126774,0.03093155100941658,0.06601044535636902
1761505510901600300,1.135600341796875,-0.011242534033954144,0.042514171451330185,0.0519457571208477
1761505510911636500,1.145636474609375,0.002481799805536866,0.03249429166316986,0.022845927625894547
1761505510921672400,1.15567236328125,0.024889636784791946,-0.010316819883883,-0.00950641930103302
1761505510931708400,1.16570849609375,0.04848311468958855,-0.036681581288576126,-0.022587601095438004
1761505510941744400,1.175744384765625,0.06782405823469162,-0.04628973454236984,-0.02846945822238922
1761505510951780400,1.1857802734375,0.07434506714344025,-0.05493248999118805,-0.0235226359218359
1761505510961816300,1.19581640625,0.06259121000766754,-0.04192747548222542,-0.0036043222062289715
1761505510971852300,1.205852294921875,0.033486854285001755,-0.031088143587112427,0.03317100182175636
1761505510981889500,1.2158896484375,0.005347361322492361,-0.008083758875727654,0.07080812752246857
1761505510991925500,1.225925537109375,-0.012828979641199112,0.021217137575149536,0.08249834179878235
1761505511001961500,1.23596142578125,-0.01763305626809597,0.04136049002408981,0.07550594210624695
1761505511011997400,1.24599755859375,-0.0036815537605434656,0.0580100379884243,0.056528523564338684
1761505511022033400,1.256033447265625,0.017848504707217216,0.05318892002105713,0.030823426321148872
1761505511032069400,1.2660693359375,0.04159964248538017,0.037342045456171036,-0.0015028218040242791
1761505511042105300,1.276105224609375,0.05114680901169777,0.020234432071447372,-0.024540230631828308
1761505511052141300,1.286141357421875,0.039327699691057205,-0.0015464976895600557,-0.03160613030195236
1761505511062177500,1.296177490234375,0.019634155556559563,-0.011999671347439289,0.00040187101694755256
1761505511072213500,1.306213623046875,-0.0015443670563399792,0.005850964691489935,0.055147141218185425
1761505511082249500,1.31624951171875,-0.022054435685276985,0.02136787213385105,0.09812363982200623
1761505511092285400,1.326285400390625,-0.023867249488830566,0.034991271793842316,0.1145356297492981
1761505511102321400,1.3363212890625,-0.021105552092194557,0.04333176091313362,0.09888476878404617
1761505511112357400,1.346357421875,-0.004595817066729069,0.050452787429094315,0.06331212818622589
1761505511122394400,1.356394287109375,0.010028399527072906,0.060014333575963974,0.0242555383592844
1761505511132430300,1.366430419921875,0.02414102293550968,0.03074699267745018,-0.008146077394485474
1761505511142466300,1.37646630859375,0.0282145943492651,-0.005546831991523504,-0.024175377562642097
1761505511152502300,1.386502197265625,0.022964172065258026,-0.030705714598298073,-0.025644643232226372
1761505511162538500,1.39653857421875,0.009906958788633347,-0.023566313087940216,-0.011827630922198296
1761505511172574500,1.406574462890625,-0.01076849177479744,-0.0009622001089155674,0.000565389113035053
1761505511182610400,1.4166103515625,-0.026135196909308434,0.016681775450706482,0.013698235154151917
1761505511192646400,1.426646484375,-0.021322332322597504,0.03761155903339386,0.02877039462327957
1761505511202682400,1.436682373046875,-0.018676748499274254,0.018311629071831703,0.03223783150315285
1761505511212718600,1.446718505859375,-0.01095677725970745,-0.01667431741952896,0.0412885844707489
1761505511222754600,1.456754638671875,-0.0043625240214169025,-0.024518925696611404,0.05085945129394531
1761505511232790500,1.46679052734375,0.009383381344377995,-0.011268367059528828,0.0468125119805336
1761505511242826500,1.476826416015625,0.016625048592686653,0.006310360040515661,0.025620408356189728
1761505511252862500,1.486862548828125,0.02022244781255722,0.01912522502243519,-0.0161771047860384
1761505511262898400,1.4968984375,0.022063490003347397,0.024939438328146935,-0.05549841374158859
1761505511272934400,1.506934326171875,0.014932077378034592,-0.0021856562234461308,-0.0662035197019577
1761505511282971400,1.516971435546875,-0.00011531487689353526,-0.023680562153458595,-0.034805383533239365
1761505511293007400,1.52700732421875,-0.007381217088550329,-0.030960844829678535,0.0014239922165870667
1761505511303043300,1.537043212890625,-0.0057401773519814014,-0.034443195909261703,0.02184804156422615
1761505511313079300,1.547079345703125,-0.008957276120781898,-0.023136211559176445,0.03630447760224342
1761505511323115300,1.557115234375,-0.011602060869336128,-0.006207295693457127,0.02582200989127159
1761505511333151200,1.567151123046875,-0.0056829191744327545,0.004252535756677389,0.00839747954159975
1761505511343187500,1.5771875,0.009326123632490635,0.011541607789695263,-0.007898669689893723
1761505511353223400,1.587223388671875,0.0317576639354229,0.011785552836954594,-0.02520628646016121
1761505511363259400,1.59725927734375,0.051717255264520645,0.01210007257759571,-0.04596536234021187
1761505511373295400,1.60729541015625,0.06833378225564957,0.0016980315558612347,-0.06445089727640152
1761505511383331300,1.617331298828125,0.07073968648910522,-0.018674084916710854,-0.0725274607539177
1761505511393367600,1.627367431640625,0.05945879966020584,-0.03966911509633064,-0.07052823156118393
1761505511403403500,1.637403564453125,0.035710860043764114,-0.05880845710635185,-0.04009122774004936
1761505511413439500,1.647439453125,0.015918245539069176,-0.05481371283531189,0.0025960493367165327
1761505511423475500,1.657475341796875,-0.0035563854034990072,-0.039750874042510986,0.0306889358907938
1761505511433512400,1.667512451171875,-0.0015427692560479045,-0.026762371882796288,0.03392787277698517
1761505511443548400,1.67754833984375,0.002435460686683655,-0.020979050546884537,0.021019531413912773
1761505511453584400,1.68758447265625,0.007690676487982273,-0.03279336541891098,-0.0062275356613099575
1761505511463620400,1.697620361328125,0.015181615948677063,-0.028319522738456726,-0.032284434884786606
1761505511473656300,1.70765625,0.014907044358551502,0.003216566052287817,-0.0389292910695076
1761505511483692300,1.7176923828125,0.012769324705004692,0.03267352283000946,-0.033540382981300354
1761505511493728500,1.727728515625,0.013367736712098122,0.053940195590257645,-0.013965350575745106
1761505511503764500,1.737764404296875,-0.0014500912511721253,0.03970320522785187,0.01943015679717064
1761505511513800400,1.747800537109375,-0.02407311275601387,0.04427531734108925,0.05583876371383667
1761505511523836400,1.75783642578125,-0.03274516388773918,0.03618117421865463,0.07382602244615555
1761505511533872400,1.767872314453125,-0.02593120001256466,0.0008021441171877086,0.05597405135631561
1761505511543908400,1.777908447265625,-0.013224991969764233,-0.018812038004398346,0.037041906267404556
1761505511553944300,1.7879443359375,-0.0003251719754189253,-0.017520936205983162,0.030535271391272545
1761505511563980300,1.797980224609375,0.0051809134893119335,-0.01708604209125042,0.032891370356082916
1761505511574016300,1.808016357421875,-0.0035417377948760986,-0.02887718752026558,0.025316275656223297
1761505511584052200,1.81805224609375,-0.01197170838713646,-0.02570429816842079,0.002538258908316493
1761505511594089500,1.82808935546875,-0.021314077079296112,0.010838000103831291,-0.002255431143566966
1761505511604125400,1.83812548828125,-0.028913406655192375,0.05687819793820381,0.020048808306455612
1761505511614161400,1.848161376953125,-0.033485520631074905,0.07555041462182999,0.04391126334667206
1761505511624197400,1.858197265625,-0.02809741534292698,0.05864759907126427,0.05685263127088547
1761505511634233600,1.868233642578125,-0.017408551648259163,0.019389942288398743,0.06166922301054001
1761505511644269600,1.87826953125,-0.0006482133758254349,-0.03237232193350792,0.05356122925877571
1761505511654305500,1.888305419921875,0.0139594916254282,-0.07443775236606598,0.026195917278528214
1761505511664341500,1.898341552734375,0.01733318343758583,-0.10549526661634445,-0.014278005808591843
1761505511674377500,1.90837744140625,0.016569921746850014,-0.11754500865936279,-0.030945666134357452
1761505511684413400,1.918413330078125,0.013746704906225204,-0.10086589306592941,-0.026641730219125748
1761505511694449400,1.928449462890625,0.007888549007475376,-0.06691618263721466,-0.019219500944018364
1761505511704485600,1.938485595703125,-0.008155398070812225,-0.01594887301325798,-0.022650184109807014
1761505511714521600,1.948521484375,-0.021169466897845268,0.05016250163316727,-0.030465496703982353
1761505511724557600,1.9585576171875,-0.02460947260260582,0.09025319665670395,-0.039734095335006714
1761505511734593500,1.968593505859375,-0.01320794690400362,0.11395905911922455,-0.03880518674850464
1761505511744630500,1.978630615234375,0.004285026341676712,0.08776287734508514,-0.02225656993687153
1761505511754666500,1.98866650390625,0.018755311146378517,0.03163915127515793,-0.0009720537927933037
1761505511764702500,1.998702392578125,0.014622085727751255,-0.021820077672600746,0.023794811218976974
1761505511774738400,2.008738525390625,0.010055030696094036,-0.052389439195394516,0.04084250330924988
1761505511784774700,2.018774658203125,-0.0044043357484042645,-0.06318455934524536,0.03567623719573021
1761505511794810600,2.028810546875,-0.01549134124070406,-0.03941744565963745,0.015034609474241734
1761505511804846600,2.0388466796875,-0.024476047605276108,-0.01607457362115383,-0.0018130800453945994
1761505511814882600,2.048882568359375,-0.026254506781697273,0.009013734757900238,-0.005843241699039936
1761505511824918500,2.05891845703125,-0.02189943939447403,0.020537499338388443,0.002689792774617672
1761505511834954500,2.06895458984375,-0.015520104207098484,0.04302709549665451,0.022176941856741905
1761505511844990500,2.078990478515625,-0.0052016861736774445,0.06632283329963684,0.030189594253897667
1761505511855026400,2.0890263671875,-0.007020625285804272,0.061466824263334274,0.02676849626004696
1761505511865062400,2.0990625,-0.003344397759065032,0.045825812965631485,0.02124110609292984
1761505511875098400,2.109098388671875,0.009798302315175533,0.017529726028442383,0.014709170907735825
1761505511885134300,2.11913427734375,0.01630786620080471,-0.02353568561375141,0.0065042381174862385
1761505511895170600,2.129170654296875,0.010296579450368881,-0.07322946935892105,0.014880944974720478
1761505511905206500,2.13920654296875,0.006849916651844978,-0.055513858795166016,0.036968935281038284
1761505511915243500,2.149243408203125,0.00436039362102747,0.004942560568451881,0.040465399622917175
1761505511925279700,2.15927978515625,0.004738562274724245,0.038116227835416794,0.034457042813301086
1761505511935315700,2.169315673828125,-0.0016104135429486632,0.047938231378793716,0.049307361245155334
1761505511945351700,2.1793515625,-0.008170577697455883,0.015446334145963192,0.08774743229150772
1761505511955387600,2.1893876953125,-0.0065590995363891125,-0.031620245426893234,0.1370641142129898
1761505511965423600,2.199423583984375,-0.010440923273563385,-0.050216831266880035,0.15332643687725067
1761505511975459600,2.20945947265625,-0.010006295517086983,-0.07020092755556107,0.12509852647781372
1761505511985495600,2.21949560546875,0.010893394239246845,-0.0850701555609703,0.08492980152368546
1761505511995531500,2.229531494140625,0.026735739782452583,-0.05968969687819481,0.0486636757850647
1761505512005567500,2.2395673828125,0.026402845978736877,-0.03819159418344498,0.005055478774011135
1761505512015603500,2.249603515625,0.018245050683617592,-0.0020000338554382324,-0.01852628029882908
1761505512025639400,2.259639404296875,0.00893703568726778,0.034986481070518494,-0.029461219906806946
1761505512035675600,2.269675537109375,0.0052413675002753735,0.047446344047784805,-0.020924722775816917
1761505512045711600,2.279711669921875,-0.001841842196881771,0.034280210733413696,0.0025648903101682663
1761505512055747600,2.28974755859375,-0.003567037871107459,0.012629242613911629,0.03711381182074547
1761505512065783600,2.299783447265625,-0.0035518580116331577,-0.04056926444172859,0.05622385814785957
1761505512075819500,2.309819580078125,0.0052136704325675964,-0.05722200870513916,0.061232198029756546
1761505512085855500,2.31985546875,0.008581504225730896,-0.0616212859749794,0.04394801706075668
1761505512095892500,2.329892578125,-0.003326021833345294,-0.07078788429498672,0.00669412175193429
1761505512105928400,2.339928466796875,-0.014139787293970585,-0.05552264675498009,-0.03395716845989227
1761505512115964700,2.349964599609375,-0.02051672711968422,-0.03242318704724312,-0.06848026067018509
1761505512126000600,2.360000732421875,-0.020902086049318314,-0.01678350754082203,-0.07481591403484344
1761505512136036600,2.37003662109375,-0.015400527976453304,0.0024546354543417692,-0.05577777698636055
1761505512146072600,2.380072509765625,-0.01133947353810072,0.012116850353777409,-0.024380173534154892
1761505512156108500,2.390108642578125,-0.01901283860206604,0.00857218261808157,0.008766859769821167
1761505512166144500,2.40014453125,-0.02004028670489788,0.019122561439871788,0.025255022570490837
1761505512176180500,2.410180419921875,-0.01792413927614689,0.00803449098020792,0.02327948994934559
1761505512186216700,2.420216796875,-0.019249327480793,-0.005679723806679249,0.016323845833539963
1761505512196252700,2.430252685546875,-0.022288793697953224,-0.025482723489403725,0.006726079620420933
1761505512206288600,2.44028857421875,-0.027332555502653122,-0.03935433179140091,-0.0037494644057005644
1761505512216324600,2.45032470703125,-0.03458167985081673,-0.04846234247088432,-0.0265948586165905
1761505512226360600,2.460360595703125,-0.028606610372662544,-0.04463138431310654,-0.050208043307065964
1761505512236396500,2.470396484375,-0.02895495295524597,-0.027997279539704323,-0.05558869242668152
1761505512246432500,2.4804326171875,-0.028209799900650978,0.008439024910330772,-0.026090456172823906
1761505512256468500,2.490468505859375,-0.02768569067120552,0.03915752097964287,0.008784702979028225
1761505512266504400,2.50050439453125,-0.03235287964344025,0.05630481615662575,0.041187651455402374
1761505512276540400,2.51054052734375,-0.032581910490989685,0.06676704436540604,0.05769951641559601
1761505512286576400,2.520576416015625,-0.03202904015779495,0.05487336963415146,0.0566350482404232
1761505512296613400,2.53061328125,-0.024812405928969383,0.03172677010297775,0.050455451011657715
1761505512306649300,2.5406494140625,-0.01312325894832611,-0.004956941585987806,0.038789473474025726
1761505512316685300,2.550685302734375,-0.005393167492002249,-0.06320080906152725,0.0206349715590477
1761505512326721500,2.560721435546875,-0.004747084807604551,-0.10076309740543365,-0.0013337110867723823
1761505512336757500,2.570757568359375,-0.00583631731569767,-0.10622843354940414,-0.024630244821310043
1761505512346793700,2.580793701171875,-0.017138240858912468,-0.06773563474416733,-0.05172444507479668
1761505512356829700,2.59082958984375,-0.022776419296860695,0.011363175697624683,-0.06266125291585922
1761505512366865700,2.60086572265625,-0.031005585566163063,0.08695540577173233,-0.049249306321144104
1761505512376901600,2.610901611328125,-0.038959648460149765,0.12239328771829605,-0.019056249409914017
1761505512386937600,2.6209375,-0.03904939815402031,0.10150798410177231,0.0201614610850811
1761505512396973600,2.6309736328125,-0.03501977026462555,0.05431783199310303,0.046607982367277145
1761505512407009500,2.641009521484375,-0.015371765941381454,-0.010127202607691288,0.042265962809324265
1761505512417045500,2.65104541015625,0.006602242588996887,-0.06410415470600128,0.01673770137131214
1761505512427081500,2.66108154296875,0.01557949185371399,-0.11048070341348648,-0.001597363967448473
1761505512437117700,2.67111767578125,0.013982927426695824,-0.11681237071752548,-0.004455468617379665
1761505512447153700,2.681153564453125,0.007180148735642433,-0.08401207625865936,0.0023249397054314613
1761505512457189600,2.691189697265625,-0.004564125556498766,-0.03351401910185814,-0.0012327772565186024
1761505512467225600,2.7012255859375,-0.01455896906554699,0.027403395622968674,-0.018736403435468674
1761505512477261600,2.711261474609375,-0.009003615006804466,0.0715748518705368,-0.03969308361411095
1761505512487297500,2.721297607421875,0.00020160128769930452,0.0886734127998352,-0.0553724467754364
1761505512497333500,2.73133349609375,0.009729593060910702,0.06361652910709381,-0.04536242038011551
1761505512507369500,2.741369384765625,0.01407560519874096,0.011757856234908104,-0.012179967015981674
1761505512517406500,2.751406494140625,0.018605908378958702,-0.028668928891420364,0.030592264607548714
1761505512527442400,2.7614423828125,0.02069808728992939,-0.04987967386841774,0.0462721586227417
1761505512537478400,2.771478515625,0.0205747839063406,-0.04621942713856697,0.039029158651828766
1761505512547514400,2.781514404296875,0.018698319792747498,-0.02786172553896904,0.007216101046651602
1761505512557550300,2.79155029296875,0.008808671496808529,0.0010996191995218396,-0.013159478083252907
1761505512567586300,2.80158642578125,-0.006412359420210123,0.02418922632932663,-0.019899405539035797
1761505512577622500,2.81162255859375,-0.019333483651280403,0.023960992693901062,-0.01095571182668209
1761505512587658800,2.82165869140625,-0.025684857740998268,0.02153884805738926,0.020506607368588448
1761505512597694700,2.83169482421875,-0.02997707389295101,-0.003409911412745714,0.040043022483587265
1761505512607730700,2.841730712890625,-0.02462065778672695,-0.027453728020191193,0.04626523330807686
1761505512617766700,2.8517666015625,-0.012525112368166447,-0.024141555652022362,0.0412137508392334
1761505512627802600,2.861802734375,-0.008990565314888954,-0.010609767399728298,0.011729893274605274
1761505512637838600,2.871838623046875,-0.014689996838569641,0.0018847191240638494,-0.023630760610103607
1761505512647874600,2.88187451171875,-0.02064775489270687,0.01601145789027214,-0.04748975485563278
1761505512657910500,2.89191064453125,-0.026496589183807373,0.012770922854542732,-0.06990744173526764
1761505512667946500,2.901946533203125,-0.030614901334047318,-0.020077571272850037,-0.09163591265678406
1761505512677982500,2.911982421875,-0.03178269788622856,-0.03928162530064583,-0.09236215800046921
1761505512688018700,2.922018798828125,-0.026806579902768135,-0.031910527497529984,-0.06391400098800659
1761505512698054700,2.9320546875,-0.028975725173950195,-0.0024058998096734285,-0.017347298562526703
1761505512708090600,2.942090576171875,-0.03704670071601868,0.02215217426419258,0.010381801053881645
1761505512718126800,2.952126953125,-0.028720861300826073,0.04223720356822014,0.01883760280907154
1761505512728162800,2.962162841796875,-0.01122043002396822,0.06331958621740341,0.010995925404131413
1761505512738198800,2.97219873046875,-0.001243696198798716,0.03701633960008621,0.00020639497961383313
1761505512748235800,2.98223583984375,0.006081061903387308,-0.006449377164244652,-0.0036884781438857317
1761505512758271700,2.992271728515625,0.020126573741436005,-0.05877063795924187,0.00580728892236948
1761505512768307700,3.0023076171875,0.03086896613240242,-0.07610275596380234,0.02575436607003212
1761505512778343700,3.01234375,0.027818048372864723,-0.07164222747087479,0.04165663197636604
1761505512788379600,3.022379638671875,0.019329490140080452,-0.03987311199307442,0.03939880430698395
1761505512798415600,3.03241552734375,0.006061621010303497,0.02040407434105873,0.029406890273094177
1761505512808451600,3.04245166015625,-0.011206582188606262,0.07341908663511276,0.014970693737268448
1761505512818487600,3.052487548828125,-0.03314570337533951,0.09845466911792755,0.0020130835473537445
1761505512828523500,3.0625234375,-0.04986662417650223,0.07507318258285522,-0.005515939090400934
1761505512838559700,3.072559814453125,-0.052452024072408676,0.02863910235464573,0.002156894188374281
1761505512848595700,3.082595703125,-0.04218340665102005,-0.033009883016347885,-0.0010697918478399515
1761505512858631700,3.092631591796875,-0.03032541461288929,-0.06882593780755997,-0.01025609951466322
1761505512868667600,3.102667724609375,-0.022422751411795616,-0.07323560118675232,-0.025485120713710785
1761505512878703600,3.11270361328125,-0.019841615110635757,-0.06486368179321289,-0.03693937510251999
1761505512888739600,3.122739501953125,-0.026571689173579216,-0.029346702620387077,-0.02058943174779415
1761505512898775600,3.132775634765625,-0.028190625831484795,0.0023012375459074974,0.009898170828819275
1761505512908811500,3.1428115234375,-0.021757759153842926,0.029110480099916458,0.030351780354976654
1761505512918847500,3.152847412109375,-0.016262592747807503,0.03834632411599159,0.043465450406074524
1761505512928883500,3.162883544921875,-0.007547132205218077,0.020501546561717987,0.02558179199695587
1761505512938919400,3.17291943359375,-0.006648581475019455,-0.010901915840804577,-0.006143113598227501
1761505512948955600,3.18295556640625,-0.005562544334679842,-0.04591129720211029,-0.03790077567100525
1761505512958992000,3.192991943359375,-0.0009305084822699428,-0.0795009508728981,-0.04924291372299194
1761505512969027800,3.20302783203125,-0.00959510263055563,-0.09001830965280533,-0.04657682403922081
1761505512979063800,3.213063720703125,-0.02214098908007145,-0.06497926265001297,-0.0373857207596302
1761505512989099800,3.223099853515625,-0.035289015620946884,-0.008766593411564827,-0.02406778559088707
1761505512999136800,3.23313671875,-0.042862776666879654,0.03447408601641655,0.010211891494691372
1761505513009172700,3.2431728515625,-0.04794009402394295,0.07815419137477875,0.050227485597133636
1761505513019208700,3.253208740234375,-0.04328302666544914,0.07473549246788025,0.06735800206661224
1761505513029244700,3.26324462890625,-0.025541046634316444,0.046787746250629425,0.061585333198308945
1761505513039280600,3.27328076171875,0.010065416805446148,0.01236612256616354,0.05109833925962448
1761505513049316600,3.283316650390625,0.02503078430891037,-0.014991199597716331,0.031145403161644936
1761505513059352600,3.2933525390625,0.022008363157510757,-0.03387114778161049,0.010334663093090057
1761505513069388500,3.303388427734375,0.007994542829692364,-0.026671025902032852,-0.0192533228546381
1761505513079424500,3.313424560546875,-0.01209820806980133,-0.014399179257452488,-0.043655335903167725
1761505513089460700,3.323460693359375,-0.030122483149170876,0.0027574370615184307,-0.03911944106221199
1761505513099496700,3.33349658203125,-0.04842159524559975,0.018877018243074417,-0.01840697042644024
1761505513109532700,3.34353271484375,-0.05524860695004463,0.03211159631609917,0.006503439508378506
1761505513119568600,3.353568603515625,-0.04342763498425484,0.03648211061954498,0.018764367327094078
1761505513129604600,3.3636044921875,-0.025134114548563957,0.033494312316179276,0.01762772910296917
1761505513139640600,3.373640625,-0.011142133735120296,0.008569519966840744,0.012210859917104244
1761505513149676500,3.383676513671875,0.000988032785244286,-0.021803565323352814,0.010730940848588943
1761505513159712500,3.39371240234375,0.011002583429217339,-0.029448170214891434,0.012850018218159676
1761505513169748500,3.40374853515625,0.0067750816233456135,-0.0194285586476326,0.0024554345291107893
1761505513179784700,3.41378466796875,-0.005258411634713411,0.0133877107873559,-0.010424410924315453
1761505513189820700,3.423820556640625,-0.020314859226346016,0.04839469492435455,-0.02473490685224533
1761505513199856600,3.433856689453125,-0.029558690264821053,0.05392847955226898,-0.03389351814985275
1761505513209892900,3.443892822265625,-0.024057665839791298,0.03839452564716339,-0.042035333812236786
1761505513219928800,3.4539287109375,-0.020897291600704193,0.0012266519479453564,-0.04297223314642906
1761505513229964800,3.46396484375,-0.01389717310667038,-0.03093820810317993,-0.03722619637846947
1761505513240000800,3.474000732421875,-0.006374276243150234,-0.06182049214839935,-0.02532133460044861
1761505513250036700,3.48403662109375,-0.003013899317011237,-0.07003820687532425,0.00281948852352798
1761505513260073700,3.49407373046875,-0.003232811111956835,-0.05959275737404823,0.028501948341727257
1761505513270109700,3.504109619140625,-0.00811917893588543,-0.02298787422478199,0.04867086559534073
1761505513280145700,3.514145751953125,-0.012408466078341007,0.010293650440871716,0.04771958664059639
1761505513290181600,3.524181640625,-0.01672891341149807,0.03527756407856941,0.02804921194911003
1761505513300217600,3.534217529296875,-0.016629576683044434,0.05939514935016632,0.005688778590410948
1761505513310253600,3.544253662109375,-0.019095929339528084,0.05944442003965378,-0.0025949841365218163
1761505513320289500,3.55428955078125,-0.021378258243203163,0.04345826059579849,-0.0034043188206851482
1761505513330325500,3.564325439453125,-0.026093119755387306,0.016507070511579514,0.007570301648229361
1761505513340361500,3.574361572265625,-0.025429192930459976,-0.026277942582964897,0.009126386605203152
1761505513350397700,3.584397705078125,-0.026990605518221855,-0.04790041223168373,0.0026999127585440874
1761505513360433700,3.59443359375,-0.024684574455022812,-0.052394766360521317,-0.004320446401834488
1761505513370469600,3.6044697265625,-0.018514828756451607,-0.036134302616119385,-0.008462993428111076
1761505513380505600,3.614505615234375,-0.010872887447476387,-0.017290307208895683,0.015485748648643494
1761505513390541600,3.62454150390625,-0.0060059609822928905,0.00788775086402893,0.061465490609407425
1761505513400577500,3.63457763671875,0.00008948221511673182,0.017708955332636833,0.09552253037691116
1761505513410613800,3.64461376953125,0.0023390543647110462,0.0277946125715971,0.1042046993970871
1761505513420649700,3.654649658203125,0.012321114540100098,0.0202791728079319,0.07757575064897537
1761505513430685700,3.664685791015625,0.014897722750902176,0.011346930637955666,0.03026602603495121
1761505513440721700,3.6747216796875,0.015388810075819492,0.0027422569692134857,-0.02678554132580757
1761505513450757600,3.684757568359375,0.012166118249297142,0.005215268116444349,-0.0714092031121254
1761505513460793900,3.6947939453125,-0.00216568261384964,-0.0029321403708308935,-0.09766477346420288
1761505513470829800,3.704829833984375,-0.014227671548724174,-0.008842759765684605,-0.09224896878004074
1761505513480865800,3.71486572265625,-0.014199974946677685,-0.01522768847644329,-0.07393467426300049
1761505513490901800,3.72490185546875,-0.0065351310186088085,-0.012010323815047741,-0.04670731723308563
1761505513500937700,3.734937744140625,0.008580438792705536,0.0015286544803529978,-0.01738538220524788
1761505513510973700,3.7449736328125,0.012219115160405636,0.018799521028995514,0.011503790505230427
1761505513521009700,3.755009765625,0.00953624676913023,0.022273346781730652,0.03670421987771988
1761505513531045600,3.765045654296875,-0.00020479709201026708,0.021747373044490814,0.045649778097867966
1761505513541082600,3.77508251953125,-0.0011829761788249016,0.014464426785707474,0.03098401427268982
1761505513551118600,3.78511865234375,0.001621066126972437,0.012957610189914703,0.00033662354690022767
1761505513561154600,3.795154541015625,0.0133863789960742,-0.006403304636478424,-0.027169302105903625
1761505513571190500,3.8051904296875,0.01968368887901306,-0.027224963530898094,-0.03243144229054451
1761505513581226500,3.8152265625,0.01745489053428173,-0.027594875544309616,-0.018149975687265396
1761505513591262500,3.825262451171875,-0.0010066748363897204,-0.016891365870833397,0.011727496050298214
1761505513601298700,3.835298583984375,-0.012999421916902065,-0.00046578687033616006,0.04357650503516197
1761505513611334700,3.845334716796875,-0.019111376255750656,0.022106900811195374,0.07551366835832596
1761505513621371000,3.855370849609375,-0.018201639875769615,0.03645734488964081,0.08490876853466034
1761505513631406800,3.86540673828125,-0.013866547495126724,0.03787148371338844,0.07784073799848557
1761505513641442800,3.87544287109375,-0.010395648889243603,0.02516207844018936,0.04757870361208916
1761505513651478800,3.885478759765625,-0.00694818701595068,0.005423261318355799,0.003197923768311739
1761505513661514800,3.8955146484375,0.0002665824140422046,-0.011302721686661243,-0.036202479153871536
1761505513671550700,3.90555078125,0.0016889767721295357,-0.03368206322193146,-0.061214886605739594
1761505513681587000,3.9155869140625,0.0010788465151563287,-0.05025092139840126,-0.0651976466178894
1761505513691623000,3.925622802734375,-0.0015515576815232635,-0.04873398318886757,-0.04939577728509903
1761505513701659000,3.935658935546875,-0.00256382510997355,-0.028921131044626236,-0.011244664900004864
1761505513711694800,3.94569482421875,-0.00006125270738266408,0.003644536016508937,0.03014751523733139
1761505513721731000,3.95573095703125,0.000018908443962573074,0.022707443684339523,0.06277336925268173
1761505513731767000,3.96576708984375,0.003279150230810046,0.03289616480469704,0.08281099051237106
1761505513741803000,3.975802978515625,0.008954346179962158,0.016873521730303764,0.07064381241798401
1761505513751839000,3.9858388671875,0.01834891363978386,0.0006053365068510175,0.039920251816511154
1761505513761875000,3.995875,0.01534912921488285,-0.018742527812719345,0.005732454359531403
1761505513771911000,4.005910888671875,-0.0023193468805402517,-0.027471305802464485,-0.02761511690914631
1761505513781947000,4.01594677734375,-0.024023843929171562,-0.022346317768096924,-0.046894803643226624
1761505513791981800,4.02598193359375,-0.03280321881175041,-0.00010199906682828441,-0.05720176920294762
1761505513802018000,4.03601806640625,-0.0402507483959198,0.03923874720931053,-0.06066707521677017
1761505513812054000,4.046053955078125,-0.03657931461930275,0.05455432087182999,-0.049197640269994736
1761505513822090000,4.056090087890625,-0.021333517506718636,0.05438654124736786,-0.017291106283664703
1761505513832126000,4.0661259765625,-0.0037582528311759233,0.02888278104364872,0.0317067950963974
1761505513842162000,4.076161865234375,0.013332583010196686,-0.014857775531709194,0.06288149207830429
1761505513852198000,4.086197998046875,0.014348313212394714,-0.06900329887866974,0.056104548275470734
1761505513862233900,4.09623388671875,0.01498294435441494,-0.08582942187786102,0.019161444157361984
1761505513872269800,4.106269775390625,0.01104546058923006,-0.0762803927063942,-0.017015468329191208
1761505513882305800,4.116305908203125,0.0005310343112796545,-0.034750789403915405,-0.03061836212873459
1761505513892341800,4.126341796875,-0.010253436863422394,0.023136744275689125,-0.02538871392607689
1761505513902377700,4.136377685546875,-0.009698167443275452,0.06507381051778793,-0.001972070662304759
1761505513912414000,4.1464140625,-0.004234159830957651,0.08735834062099457,0.021148161962628365
1761505513922450000,4.156449951171875,-0.00017230652156285942,0.06594572961330414,0.03714071214199066
1761505513932486000,4.16648583984375,-0.0035340148024260998,0.0287656020373106,0.046067625284194946
1761505513942521900,4.17652197265625,-0.00980309583246708,-0.0067966533824801445,0.03983849287033081
1761505513952557800,4.186557861328125,-0.00814900640398264,-0.028055602684617043,0.01474485732614994
1761505513962593800,4.19659375,-0.004180097486823797,-0.04562421143054962,-0.0015600797487422824
1761505513972629800,4.206629638671875,0.004865595139563084,-0.044072121381759644,-0.007814513519406319
1761505513982665700,4.216665771484375,0.008163387887179852,-0.03307246416807175,-0.0035691685043275356
1761505513992701700,4.22670166015625,0.017675399780273438,-0.01606791652739048,0.0021198762115091085
1761505514002737700,4.236737548828125,0.026069950312376022,0.004747084807604551,0.015910789370536804
1761505514012773600,4.246773681640625,0.022294653579592705,0.01684342883527279,0.025587918236851692
1761505514022809900,4.256809814453125,0.024882979691028595,0.018612831830978394,0.030282538384199142
1761505514032846800,4.266846923828125,0.033490050584077835,0.0141373910009861,0.03398619592189789
1761505514042882800,4.2768828125,0.048718538135290146,0.007765245158225298,0.038246456533670425
1761505514052918800,4.286918701171875,0.05559002608060837,-0.009856359101831913,0.04478717967867851
1761505514062955000,4.296955078125,0.04902853071689606,-0.0257509034126997,0.0580127015709877
1761505514072991000,4.306990966796875,0.03634282574057579,-0.04302762821316719,0.0776204913854599
1761505514083027000,4.31702685546875,0.01588655449450016,-0.06474757194519043,0.08973468095064163
1761505514093063000,4.32706298828125,-0.002413356676697731,-0.0722358450293541,0.08079258352518082
1761505514103099000,4.337098876953125,-0.008790295571088791,-0.050398193299770355,0.06067559868097305
1761505514113134800,4.347134765625,-0.00962812639772892,-0.014481737278401852,0.0353689081966877
1761505514123170800,4.3571708984375,-0.0062792012467980385,0.015338742174208164,0.007880027405917645
1761505514133206800,4.367206787109375,0.004823783412575722,0.026798324659466743,-0.005885586142539978
1761505514143242800,4.37724267578125,0.008186823688447475,0.02189517952501774,-0.0070216902531683445
1761505514153278700,4.38727880859375,0.010420150123536587,0.014109160751104355,-0.007960987277328968
1761505514163315000,4.39731494140625,0.016327574849128723,0.004041879437863827,-0.006876015570014715
1761505514173351000,4.407350830078125,0.020962540060281754,-0.005014199763536453,-0.0049068741500377655
1761505514183387000,4.417386962890625,0.022730879485607147,-0.02303767390549183,0.005344697739928961
1761505514193422800,4.4274228515625,0.017350228503346443,-0.036122582852840424,0.013612481765449047
1761505514203458800,4.437458740234375,0.01589268073439598,-0.03393932431936264,0.019085809588432312
1761505514213494800,4.447494873046875,0.006077599711716175,-0.017957162111997604,0.020803548395633698
1761505514223530800,4.45753076171875,-0.009578857570886612,0.015031945891678333,0.01474512368440628
1761505514233566700,4.467566650390625,-0.019177157431840897,0.041617218405008316,0.002600044244900346
1761505514243602700,4.477602783203125,-0.02683188021183014,0.05786702781915665,0.001213868847116828
1761505514253639000,4.487638916015625,-0.023673370480537415,0.07028242200613022,-0.0051923650316894054
1761505514263675000,4.4976748046875,-0.0191356111317873,0.07192212343215942,-0.019756926223635674
1761505514273710800,4.5077109375,-0.00891200266778469,0.03994528576731682,-0.021284248679876328
1761505514283747000,4.5177470703125,0.0035268242936581373,0.005795304663479328,-0.01561358105391264
1761505514293783000,4.527782958984375,0.006443251855671406,-0.04884130880236626,-0.0025395904667675495
1761505514303819000,4.537819091796875,0.0027105652261525393,-0.0792631283402443,0.014689464122056961
1761505514313855000,4.54785498046875,-0.0011379687348380685,-0.04820161685347557,0.029024994000792503
1761505514323891000,4.557890869140625,-0.0014335796004161239,-0.008550611324608326,0.03020503930747509
1761505514333927000,4.567927001953125,0.0004295678809285164,0.023996412754058838,0.02755120024085045
1761505514343963000,4.577962890625,0.004494616761803627,0.02882978320121765,0.02875601500272751
1761505514353998800,4.587998779296875,0.0108886007219553,0.017191236838698387,0.044621795415878296
1761505514364035800,4.598035888671875,0.013046027161180973,0.0140156839042902,0.054610513150691986
1761505514374071800,4.60807177734375,0.007386277429759502,0.0003515372518450022,0.038122616708278656
1761505514384107800,4.618107666015625,0.007737015374004841,-0.004540956113487482,0.005952964071184397
1761505514394143700,4.628143798828125,0.008228369057178497,0.007530620787292719,-0.02990676648914814
1761505514404180700,4.6381806640625,0.01095571182668209,0.02563292533159256,-0.04759761318564415
1761505514414216700,4.648216796875,-0.0001531317684566602,0.03484240174293518,-0.043166644871234894
1761505514424253000,4.6582529296875,-0.0020572920329868793,0.0311624463647604,-0.018320150673389435
1761505514434289000,4.668288818359375,0.00003941478280466981,0.025607358664274216,0.020928451791405678
1761505514444324900,4.678324951171875,0.0004386226355563849,0.010428139939904213,0.04839762672781944
1761505514454361000,4.688361083984375,-0.0062554990872740746,0.00612340634688735,0.059003930538892746
1761505514464397000,4.69839697265625,-0.0024370586033910513,-0.012048672884702682,0.037693049758672714
1761505514474433000,4.70843310546875,-0.0004791026876773685,-0.01792973279953003,0.011086473241448402
1761505514484469000,4.718468994140625,0.0006133259739726782,-0.031353659927845,-0.008380169048905373
1761505514494505000,4.7285048828125,0.004856540355831385,-0.03400617092847824,-0.002332396572455764
1761505514504541000,4.738541015625,0.011052651330828667,-0.02959757298231125,0.018875153735280037
1761505514514577000,4.748576904296875,0.011443869210779667,-0.01356481108814478,0.04547959938645363
1761505514524612900,4.75861279296875,-0.004625111818313599,-0.00030120351584628224,0.059722453355789185
1761505514534648800,4.76864892578125,-0.015094264410436153,0.00395799009129405,0.05789579078555107
1761505514544684800,4.778684814453125,-0.014582671225070953,0.02124137245118618,0.04398450255393982
1761505514554720800,4.788720703125,-0.00061279337387532,0.031613852828741074,0.025618011131882668
1761505514564757000,4.798757080078125,0.013311810791492462,0.03188682720065117,0.010765030048787594
1761505514574793000,4.80879296875,0.024763936176896095,0.02810833416879177,0.011847338639199734
1761505514584829000,4.818828857421875,0.02696264162659645,0.005538043566048145,0.018028002232313156
1761505514594865000,4.828864990234375,0.024779383093118668,-0.003201385959982872,0.02327735908329487
1761505514604900900,4.83890087890625,0.023550866171717644,-0.014189588837325573,0.024153007194399834
1761505514614936800,4.848936767578125,0.01835983246564865,-0.01737978868186474,0.025359950959682465
1761505514624972500,4.85897265625,0.011259046383202076,-0.025118403136730194,0.027828168123960495
1761505514635008500,4.869008544921875,-0.002356098499149084,-0.006880010478198528,0.031617581844329834
1761505514645044500,4.87904443359375,-0.010897655040025711,0.01010962575674057,0.029462818056344986
1761505514655080400,4.88908056640625,-0.010732538998126984,0.010015882551670074,0.01751640997827053
1761505514665116700,4.89911669921875,-0.006084790453314781,0.003965446725487709,-0.0013052152935415506
1761505514675152600,4.909152587890625,-0.0018887137994170189,0.010433732531964779,-0.01654302328824997
1761505514685188600,4.919188720703125,0.0024176177103072405,0.024930916726589203,-0.02021605521440506
1761505514695224600,4.929224609375,-0.0025997778866440058,0.021020596846938133,-0.021291440352797508
1761505514705260500,4.939260498046875,-0.005941512528806925,0.0070246197283267975,-0.005562012083828449
1761505514715296500,4.949296630859375,-0.008136223070323467,0.0017161410069093108,0.011069429107010365
1761505514725332500,4.95933251953125,-0.007875500246882439,-0.006340986583381891,0.02106080949306488
1761505514735368400,4.969368408203125,-0.00672341650351882,-0.013363742269575596,0.03377287834882736
1761505514745404400,4.979404296875,-0.003114833263680339,-0.022521553561091423,0.03460538014769554
1761505514755440400,4.9894404296875,-0.002517219865694642,-0.025302693247795105,0.022012358531355858
1761505514765476400,4.999476318359375,-0.0044983453117311,-0.017483385279774666,0.0057076867669820786
1761505514775512600,5.0095126953125,-0.004055728204548359,-0.006607302464544773,-0.009796437807381153
1761505514785548500,5.019548583984375,-0.006609965581446886,0.00631941482424736,-0.002971288748085499
1761505514795584500,5.02958447265625,-0.003665308468043804,0.011332282796502113,0.013645504601299763
1761505514805621500,5.03962158203125,0.0023241406306624413,0.006581736262887716,0.03922809660434723
1761505514815657500,5.049657470703125,0.007860053330659866,-0.004089283756911755,0.052566006779670715
1761505514825693700,5.059693603515625,0.006255765445530415,-0.01128168310970068,0.04373496398329735
1761505514835729700,5.069729736328125,0.002448510378599167,-0.005628857295960188,0.003561178920790553
1761505514845765600,5.079765625,-0.004344148561358452,0.008743423968553543,-0.03875644877552986
1761505514855801600,5.089801513671875,-0.018968896940350533,0.005815012380480766,-0.06338376551866531
1761505514865837600,5.099837646484375,-0.044969070702791214,0.004172108136117458,-0.06201649829745293
1761505514875873500,5.10987353515625,-0.059124305844306946,0.005011270288378,-0.04176901653409004
1761505514885909500,5.119909423828125,-0.06125989556312561,0.01690175198018551,-0.022347116842865944
1761505514895945500,5.129945556640625,-0.06144338846206665,0.04213973134756088,-0.005466138012707233
1761505514905981400,5.1399814453125,-0.05506112053990364,0.06556729227304459,0.0006985471700318158
1761505514916017400,5.150017333984375,-0.044205810874700546,0.05961938947439194,-0.0033510555513203144
1761505514926053600,5.1600537109375,-0.034978754818439484,0.01985306665301323,0.0007976167253218591
1761505514936089600,5.170089599609375,-0.029289178550243378,-0.026254240423440933,0.01587750017642975
1761505514946125600,5.18012548828125,-0.025775404646992683,-0.05275455862283707,0.032595228403806686
1761505514956161500,5.19016162109375,-0.02316311001777649,-0.05688805133104324,0.027952538803219795
1761505514966197500,5.200197509765625,-0.02977866865694523,-0.03419605270028114,0.005038168281316757
1761505514976233500,5.2102333984375,-0.038533810526132584,0.009290969930589199,-0.025897111743688583
1761505514986269400,5.22026953125,-0.038475487381219864,0.027828967198729515,-0.05062909051775932
1761505514996305400,5.230305419921875,-0.04055435210466385,0.03338006138801575,-0.04836992919445038
1761505515006341400,5.24034130859375,-0.044557347893714905,0.017297230660915375,-0.029829533770680428
1761505515016377300,5.25037744140625,-0.041725873947143555,-0.001418665866367519,0.0028762139845639467
1761505515026413600,5.26041357421875,-0.034635476768016815,-0.008846755139529705,0.03217418119311333
1761505515036449500,5.270449462890625,-0.02412530966103077,-0.007869374938309193,0.04675818234682083
1761505515046485500,5.280485595703125,-0.014297446236014366,0.004635232035070658,0.048948101699352264
1761505515056521500,5.290521484375,-0.009328520856797695,0.015993081033229828,0.03495665267109871
1761505515066557400,5.300557373046875,-0.012314190156757832,0.02498018369078636,0.010804444551467896
1761505515076593400,5.310593505859375,-0.015397598035633564,0.02358442172408104,-0.019024556502699852
1761505515086629400,5.32062939453125,-0.007714911364018917,0.023727966472506523,-0.03581152856349945
1761505515096665300,5.330665283203125,0.0036618465092033148,0.011158911511301994,-0.045341916382312775
1761505515106701600,5.34070166015625,0.009181780740618706,-0.03982437774538994,-0.020591827109456062
1761505515116737500,5.350737548828125,0.004475175868719816,-0.05584968253970146,0.03639502450823784
1761505515126773500,5.3607734375,-0.0033843449782580137,-0.07076604664325714,0.08088260143995285
1761505515136809500,5.3708095703125,-0.015682024881243706,-0.0712994784116745,0.08431141823530197
1761505515146845700,5.380845703125,-0.018280737102031708,-0.03664189949631691,0.06121568754315376
1761505515156881700,5.390881591796875,-0.007045392412692308,-0.012645487673580647,0.028982382267713547
1761505515166917600,5.400917724609375,0.00316010694950819,-0.00022450447431765497,0.015486814081668854
1761505515176953600,5.41095361328125,-0.005389971658587456,-0.0019401127938181162,0.024336764588952065
1761505515186989600,5.420989501953125,-0.022598519921302795,-0.00498197553679347,0.03431323170661926
1761505515197025500,5.431025634765625,-0.037036314606666565,0.009633186273276806,0.028725920245051384
1761505515207061500,5.4410615234375,-0.0356389544904232,0.031615182757377625,0.0169755220413208
1761505515217097500,5.451097412109375,-0.03291986510157585,0.04446360468864441,0.00923158135265112
1761505515227133400,5.461133544921875,-0.033814687281847,0.024997495114803314,0.016751283779740334
1761505515237169400,5.47116943359375,-0.027461718767881393,-0.004563859198242426,0.03935592621564865
1761505515247205400,5.481205322265625,-0.02387816831469536,-0.03269403055310249,0.05547204613685608
1761505515257242400,5.491242431640625,-0.026854783296585083,-0.03694203868508339,0.05652213096618652
1761505515267278300,5.5012783203125,-0.03213609755039215,-0.019285013899207115,0.036603815853595734
1761505515277314300,5.511314208984375,-0.033796314150094986,0.013081180863082409,0.007511445786803961
1761505515287350500,5.5213505859375,-0.026018816977739334,0.04099483788013458,-0.02550749108195305
1761505515297386500,5.531386474609375,-0.019051188603043556,0.047679103910923004,-0.045154962688684464
1761505515307422500,5.54142236328125,-0.0007874967413954437,0.02226908691227436,-0.03772314265370369
1761505515317458400,5.55145849609375,0.011113903485238552,-0.009843309409916401,-0.007673099637031555
1761505515327494400,5.561494384765625,0.015745140612125397,-0.041674740612506866,0.035471443086862564
1761505515337530600,5.571530517578125,0.00752103328704834,-0.05844253674149513,0.05724198371171951
1761505515347566600,5.581566650390625,-0.009136772714555264,-0.0533207468688488,0.04420820623636246
1761505515357602600,5.5916025390625,-0.02563665434718132,-0.014399445615708828,0.008615326136350632
1761505515367638500,5.601638427734375,-0.033847179263830185,0.017119331285357475,-0.016859939321875572
1761505515377674500,5.611674560546875,-0.03881610557436943,0.037824876606464386,-0.0180509053170681
1761505515387710500,5.62171044921875,-0.043960798531770706,0.035959865897893906,-0.012939500622451305
1761505515397746700,5.63174658203125,-0.03406662493944168,0.03940093517303467,-0.008649148046970367
1761505515407782700,5.64178271484375,-0.025440644472837448,0.04836913198232651,-0.0075609805062413216
1761505515417818600,5.651818603515625,-0.03569594398140907,0.04279300197958946,-0.0032285500783473253
1761505515427854600,5.6618544921875,-0.046734217554330826,0.020000074058771133,-0.0032431974541395903
1761505515437890600,5.671890625,-0.04357197880744934,0.0028730181511491537,0.007754858583211899
1761505515447926500,5.681926513671875,-0.04116980731487274,-0.009920008480548859,0.01193921733647585
1761505515457962500,5.69196240234375,-0.038722626864910126,-0.01210007257759571,0.009516007266938686
1761505515467998500,5.70199853515625,-0.02894829399883747,-0.0016088156262412667,-0.002551840851083398
1761505515478034400,5.712034423828125,-0.02863643877208233,-0.003296194365248084,-0.011626029387116432
1761505515488070400,5.7220703125,-0.036197952926158905,-0.013015134260058403,-0.021563615649938583
1761505515498106400,5.7321064453125,-0.04435973986983299,-0.011843343265354633,-0.037340715527534485
1761505515508142600,5.742142578125,-0.049846384674310684,0.006973220966756344,-0.05926039442420006
1761505515518178600,5.752178466796875,-0.048295628279447556,0.020003268495202065,-0.06735214591026306
1761505515528214500,5.762214599609375,-0.04249393194913864,0.019334549084305763,-0.05735596641898155
1761505515538250500,5.77225048828125,-0.03814498707652092,0.00896926037967205,-0.03702006861567497
1761505515548286500,5.782286376953125,-0.027963723987340927,0.002704440150409937,-0.017233049497008324
1761505515558322400,5.792322509765625,-0.023201193660497665,0.013254020363092422,-0.008671784773468971
1761505515568358400,5.8023583984375,-0.022768428549170494,0.013635651208460331,-0.012865997850894928
1761505515578394400,5.812394287109375,-0.02689553052186966,-0.014231400564312935,-0.020894097164273262
1761505515588430300,5.822430419921875,-0.018619224429130554,-0.023865917697548866,-0.007646734360605478
1761505515598466300,5.83246630859375,-0.004806206561625004,-0.018741464242339134,0.01623622700572014
1761505515608502300,5.842502197265625,0.0016437029698863626,0.009529856033623219,0.03958096355199814
1761505515618538500,5.85253857421875,-0.0017686053179204464,0.03993916139006615,0.04499463737010956
1761505515628575000,5.862574951171875,0.001856755930930376,0.05519880726933479,0.03375023975968361
1761505515638611000,5.87261083984375,0.01245374046266079,0.05661134794354439,0.017799770459532738
1761505515648647000,5.88264697265625,0.014072143472731113,0.03357100859284401,0.006523679476231337
1761505515658683000,5.892682861328125,0.013462278991937637,-0.0011025486746802926,0.006810235325247049
1761505515668718800,5.90271875,0.007667240686714649,-0.036745764315128326,0.02232874184846878
1761505515678754800,5.9127548828125,0.011677960865199566,-0.05101364850997925,0.029167206957936287
1761505515688790800,5.922790771484375,0.01737898960709572,-0.03732579946517944,0.0349140428006649
1761505515698826800,5.93282666015625,0.020606741309165955,-0.009753028862178326,0.027960527688264847
1761505515708862700,5.94286279296875,0.014650847762823105,0.01607270911335945,0.007485346868634224
1761505515718898700,5.952898681640625,0.0008602010202594101,0.031554464250802994,-0.006729275453835726
1761505515728934700,5.9629345703125,-0.0068062408827245235,0.03425624221563339,-0.011891013942658901
1761505515738971000,5.972970947265625,-0.008625445887446404,0.024754881858825684,-0.009550095535814762
1761505515749006800,5.9830068359375,-0.005775863770395517,0.010478739626705647,-0.005403553601354361
1761505515759042800,5.993042724609375,-0.003471164032816887,-0.0022897860035300255,0.006036587059497833
1761505515769078800,6.003078857421875,-0.0013603427214547992,-0.004488491453230381,0.01721493899822235
1761505515779114800,6.01311474609375,-0.006283994764089584,0.012114985845983028,0.024871261790394783
1761505515789150700,6.023150634765625,-0.008229699917137623,0.029688652604818344,0.028363730758428574
1761505515799186700,6.033186767578125,0.00032410668791271746,0.04440315067768097,0.027123762294650078
1761505515809222700,6.04322265625,0.007249390706419945,0.03550579771399498,0.021886123344302177
1761505515819258600,6.053258544921875,0.005970008205622435,0.010265421122312546,0.00938870757818222
1761505515829294600,6.063294677734375,0.00013981595111545175,-0.011451059952378273,-0.005363340023905039
1761505515839330600,6.07333056640625,-0.014355236664414406,-0.033975277096033096,-0.021253889426589012
1761505515849366800,6.08336669921875,-0.015728097409009933,-0.05559588596224785,-0.035058919340372086
1761505515859403000,6.093403076171875,-0.011698467656970024,-0.06913752853870392,-0.03775057569146156
1761505515869439000,6.10343896484375,-0.00072597770486027,-0.07354505360126495,-0.030733678489923477
1761505515879475000,6.113474853515625,-0.00043276368523947895,-0.0717540830373764,-0.018872223794460297
1761505515889511000,6.123510986328125,-0.007719704881310463,-0.023019032552838326,0.010266219265758991
1761505515899547000,6.133546875,-0.017363544553518295,0.034626953303813934,0.036552153527736664
1761505515909582800,6.143582763671875,-0.034634675830602646,0.07119268923997879,0.0517452210187912
1761505515919618800,6.153618896484375,-0.04741518571972847,0.08379529416561127,0.05086158215999603
1761505515929654800,6.16365478515625,-0.04211869090795517,0.06534624844789505,0.03621260076761246
1761505515939690800,6.173690673828125,-0.021569207310676575,0.036435239017009735,0.0020069582387804985
1761505515949726700,6.183726806640625,0.00022130868455860764,0.015058045275509357,-0.03301787003874779
1761505515959762700,6.1937626953125,0.01782240718603134,-0.011052917689085007,-0.05133669078350067
1761505515969799000,6.203798828125,0.007559116464108229,-0.03575479984283447,-0.03503308445215225
1761505515979835000,6.2138349609375,-0.01546337828040123,-0.05066104605793953,-0.0037177728954702616
1761505515989870800,6.223870849609375,-0.027723239734768867,-0.03839213028550148,0.022958312183618546
1761505515999906800,6.23390673828125,-0.032112929970026016,-0.012378105893731117,0.024084031581878662
1761505516009942800,6.24394287109375,-0.02785799652338028,0.009810020215809345,0.011826565489172935
1761505516019978800,6.253978759765625,-0.009225189685821533,0.01949327439069748,-0.00023222764139063656
1761505516030014700,6.2640146484375,0.015721704810857773,0.020712735131382942,-0.0022029669489711523
1761505516040050700,6.27405078125,0.0355827622115612,0.012677446007728577,0.0052376389503479
1761505516050086700,6.284086669921875,0.03160053491592407,0.011270764283835888,0.0121291009709239
1761505516060122600,6.29412255859375,0.0005909554311074317,0.008081628940999508,0.012509666383266449
1761505516070158800,6.304158935546875,-0.031133418902754784,0.024174578487873077,0.008141549304127693
1761505516080194800,6.31419482421875,-0.05149195343255997,0.05551998317241669,-0.002679938916116953
1761505516090230800,6.324230712890625,-0.06046734005212784,0.07557651400566101,-0.01606951467692852
1761505516100266800,6.334266845703125,-0.05475538969039917,0.06849783658981323,-0.019693011417984962
1761505516110302700,6.344302734375,-0.03901264816522598,0.05260834842920303,-0.015296664088964462
1761505516120340000,6.354340087890625,-0.020181966945528984,0.02660551108419895,-0.010129599831998348
1761505516130374700,6.364374755859375,-0.013126987032592297,-0.01583355851471424,-0.011998073197901249
1761505516140411000,6.374410888671875,-0.008439024910330772,-0.05596553161740303,-0.00044474788592197
1761505516150447900,6.38444775390625,-0.0035289546940475702,-0.09932339191436768,0.02971528470516205
1761505516160482800,6.39448291015625,-0.0012825783342123032,-0.10697092115879059,0.0635928213596344
1761505516170519800,6.404519775390625,0.0062669506296515465,-0.047143809497356415,0.0659656971693039
1761505516180554800,6.4145546875,0.007595867849886417,0.023622239008545876,0.027899807319045067
1761505516190591700,6.424591796875,-0.0002402171230642125,0.10413119941949844,-0.018749719485640526
1761505516200627700,6.434627685546875,-0.0046416232362389565,0.12576325237751007,-0.04469529911875725
1761505516210663700,6.44466357421875,0.003940413240343332,0.09884002804756165,-0.034332141280174255
1761505516220699000,6.454698974609375,0.012342154048383236,0.016994429752230644,-0.0018671422731131315
1761505516230736000,6.46473583984375,0.02347603067755699,-0.06428977102041245,0.027466511353850365
1761505516240770800,6.474770751953125,0.03868640959262848,-0.09228012710809708,0.04362257942557335
1761505516250807800,6.484807861328125,0.0539093054831028,-0.07887724041938782,0.04280472174286842
1761505516260843800,6.49484375,0.04279540106654167,-0.03743419051170349,0.043728306889534
1761505516270879700,6.504879638671875,0.03410923480987549,0.00011584750609472394,0.046001847833395004
1761505516280915700,6.514915771484375,0.02219371870160103,0.03417900949716568,0.04664473235607147
1761505516290951700,6.52495166015625,-0.00005193164179218002,0.04282842203974724,0.028205271810293198
1761505516300987600,6.534987548828125,-0.007542870938777924,0.027298731729388237,-0.0008439557277597487
1761505516311023600,6.545023681640625,0.0024234766606241465,0.00743288267403841,-0.02870221808552742
1761505516321059600,6.5550595703125,0.0016937704058364034,-0.021626465022563934,-0.044124849140644073
1761505516331095800,6.565095703125,-0.015731824561953545,-0.04947514086961746,-0.04296184703707695
1761505516341131800,6.5751318359375,-0.02901061251759529,-0.05705263465642929,-0.024221450090408325
1761505516351166700,6.585166748046875,-0.030073480680584908,-0.03552550449967384,0.009823069907724857
1761505516361203700,6.59520361328125,-0.027291808277368546,-0.004682635888457298,0.038057636469602585
1761505516371240000,6.605239990234375,-0.022298647090792656,0.026221750304102898,0.045046038925647736
1761505516381276000,6.61527587890625,-0.013684919103980064,0.04450781270861626,0.028199946507811546
1761505516391312000,6.625311767578125,-0.00019201391842216253,0.04652169719338417,-0.0060120862908661366
1761505516401347800,6.635347900390625,-0.0017132115317508578,0.02991395629942417,-0.0324130654335022
1761505516411382800,6.6453828125,-0.0046243127435445786,0.00839614775031805,-0.04050055518746376
1761505516421418800,6.655418701171875,-0.023008113726973534,-0.014822089113295078,-0.040168456733226776
1761505516431455700,6.665455810546875,-0.03229428827762604,-0.030043119564652443,-0.03562483936548233
1761505516441491000,6.675490966796875,-0.03008360043168068,-0.039256058633327484,-0.03434279188513756
1761505516451528000,6.68552783203125,-0.01888740435242653,-0.04482792317867279,-0.0362730510532856
1761505516461564000,6.69556396484375,-0.006148439832031727,-0.03942383825778961,-0.02695971168577671
1761505516471598800,6.705598876953125,0.007502657361328602,-0.034446123987436295,-0.008404670283198357
1761505516481634800,6.715634765625,0.01576112024486065,-0.02256842516362667,0.011455320753157139
1761505516491670800,6.7256708984375,0.023805463686585426,-0.018852517008781433,0.026639599353075027
1761505516501706800,6.735706787109375,0.025674469769001007,-0.025605227798223495,0.022100508213043213
1761505516511742700,6.74574267578125,0.0246073417365551,-0.024507474154233932,0.005875998642295599
1761505516521779000,6.755779052734375,0.021409951150417328,-0.022488797083497047,-0.022334866225719452
1761505516531815000,6.76581494140625,0.01944187469780445,-0.02413969114422798,-0.05198170989751816
1761505516541851000,6.775850830078125,0.015278022736310959,-0.013007145375013351,-0.062677763402462
1761505516551886800,6.785886962890625,0.015121428295969963,-0.01312139444053173,-0.06115789711475372
1761505516561922800,6.7959228515625,0.018507370725274086,-0.009267001412808895,-0.04977528005838394
1761505516571958800,6.805958740234375,0.019052254036068916,-0.006284527480602264,-0.04284120723605156
1761505516581994800,6.815994873046875,0.016109727323055267,-0.014170946553349495,-0.03594575077295303
1761505516592030700,6.82603076171875,0.01830230839550495,-0.030301978811621666,-0.019108446314930916
1761505516602066700,6.836066650390625,0.007369232829660177,-0.042877160012722015,0.008792426437139511
1761505516612102700,6.8461025390625,-0.005570001434534788,-0.06016214191913605,0.018444787710905075
1761505516622138600,6.856138671875,-0.01878141053020954,-0.048294562846422195,0.009724532254040241
1761505516632174600,6.866174560546875,-0.025783127173781395,-0.012918994762003422,-0.01528574526309967
1761505516642210600,6.87621044921875,-0.03596678748726845,0.04042145982384682,-0.04476374387741089
1761505516652246500,6.88624658203125,-0.04752437397837639,0.08235692232847214,-0.06866135448217392
1761505516662282500,6.896282470703125,-0.04315865412354469,0.09001963585615158,-0.06301145255565643
1761505516672318500,6.906318359375,-0.037880003452301025,0.07075326889753342,-0.03352387249469757
1761505516682354400,6.9163544921875,-0.023742347955703735,0.020385166630148888,-0.002255164785310626
1761505516692390400,6.926390380859375,0.0006998787284828722,-0.029327528551220894,0.015678828582167625
1761505516702426400,6.93642626953125,0.01709216833114624,-0.06518139690160751,0.018203238025307655
1761505516712462300,6.94646240234375,0.020914869382977486,-0.07827376574277878,0.012603409588336945
1761505516722498300,6.956498291015625,0.01708630844950676,-0.05408800393342972,0.012430038303136826
1761505516732534500,6.966534423828125,-0.001859419047832489,-0.01697711832821369,0.003571032779291272
1761505516742570500,6.976570556640625,-0.01974307745695114,0.02797996997833252,-0.022231535986065865
1761505516752606500,6.9866064453125,-0.025122663006186485,0.07017908990383148,-0.04887033626437187
1761505516762642400,6.996642333984375,-0.023369770497083664,0.07773447781801224,-0.05975068360567093
1761505516772678400,7.006678466796875,-0.003852795111015439,0.04567774012684822,-0.05710296705365181
1761505516782714600,7.016714599609375,0.01557975821197033,-0.013539244420826435,-0.034386202692985535
1761505516792750600,7.02675048828125,0.030786141753196716,-0.07057403773069382,0.0028474517166614532
1761505516802786600,7.03678662109375,0.04097193479537964,-0.09983205795288086,0.04152214154601097
1761505516812822500,7.046822509765625,0.03436250239610672,-0.07943490147590637,0.06781979650259018
1761505516822858500,7.0568583984375,0.02050953544676304,-0.0381401963531971,0.057735469192266464
1761505516832894500,7.06689453125,0.013703827746212482,0.01125292107462883,0.01426389068365097
1761505516842930400,7.076930419921875,0.018624816089868546,0.0515739768743515,-0.03334756940603256
1761505516852966700,7.086966552734375,0.03285595029592514,0.05458628013730049,-0.0612415187060833
1761505516863002600,7.097002685546875,0.03783952444791794,0.03605467453598976,-0.05553703010082245
1761505516873038600,7.10703857421875,0.032402414828538895,-0.003403519745916128,-0.03160080313682556
1761505516883074600,7.117074462890625,0.01811934821307659,-0.023673105984926224,-0.009108277037739754
1761505516893110500,7.127110595703125,0.00350445369258523,-0.03495931625366211,0.002114816103130579
1761505516903146500,7.137146484375,-0.008568188175559044,-0.03663843870162964,0.004802212119102478
1761505516913182500,7.147182373046875,-0.009820406325161457,-0.004058391321450472,0.006899984087795019
1761505516923218400,7.157218505859375,-0.0060080913826823235,0.025533854961395264,0.0030868700705468655
1761505516933254400,7.16725439453125,0.006176935974508524,0.03205753490328789,0.001201618229970336
1761505516943290400,7.177290283203125,0.024035828188061714,0.011531220749020576,-0.00042317630141042173
1761505516953326300,7.187326416015625,0.04150696471333504,-0.027284618467092514,-0.011146128177642822
1761505516963362600,7.197362548828125,0.0508999340236187,-0.05492689833045006,-0.026746125891804695
1761505516973398500,7.2073984375,0.049255963414907455,-0.06541468948125839,-0.038534875959157944
1761505516983434500,7.2174345703125,0.03539634123444557,-0.06162181869149208,-0.038963377475738525
1761505516993470500,7.227470458984375,0.005694371182471514,-0.025657426565885544,-0.035780634731054306
1761505517003506400,7.23750634765625,-0.012031895108520985,0.02069569006562233,-0.026698455214500427
1761505517013542400,7.24754248046875,-0.023542078211903572,0.05120459944009781,-0.015424762852489948
1761505517023578400,7.257578369140625,-0.028796227648854256,0.056652095168828964,-0.010072074830532074
1761505517033614300,7.2676142578125,-0.008982043713331223,0.04614219442009926,-0.010922156274318695
1761505517043650300,7.277650390625,0.009794307872653008,0.014191718772053719,-0.01781095564365387
1761505517053686300,7.287686279296875,0.02095082215964794,0.0054578823037445545,-0.021155618131160736
1761505517063722500,7.297722412109375,0.016290556639432907,-0.012479838915169239,-0.018253838643431664
1761505517073758700,7.3077587890625,0.0032205607276409864,-0.018033595755696297,-0.0009811085183173418
1761505517083794700,7.317794677734375,-0.0041063278913497925,-0.004583566449582577,0.01583142764866352
1761505517093830700,7.32783056640625,-0.006755640730261803,0.013114736415445805,0.01654195785522461
1761505517103866600,7.33786669921875,-0.008623049594461918,0.021085310727357864,0.0016309198690578341
1761505517113902600,7.347902587890625,-0.004673581570386887,0.01689882203936577,-0.02508857473731041
1761505517123938600,7.3579384765625,-0.012927516363561153,0.008976184763014317,-0.04833344370126724
1761505517133974500,7.367974609375,-0.03526744246482849,0.0009688580175861716,-0.054130345582962036
1761505517144010500,7.378010498046875,-0.053343914449214935,0.0013912353897467256,-0.03176618367433548
1761505517154046500,7.38804638671875,-0.06641311198472977,0.009563145227730274,0.003643736941739917
1761505517164082400,7.39808251953125,-0.06817825138568878,0.00863290298730135,0.019844012334942818
1761505517174118400,7.408118408203125,-0.05040964484214783,0.022281071171164513,0.01312006264925003
1761505517184154600,7.418154541015625,-0.025165274739265442,0.027546139433979988,-0.01007953193038702
1761505517194190600,7.428190673828125,-0.0033633061684668064,0.01239195466041565,-0.027169302105903625
1761505517204226600,7.4382265625,0.004890362732112408,-0.02588406205177307,-0.02484755963087082
1761505517214262500,7.448262451171875,0.004898884799331427,-0.053287457674741745,-0.01267132069915533
1761505517224298500,7.458298583984375,0.020614197477698326,-0.05993177741765976,0.010395382530987263
1761505517234334500,7.46833447265625,0.02869582735002041,-0.05065998062491417,0.030606644228100777
1761505517244370400,7.478370361328125,0.011175422929227352,-0.037762824445962906,0.04297303408384323
1761505517254406400,7.488406494140625,-0.016141684725880623,-0.011237207800149918,0.023851003497838974
1761505517264442400,7.4984423828125,-0.022729547694325447,0.0245444905012846,0.002499909373000264
1761505517274478300,7.508478271484375,-0.03419951722025871,0.0437629260122776,-0.02208506129682064
1761505517284514300,7.518514404296875,-0.05385071411728859,0.034633345901966095,-0.0375622883439064
1761505517294550500,7.528550537109375,-0.04845461621880531,0.01480770856142044,-0.04024089500308037
1761505517304586500,7.53858642578125,-0.0256278645247221,-0.0285850390791893,-0.02918478287756443
1761505517314622500,7.54862255859375,0.002098304685205221,-0.05455538630485535,0.00166580721270293
1761505517324658400,7.558658447265625,0.015411180444061756,-0.06358510255813599,0.03140079975128174
1761505517334694400,7.5686943359375,0.020747888833284378,-0.02545475959777832,0.042401254177093506
1761505517344730400,7.57873046875,0.00977566558867693,0.02100355178117752,0.0272662416100502
1761505517354766600,7.5887666015625,-0.005791043862700462,0.04513072595000267,0.0022977753542363644
1761505517364802600,7.598802490234375,-0.015309980139136314,0.034263163805007935,-0.024586569517850876
1761505517374838500,7.608838623046875,-0.024264859035611153,0.012357600033283234,-0.03250015154480934
1761505517384873500,7.61887353515625,-0.027237214148044586,-0.00672315014526248,-0.017582988366484642
1761505517394909400,7.628909423828125,-0.03405756875872612,-0.005945773329585791,0.014274010434746742
1761505517404945700,7.638945556640625,-0.037219539284706116,0.01949327439069748,0.020735904574394226
1761505517414981600,7.648981689453125,-0.038902390748262405,0.057139184325933456,-0.004887699615210295
1761505517425017600,7.659017578125,-0.036371856927871704,0.08250472694635391,-0.040643300861120224
1761505517435053600,7.669053466796875,-0.03151505067944527,0.07393068075180054,-0.07021583616733551
1761505517445089500,7.679089599609375,-0.03537876158952713,0.04977980628609657,-0.07984955608844757
1761505517455125500,7.68912548828125,-0.03290708363056183,0.01974307745695114,-0.10179107636213303
1761505517465161500,7.699161376953125,-0.027753600850701332,0.011069429107010365,-0.12119326740503311
1761505517475197400,7.709197509765625,-0.02317855693399906,0.002825347473844886,-0.14021889865398407
1761505517485233700,7.719233642578125,-0.022059496492147446,-0.022704247385263443,-0.1343279778957367
1761505517495269600,7.72926953125,-0.014962970279157162,-0.052449360489845276,-0.09521413594484329
1761505517505305600,7.7393056640625,-0.016148610040545464,-0.05119234696030617,-0.025225462391972542
1761505517515341600,7.749341552734375,-0.00694978516548872,-0.08672717213630676,0.027358919382095337
1761505517525377500,7.75937744140625,0.006602242588996887,-0.04893798008561134,0.05850272625684738
1761505517535413500,7.76941357421875,0.015230884775519371,0.014713432639837265,0.05222884938120842
1761505517545449500,7.779449462890625,0.0023118900135159492,0.07832010835409164,0.014594921842217445
1761505517555485400,7.7894853515625,-0.013848704285919666,0.10288297384977341,-0.02605423703789711
1761505517565521400,7.799521484375,-0.02268587052822113,0.07703965902328491,-0.03853221237659454
1761505517575557400,7.809557373046875,-0.02852538414299488,0.021806228905916214,-0.02785160392522812
1761505517585593300,7.81959326171875,-0.02719406969845295,-0.016772855073213577,-0.0033960631117224693
1761505517595629600,7.829629638671875,-0.01962137222290039,-0.045452967286109924,0.010350109077990055
1761505517605665500,7.83966552734375,-0.008214520290493965,-0.05271833762526512,0.017765413969755173
1761505517615701500,7.849701416015625,0.004365986213088036,-0.04683168604969978,0.021266672760248184
1761505517625737700,7.85973779296875,-0.010331999510526657,-0.033121466636657715,0.013732589781284332
1761505517635773700,7.869773681640625,-0.051903676241636276,-0.009953830391168594,-0.018850119784474373
1761505517645809700,7.8798095703125,-0.08089644461870193,0.027121897786855698,-0.05217798426747322
1761505517655845600,7.889845703125,-0.0921536311507225,0.10047387331724167,-0.07156286388635635
1761505517665881600,7.899881591796875,-0.08608508110046387,0.124553382396698,-0.07025977969169617
1761505517675917600,7.90991748046875,-0.0616266131401062,0.0978674441576004,-0.05667153373360634
1761505517685953500,7.91995361328125,-0.03879879415035248,0.033127594739198685,-0.028481708839535713
1761505517695989500,7.929989501953125,-0.028965871781110764,-0.009414540603756905,-0.007375091779977083
1761505517706025700,7.940025634765625,-0.02575702778995037,-0.04800401255488396,0.009723734110593796
1761505517716061700,7.950061767578125,-0.03654203191399574,-0.033905770629644394,0.026033731177449226
1761505517726097700,7.96009765625,-0.0475267730653286,-0.011541075073182583,0.018214423209428787
1761505517736133600,7.970133544921875,-0.046067360788583755,0.012738165445625782,0.00678307143971324
1761505517746169600,7.980169677734375,-0.030362166464328766,0.02022271417081356,0.004580903332680464
1761505517756205600,7.99020556640625,-0.02057664841413498,0.03232678025960922,0.013080648146569729
1761505517766241500,8.000241455078125,-0.010248376056551933,0.019829364493489265,0.023553263396024704
1761505517776277500,8.010277587890625,-0.0021848573815077543,0.013380253687500954,0.020681044086813927
1761505517786313500,8.0203134765625,-0.0011643340112641454,0.01642477884888649,0.01107209175825119
1761505517796348700,8.0303486328125,-0.005900499876588583,0.03227032348513603,0.0002008023438975215
1761505517806384600,8.040384521484375,-0.030224481597542763,0.037701305001974106,-0.020671457052230835
1761505517816420600,8.050420654296875,-0.044329915195703506,0.02822151780128479,-0.0449104830622673
1761505517826455600,8.06045556640625,-0.0410933755338192,0.008191084489226341,-0.06268575042486191
1761505517836492500,8.070492431640625,-0.033061813563108444,-0.000711064029019326,-0.06293981522321701
1761505517846527500,8.080527587890625,-0.027523769065737724,0.0031649006996303797,-0.04734647646546364
1761505517856563500,8.0905634765625,-0.02851339988410473,0.00512738386169076,-0.023069100454449654
1761505517866599700,8.100599609375,-0.02371837943792343,0.026432139798998833,0.008731706067919731
1761505517876635600,8.1106357421875,-0.028956018388271332,0.03564001992344856,0.021520471200346947
1761505517886671600,8.120671630859375,-0.03873381391167641,0.05890432745218277,0.009337841533124447
1761505517896707600,8.13070751953125,-0.05976399779319763,0.09016797691583633,-0.01787806674838066
1761505517906743600,8.14074365234375,-0.08156196773052216,0.09076345711946487,-0.04956622049212456
1761505517916779500,8.150779541015625,-0.08462327718734741,0.07749878615140915,-0.07933051139116287
1761505517926815500,8.1608154296875,-0.07561592757701874,0.08638495206832886,-0.07843462377786636
1761505517936851500,8.1708515625,-0.07163823395967484,0.091182641685009,-0.07140254229307175
1761505517946887700,8.1808876953125,-0.07528436928987503,0.11615856736898422,-0.07896379381418228
1761505517956923600,8.190923583984375,-0.07062649726867676,0.1934022158384323,-0.10140438377857208
1761505517966959600,8.200959716796875,-0.07014313340187073,0.2345837503671646,-0.08761213719844818
1761505517976995600,8.21099560546875,-0.09755957871675491,0.15509557723999023,-0.003905792022123933
1761505517987031800,8.22103173828125,-0.08819803595542908,-0.04258740693330765,0.05398387461900711
1761505517997067800,8.23106787109375,-0.01805010624229908,-0.3002796769142151,0.0771120935678482
1761505518007103700,8.241103759765625,0.02816692367196083,-0.30687710642814636,0.03075524978339672
1761505518017139700,8.2511396484375,0.035662390291690826,-0.11547200381755829,-0.05261607468128204
1761505518027175700,8.26117578125,0.013410613872110844,0.11362776160240173,-0.13924629986286163
1761505518037211600,8.271211669921875,-0.033296968787908554,0.27411437034606934,-0.19905850291252136
1761505518047247600,8.28124755859375,-0.0871756449341774,0.3267940878868103,-0.24266910552978516
1761505518057283600,8.29128369140625,-0.18170961737632751,0.32246699929237366,-0.23014985024929047
1761505518067319600,8.301319580078125,-0.302756667137146,0.21315275132656097,-0.0912414938211441
1761505518077355500,8.31135546875,-0.3647870123386383,0.05886970832943916,0.08102454245090485
