time,seconds_elapsed,z,y,x
1761505917622195200,0.0891953125,-1.0141754150390625,-0.020172119140625,-0.03271484375
1761505917632231200,0.099231201171875,-1.0145721435546875,-0.019439697265625,-0.033172607421875
1761505917642268400,0.109268310546875,-1.014862060546875,-0.01947021484375,-0.0328521728515625
1761505917652305400,0.119305419921875,-1.0144500732421875,-0.01953125,-0.0332794189453125
1761505917662342400,0.12934228515625,-1.01416015625,-0.0203094482421875,-0.03277587890625
1761505917672379100,0.139379150390625,-1.014373779296875,-0.02001953125,-0.032318115234375
1761505917682416000,0.149416015625,-1.0135498046875,-0.0196685791015625,-0.033050537109375
1761505917692453400,0.159453369140625,-1.01519775390625,-0.020416259765625,-0.0325775146484375
1761505917702489300,0.1694892578125,-1.013702392578125,-0.020172119140625,-0.03314208984375
1761505917712526300,0.1795263671875,-1.0141143798828125,-0.0208282470703125,-0.0327911376953125
1761505917722563300,0.189563232421875,-1.0146331787109375,-0.020965576171875,-0.032196044921875
1761505917732600300,0.199600341796875,-1.01513671875,-0.02044677734375,-0.03253173828125
1761505917742637300,0.20963720703125,-1.0147552490234375,-0.0196990966796875,-0.0328826904296875
1761505917752673300,0.21967333984375,-1.0137939453125,-0.0196685791015625,-0.0324554443359375
1761505917762710300,0.229710205078125,-1.015289306640625,-0.0200347900390625,-0.0330963134765625
1761505917772747300,0.239747314453125,-1.0148468017578125,-0.0204925537109375,-0.033172607421875
1761505917782784300,0.2497841796875,-1.0137786865234375,-0.0206298828125,-0.0327301025390625
1761505917792821500,0.259821533203125,-1.0146026611328125,-0.02069091796875,-0.033355712890625
1761505917802858200,0.269858154296875,-1.0154571533203125,-0.0195465087890625,-0.03326416015625
1761505917812894500,0.27989453125,-1.0139312744140625,-0.0203704833984375,-0.032928466796875
1761505917822931200,0.28993115234375,-1.013702392578125,-0.0201416015625,-0.03350830078125
1761505917832968200,0.29996826171875,-1.013763427734375,-0.0200958251953125,-0.0325469970703125
1761505917843005400,0.31000537109375,-1.01361083984375,-0.0200958251953125,-0.033599853515625
1761505917853042400,0.32004248046875,-1.0134124755859375,-0.01953125,-0.03363037109375
1761505917863079400,0.330079345703125,-1.015106201171875,-0.0205535888671875,-0.0330047607421875
1761505917873115400,0.340115478515625,-1.014312744140625,-0.020751953125,-0.032958984375
1761505917883152100,0.350152099609375,-1.014312744140625,-0.0195465087890625,-0.0330810546875
1761505917893189400,0.360189453125,-1.0140533447265625,-0.020263671875,-0.0330810546875
1761505917903226400,0.370226318359375,-1.0145721435546875,-0.0200042724609375,-0.0334320068359375
1761505917913263400,0.380263427734375,-1.013946533203125,-0.02056884765625,-0.032684326171875
1761505917923299300,0.39029931640625,-1.013916015625,-0.019866943359375,-0.032745361328125
1761505917933336300,0.40033642578125,-1.0149993896484375,-0.019683837890625,-0.033203125
1761505917943373300,0.410373291015625,-1.0146942138671875,-0.020172119140625,-0.032806396484375
1761505917953410300,0.420410400390625,-1.0142822265625,-0.0200958251953125,-0.0330657958984375
1761505917963447300,0.430447265625,-1.013458251953125,-0.0201873779296875,-0.0325164794921875
1761505917973484300,0.440484375,-1.0141143798828125,-0.020965576171875,-0.032806396484375
1761505917983520300,0.450520263671875,-1.0144195556640625,-0.0205230712890625,-0.0333404541015625
1761505917993557200,0.46055712890625,-1.0133209228515625,-0.02032470703125,-0.0330810546875
1761505918003594500,0.470594482421875,-1.01373291015625,-0.0200042724609375,-0.0330657958984375
1761505918013631200,0.48063134765625,-1.01312255859375,-0.020263671875,-0.032623291015625
1761505918023667200,0.490667236328125,-1.014068603515625,-0.0210723876953125,-0.032928466796875
1761505918033703200,0.500703125,-1.0139312744140625,-0.0201263427734375,-0.033172607421875
1761505918043740200,0.510740234375,-1.013580322265625,-0.0200653076171875,-0.0328521728515625
1761505918053777200,0.520777099609375,-1.0137786865234375,-0.0199737548828125,-0.031982421875
1761505918063814100,0.530814208984375,-1.0133056640625,-0.0198516845703125,-0.033203125
1761505918073851100,0.54085107421875,-1.0135040283203125,-0.019683837890625,-0.0331268310546875
1761505918083888000,0.55088818359375,-1.012603759765625,-0.0203094482421875,-0.0323944091796875
1761505918093924000,0.560924072265625,-1.01385498046875,-0.0206756591796875,-0.032867431640625
1761505918103961000,0.570961181640625,-1.0127410888671875,-0.02032470703125,-0.03289794921875
1761505918113998000,0.580998046875,-1.0134735107421875,-0.0194854736328125,-0.0331878662109375
1761505918124035000,0.59103515625,-1.013702392578125,-0.019073486328125,-0.033294677734375
1761505918134072000,0.601072021484375,-1.0140838623046875,-0.0196380615234375,-0.03289794921875
1761505918144108000,0.61110791015625,-1.0130615234375,-0.0196075439453125,-0.0328369140625
1761505918154145000,0.62114501953125,-1.0134124755859375,-0.0197601318359375,-0.032867431640625
1761505918164182300,0.631182373046875,-1.0133514404296875,-0.019805908203125,-0.0332489013671875
1761505918174219000,0.641218994140625,-1.014495849609375,-0.019561767578125,-0.0328521728515625
1761505918184256000,0.651256103515625,-1.0129547119140625,-0.0203399658203125,-0.0332183837890625
1761505918194292000,0.6612919921875,-1.0124969482421875,-0.02032470703125,-0.033111572265625
1761505918204329000,0.671328857421875,-1.0144805908203125,-0.01983642578125,-0.0329437255859375
1761505918214366200,0.6813662109375,-1.0133819580078125,-0.0193634033203125,-0.0327911376953125
1761505918224403200,0.6914033203125,-1.0133514404296875,-0.02032470703125,-0.03363037109375
1761505918234440200,0.701440185546875,-1.013641357421875,-0.02069091796875,-0.032623291015625
1761505918244477000,0.711476806640625,-1.013671875,-0.0201416015625,-0.0328826904296875
1761505918254513200,0.72151318359375,-1.0136260986328125,-0.020050048828125,-0.033233642578125
1761505918264550100,0.731550048828125,-1.014312744140625,-0.0199737548828125,-0.0326995849609375
1761505918274587100,0.741587158203125,-1.0131988525390625,-0.0211334228515625,-0.0324554443359375
1761505918284624100,0.7516240234375,-1.0137176513671875,-0.0198822021484375,-0.0335693359375
1761505918294661000,0.7616611328125,-1.0136566162109375,-0.02008056640625,-0.0330810546875
1761505918304697000,0.771697021484375,-1.01318359375,-0.0200653076171875,-0.033294677734375
1761505918314734300,0.781734375,-1.01318359375,-0.020294189453125,-0.033294677734375
1761505918324771000,0.79177099609375,-1.0136566162109375,-0.0196685791015625,-0.032928466796875
1761505918334808000,0.80180810546875,-1.0137176513671875,-0.0199737548828125,-0.033294677734375
1761505918344845000,0.811844970703125,-1.0138702392578125,-0.020355224609375,-0.032745361328125
1761505918354882000,0.821882080078125,-1.0128326416015625,-0.0205078125,-0.0331573486328125
1761505918364918000,0.83191796875,-1.0131378173828125,-0.020263671875,-0.033172607421875
1761505918374955300,0.841955322265625,-1.0135345458984375,-0.0198974609375,-0.0331268310546875
1761505918384992000,0.851991943359375,-1.0133056640625,-0.0207366943359375,-0.0330047607421875
1761505918395029000,0.862029052734375,-1.013702392578125,-0.0196380615234375,-0.032440185546875
1761505918405066000,0.87206591796875,-1.012969970703125,-0.019805908203125,-0.033203125
1761505918415102000,0.88210205078125,-1.012908935546875,-0.0198822021484375,-0.0332489013671875
1761505918425139200,0.89213916015625,-1.014556884765625,-0.0201568603515625,-0.0335845947265625
1761505918435176200,0.90217626953125,-1.0141143798828125,-0.021087646484375,-0.033233642578125
1761505918445213200,0.912213134765625,-1.01324462890625,-0.0204925537109375,-0.03289794921875
1761505918455250000,0.92225,-1.013275146484375,-0.0200347900390625,-0.032501220703125
1761505918465286100,0.9322861328125,-1.0124359130859375,-0.02020263671875,-0.0332489013671875
1761505918475323100,0.9423232421875,-1.01287841796875,-0.01947021484375,-0.0324249267578125
1761505918485360000,0.952360107421875,-1.0142059326171875,-0.0197296142578125,-0.032989501953125
1761505918495397000,0.962397216796875,-1.0135040283203125,-0.0194854736328125,-0.0331573486328125
1761505918505434000,0.97243408203125,-1.01336669921875,-0.0201568603515625,-0.0334320068359375
1761505918515471000,0.98247119140625,-1.0129241943359375,-0.02081298828125,-0.0330963134765625
1761505918525507300,0.99250732421875,-1.01336669921875,-0.0202178955078125,-0.0327606201171875
1761505918535544000,1.0025439453125,-1.013824462890625,-0.0204925537109375,-0.03265380859375
1761505918545581000,1.0125810546875,-1.0136566162109375,-0.0211029052734375,-0.032989501953125
1761505918555618000,1.0226181640625,-1.0128631591796875,-0.0202178955078125,-0.033203125
1761505918565655000,1.032655029296875,-1.012359619140625,-0.0191650390625,-0.0328521728515625
1761505918575691300,1.042691162109375,-1.0130767822265625,-0.019927978515625,-0.0327606201171875
1761505918585728300,1.052728271484375,-1.0130462646484375,-0.0207366943359375,-0.03289794921875
1761505918595765000,1.062764892578125,-1.013153076171875,-0.0204620361328125,-0.033233642578125
1761505918605802000,1.072802001953125,-1.0127410888671875,-0.0203857421875,-0.033721923828125
1761505918615839000,1.0828388671875,-1.01348876953125,-0.0211029052734375,-0.0334014892578125
1761505918625875000,1.092875,-1.01409912109375,-0.0203704833984375,-0.03253173828125
1761505918635912200,1.102912109375,-1.013671875,-0.0197601318359375,-0.0328826904296875
1761505918645949200,1.11294921875,-1.0131072998046875,-0.0204010009765625,-0.0330810546875
1761505918655986200,1.122986083984375,-1.013092041015625,-0.0197601318359375,-0.033294677734375
1761505918666023000,1.13302294921875,-1.012420654296875,-0.020050048828125,-0.0331573486328125
1761505918676060200,1.14306005859375,-1.0132293701171875,-0.0206146240234375,-0.0327911376953125
1761505918686096100,1.15309619140625,-1.0136566162109375,-0.019561767578125,-0.03228759765625
1761505918696133000,1.163133056640625,-1.0131378173828125,-0.0200653076171875,-0.032470703125
1761505918706170000,1.173170166015625,-1.013031005859375,-0.0196685791015625,-0.0325164794921875
1761505918716207000,1.18320703125,-1.0133056640625,-0.0201263427734375,-0.0331268310546875
1761505918726244000,1.193244140625,-1.0133514404296875,-0.0205841064453125,-0.0336151123046875
1761505918736280300,1.2032802734375,-1.0133819580078125,-0.019989013671875,-0.0333709716796875
1761505918746317000,1.213317138671875,-1.0126495361328125,-0.019866943359375,-0.033172607421875
1761505918756354000,1.22335400390625,-1.0139312744140625,-0.0196380615234375,-0.03314208984375
1761505918766391000,1.23339111328125,-1.0132293701171875,-0.0207672119140625,-0.032745361328125
1761505918776428300,1.24342822265625,-1.0134429931640625,-0.0197601318359375,-0.03289794921875
1761505918786464300,1.25346435546875,-1.0133514404296875,-0.0205078125,-0.0332794189453125
1761505918796501200,1.263501220703125,-1.0130615234375,-0.0198822021484375,-0.0327606201171875
1761505918806538000,1.2735380859375,-1.014190673828125,-0.0192413330078125,-0.0333709716796875
1761505918816575000,1.283574951171875,-1.013092041015625,-0.019287109375,-0.032470703125
1761505918826612000,1.293612060546875,-1.012908935546875,-0.0198822021484375,-0.033203125
1761505918836649200,1.303649169921875,-1.0143890380859375,-0.020263671875,-0.033416748046875
1761505918846685200,1.313685302734375,-1.013671875,-0.0192108154296875,-0.031951904296875
1761505918856722200,1.32372216796875,-1.0137481689453125,-0.0204925537109375,-0.033050537109375
1761505918866759200,1.33375927734375,-1.013641357421875,-0.0203094482421875,-0.03314208984375
1761505918876796000,1.3437958984375,-1.014434814453125,-0.02056884765625,-0.03302001953125
1761505918886833200,1.353833251953125,-1.013427734375,-0.0204620361328125,-0.0327606201171875
1761505918896869000,1.363869140625,-1.0137786865234375,-0.020233154296875,-0.0325164794921875
1761505918906906000,1.373906005859375,-1.013153076171875,-0.0201263427734375,-0.0330963134765625
1761505918916943000,1.383943115234375,-1.0144805908203125,-0.0201873779296875,-0.0330352783203125
1761505918926980000,1.39397998046875,-1.013397216796875,-0.0198822021484375,-0.03338623046875
1761505918937017000,1.40401708984375,-1.0138702392578125,-0.020172119140625,-0.032684326171875
1761505918947053300,1.41405322265625,-1.0128173828125,-0.0203399658203125,-0.0329437255859375
1761505918957090000,1.424090087890625,-1.012542724609375,-0.020263671875,-0.0325927734375
1761505918967127000,1.434126953125,-1.01409912109375,-0.0202789306640625,-0.0334320068359375
1761505918977164000,1.4441640625,-1.0135498046875,-0.02056884765625,-0.0331268310546875
1761505918987201300,1.454201171875,-1.014190673828125,-0.0208892822265625,-0.0335235595703125
1761505918997237200,1.4642373046875,-1.012603759765625,-0.021697998046875,-0.03271484375
1761505919007274200,1.474274169921875,-1.0128631591796875,-0.0202178955078125,-0.0326690673828125
1761505919017311000,1.48431103515625,-1.01434326171875,-0.019989013671875,-0.0330963134765625
1761505919027348000,1.494347900390625,-1.0137176513671875,-0.0201568603515625,-0.0328826904296875
1761505919037385000,1.504385009765625,-1.0129852294921875,-0.0200653076171875,-0.033233642578125
1761505919047421000,1.5144208984375,-1.0129852294921875,-0.0204010009765625,-0.0324249267578125
1761505919057458200,1.524458251953125,-1.01385498046875,-0.0205078125,-0.0330352783203125
1761505919067495200,1.5344951171875,-1.013916015625,-0.0201568603515625,-0.0329742431640625
1761505919077532200,1.5445322265625,-1.013031005859375,-0.0203399658203125,-0.032379150390625
1761505919087569000,1.55456884765625,-1.0124053955078125,-0.0198211669921875,-0.033355712890625
1761505919097606100,1.564606201171875,-1.0129547119140625,-0.0206146240234375,-0.03314208984375
1761505919107642000,1.57464208984375,-1.01287841796875,-0.0197906494140625,-0.0331878662109375
1761505919117679000,1.58467919921875,-1.0132904052734375,-0.0209197998046875,-0.033111572265625
1761505919127716000,1.594716064453125,-1.013916015625,-0.0199737548828125,-0.032562255859375
1761505919137753000,1.604753173828125,-1.013458251953125,-0.0198516845703125,-0.0332794189453125
1761505919147790000,1.6147900390625,-1.0135955810546875,-0.020050048828125,-0.0325469970703125
1761505919157826300,1.624826416015625,-1.0138702392578125,-0.0196990966796875,-0.0326995849609375
1761505919167863000,1.634863037109375,-1.0128326416015625,-0.019622802734375,-0.032470703125
1761505919177900000,1.644900146484375,-1.0138092041015625,-0.01983642578125,-0.0330963134765625
1761505919187937000,1.65493701171875,-1.014129638671875,-0.0189361572265625,-0.03314208984375
1761505919197974000,1.66497412109375,-1.014434814453125,-0.0201263427734375,-0.0331573486328125
1761505919208010000,1.675010009765625,-1.0142974853515625,-0.0207977294921875,-0.0329132080078125
1761505919218047200,1.685047119140625,-1.0137939453125,-0.0202789306640625,-0.0336761474609375
1761505919228084000,1.695083984375,-1.013580322265625,-0.020233154296875,-0.032501220703125
1761505919238121000,1.705120849609375,-1.01422119140625,-0.020355224609375,-0.033172607421875
1761505919248158000,1.715157958984375,-1.0142364501953125,-0.019439697265625,-0.033203125
1761505919258194000,1.72519384765625,-1.014556884765625,-0.02020263671875,-0.0328216552734375
1761505919268231200,1.735231201171875,-1.0138702392578125,-0.020965576171875,-0.031890869140625
1761505919278268200,1.74526806640625,-1.01397705078125,-0.0204620361328125,-0.0329132080078125
1761505919288305200,1.75530517578125,-1.014007568359375,-0.020751953125,-0.032318115234375
1761505919298342000,1.765341796875,-1.0137786865234375,-0.019500732421875,-0.0322113037109375
1761505919308377900,1.7753779296875,-1.01397705078125,-0.0199432373046875,-0.0328216552734375
1761505919318415000,1.7854150390625,-1.0136566162109375,-0.0201873779296875,-0.032867431640625
1761505919328452000,1.7954521484375,-1.0137176513671875,-0.019500732421875,-0.0324859619140625
1761505919338489000,1.805489013671875,-1.0138092041015625,-0.0199432373046875,-0.03216552734375
1761505919348526000,1.815526123046875,-1.01422119140625,-0.019378662109375,-0.0328521728515625
1761505919358562000,1.82556201171875,-1.0138397216796875,-0.0199127197265625,-0.0331573486328125
1761505919368599300,1.835599365234375,-1.0139617919921875,-0.0204620361328125,-0.033660888671875
1761505919378636000,1.845635986328125,-1.01422119140625,-0.0204010009765625,-0.0339202880859375
1761505919388673000,1.855673095703125,-1.014129638671875,-0.020965576171875,-0.0329437255859375
1761505919398709000,1.865708984375,-1.014129638671875,-0.0203857421875,-0.0337066650390625
1761505919408746000,1.87574609375,-1.014495849609375,-0.0200653076171875,-0.033294677734375
1761505919418783000,1.885782958984375,-1.014617919921875,-0.02008056640625,-0.0333099365234375
1761505919428820200,1.8958203125,-1.0138702392578125,-0.020782470703125,-0.0332489013671875
1761505919438857000,1.90585693359375,-1.013153076171875,-0.020355224609375,-0.0335693359375
1761505919448893200,1.91589306640625,-1.0142364501953125,-0.02069091796875,-0.0333404541015625
1761505919458930000,1.925929931640625,-1.0138397216796875,-0.0204315185546875,-0.033294677734375
1761505919468967000,1.935966796875,-1.01373291015625,-0.0211181640625,-0.033294677734375
1761505919479004200,1.946004150390625,-1.01385498046875,-0.020355224609375,-0.032928466796875
1761505919489041200,1.956041259765625,-1.0148162841796875,-0.020111083984375,-0.03387451171875
1761505919499077000,1.9660771484375,-1.0142669677734375,-0.0204010009765625,-0.033050537109375
1761505919509114000,1.976114013671875,-1.013397216796875,-0.02001953125,-0.033172607421875
1761505919519150800,1.98615087890625,-1.013275146484375,-0.0198822021484375,-0.03265380859375
1761505919529188000,1.99618798828125,-1.0145721435546875,-0.019927978515625,-0.0333251953125
1761505919539225000,2.00622509765625,-1.0136260986328125,-0.020111083984375,-0.0333404541015625
1761505919549261000,2.016260986328125,-1.0134429931640625,-0.0201416015625,-0.032684326171875
1761505919559298000,2.026298095703125,-1.013702392578125,-0.02117919921875,-0.0328521728515625
1761505919569335000,2.0363349609375,-1.0145263671875,-0.0200042724609375,-0.0326690673828125
1761505919579372300,2.046372314453125,-1.0140380859375,-0.01995849609375,-0.032958984375
1761505919589409000,2.056408935546875,-1.0142974853515625,-0.0209503173828125,-0.0324859619140625
1761505919599445000,2.066445068359375,-1.014801025390625,-0.0193939208984375,-0.031982421875
1761505919609482000,2.07648193359375,-1.0145416259765625,-0.0204620361328125,-0.032623291015625
1761505919619519000,2.08651904296875,-1.014404296875,-0.02166748046875,-0.0330352783203125
1761505919629556200,2.09655615234375,-1.0147857666015625,-0.01995849609375,-0.033172607421875
1761505919639592200,2.10659228515625,-1.0137481689453125,-0.0197906494140625,-0.0322418212890625
1761505919649629200,2.116629150390625,-1.0142822265625,-0.0194549560546875,-0.0328216552734375
1761505919659666200,2.126666259765625,-1.0143585205078125,-0.0192718505859375,-0.033447265625
1761505919669703000,2.136702880859375,-1.0133209228515625,-0.02056884765625,-0.0325927734375
1761505919679740000,2.146739990234375,-1.014190673828125,-0.019805908203125,-0.0332183837890625
1761505919689776000,2.156776123046875,-1.0143280029296875,-0.0202484130859375,-0.03265380859375
1761505919699813000,2.166813232421875,-1.0138702392578125,-0.0196685791015625,-0.0326995849609375
1761505919709850000,2.17685009765625,-1.0138702392578125,-0.0202789306640625,-0.03314208984375
1761505919719887000,2.18688720703125,-1.0142059326171875,-0.0195770263671875,-0.0332183837890625
1761505919729923800,2.196923828125,-1.0131378173828125,-0.0197296142578125,-0.0334625244140625
1761505919739960000,2.2069599609375,-1.012786865234375,-0.0207977294921875,-0.0330352783203125
1761505919749997000,2.2169970703125,-1.0137786865234375,-0.0204315185546875,-0.033660888671875
1761505919760034000,2.227033935546875,-1.01416015625,-0.02032470703125,-0.033477783203125
1761505919770071000,2.237071044921875,-1.014007568359375,-0.0204315185546875,-0.0334625244140625
1761505919780107000,2.24710693359375,-1.0140838623046875,-0.0204925537109375,-0.0333404541015625
1761505919790144000,2.25714404296875,-1.0147552490234375,-0.019989013671875,-0.0335845947265625
1761505919800181200,2.26718115234375,-1.014739990234375,-0.0208282470703125,-0.0331573486328125
1761505919810218000,2.277218017578125,-1.014404296875,-0.0205230712890625,-0.0328216552734375
1761505919820255000,2.2872548828125,-1.013641357421875,-0.0195159912109375,-0.0327606201171875
1761505919830291000,2.297291015625,-1.0139923095703125,-0.019439697265625,-0.032470703125
1761505919840328000,2.307327880859375,-1.0142822265625,-0.0195159912109375,-0.0325927734375
1761505919850365200,2.317365234375,-1.0145416259765625,-0.0198516845703125,-0.0327301025390625
1761505919860402200,2.327402099609375,-1.0145111083984375,-0.019683837890625,-0.0333709716796875
1761505919870438100,2.337438232421875,-1.015289306640625,-0.019683837890625,-0.032684326171875
1761505919880475100,2.34747509765625,-1.01458740234375,-0.01995849609375,-0.0331878662109375
1761505919890512000,2.357511962890625,-1.0147857666015625,-0.0198822021484375,-0.033355712890625
1761505919900549000,2.367549072265625,-1.0140228271484375,-0.0195465087890625,-0.0333404541015625
1761505919910585000,2.377585205078125,-1.01513671875,-0.0205078125,-0.0324859619140625
1761505919920622000,2.3876220703125,-1.014404296875,-0.0206146240234375,-0.0333404541015625
1761505919930659000,2.3976591796875,-1.013916015625,-0.0196990966796875,-0.033599853515625
1761505919940696000,2.407696044921875,-1.0140533447265625,-0.020477294921875,-0.032501220703125
1761505919950733300,2.4177333984375,-1.01470947265625,-0.0203399658203125,-0.0331878662109375
1761505919960769300,2.427769287109375,-1.01422119140625,-0.0200958251953125,-0.03277587890625
1761505919970806000,2.437805908203125,-1.0143890380859375,-0.019927978515625,-0.033538818359375
1761505919980843000,2.447843017578125,-1.0137939453125,-0.019561767578125,-0.0333404541015625
1761505919990880000,2.4578798828125,-1.014312744140625,-0.0210113525390625,-0.03369140625
1761505920000916000,2.467916015625,-1.01300048828125,-0.02001953125,-0.032379150390625
1761505920010953000,2.477952880859375,-1.0140838623046875,-0.0193634033203125,-0.033966064453125
1761505920020990200,2.487990234375,-1.0139617919921875,-0.0194244384765625,-0.033782958984375
1761505920031028200,2.4980283203125,-1.01531982421875,-0.0203094482421875,-0.03326416015625
1761505920041064200,2.508064208984375,-1.0143280029296875,-0.0204010009765625,-0.0330963134765625
1761505920051101200,2.51810107421875,-1.0145263671875,-0.0188140869140625,-0.034210205078125
1761505920061138200,2.52813818359375,-1.0139312744140625,-0.0193023681640625,-0.03338623046875
1761505920071175400,2.538175537109375,-1.0134429931640625,-0.020538330078125,-0.032379150390625
1761505920081212200,2.548212158203125,-1.0139923095703125,-0.0207672119140625,-0.0338592529296875
1761505920091248400,2.558248291015625,-1.0147857666015625,-0.019989013671875,-0.0333251953125
1761505920101285000,2.56828515625,-1.0143585205078125,-0.0192718505859375,-0.0327301025390625
1761505920111322000,2.578322021484375,-1.0137481689453125,-0.0193634033203125,-0.032196044921875
1761505920121359400,2.588359375,-1.0143585205078125,-0.0197906494140625,-0.03289794921875
1761505920131395300,2.598395263671875,-1.0146484375,-0.019989013671875,-0.0336151123046875
1761505920141432300,2.608432373046875,-1.014434814453125,-0.020263671875,-0.03411865234375
1761505920151469300,2.61846923828125,-1.0137939453125,-0.019622802734375,-0.0334014892578125
1761505920161506000,2.628506103515625,-1.0142059326171875,-0.0208282470703125,-0.0340728759765625
1761505920171542300,2.638542236328125,-1.0150604248046875,-0.02001953125,-0.0334014892578125
1761505920181579300,2.648579345703125,-1.01409912109375,-0.0198211669921875,-0.033416748046875
1761505920191616300,2.6586162109375,-1.01519775390625,-0.0200958251953125,-0.0335235595703125
1761505920201653200,2.6686533203125,-1.0132598876953125,-0.01953125,-0.033416748046875
1761505920211689200,2.678689208984375,-1.014556884765625,-0.0195770263671875,-0.0329132080078125
1761505920221726200,2.688726318359375,-1.014739990234375,-0.0198516845703125,-0.0326080322265625
1761505920231763200,2.69876318359375,-1.015045166015625,-0.020294189453125,-0.0329132080078125
1761505920241800200,2.70880029296875,-1.0147705078125,-0.0208282470703125,-0.0330657958984375
1761505920251837200,2.718837158203125,-1.0134735107421875,-0.0204925537109375,-0.0332794189453125
1761505920261873200,2.728873046875,-1.013702392578125,-0.020355224609375,-0.0331268310546875
1761505920271910100,2.73891015625,-1.014404296875,-0.020477294921875,-0.032501220703125
1761505920281947100,2.748947021484375,-1.0146331787109375,-0.0202789306640625,-0.032501220703125
1761505920291983000,2.758983154296875,-1.0132293701171875,-0.0205230712890625,-0.0334014892578125
1761505920302020400,2.769020263671875,-1.014312744140625,-0.019805908203125,-0.032745361328125
1761505920312057300,2.779057373046875,-1.014434814453125,-0.0201873779296875,-0.033203125
1761505920322094000,2.789093994140625,-1.0131683349609375,-0.0201263427734375,-0.0331878662109375
1761505920332131000,2.799131103515625,-1.0134429931640625,-0.0204010009765625,-0.0332183837890625
1761505920342167000,2.8091669921875,-1.01361083984375,-0.0199432373046875,-0.033294677734375
1761505920352204300,2.819204345703125,-1.0153961181640625,-0.019012451171875,-0.0316162109375
1761505920362241300,2.8292412109375,-1.0132598876953125,-0.0197906494140625,-0.0323028564453125
1761505920372278300,2.8392783203125,-1.0139312744140625,-0.020263671875,-0.0328521728515625
1761505920382314200,2.849314208984375,-1.0148773193359375,-0.0200653076171875,-0.0330047607421875
1761505920392351200,2.859351318359375,-1.0146026611328125,-0.0199432373046875,-0.0334625244140625
1761505920402388200,2.86938818359375,-1.0143280029296875,-0.019683837890625,-0.0331268310546875
1761505920412425200,2.87942529296875,-1.014373779296875,-0.0203704833984375,-0.0330810546875
1761505920422461200,2.889461181640625,-1.0145721435546875,-0.019866943359375,-0.0325775146484375
1761505920432498200,2.899498291015625,-1.0143890380859375,-0.020599365234375,-0.032745361328125
1761505920442535200,2.90953515625,-1.0143890380859375,-0.02032470703125,-0.033416748046875
1761505920452571100,2.919571044921875,-1.014556884765625,-0.0202178955078125,-0.0331573486328125
1761505920462608400,2.9296083984375,-1.0139007568359375,-0.0201263427734375,-0.0321502685546875
1761505920472645400,2.939645263671875,-1.0144500732421875,-0.0205841064453125,-0.0326995849609375
1761505920482682000,2.94968212890625,-1.01483154296875,-0.020050048828125,-0.0331878662109375
1761505920492718300,2.95971826171875,-1.01416015625,-0.0200347900390625,-0.0335693359375
1761505920502755000,2.969755126953125,-1.0146484375,-0.01953125,-0.03375244140625
1761505920512792300,2.979792236328125,-1.0148773193359375,-0.020172119140625,-0.033355712890625
1761505920522829300,2.989829345703125,-1.0137176513671875,-0.0210113525390625,-0.0334014892578125
1761505920532865300,2.999865234375,-1.014404296875,-0.01995849609375,-0.033538818359375
1761505920542902300,3.00990234375,-1.0137939453125,-0.019744873046875,-0.033050537109375
1761505920552939300,3.019939208984375,-1.01422119140625,-0.02020263671875,-0.03289794921875
1761505920562976000,3.02997607421875,-1.0135040283203125,-0.02032470703125,-0.033050537109375
1761505920573012200,3.04001220703125,-1.01324462890625,-0.02001953125,-0.032806396484375
1761505920583049200,3.05004931640625,-1.013763427734375,-0.019073486328125,-0.03302001953125
1761505920593086200,3.060086181640625,-1.0150909423828125,-0.019622802734375,-0.0331268310546875
1761505920603123200,3.070123291015625,-1.014068603515625,-0.0204620361328125,-0.0334320068359375
1761505920613159200,3.0801591796875,-1.0146636962890625,-0.02044677734375,-0.0326995849609375
1761505920623196200,3.090196044921875,-1.0138092041015625,-0.02020263671875,-0.0325469970703125
1761505920633233400,3.1002333984375,-1.014801025390625,-0.0204925537109375,-0.033294677734375
1761505920643270100,3.110270263671875,-1.0142974853515625,-0.01953125,-0.0332183837890625
1761505920653306400,3.120306396484375,-1.0148162841796875,-0.01922607421875,-0.0336761474609375
1761505920663343000,3.130343017578125,-1.0144195556640625,-0.020416259765625,-0.0328826904296875
1761505920673380000,3.140380126953125,-1.013824462890625,-0.020721435546875,-0.03179931640625
1761505920683417300,3.150417236328125,-1.01348876953125,-0.0189666748046875,-0.0319976806640625
1761505920693453300,3.160453369140625,-1.0131683349609375,-0.019287109375,-0.0336761474609375
1761505920703490300,3.170490234375,-1.0133209228515625,-0.0199737548828125,-0.032745361328125
1761505920713527300,3.18052734375,-1.0147552490234375,-0.0206298828125,-0.0330352783203125
1761505920723563300,3.190563232421875,-1.015228271484375,-0.0188140869140625,-0.0335540771484375
1761505920733600300,3.200600341796875,-1.0145111083984375,-0.0190277099609375,-0.0331878662109375
1761505920743637200,3.21063720703125,-1.014373779296875,-0.0204925537109375,-0.03302001953125
1761505920753674200,3.22067431640625,-1.0140380859375,-0.0207977294921875,-0.0329132080078125
1761505920763710200,3.230710205078125,-1.014739990234375,-0.020599365234375,-0.033203125
1761505920773747200,3.240747314453125,-1.0136566162109375,-0.019989013671875,-0.0325775146484375
1761505920783784200,3.2507841796875,-1.0143585205078125,-0.0198211669921875,-0.033294677734375
1761505920793821400,3.260821533203125,-1.0136260986328125,-0.0206146240234375,-0.033203125
1761505920803857400,3.270857421875,-1.0130462646484375,-0.02056884765625,-0.0331573486328125
1761505920813894100,3.28089404296875,-1.0139617919921875,-0.0195465087890625,-0.0326080322265625
1761505920823931100,3.29093115234375,-1.014434814453125,-0.0196533203125,-0.0325775146484375
1761505920833967000,3.300967041015625,-1.0146331787109375,-0.0196685791015625,-0.033203125
1761505920844004000,3.311004150390625,-1.0140380859375,-0.0199127197265625,-0.0333404541015625
1761505920854041300,3.321041259765625,-1.0132293701171875,-0.0202789306640625,-0.033203125
1761505920864078300,3.331078369140625,-1.0139312744140625,-0.0210418701171875,-0.03350830078125
1761505920874114300,3.3411142578125,-1.014404296875,-0.0199432373046875,-0.0327606201171875
1761505920884151300,3.3511513671875,-1.0144195556640625,-0.0201873779296875,-0.033477783203125
1761505920894188300,3.361188232421875,-1.0146484375,-0.0204925537109375,-0.0326690673828125
1761505920904225300,3.371225341796875,-1.0143280029296875,-0.0207977294921875,-0.0329742431640625
1761505920914261200,3.38126123046875,-1.0144195556640625,-0.020477294921875,-0.032867431640625
1761505920924298200,3.39129833984375,-1.0146026611328125,-0.0199432373046875,-0.03326416015625
1761505920934335200,3.401335205078125,-1.0142364501953125,-0.020599365234375,-0.0325164794921875
1761505920944371200,3.41137109375,-1.0145721435546875,-0.0211944580078125,-0.0333099365234375
1761505920954408200,3.421408203125,-1.01495361328125,-0.0204925537109375,-0.0335235595703125
1761505920964445400,3.431445556640625,-1.0143280029296875,-0.0203857421875,-0.031768798828125
1761505920974482200,3.441482177734375,-1.013397216796875,-0.0201263427734375,-0.0328216552734375
1761505920984518400,3.451518310546875,-1.0144195556640625,-0.0196075439453125,-0.0335693359375
1761505920994555100,3.46155517578125,-1.0135955810546875,-0.019805908203125,-0.0327301025390625
1761505921004592000,3.471592041015625,-1.0140380859375,-0.0201873779296875,-0.0334625244140625
1761505921014629000,3.481629150390625,-1.0142974853515625,-0.0193939208984375,-0.0328826904296875
1761505921024665000,3.4916650390625,-1.01470947265625,-0.01922607421875,-0.033050537109375
1761505921034702000,3.5017021484375,-1.0138092041015625,-0.0198211669921875,-0.03338623046875
1761505921044739000,3.511739013671875,-1.0135040283203125,-0.0200958251953125,-0.03302001953125
1761505921054775000,3.521775146484375,-1.01593017578125,-0.0198974609375,-0.0333099365234375
1761505921064812300,3.531812255859375,-1.01385498046875,-0.019744873046875,-0.0333251953125
1761505921074849000,3.54184912109375,-1.014892578125,-0.0207672119140625,-0.0334625244140625
1761505921084886000,3.551885986328125,-1.01458740234375,-0.020294189453125,-0.0323486328125
1761505921094922000,3.561921875,-1.01361083984375,-0.01959228515625,-0.0326690673828125
1761505921104959000,3.571958984375,-1.0140838623046875,-0.02069091796875,-0.0321197509765625
1761505921114996000,3.581995849609375,-1.014923095703125,-0.0196990966796875,-0.033203125
1761505921125032200,3.5920322265625,-1.014068603515625,-0.020172119140625,-0.032928466796875
1761505921135069200,3.602069091796875,-1.0149383544921875,-0.0213623046875,-0.0328521728515625
1761505921145106200,3.612106201171875,-1.0157928466796875,-0.019989013671875,-0.032958984375
1761505921155143000,3.622142822265625,-1.0146942138671875,-0.0198974609375,-0.033416748046875
1761505921165179100,3.63217919921875,-1.013824462890625,-0.020355224609375,-0.0329132080078125
1761505921175215900,3.6422158203125,-1.0141448974609375,-0.0201873779296875,-0.03271484375
1761505921185253000,3.652253173828125,-1.0139007568359375,-0.020416259765625,-0.0334625244140625
1761505921195289000,3.6622890625,-1.0142059326171875,-0.019866943359375,-0.0325775146484375
1761505921205326000,3.672326171875,-1.014068603515625,-0.019927978515625,-0.0333099365234375
1761505921215363000,3.682363037109375,-1.014129638671875,-0.0196685791015625,-0.033111572265625
1761505921225400000,3.692400146484375,-1.0148162841796875,-0.019744873046875,-0.032958984375
1761505921235436000,3.70243603515625,-1.01495361328125,-0.0204925537109375,-0.0332794189453125
1761505921245473000,3.71247314453125,-1.0148468017578125,-0.0196685791015625,-0.033294677734375
1761505921255510000,3.722510009765625,-1.013916015625,-0.020050048828125,-0.0332794189453125
1761505921265546000,3.7325458984375,-1.0140228271484375,-0.019287109375,-0.0330352783203125
1761505921275583000,3.7425830078125,-1.0140380859375,-0.0200347900390625,-0.0333099365234375
1761505921285620000,3.752619873046875,-1.0142059326171875,-0.0203094482421875,-0.03265380859375
1761505921295656000,3.762656005859375,-1.014373779296875,-0.019287109375,-0.0329742431640625
1761505921305693200,3.772693115234375,-1.0131378173828125,-0.0200653076171875,-0.033355712890625
1761505921315730200,3.782730224609375,-1.01397705078125,-0.02020263671875,-0.033660888671875
1761505921325767200,3.79276708984375,-1.013763427734375,-0.0202484130859375,-0.0332794189453125
1761505921335803100,3.80280322265625,-1.0131378173828125,-0.0195465087890625,-0.033477783203125
1761505921345839900,3.81283984375,-1.01397705078125,-0.019927978515625,-0.032745361328125
1761505921355877000,3.822877197265625,-1.0142822265625,-0.0197296142578125,-0.0330047607421875
1761505921365913000,3.8329130859375,-1.0146331787109375,-0.0190277099609375,-0.0333709716796875
1761505921375950000,3.8429501953125,-1.0130462646484375,-0.0198211669921875,-0.03271484375
1761505921385987000,3.852987060546875,-1.01544189453125,-0.019073486328125,-0.0332489013671875
1761505921396024000,3.863024169921875,-1.014434814453125,-0.019378662109375,-0.032562255859375
1761505921406060000,3.87306005859375,-1.0133819580078125,-0.0205535888671875,-0.0329437255859375
1761505921416097300,3.88309716796875,-1.0139312744140625,-0.0203094482421875,-0.0330657958984375
1761505921426134000,3.893134033203125,-1.0136260986328125,-0.0197601318359375,-0.033447265625
1761505921436170000,3.903169921875,-1.013092041015625,-0.019561767578125,-0.032806396484375
1761505921446207000,3.91320703125,-1.0140228271484375,-0.0193023681640625,-0.032867431640625
1761505921456244000,3.923243896484375,-1.014068603515625,-0.0200042724609375,-0.0335540771484375
1761505921466280000,3.933280029296875,-1.0139312744140625,-0.0201873779296875,-0.032623291015625
1761505921476317200,3.943317138671875,-1.0143280029296875,-0.0196075439453125,-0.03265380859375
1761505921486354200,3.953354248046875,-1.014312744140625,-0.0202789306640625,-0.03350830078125
1761505921496391200,3.96339111328125,-1.0136871337890625,-0.0196990966796875,-0.0331268310546875
1761505921506427100,3.97342724609375,-1.0143890380859375,-0.019561767578125,-0.0328216552734375
1761505921516463900,3.9834638671875,-1.0136566162109375,-0.0200042724609375,-0.0330810546875
1761505921526501000,3.993501220703125,-1.0136871337890625,-0.0200347900390625,-0.0328521728515625
1761505921536537000,4.003537109375,-1.01422119140625,-0.019744873046875,-0.0337677001953125
1761505921546572000,4.013572021484375,-1.0136871337890625,-0.020263671875,-0.032684326171875
1761505921556609300,4.023609375,-1.01373291015625,-0.019287109375,-0.032257080078125
1761505921566646000,4.03364599609375,-1.013153076171875,-0.0201568603515625,-0.0332183837890625
1761505921576682000,4.043681884765625,-1.0139007568359375,-0.0198516845703125,-0.03363037109375
1761505921586719000,4.053718994140625,-1.0132598876953125,-0.0197601318359375,-0.033416748046875
1761505921596756000,4.063755859375,-1.014923095703125,-0.020111083984375,-0.0326995849609375
1761505921606792000,4.0737919921875,-1.0146331787109375,-0.0195770263671875,-0.033294677734375
1761505921616829200,4.0838291015625,-1.0143890380859375,-0.0193939208984375,-0.0331878662109375
1761505921626866200,4.0938662109375,-1.014129638671875,-0.0204315185546875,-0.032928466796875
1761505921636903200,4.103903076171875,-1.0135955810546875,-0.020172119140625,-0.032989501953125
1761505921646939100,4.113939208984375,-1.013031005859375,-0.020050048828125,-0.0325469970703125
1761505921656976000,4.123975830078125,-1.012451171875,-0.02044677734375,-0.0332183837890625
1761505921667013000,4.13401318359375,-1.0140838623046875,-0.0196533203125,-0.0332489013671875
1761505921677049000,4.144049072265625,-1.0137939453125,-0.02008056640625,-0.03271484375
1761505921687086000,4.154086181640625,-1.0145263671875,-0.02020263671875,-0.0328826904296875
1761505921697123000,4.164123046875,-1.0136566162109375,-0.0203399658203125,-0.03271484375
1761505921707159000,4.174158935546875,-1.015625,-0.0206146240234375,-0.0334320068359375
1761505921717196000,4.184196044921875,-1.0147552490234375,-0.0197906494140625,-0.0329742431640625
1761505921727233300,4.1942333984375,-1.014556884765625,-0.01947021484375,-0.0328216552734375
1761505921737269200,4.204269287109375,-1.013519287109375,-0.0196075439453125,-0.033050537109375
1761505921747306000,4.214305908203125,-1.0146636962890625,-0.0194854736328125,-0.0325775146484375
1761505921757343000,4.224343017578125,-1.013397216796875,-0.0201568603515625,-0.0324554443359375
1761505921767379000,4.23437890625,-1.0131378173828125,-0.0196685791015625,-0.03363037109375
1761505921777416000,4.244416015625,-1.01416015625,-0.01934814453125,-0.0328369140625
1761505921787453200,4.254453125,-1.014007568359375,-0.0194244384765625,-0.0336151123046875
1761505921797489200,4.2644892578125,-1.014373779296875,-0.0198211669921875,-0.032958984375
1761505921807526100,4.274526123046875,-1.0144805908203125,-0.0195465087890625,-0.0333404541015625
1761505921817563100,4.284563232421875,-1.0135650634765625,-0.0201263427734375,-0.0331878662109375
1761505921827600100,4.29460009765625,-1.0147247314453125,-0.0201873779296875,-0.0322418212890625
1761505921837636000,4.304635986328125,-1.0152130126953125,-0.020477294921875,-0.0329742431640625
1761505921847673000,4.314673095703125,-1.01446533203125,-0.0197906494140625,-0.03363037109375
1761505921857710000,4.3247099609375,-1.014312744140625,-0.0196533203125,-0.0333709716796875
1761505921867746000,4.33474609375,-1.013946533203125,-0.0199432373046875,-0.0328521728515625
1761505921877783000,4.344782958984375,-1.0140838623046875,-0.0200958251953125,-0.0334320068359375
1761505921887820000,4.354820068359375,-1.0147705078125,-0.02001953125,-0.0320587158203125
1761505921897856000,4.36485595703125,-1.0142974853515625,-0.0200347900390625,-0.0324554443359375
1761505921907893200,4.374893310546875,-1.0140838623046875,-0.0208282470703125,-0.03350830078125
1761505921917930200,4.38493017578125,-1.0142822265625,-0.0200347900390625,-0.0334625244140625
1761505921927966200,4.39496630859375,-1.0135650634765625,-0.01971435546875,-0.03326416015625
1761505921938003000,4.4050029296875,-1.0135650634765625,-0.01947021484375,-0.0330963134765625
1761505921948040000,4.4150400390625,-1.013824462890625,-0.0196075439453125,-0.033050537109375
1761505921958076000,4.425075927734375,-1.013702392578125,-0.0197601318359375,-0.03302001953125
1761505921968113200,4.435113037109375,-1.014251708984375,-0.0204620361328125,-0.032867431640625
1761505921978150100,4.445150146484375,-1.0135498046875,-0.0203704833984375,-0.03277587890625
1761505921988186000,4.45518603515625,-1.013824462890625,-0.02032470703125,-0.0328826904296875
1761505921998223000,4.46522314453125,-1.0139617919921875,-0.0199127197265625,-0.0326690673828125
1761505922008260000,4.475260009765625,-1.01324462890625,-0.0205230712890625,-0.0319976806640625
1761505922018296000,4.485296142578125,-1.01434326171875,-0.02001953125,-0.0332489013671875
1761505922028333300,4.495333251953125,-1.0147705078125,-0.0203399658203125,-0.0336761474609375
1761505922038370300,4.505370361328125,-1.013336181640625,-0.0204010009765625,-0.033294677734375
1761505922048407600,4.515407470703125,-1.0138092041015625,-0.020355224609375,-0.032562255859375
1761505922058443500,4.525443603515625,-1.01434326171875,-0.01971435546875,-0.03363037109375
1761505922068480500,4.53548046875,-1.0140533447265625,-0.020843505859375,-0.0334320068359375
1761505922078517500,4.545517578125,-1.0146484375,-0.020660400390625,-0.0328369140625
1761505922088553500,4.555553466796875,-1.0142822265625,-0.02001953125,-0.0326080322265625
1761505922098590500,4.565590576171875,-1.01458740234375,-0.019805908203125,-0.03271484375
1761505922108627500,4.57562744140625,-1.0149383544921875,-0.01947021484375,-0.0331268310546875
1761505922118665500,4.58566552734375,-1.013336181640625,-0.0206146240234375,-0.033050537109375
1761505922128702500,4.595702392578125,-1.01416015625,-0.020172119140625,-0.0333099365234375
1761505922138738400,4.605738525390625,-1.0147552490234375,-0.020111083984375,-0.03369140625
1761505922148775700,4.615775634765625,-1.0148468017578125,-0.0204925537109375,-0.032623291015625
1761505922158812400,4.6258125,-1.0142669677734375,-0.0199432373046875,-0.033355712890625
1761505922168848600,4.6358486328125,-1.0143585205078125,-0.0201263427734375,-0.0327911376953125
1761505922178885400,4.645885498046875,-1.0134429931640625,-0.020538330078125,-0.0327301025390625
1761505922188922400,4.65592236328125,-1.0145111083984375,-0.0198974609375,-0.0328521728515625
1761505922198958300,4.665958251953125,-1.0142974853515625,-0.01995849609375,-0.0329742431640625
1761505922208995600,4.67599560546875,-1.0138092041015625,-0.0199432373046875,-0.03302001953125
1761505922219032600,4.686032470703125,-1.014404296875,-0.0203704833984375,-0.0333251953125
1761505922229068500,4.696068603515625,-1.0135498046875,-0.0198516845703125,-0.0334320068359375
1761505922239105500,4.70610546875,-1.0139007568359375,-0.020172119140625,-0.03314208984375
1761505922249142500,4.716142578125,-1.014129638671875,-0.0208587646484375,-0.0333404541015625
1761505922259178500,4.726178466796875,-1.0138092041015625,-0.0207366943359375,-0.0332489013671875
1761505922269215500,4.736215576171875,-1.01397705078125,-0.020111083984375,-0.033233642578125
1761505922279252500,4.74625244140625,-1.013427734375,-0.0191650390625,-0.032867431640625
1761505922289288400,4.756288330078125,-1.013336181640625,-0.0200042724609375,-0.033447265625
1761505922299325400,4.766325439453125,-1.01361083984375,-0.0204315185546875,-0.03289794921875
1761505922309362400,4.776362548828125,-1.014404296875,-0.0205841064453125,-0.0326080322265625
1761505922319398400,4.7863984375,-1.01458740234375,-0.0204620361328125,-0.0330352783203125
1761505922329435600,4.796435546875,-1.014373779296875,-0.0200042724609375,-0.033050537109375
1761505922339472600,4.80647265625,-1.0148162841796875,-0.0205230712890625,-0.03271484375
1761505922349508600,4.816508544921875,-1.01495361328125,-0.0199737548828125,-0.032989501953125
1761505922359545300,4.82654541015625,-1.014312744140625,-0.019775390625,-0.0334625244140625
1761505922369582300,4.836582275390625,-1.01416015625,-0.0196533203125,-0.03289794921875
1761505922379618300,4.846618408203125,-1.0144805908203125,-0.019378662109375,-0.0328521728515625
1761505922389655600,4.856655517578125,-1.0143890380859375,-0.0198516845703125,-0.033447265625
1761505922399692500,4.866692626953125,-1.0135955810546875,-0.0198974609375,-0.033447265625
1761505922409728500,4.876728515625,-1.0142974853515625,-0.0192413330078125,-0.033294677734375
1761505922419765500,4.886765625,-1.014801025390625,-0.0201263427734375,-0.0328521728515625
1761505922429802500,4.896802490234375,-1.0143890380859375,-0.0205535888671875,-0.0329132080078125
1761505922439838500,4.90683837890625,-1.01397705078125,-0.0196990966796875,-0.0330352783203125
1761505922449875700,4.916875732421875,-1.0137786865234375,-0.0198974609375,-0.0324554443359375
1761505922459912400,4.926912353515625,-1.0150604248046875,-0.02001953125,-0.0323028564453125
1761505922469948400,4.936948486328125,-1.013671875,-0.01953125,-0.032684326171875
1761505922479985400,4.9469853515625,-1.014984130859375,-0.02044677734375,-0.032867431640625
1761505922490022400,4.9570224609375,-1.0136260986328125,-0.02008056640625,-0.0329437255859375
1761505922500058400,4.967058349609375,-1.0134124755859375,-0.019317626953125,-0.0326690673828125
1761505922510095600,4.977095703125,-1.01409912109375,-0.0198211669921875,-0.0323944091796875
1761505922520132600,4.987132568359375,-1.01446533203125,-0.0205535888671875,-0.0334930419921875
1761505922530168600,4.99716845703125,-1.013671875,-0.01983642578125,-0.033294677734375
1761505922540205600,5.00720556640625,-1.013519287109375,-0.0201568603515625,-0.0325469970703125
1761505922550242300,5.0172421875,-1.014251708984375,-0.019561767578125,-0.0335540771484375
1761505922560278500,5.027278564453125,-1.0125274658203125,-0.020263671875,-0.032318115234375
1761505922570315500,5.0373154296875,-1.012298583984375,-0.020294189453125,-0.033203125
1761505922580352500,5.0473525390625,-1.013946533203125,-0.0208282470703125,-0.0331878662109375
1761505922590388500,5.057388427734375,-1.0147705078125,-0.020416259765625,-0.033477783203125
1761505922600425500,5.067425537109375,-1.0137176513671875,-0.0194854736328125,-0.0328216552734375
1761505922610462500,5.07746240234375,-1.013671875,-0.0205230712890625,-0.0322723388671875
1761505922620498400,5.08749853515625,-1.0135955810546875,-0.019775390625,-0.0330810546875
1761505922630535700,5.09753564453125,-1.014190673828125,-0.01971435546875,-0.0331268310546875
1761505922640572700,5.10757275390625,-1.0138702392578125,-0.020721435546875,-0.03338623046875
1761505922650608600,5.117608642578125,-1.013397216796875,-0.020660400390625,-0.033172607421875
1761505922660645400,5.127645263671875,-1.0145721435546875,-0.01910400390625,-0.032806396484375
1761505922670682400,5.137682373046875,-1.0133819580078125,-0.0203857421875,-0.0334014892578125
1761505922680718300,5.14771826171875,-1.01446533203125,-0.0200042724609375,-0.0331268310546875
1761505922690755300,5.15775537109375,-1.0142364501953125,-0.0195159912109375,-0.033203125
1761505922700792600,5.16779248046875,-1.0135040283203125,-0.0195770263671875,-0.0331878662109375
1761505922710828500,5.17782861328125,-1.014678955078125,-0.0194549560546875,-0.033111572265625
1761505922720865500,5.187865478515625,-1.0147857666015625,-0.0205535888671875,-0.0328216552734375
1761505922730902500,5.197902587890625,-1.014129638671875,-0.0205078125,-0.0327911376953125
1761505922740938500,5.2079384765625,-1.014007568359375,-0.01971435546875,-0.0326690673828125
1761505922750975500,5.2179755859375,-1.014312744140625,-0.0215301513671875,-0.033721923828125
1761505922761012500,5.228012451171875,-1.0140533447265625,-0.0195770263671875,-0.0330657958984375
1761505922771048400,5.23804833984375,-1.0139312744140625,-0.019317626953125,-0.0336456298828125
1761505922781085400,5.24808544921875,-1.0130615234375,-0.02032470703125,-0.033203125
1761505922791122400,5.258122314453125,-1.0136566162109375,-0.0199737548828125,-0.03338623046875
1761505922801158400,5.268158447265625,-1.01446533203125,-0.020965576171875,-0.0330352783203125
1761505922811195400,5.2781953125,-1.0140380859375,-0.019927978515625,-0.0326080322265625
1761505922821232600,5.288232666015625,-1.0137786865234375,-0.01934814453125,-0.0331268310546875
1761505922831268600,5.2982685546875,-1.0135345458984375,-0.0204010009765625,-0.03338623046875
1761505922841305600,5.3083056640625,-1.01336669921875,-0.019500732421875,-0.033203125
1761505922851342300,5.31834228515625,-1.0140380859375,-0.0205078125,-0.0330810546875
1761505922861378300,5.32837841796875,-1.01434326171875,-0.0201416015625,-0.032989501953125
1761505922871415300,5.338415283203125,-1.0140533447265625,-0.0199432373046875,-0.033203125
1761505922881452500,5.34845263671875,-1.013427734375,-0.020751953125,-0.032958984375
1761505922891488500,5.358488525390625,-1.0143890380859375,-0.0204925537109375,-0.0338134765625
1761505922901525500,5.368525390625,-1.014404296875,-0.020538330078125,-0.032440185546875
1761505922911562500,5.3785625,-1.01416015625,-0.019989013671875,-0.0323944091796875
1761505922921598500,5.388598388671875,-1.0138092041015625,-0.0201263427734375,-0.0332183837890625
1761505922931635500,5.398635498046875,-1.0139617919921875,-0.0205230712890625,-0.0330657958984375
1761505922941671400,5.40867138671875,-1.0138702392578125,-0.0198516845703125,-0.03289794921875
1761505922951708700,5.418708740234375,-1.013763427734375,-0.0204010009765625,-0.0333251953125
1761505922961745400,5.428745361328125,-1.01513671875,-0.0206146240234375,-0.03350830078125
1761505922971781400,5.438781494140625,-1.0136566162109375,-0.019744873046875,-0.03326416015625
1761505922981818400,5.448818359375,-1.0147857666015625,-0.01959228515625,-0.03289794921875
1761505922991855400,5.45885546875,-1.013885498046875,-0.019561767578125,-0.0334014892578125
1761505923001891300,5.468891357421875,-1.0138702392578125,-0.019775390625,-0.0332183837890625
1761505923011928600,5.478928466796875,-1.014801025390625,-0.019378662109375,-0.032989501953125
1761505923021965600,5.488965576171875,-1.0141754150390625,-0.0210113525390625,-0.03289794921875
1761505923032001000,5.4990009765625,-1.0149688720703125,-0.0204925537109375,-0.03265380859375
1761505923042038000,5.5090380859375,-1.0144195556640625,-0.0201873779296875,-0.03302001953125
1761505923052075000,5.519074951171875,-1.0142974853515625,-0.0197906494140625,-0.0325469970703125
1761505923062111000,5.529111083984375,-1.0141143798828125,-0.0198516845703125,-0.0327606201171875
1761505923072148000,5.53914794921875,-1.0139312744140625,-0.0201873779296875,-0.0333404541015625
1761505923082184000,5.549183837890625,-1.012969970703125,-0.0204620361328125,-0.0322113037109375
1761505923092221000,5.559220947265625,-1.0130157470703125,-0.0198516845703125,-0.0335540771484375
1761505923102258000,5.5692578125,-1.0135955810546875,-0.0207366943359375,-0.033355712890625
1761505923112294000,5.5792939453125,-1.015228271484375,-0.0197601318359375,-0.0332183837890625
1761505923122331000,5.589330810546875,-1.0137786865234375,-0.01983642578125,-0.0338592529296875
1761505923132368000,5.599367919921875,-1.01373291015625,-0.0201416015625,-0.03338623046875
1761505923142403800,5.60940380859375,-1.0146026611328125,-0.019805908203125,-0.0331878662109375
1761505923152441000,5.619441162109375,-1.014678955078125,-0.0205078125,-0.033721923828125
1761505923162478000,5.62947802734375,-1.01397705078125,-0.019927978515625,-0.03326416015625
1761505923172514000,5.63951416015625,-1.014068603515625,-0.0197906494140625,-0.0321044921875
1761505923182550800,5.64955078125,-1.014129638671875,-0.019775390625,-0.033447265625
1761505923192587800,5.659587890625,-1.0135345458984375,-0.01983642578125,-0.0328369140625
1761505923202623700,5.669623779296875,-1.01361083984375,-0.020111083984375,-0.0331573486328125
1761505923212661000,5.679660888671875,-1.014068603515625,-0.0207672119140625,-0.032867431640625
1761505923222698000,5.689697998046875,-1.0149993896484375,-0.0200347900390625,-0.033172607421875
1761505923232734000,5.69973388671875,-1.014129638671875,-0.0208892822265625,-0.032501220703125
1761505923242771000,5.70977099609375,-1.01416015625,-0.019622802734375,-0.0333404541015625
1761505923252807000,5.719806884765625,-1.01324462890625,-0.0204925537109375,-0.0329132080078125
1761505923262844000,5.729843994140625,-1.0145111083984375,-0.0196685791015625,-0.03277587890625
1761505923272881200,5.739881103515625,-1.014007568359375,-0.0196533203125,-0.0333709716796875
1761505923282917000,5.749917236328125,-1.0141754150390625,-0.0206146240234375,-0.0334930419921875
1761505923292953900,5.759953857421875,-1.014862060546875,-0.0203399658203125,-0.032470703125
1761505923302990800,5.769990966796875,-1.0138702392578125,-0.0198516845703125,-0.032867431640625
1761505923313026800,5.78002685546875,-1.0139007568359375,-0.0193939208984375,-0.0337066650390625
1761505923323063800,5.790063720703125,-1.01495361328125,-0.0193023681640625,-0.033050537109375
1761505923333101000,5.80010107421875,-1.0141754150390625,-0.0193328857421875,-0.0325164794921875
1761505923343137000,5.810136962890625,-1.0145416259765625,-0.0206451416015625,-0.0330047607421875
1761505923353174000,5.820174072265625,-1.014556884765625,-0.020355224609375,-0.0330047607421875
1761505923363210000,5.8302099609375,-1.0139007568359375,-0.0192413330078125,-0.0330352783203125
1761505923373247000,5.8402470703125,-1.0130767822265625,-0.0191802978515625,-0.0332794189453125
1761505923383284000,5.850283935546875,-1.01361083984375,-0.02081298828125,-0.032958984375
1761505923393320000,5.86031982421875,-1.0141448974609375,-0.0202178955078125,-0.0329132080078125
1761505923403357000,5.87035693359375,-1.014617919921875,-0.020416259765625,-0.03277587890625
1761505923413394000,5.880393798828125,-1.0136871337890625,-0.01971435546875,-0.0332489013671875
1761505923423430000,5.890429931640625,-1.014312744140625,-0.0205841064453125,-0.03271484375
1761505923433467000,5.900466796875,-1.0133514404296875,-0.0204315185546875,-0.033355712890625
1761505923443503900,5.91050390625,-1.0140380859375,-0.0197906494140625,-0.0333099365234375
1761505923453539800,5.920539794921875,-1.0140838623046875,-0.0194854736328125,-0.0339813232421875
1761505923463577000,5.9305771484375,-1.0146026611328125,-0.0194091796875,-0.0333709716796875
1761505923473613000,5.940613037109375,-1.01416015625,-0.0203399658203125,-0.0333251953125
1761505923483650000,5.950650146484375,-1.013427734375,-0.0199127197265625,-0.033355712890625
1761505923493687000,5.96068701171875,-1.0135955810546875,-0.020660400390625,-0.03277587890625
1761505923503723000,5.970722900390625,-1.0139617919921875,-0.0201873779296875,-0.033843994140625
1761505923513759700,5.980759765625,-1.0139923095703125,-0.0203399658203125,-0.033355712890625
1761505923523797000,5.990796875,-1.0144195556640625,-0.0202484130859375,-0.0330352783203125
1761505923533833000,6.0008330078125,-1.01385498046875,-0.02069091796875,-0.03277587890625
1761505923543870000,6.010869873046875,-1.0135955810546875,-0.0203399658203125,-0.0330657958984375
1761505923553906000,6.020906005859375,-1.0139007568359375,-0.019317626953125,-0.03350830078125
1761505923563943000,6.03094287109375,-1.01446533203125,-0.020111083984375,-0.032745361328125
1761505923573980000,6.04097998046875,-1.0137939453125,-0.0202178955078125,-0.03277587890625
1761505923584016000,6.051015869140625,-1.0141754150390625,-0.0203094482421875,-0.0334320068359375
1761505923594053000,6.06105322265625,-1.013702392578125,-0.020660400390625,-0.0332794189453125
1761505923604089900,6.07108984375,-1.01434326171875,-0.0200042724609375,-0.0328369140625
1761505923614126000,6.0811259765625,-1.014404296875,-0.0205841064453125,-0.0335693359375
1761505923624162800,6.091162841796875,-1.0143890380859375,-0.020294189453125,-0.0330352783203125
1761505923634198800,6.10119873046875,-1.013702392578125,-0.020843505859375,-0.0328826904296875
1761505923644235800,6.11123583984375,-1.0131072998046875,-0.0197601318359375,-0.03277587890625
1761505923654273000,6.12127294921875,-1.0140533447265625,-0.0202484130859375,-0.0330047607421875
1761505923664309000,6.13130908203125,-1.01422119140625,-0.01995849609375,-0.0336456298828125
1761505923674346000,6.141345947265625,-1.0135650634765625,-0.02020263671875,-0.0327301025390625
1761505923684383000,6.151383056640625,-1.0138092041015625,-0.0202484130859375,-0.03314208984375
1761505923694419000,6.1614189453125,-1.0139923095703125,-0.019866943359375,-0.0335845947265625
1761505923704456000,6.1714560546875,-1.0130767822265625,-0.01995849609375,-0.033447265625
1761505923714492000,6.181491943359375,-1.0140380859375,-0.01971435546875,-0.033111572265625
1761505923724529200,6.191529052734375,-1.0148468017578125,-0.0199432373046875,-0.03228759765625
1761505923734566000,6.20156591796875,-1.01416015625,-0.0196075439453125,-0.03277587890625
1761505923744601900,6.211601806640625,-1.0137786865234375,-0.02020263671875,-0.0333251953125
1761505923754638800,6.221638916015625,-1.0137939453125,-0.0203857421875,-0.0327301025390625
1761505923764674800,6.2316748046875,-1.0135955810546875,-0.0197906494140625,-0.0333099365234375
1761505923774711800,6.2417119140625,-1.013031005859375,-0.0201416015625,-0.03326416015625
1761505923784749000,6.2517490234375,-1.0141143798828125,-0.020538330078125,-0.03375244140625
1761505923794785000,6.261784912109375,-1.01446533203125,-0.019622802734375,-0.0334320068359375
1761505923804822000,6.271822021484375,-1.0143890380859375,-0.019866943359375,-0.03326416015625
1761505923814859000,6.28185888671875,-1.01458740234375,-0.0206451416015625,-0.032806396484375
1761505923824895000,6.29189501953125,-1.0146942138671875,-0.0201416015625,-0.0332183837890625
1761505923834932000,6.301931884765625,-1.0143280029296875,-0.0202484130859375,-0.0330657958984375
1761505923844968000,6.311968017578125,-1.0152587890625,-0.0194854736328125,-0.0323944091796875
1761505923855005000,6.3220048828125,-1.014739990234375,-0.0205230712890625,-0.033172607421875
1761505923865042000,6.3320419921875,-1.013702392578125,-0.0203704833984375,-0.0328369140625
1761505923875078000,6.342077880859375,-1.01324462890625,-0.0189056396484375,-0.03314208984375
1761505923885115000,6.352114990234375,-1.0136871337890625,-0.0191650390625,-0.032562255859375
1761505923895151900,6.36215185546875,-1.0150299072265625,-0.019683837890625,-0.0331268310546875
1761505923905187800,6.372187744140625,-1.0142974853515625,-0.020172119140625,-0.033203125
1761505923915225000,6.38222509765625,-1.014434814453125,-0.0192413330078125,-0.0330963134765625
1761505923925261000,6.392260986328125,-1.0142669677734375,-0.0207366943359375,-0.03363037109375
1761505923935298000,6.402298095703125,-1.014129638671875,-0.0206146240234375,-0.0335693359375
1761505923945334800,6.412334716796875,-1.0130615234375,-0.0190277099609375,-0.032135009765625
1761505923955371000,6.42237109375,-1.014556884765625,-0.0205078125,-0.0330963134765625
1761505923965407700,6.43240771484375,-1.0146331787109375,-0.0200347900390625,-0.033416748046875
1761505923975444000,6.44244384765625,-1.0145263671875,-0.01910400390625,-0.0325469970703125
1761505923985481000,6.45248095703125,-1.013031005859375,-0.020111083984375,-0.032623291015625
1761505923995518000,6.46251806640625,-1.0145111083984375,-0.019927978515625,-0.0326995849609375
1761505924005554000,6.472553955078125,-1.01361083984375,-0.0203857421875,-0.032562255859375
1761505924015591000,6.4825908203125,-1.0138397216796875,-0.019683837890625,-0.033050537109375
1761505924025627000,6.492626953125,-1.014678955078125,-0.019927978515625,-0.03289794921875
1761505924035664000,6.502663818359375,-1.01318359375,-0.01953125,-0.0339813232421875
1761505924045700900,6.512700927734375,-1.0132904052734375,-0.0195770263671875,-0.0334930419921875
1761505924055736800,6.52273681640625,-1.0130462646484375,-0.0199432373046875,-0.0330352783203125
1761505924065773800,6.53277392578125,-1.0133209228515625,-0.020751953125,-0.0331573486328125
1761505924075809800,6.542809814453125,-1.01336669921875,-0.0190887451171875,-0.032989501953125
1761505924085846800,6.5528466796875,-1.0137939453125,-0.0194854736328125,-0.03314208984375
1761505924095883800,6.5628837890625,-1.013336181640625,-0.020904541015625,-0.0331573486328125
1761505924105919700,6.572919677734375,-1.01361083984375,-0.0203094482421875,-0.0335540771484375
1761505924115956700,6.582956787109375,-1.0141754150390625,-0.02032470703125,-0.0324859619140625
1761505924125992700,6.59299267578125,-1.01397705078125,-0.0203399658203125,-0.0325164794921875
1761505924136029700,6.60302978515625,-1.0136871337890625,-0.020111083984375,-0.0324249267578125
1761505924146066700,6.613066650390625,-1.01434326171875,-0.01953125,-0.0328521728515625
1761505924156102700,6.6231025390625,-1.0146636962890625,-0.020355224609375,-0.0329742431640625
1761505924166140000,6.633139892578125,-1.0138702392578125,-0.02032470703125,-0.0321197509765625
1761505924176175900,6.64317578125,-1.0137481689453125,-0.0199737548828125,-0.033447265625
1761505924186212900,6.653212890625,-1.01373291015625,-0.0199737548828125,-0.0335845947265625
1761505924196249600,6.66324951171875,-1.01318359375,-0.0199737548828125,-0.0332183837890625
1761505924206285800,6.673285888671875,-1.013671875,-0.0200347900390625,-0.03302001953125
1761505924216322600,6.683322509765625,-1.0132904052734375,-0.020416259765625,-0.0326080322265625
1761505924226358500,6.693358642578125,-1.013916015625,-0.02044677734375,-0.033203125
1761505924236395800,6.703395751953125,-1.0134735107421875,-0.020477294921875,-0.0333404541015625
1761505924246432800,6.713432861328125,-1.0138397216796875,-0.020599365234375,-0.0336761474609375
1761505924256468700,6.72346875,-1.0142059326171875,-0.02056884765625,-0.0325927734375
1761505924266505700,6.733505615234375,-1.01409912109375,-0.02020263671875,-0.032379150390625
1761505924276541700,6.743541748046875,-1.013824462890625,-0.0202178955078125,-0.03314208984375
1761505924286578700,6.75357861328125,-1.0136566162109375,-0.018798828125,-0.0330352783203125
1761505924296616000,6.763615966796875,-1.0135040283203125,-0.0202789306640625,-0.0333099365234375
1761505924306652000,6.77365185546875,-1.0138092041015625,-0.0203704833984375,-0.03338623046875
1761505924316689000,6.78368896484375,-1.014373779296875,-0.019866943359375,-0.033050537109375
1761505924326724900,6.793724853515625,-1.0148773193359375,-0.0199432373046875,-0.0325927734375
1761505924336761600,6.80376171875,-1.0144500732421875,-0.0197296142578125,-0.032745361328125
1761505924346798600,6.813798583984375,-1.01397705078125,-0.020233154296875,-0.0329132080078125
1761505924356834600,6.82383447265625,-1.01287841796875,-0.0196075439453125,-0.032958984375
1761505924366871800,6.833871826171875,-1.0136566162109375,-0.0200347900390625,-0.032989501953125
1761505924376907800,6.84390771484375,-1.0139007568359375,-0.020050048828125,-0.0330810546875
1761505924386944800,6.85394482421875,-1.0140838623046875,-0.0195159912109375,-0.0331878662109375
1761505924396981800,6.863981689453125,-1.0134735107421875,-0.0199432373046875,-0.0341949462890625
1761505924407017700,6.874017822265625,-1.014068603515625,-0.020172119140625,-0.0338134765625
1761505924417054700,6.8840546875,-1.0135345458984375,-0.0201568603515625,-0.0330352783203125
1761505924427090700,6.894090576171875,-1.0139312744140625,-0.020111083984375,-0.0326080322265625
1761505924437128000,6.9041279296875,-1.0139923095703125,-0.0201873779296875,-0.032806396484375
1761505924447164700,6.91416455078125,-1.0142974853515625,-0.01995849609375,-0.0330963134765625
1761505924457200600,6.92420068359375,-1.0143280029296875,-0.0196533203125,-0.0329132080078125
1761505924467237600,6.934237548828125,-1.01385498046875,-0.0198822021484375,-0.033172607421875
1761505924477273600,6.944273681640625,-1.014739990234375,-0.02069091796875,-0.033203125
1761505924487310600,6.954310546875,-1.0150299072265625,-0.0195770263671875,-0.0334930419921875
1761505924497347800,6.964347900390625,-1.0137481689453125,-0.020050048828125,-0.032379150390625
1761505924507383800,6.9743837890625,-1.013153076171875,-0.0197296142578125,-0.032958984375
1761505924517420800,6.9844208984375,-1.01312255859375,-0.0198974609375,-0.0331268310546875
1761505924527456800,6.994456787109375,-1.0124053955078125,-0.0193634033203125,-0.0324859619140625
1761505924537493800,7.00449365234375,-1.0139923095703125,-0.01983642578125,-0.0327911376953125
1761505924547529700,7.01452978515625,-1.01324462890625,-0.0204620361328125,-0.033233642578125
1761505924557566700,7.024566650390625,-1.01416015625,-0.02099609375,-0.0335693359375
1761505924567603700,7.034603759765625,-1.0129852294921875,-0.0196990966796875,-0.0330963134765625
1761505924577640000,7.044639892578125,-1.0135498046875,-0.020355224609375,-0.0327606201171875
1761505924587676700,7.0546767578125,-1.0146026611328125,-0.0202484130859375,-0.0325469970703125
1761505924597712600,7.064712646484375,-1.0140838623046875,-0.0209197998046875,-0.0325469970703125
1761505924607749600,7.07474951171875,-1.01312255859375,-0.0201263427734375,-0.0330810546875
1761505924617786600,7.08478662109375,-1.0142822265625,-0.0199127197265625,-0.03350830078125
1761505924627822600,7.094822509765625,-1.0135955810546875,-0.020263671875,-0.033355712890625
1761505924637859800,7.10485986328125,-1.0132598876953125,-0.0195770263671875,-0.0330810546875
1761505924647895800,7.114895751953125,-1.0131072998046875,-0.0194091796875,-0.0330352783203125
1761505924657932800,7.124932861328125,-1.0138397216796875,-0.020416259765625,-0.03314208984375
1761505924667968800,7.13496875,-1.0135955810546875,-0.0200958251953125,-0.0326080322265625
1761505924678005800,7.145005859375,-1.013885498046875,-0.02056884765625,-0.0332794189453125
1761505924688042800,7.155042724609375,-1.0135040283203125,-0.0197296142578125,-0.0332489013671875
1761505924698078700,7.16507861328125,-1.014892578125,-0.019317626953125,-0.0334930419921875
1761505924708115700,7.17511572265625,-1.014251708984375,-0.01983642578125,-0.03326416015625
1761505924718151700,7.185151611328125,-1.012969970703125,-0.020355224609375,-0.0318145751953125
1761505924728188700,7.195188720703125,-1.013916015625,-0.0203704833984375,-0.0325927734375
1761505924738225700,7.2052255859375,-1.0137939453125,-0.0205535888671875,-0.0331268310546875
1761505924748261600,7.21526171875,-1.0140838623046875,-0.0194854736328125,-0.0329742431640625
1761505924758298600,7.225298583984375,-1.014068603515625,-0.0200653076171875,-0.032745361328125
1761505924768334600,7.23533447265625,-1.0145111083984375,-0.020233154296875,-0.032745361328125
1761505924778371800,7.245371826171875,-1.0137481689453125,-0.0196990966796875,-0.0330047607421875
1761505924788407800,7.25540771484375,-1.0135955810546875,-0.01959228515625,-0.0330963134765625
1761505924798444800,7.26544482421875,-1.013916015625,-0.020843505859375,-0.0322265625
1761505924808481800,7.275481689453125,-1.014312744140625,-0.019439697265625,-0.0326080322265625
1761505924818517800,7.285517822265625,-1.013885498046875,-0.0198974609375,-0.033233642578125
1761505924828554800,7.2955546875,-1.0140838623046875,-0.0191650390625,-0.03314208984375
1761505924838590700,7.3055908203125,-1.014434814453125,-0.0191192626953125,-0.032684326171875
1761505924848627700,7.315627685546875,-1.01318359375,-0.0196990966796875,-0.0323028564453125
1761505924858663700,7.32566357421875,-1.013702392578125,-0.0198974609375,-0.0325775146484375
1761505924868700700,7.33570068359375,-1.01324462890625,-0.0198822021484375,-0.032684326171875
1761505924878737700,7.345737548828125,-1.0142974853515625,-0.0196990966796875,-0.0331268310546875
1761505924888773600,7.355773681640625,-1.0135955810546875,-0.020111083984375,-0.03326416015625
1761505924898810600,7.365810546875,-1.014129638671875,-0.020294189453125,-0.0331268310546875
1761505924908846600,7.3758466796875,-1.0146026611328125,-0.019378662109375,-0.032928466796875
1761505924918883800,7.3858837890625,-1.0137939453125,-0.019866943359375,-0.032501220703125
1761505924928919800,7.395919921875,-1.0133209228515625,-0.020355224609375,-0.03302001953125
1761505924938956800,7.405956787109375,-1.013671875,-0.0193939208984375,-0.0330810546875
1761505924948993800,7.415993896484375,-1.0132904052734375,-0.019622802734375,-0.032928466796875
1761505924959029800,7.42602978515625,-1.0136566162109375,-0.020263671875,-0.0330657958984375
1761505924969066500,7.43606640625,-1.0139007568359375,-0.0197296142578125,-0.033966064453125
1761505924979103000,7.44610302734375,-1.0147247314453125,-0.0198211669921875,-0.0327911376953125
1761505924989139700,7.4561396484375,-1.0136260986328125,-0.0196075439453125,-0.0336456298828125
1761505924999175700,7.46617578125,-1.0133819580078125,-0.02032470703125,-0.0330352783203125
1761505925009212700,7.476212646484375,-1.0142364501953125,-0.0195465087890625,-0.033355712890625
1761505925019249700,7.486249755859375,-1.013580322265625,-0.0207061767578125,-0.0327606201171875
1761505925029286100,7.4962861328125,-1.0132293701171875,-0.0207977294921875,-0.033416748046875
1761505925039323100,7.5063232421875,-1.0134429931640625,-0.0198974609375,-0.033294677734375
1761505925049359000,7.516359130859375,-1.0146484375,-0.0207366943359375,-0.0329132080078125
1761505925059396000,7.52639599609375,-1.0135345458984375,-0.01922607421875,-0.033111572265625
1761505925069432000,7.53643212890625,-1.01361083984375,-0.018829345703125,-0.0331573486328125
1761505925079469000,7.546468994140625,-1.013702392578125,-0.02008056640625,-0.0328826904296875
1761505925089506000,7.556506103515625,-1.013641357421875,-0.0197906494140625,-0.0329132080078125
1761505925099542000,7.5665419921875,-1.014373779296875,-0.019927978515625,-0.03253173828125
1761505925109579000,7.5765791015625,-1.0132904052734375,-0.0202789306640625,-0.0333099365234375
1761505925119615000,7.586614990234375,-1.0132904052734375,-0.0199127197265625,-0.0332489013671875
1761505925129652000,7.59665185546875,-1.013763427734375,-0.0194549560546875,-0.03375244140625
1761505925139688000,7.60668798828125,-1.0142059326171875,-0.01995849609375,-0.033355712890625
1761505925149725000,7.616724853515625,-1.0142059326171875,-0.0194854736328125,-0.032623291015625
1761505925159762200,7.62676220703125,-1.0137481689453125,-0.0203704833984375,-0.032745361328125
1761505925169798100,7.636798095703125,-1.0143280029296875,-0.0200958251953125,-0.032623291015625
1761505925179835100,7.646835205078125,-1.013885498046875,-0.019683837890625,-0.0329132080078125
1761505925189871000,7.65687109375,-1.01275634765625,-0.0195159912109375,-0.03289794921875
1761505925199908000,7.666908203125,-1.014739990234375,-0.0201263427734375,-0.0327606201171875
1761505925209944000,7.676944091796875,-1.0138397216796875,-0.0196990966796875,-0.0324554443359375
1761505925219981000,7.68698095703125,-1.0134429931640625,-0.0199127197265625,-0.032501220703125
1761505925230017300,7.697017333984375,-1.0140228271484375,-0.0199432373046875,-0.0329132080078125
1761505925240054000,7.707053955078125,-1.0134124755859375,-0.0200347900390625,-0.032745361328125
1761505925250091000,7.717091064453125,-1.0142669677734375,-0.020263671875,-0.0325927734375
1761505925260127000,7.727126953125,-1.0134735107421875,-0.020660400390625,-0.033294677734375
1761505925270164000,7.7371640625,-1.01373291015625,-0.0204925537109375,-0.0328826904296875
1761505925280200000,7.747199951171875,-1.013427734375,-0.0204620361328125,-0.033203125
1761505925290237000,7.75723681640625,-1.0143585205078125,-0.0187835693359375,-0.032928466796875
1761505925300273200,7.767273193359375,-1.013580322265625,-0.0204010009765625,-0.032806396484375
1761505925310310100,7.77731005859375,-1.013031005859375,-0.0206756591796875,-0.0334930419921875
1761505925320346000,7.78734619140625,-1.0135345458984375,-0.019561767578125,-0.03314208984375
1761505925330383000,7.797383056640625,-1.0148773193359375,-0.0205841064453125,-0.0321197509765625
1761505925340420000,7.807420166015625,-1.014190673828125,-0.0208892822265625,-0.0330352783203125
1761505925350456000,7.8174560546875,-1.013671875,-0.020050048828125,-0.033416748046875
1761505925360493000,7.8274931640625,-1.0137481689453125,-0.0210418701171875,-0.033050537109375
1761505925370529300,7.837529296875,-1.01409912109375,-0.0196990966796875,-0.0324554443359375
1761505925380566000,7.84756591796875,-1.01336669921875,-0.01910400390625,-0.033447265625
1761505925390602000,7.85760205078125,-1.0140838623046875,-0.019622802734375,-0.0334930419921875
1761505925400639000,7.867638916015625,-1.014190673828125,-0.0199127197265625,-0.0337677001953125
1761505925410675000,7.877675048828125,-1.013824462890625,-0.0199432373046875,-0.0330352783203125
1761505925420712000,7.8877119140625,-1.0135498046875,-0.020111083984375,-0.0334625244140625
1761505925430749200,7.897749267578125,-1.013702392578125,-0.018768310546875,-0.0330810546875
1761505925440785200,7.90778515625,-1.0151824951171875,-0.0195770263671875,-0.0332489013671875
1761505925450822100,7.917822265625,-1.012908935546875,-0.0197906494140625,-0.03265380859375
1761505925460858000,7.927858154296875,-1.0131378173828125,-0.019622802734375,-0.0323028564453125
1761505925470895000,7.93789501953125,-1.0136566162109375,-0.0200042724609375,-0.0333709716796875
1761505925480931000,7.94793115234375,-1.0137939453125,-0.0200958251953125,-0.032958984375
1761505925490968000,7.957968017578125,-1.0137481689453125,-0.0197296142578125,-0.032989501953125
1761505925501004000,7.968004150390625,-1.013427734375,-0.0198516845703125,-0.0332183837890625
1761505925511041300,7.978041259765625,-1.013458251953125,-0.020416259765625,-0.0339202880859375
1761505925521078000,7.988078125,-1.013885498046875,-0.020538330078125,-0.0333251953125
1761505925531114000,7.998114013671875,-1.0129241943359375,-0.0200347900390625,-0.0338134765625
1761505925541151000,8.00815087890625,-1.0129852294921875,-0.0192108154296875,-0.033416748046875
1761505925551186200,8.018186279296875,-1.014068603515625,-0.019775390625,-0.0331573486328125
1761505925561222100,8.02822216796875,-1.0147857666015625,-0.0208282470703125,-0.032806396484375
1761505925571259100,8.038259033203126,-1.0140838623046875,-0.0198822021484375,-0.03338623046875
1761505925581295000,8.048295166015626,-1.01348876953125,-0.0199432373046875,-0.03314208984375
1761505925591331800,8.058331787109376,-1.0137481689453125,-0.0191497802734375,-0.03271484375
1761505925601368000,8.0683681640625,-1.0141143798828125,-0.0196990966796875,-0.03314208984375
1761505925611405000,8.078405029296874,-1.0142822265625,-0.0197906494140625,-0.033599853515625
1761505925621441000,8.08844091796875,-1.0138092041015625,-0.01922607421875,-0.033477783203125
1761505925631478000,8.09847802734375,-1.0130157470703125,-0.0205841064453125,-0.032806396484375
1761505925641514000,8.108513916015625,-1.0137939453125,-0.02008056640625,-0.03314208984375
1761505925651551000,8.118551025390625,-1.0144805908203125,-0.0192718505859375,-0.032867431640625
1761505925661588000,8.128587890625,-1.0134124755859375,-0.0202789306640625,-0.03338623046875
1761505925671624200,8.138624267578125,-1.014068603515625,-0.0196990966796875,-0.0326690673828125
1761505925681661200,8.1486611328125,-1.0136566162109375,-0.02093505859375,-0.032562255859375
1761505925691697200,8.158697265625,-1.0139617919921875,-0.0204620361328125,-0.03314208984375
1761505925701734100,8.168734130859375,-1.0143890380859375,-0.0198974609375,-0.0327301025390625
1761505925711770000,8.17877001953125,-1.014892578125,-0.0199432373046875,-0.033233642578125
1761505925721807000,8.18880712890625,-1.0145111083984375,-0.018890380859375,-0.0326690673828125
1761505925731843000,8.198843017578126,-1.01416015625,-0.01971435546875,-0.032684326171875
1761505925741880000,8.208880126953124,-1.013641357421875,-0.0196685791015625,-0.033203125
1761505925751916300,8.218916259765624,-1.0138702392578125,-0.0200042724609375,-0.03369140625
1761505925761953000,8.228953125,-1.01416015625,-0.01995849609375,-0.033477783203125
1761505925771989000,8.238989013671874,-1.0142822265625,-0.0203399658203125,-0.0335693359375
1761505925782026000,8.24902587890625,-1.01434326171875,-0.0202484130859375,-0.032470703125
1761505925792063000,8.25906298828125,-1.0140838623046875,-0.019622802734375,-0.033447265625
1761505925802099000,8.269098876953125,-1.013702392578125,-0.0194244384765625,-0.0325164794921875
1761505925812136200,8.27913623046875,-1.0141754150390625,-0.0201263427734375,-0.0330810546875
1761505925822172200,8.289172119140625,-1.013671875,-0.0193634033203125,-0.0331878662109375
1761505925832209200,8.299209228515625,-1.01361083984375,-0.020111083984375,-0.03350830078125
1761505925842245000,8.3092451171875,-1.0137939453125,-0.0203857421875,-0.032867431640625
1761505925852282000,8.3192822265625,-1.01422119140625,-0.020172119140625,-0.0321502685546875
1761505925862318000,8.329318115234376,-1.014129638671875,-0.0204620361328125,-0.0334930419921875
1761505925872355000,8.33935498046875,-1.0133819580078125,-0.019073486328125,-0.03375244140625
1761505925882391000,8.34939111328125,-1.0133056640625,-0.020294189453125,-0.033050537109375
1761505925892428000,8.359427978515624,-1.0129547119140625,-0.02099609375,-0.033599853515625
1761505925902465000,8.369465087890624,-1.0143890380859375,-0.0206451416015625,-0.033935546875
1761505925912501000,8.3795009765625,-1.0135650634765625,-0.019805908203125,-0.03338623046875
1761505925922538000,8.3895380859375,-1.01495361328125,-0.0196075439453125,-0.03289794921875
1761505925932574000,8.399573974609375,-1.0140533447265625,-0.0201263427734375,-0.0332794189453125
1761505925942611000,8.40961083984375,-1.0137481689453125,-0.0207061767578125,-0.03277587890625
1761505925952647000,8.41964697265625,-1.0133819580078125,-0.020416259765625,-0.03265380859375
1761505925962684200,8.42968408203125,-1.0133056640625,-0.0190277099609375,-0.0334014892578125
1761505925972720000,8.43972021484375,-1.012939453125,-0.0204010009765625,-0.03350830078125
1761505925982757000,8.449757080078125,-1.013702392578125,-0.019989013671875,-0.03302001953125
1761505925992793000,8.45979296875,-1.013031005859375,-0.02069091796875,-0.03326416015625
1761505926002830000,8.469830078125,-1.0137176513671875,-0.02032470703125,-0.033111572265625
1761505926012866000,8.479865966796876,-1.01373291015625,-0.0204010009765625,-0.0323638916015625
1761505926022903000,8.489903076171874,-1.0142974853515625,-0.0198516845703125,-0.0329437255859375
1761505926032939000,8.49993896484375,-1.0133209228515625,-0.0199127197265625,-0.0335235595703125
1761505926042976300,8.509976318359374,-1.0138092041015625,-0.019775390625,-0.033172607421875
1761505926053012500,8.520012451171874,-1.01416015625,-0.02008056640625,-0.033233642578125
1761505926063049500,8.530049560546875,-1.014251708984375,-0.020172119140625,-0.0335845947265625
1761505926073086500,8.54008642578125,-1.01312255859375,-0.019378662109375,-0.032867431640625
1761505926083122400,8.550122314453125,-1.013031005859375,-0.0202178955078125,-0.032867431640625
1761505926093159400,8.560159423828125,-1.0145111083984375,-0.0201568603515625,-0.033599853515625
1761505926103195400,8.5701953125,-1.0140380859375,-0.0205535888671875,-0.033355712890625
1761505926113232400,8.580232421875,-1.0139617919921875,-0.019775390625,-0.03314208984375
1761505926123269600,8.59026953125,-1.01458740234375,-0.0195159912109375,-0.0323028564453125
1761505926133305600,8.6003056640625,-1.0145111083984375,-0.019866943359375,-0.0332489013671875
1761505926143342600,8.610342529296876,-1.0133819580078125,-0.020172119140625,-0.0333709716796875
1761505926153378600,8.620378662109376,-1.012786865234375,-0.0194091796875,-0.0329742431640625
1761505926163415600,8.63041552734375,-1.01348876953125,-0.021087646484375,-0.0330047607421875
1761505926173451500,8.640451416015624,-0.98095703125,-0.017669677734375,-0.0442962646484375
1761505926183488300,8.65048828125,-1.0091705322265625,-0.0083770751953125,-0.080902099609375
1761505926193525500,8.660525390625,-1.0644683837890625,-0.0377197265625,0.0495147705078125
1761505926203561500,8.6705615234375,-1.0580902099609375,-0.0316619873046875,0.02471923828125
1761505926213598500,8.680598388671875,-0.9975738525390625,-0.0104827880859375,-0.081451416015625
1761505926223634400,8.690634521484375,-0.9666595458984375,-0.0150909423828125,-0.05157470703125
1761505926233671400,8.70067138671875,-1.03631591796875,-0.024169921875,-0.0144500732421875
