time,seconds_elapsed,z,y,x
1761505917642268400,0.109268310546875,-0.15087971277534962,-0.014318155948817728,0.02296414801273495
1761505917652305400,0.119305419921875,-0.15072481447458266,-0.01604664197554812,0.017689860871620475
1761505917662342400,0.12934228515625,-0.14473814128041265,-0.018684114339668302,0.02525594874434173
1761505917672379100,0.139379150390625,-0.14488602531850336,-0.02222702937722206,0.022863062258437275
1761505917682416000,0.149416015625,-0.14623685540556908,-0.017983765784278512,0.028932993289269505
1761505917692453400,0.159453369140625,-0.14848200398385525,-0.022873035663180052,0.01831164603177458
1761505917702489300,0.1694892578125,-0.14997195028066634,-0.02304448323994875,0.028679639582708475
1761505917712526300,0.1795263671875,-0.13918459880650041,-0.027321557770948857,0.019973222568444908
1761505917722563300,0.189563232421875,-0.15159692113399506,-0.02954473197944462,0.026628515739180146
1761505917732600300,0.199600341796875,-0.1529366453051567,-0.026151564143504946,0.02795015626437962
1761505917742637300,0.20963720703125,-0.15308277577757834,-0.023261432192567735,0.022292824622429906
1761505917752673300,0.21967333984375,-0.15158230808675288,-0.01752221268713474,0.022146584552153945
1761505917762710300,0.229710205078125,-0.1479869139432907,-0.019227098642569034,0.026327012041956185
1761505917772747300,0.239747314453125,-0.15935995635092257,-0.024451153433788567,0.014656155731528996
1761505917782784300,0.2497841796875,-0.1470809050142765,-0.024858839185535907,0.023589805630408228
1761505917792821500,0.259821533203125,-0.14632979438602922,-0.026975922671053556,0.020525705352053045
1761505917802858200,0.269858154296875,-0.15605448506474495,-0.021841518924664703,0.0158166508782655
1761505917812894500,0.27989453125,-0.15320377180874348,-0.02139843306597322,0.021435952064767477
1761505917822931200,0.28993115234375,-0.14182722226977348,-0.023187033515796065,0.017568937905691563
1761505917832968200,0.29996826171875,-0.14302140049040316,-0.02287829636018723,0.020470833359658717
1761505917843005400,0.31000537109375,-0.14271978719532488,-0.02098258227407932,0.0193163295622915
1761505917853042400,0.32004248046875,-0.13793313744068145,-0.01973804383939132,0.017241130723431704
1761505917863079400,0.330079345703125,-0.1466103648930788,-0.01688923027953133,0.01585289123542607
1761505917873115400,0.340115478515625,-0.15678338386118412,-0.02943650409830734,0.022655593520216642
1761505917883152100,0.350152099609375,-0.1430155552715063,-0.021036358287930487,0.01810899959914386
1761505917893189400,0.360189453125,-0.15094459470510482,-0.018585841596964747,0.01953943426106125
1761505917903226400,0.370226318359375,-0.145403327190876,-0.022781119596026838,0.01820453239548951
1761505917913263400,0.380263427734375,-0.14913959110975264,-0.021887239496223627,0.015679397832043467
1761505917923299300,0.39029931640625,-0.14494330846369266,-0.024092604053393005,0.02325458232667297
1761505917933336300,0.40033642578125,-0.14569266552627086,-0.016587690049689262,0.017441913992539047
1761505917943373300,0.410373291015625,-0.15451777701675892,-0.017456198246218264,0.021218034997768698
1761505917953410300,0.420410400390625,-0.14942366874814034,-0.023333072656672445,0.01993880884218961
1761505917963447300,0.430447265625,-0.14343582651019096,-0.019098832620400935,0.02013878839369863
1761505917973484300,0.440484375,-0.13939794929623603,-0.025720570581406352,0.02433634968139231
1761505917983520300,0.450520263671875,-0.15271569603085516,-0.028115064502507447,0.016557386242970824
1761505917993557200,0.46055712890625,-0.14313830486834048,-0.02344489900069311,0.017581578191556035
1761505918003594500,0.470594482421875,-0.14043372208476065,-0.023167671228200196,0.017118819518014788
1761505918013631200,0.48063134765625,-0.14102584275901317,-0.01545534328520298,0.01882810765393078
1761505918023667200,0.490667236328125,-0.1383317813694477,-0.030500808861572293,0.020278562190569935
1761505918033703200,0.500703125,-0.14596154559552668,-0.024890695628523824,0.023032573606446383
1761505918043740200,0.510740234375,-0.13937573746442794,-0.018885646527446804,0.014669088278338313
1761505918053777200,0.520777099609375,-0.14341361467838287,-0.019904778708424418,0.026563451146334408
1761505918063814100,0.530814208984375,-0.1368295601129532,-0.016278459703736006,0.02324318414982408
1761505918073851100,0.54085107421875,-0.1434159527659416,-0.019512199194263665,0.016405008692853152
1761505918083888000,0.55088818359375,-0.130994278088212,-0.020220146534219382,0.019923538207821546
1761505918093924000,0.560924072265625,-0.1389285782188177,-0.022984935072436926,0.01983154907543212
1761505918103961000,0.570961181640625,-0.1384802499294281,-0.023846264609508214,0.02027216898240149
1761505918113998000,0.580998046875,-0.13338497261703014,-0.021089750709291546,0.01636471321508288
1761505918124035000,0.59103515625,-0.1402659643024206,-0.011802958257496356,0.018095519063062965
1761505918134072000,0.601072021484375,-0.14775018257796763,-0.01210650778133422,0.016875987205468117
1761505918144108000,0.61110791015625,-0.1402624571710825,-0.019636556226294486,0.019288747435621915
1761505918154145000,0.62114501953125,-0.13531740198433398,-0.016394889157637954,0.019934936384670435
1761505918164182300,0.631182373046875,-0.13665771067738533,-0.017054997034184633,0.01685191221013665
1761505918174219000,0.641218994140625,-0.14324293428659438,-0.018587723026797176,0.015709756437689064
1761505918184256000,0.651256103515625,-0.1448760884463787,-0.017500950703397394,0.0168981625046581
1761505918194292000,0.6612919921875,-0.12751286571323872,-0.024096366913057863,0.013304339263774454
1761505918204329000,0.671328857421875,-0.142165660443902,-0.021710421624593437,0.015295586146228014
1761505918214366200,0.6813662109375,-0.14052140036821364,-0.015758363086078316,0.01925952134113759
1761505918224403200,0.6914033203125,-0.14006898042559623,-0.015258103680051862,0.012617124184593558
1761505918234440200,0.701440185546875,-0.13736732025146484,-0.030344723250716923,0.013488025267608462
1761505918244477000,0.711476806640625,-0.14514321494996546,-0.02128704511336982,0.01823719255607575
1761505918254513200,0.72151318359375,-0.13795301118493078,-0.022272366356290877,0.015225991508737206
1761505918264550100,0.731550048828125,-0.14692600671350955,-0.017949717384204266,0.013886450000666082
1761505918274587100,0.741587158203125,-0.14317512974739074,-0.02543181676790118,0.020781689407117665
1761505918284624100,0.7516240234375,-0.13927987587451934,-0.02489296065084636,0.012884725612215696
1761505918294661000,0.7616611328125,-0.14436463179290293,-0.01863813803978264,0.011992270284518599
1761505918304697000,0.771697021484375,-0.13552899890840053,-0.021710001499485224,0.01056804616767913
1761505918314734300,0.781734375,-0.1394078861683607,-0.019880320120602844,0.012526121432892978
1761505918324771000,0.79177099609375,-0.13880115244686603,-0.019669143321644513,0.012640724255889654
1761505918334808000,0.80180810546875,-0.14014204566180705,-0.016751136983092874,0.012645181235298513
1761505918344845000,0.811844970703125,-0.1444797826051712,-0.02229238623101264,0.015080262895114719
1761505918354882000,0.821882080078125,-0.1369979024171829,-0.02233417954612523,0.016438362973183393
1761505918364918000,0.83191796875,-0.1338525901287794,-0.025582550350204108,0.009604059973731637
1761505918374955300,0.841955322265625,-0.1378957280397415,-0.01701303932229057,0.014454678342677652
1761505918384992000,0.851991943359375,-0.14043898278176783,-0.024298574954271315,0.012776844790950417
1761505918395029000,0.862029052734375,-0.13984277045428753,-0.023982202481478452,0.017693989057466386
1761505918405066000,0.87206591796875,-0.13684475768208504,-0.013664660476148128,0.018209464298933744
1761505918415102000,0.88210205078125,-0.13489888431131838,-0.01911386579275131,0.011564436793886124
1761505918425139200,0.89213916015625,-0.14043722921609877,-0.018402283457294104,0.009452705336920917
1761505918435176200,0.90217626953125,-0.15001111324727534,-0.026761786730028686,0.011756233038939535
1761505918445213200,0.912213134765625,-0.14148001626729964,-0.025753523002937435,0.014334522561728954
1761505918455250000,0.92225,-0.13383797708153725,-0.022200123103987425,0.01735368771981448
1761505918465286100,0.9322861328125,-0.1356301211953163,-0.020462832716293632,0.012106178987771271
1761505918475323100,0.9423232421875,-0.12395605001449585,-0.018836345759313554,0.012580664631724357
1761505918485360000,0.952360107421875,-0.14520049809515476,-0.011955774199031292,0.017392704555951058
1761505918495397000,0.962397216796875,-0.14295125786364077,-0.015935929876379668,0.011623181243799626
1761505918505434000,0.97243408203125,-0.13547054671943187,-0.014728088456578551,0.009098959995806217
1761505918515471000,0.98247119140625,-0.14130056804716587,-0.025604122861195355,0.010046908370405436
1761505918525507300,0.99250732421875,-0.13306816175282002,-0.023498857677634804,0.012591441754065453
1761505918535544000,1.0025439453125,-0.1432470259398222,-0.0195309952262789,0.016840221772342918
1761505918545581000,1.0125810546875,-0.14175181894600392,-0.027109321526065468,0.013100596852600574
1761505918555618000,1.0226181640625,-0.13950608584582805,-0.028361769272573292,0.010774601590447127
1761505918565655000,1.032655029296875,-0.1281318743944168,-0.013458817439433186,0.012921769686974584
1761505918575691300,1.042691162109375,-0.1312730950295925,-0.01375480471132323,0.012953954923525452
1761505918585728300,1.052728271484375,-0.13710603896677492,-0.022226371790096164,0.015380780211649835
1761505918595765000,1.062764892578125,-0.13650047428905962,-0.026572273773606866,0.010096665796265005
1761505918605802000,1.072802001953125,-0.133351654869318,-0.017683851255942136,0.00815258252378553
1761505918615839000,1.0828388671875,-0.1369423728376627,-0.026099760891031474,0.004721913955360651
1761505918625875000,1.092875,-0.1432329974144697,-0.028186065645795313,0.012670644470117986
1761505918635912200,1.102912109375,-0.14323007480502128,-0.01638615786191076,0.017520970578119157
1761505918645949200,1.11294921875,-0.14009469938874244,-0.022108060906361787,0.011239442623220384
1761505918655986200,1.122986083984375,-0.13515782750844954,-0.016931918643787503,0.01010594508126378
1761505918666023000,1.13302294921875,-0.13231705112457276,-0.015610862640477716,0.010033391301706433
1761505918676060200,1.14306005859375,-0.12843056508004663,-0.021523557282984256,0.012670059948228299
1761505918686096100,1.15309619140625,-0.14114742331206798,-0.018245193199440835,0.016937690797448158
1761505918696133000,1.163133056640625,-0.14024784412384034,-0.018316888462472706,0.018054748661257326
1761505918706170000,1.173170166015625,-0.13411679402291773,-0.016146741349156946,0.014989114012941717
1761505918716207000,1.18320703125,-0.13935820180773734,-0.016572602078411727,0.016589936805702744
1761505918726244000,1.193244140625,-0.13741408200263977,-0.021848460122104733,0.008176036464609205
1761505918736280300,1.2032802734375,-0.13861293639838695,-0.023310659895464776,0.005357325782068073
1761505918746317000,1.213317138671875,-0.13412380828559398,-0.01574963179035112,0.012278430282138287
1761505918756354000,1.22335400390625,-0.13786416385769842,-0.015521357726119457,0.00788666159659624
1761505918766391000,1.23339111328125,-0.14413900634348392,-0.020377309857308862,0.015128522483631968
1761505918776428300,1.24342822265625,-0.13545827175974845,-0.018143632521107792,0.014246442419476806
1761505918786464300,1.25346435546875,-0.14264204578399658,-0.02082392111364752,0.008585019124299287
1761505918796501200,1.263501220703125,-0.13366729668974875,-0.02069965541316196,0.015216602625884115
1761505918806538000,1.2735380859375,-0.14130115256905554,-0.009675006318092346,0.010135536501929164
1761505918816575000,1.283574951171875,-0.14354571662545204,-0.010912932348903268,0.012182203366048633
1761505918826612000,1.293612060546875,-0.12798048322498798,-0.01176591418273747,0.017004034031927583
1761505918836649200,1.303649169921875,-0.14638123231232164,-0.02114911621371284,0.0066755322411656375
1761505918846685200,1.313685302734375,-0.1457820973753929,-0.012624741235468535,0.015265410203672945
1761505918856722200,1.32372216796875,-0.1430856978982687,-0.01919047469291836,0.019203078446164725
1761505918866759200,1.33375927734375,-0.14053835150301455,-0.02078888633288443,0.007104425177723169
1761505918876796000,1.3437958984375,-0.14621931974887847,-0.024188538708537814,0.01036956445351243
1761505918886833200,1.353833251953125,-0.1436772340506315,-0.02218949211211875,0.011897431607916951
1761505918896869000,1.363869140625,-0.1396440330117941,-0.02016333831306547,0.016628661380894482
1761505918906906000,1.373906005859375,-0.14069617241322993,-0.01833736499492079,0.014049166281707584
1761505918916943000,1.383943115234375,-0.14024725960195064,-0.018801438842713833,0.010318820646964013
1761505918926980000,1.39397998046875,-0.14697978272736073,-0.019356606773752717,0.01191240998134017
1761505918937017000,1.40401708984375,-0.14055062646269798,-0.018117055041436105,0.011892426639236509
1761505918947053300,1.41405322265625,-0.14279285243153572,-0.019504837871715426,0.015443141390755772
1761505918957090000,1.424090087890625,-0.1258838032066822,-0.019790870005171744,0.01663026881609112
1761505918967127000,1.434126953125,-0.1405535490721464,-0.018940719449240712,0.011495317080430686
1761505918977164000,1.4441640625,-0.14399229134917257,-0.02134885830320418,0.010361454212293028
1761505918987201300,1.454201171875,-0.14159399803578854,-0.02490348204486072,0.008572634566761553
1761505918997237200,1.4642373046875,-0.14293898290395735,-0.03286105345319956,0.010627923128753899
1761505919007274200,1.474274169921875,-0.12901742505729197,-0.027532040450163185,0.015962927481159565
1761505919017311000,1.48431103515625,-0.14112579600214958,-0.018896989905368537,0.01219425913002342
1761505919027348000,1.494347900390625,-0.14845160884559153,-0.015250687558576463,0.010710231117345393
1761505919037385000,1.504385009765625,-0.13738427138626574,-0.02270851101754233,0.008614281751401722
1761505919047421000,1.5144208984375,-0.12780863378942012,-0.01657768011232838,0.014351254500821232
1761505919057458200,1.524458251953125,-0.1438134276509285,-0.022087657439149914,0.01429481160584837
1761505919067495200,1.5344951171875,-0.14186521619260312,-0.021684757460374383,0.010413367062620818
1761505919077532200,1.5445322265625,-0.14202128353714943,-0.018778770353179423,0.013697247571498155
1761505919087569000,1.55456884765625,-0.13229425477087497,-0.018614738897886125,0.013983626764826475
1761505919097606100,1.564606201171875,-0.12945055577754974,-0.01932117013419047,0.005717756592296064
1761505919107642000,1.57464208984375,-0.1394733526200056,-0.01838555151820183,0.011732742565497755
1761505919117679000,1.58467919921875,-0.1328857909232378,-0.020609474645368754,0.00600464724227786
1761505919127716000,1.594716064453125,-0.14380992051959038,-0.025192601184546946,0.016240831107087433
1761505919137753000,1.604753173828125,-0.1397743813931942,-0.011034677298739552,0.008250636070780455
1761505919147790000,1.6147900390625,-0.13887363316118717,-0.021744232562649995,0.012393508029170334
1761505919157826300,1.624826416015625,-0.14471008422970771,-0.013583284069318323,0.016046148785203693
1761505919167863000,1.634863037109375,-0.13752864829301834,-0.0151675575860776,0.017998598027229307
1761505919177900000,1.644900146484375,-0.13827683631181717,-0.0146787876884453,0.008401186989992857
1761505919187937000,1.65493701171875,-0.14845219336748122,-0.009318740226328372,0.012741700412333011
1761505919197974000,1.66497412109375,-0.14560498724281787,-0.012867701412178575,0.00699358521439135
1761505919208010000,1.675010009765625,-0.14978841040730476,-0.023836291204765436,0.01117116315998137
1761505919218047200,1.685047119140625,-0.1455950503706932,-0.02136493265517056,0.007665748854912817
1761505919228084000,1.695083984375,-0.1409551156103611,-0.01755406913012266,0.00639525399506092
1761505919238121000,1.705120849609375,-0.14365502221882342,-0.02107667203200981,0.014335289746709168
1761505919248158000,1.715157958984375,-0.14753917017579077,-0.017620083571039138,0.009204721925221383
1761505919258194000,1.72519384765625,-0.15083061293661593,-0.004947484605852514,0.00896970759294927
1761505919268231200,1.735231201171875,-0.14903496169149874,-0.03137972885426134,0.018603322454728184
1761505919278268200,1.74526806640625,-0.13825988517701626,-0.01878523662658408,0.016756598609499632
1761505919288305200,1.75530517578125,-0.15068039081096649,-0.02371673821201548,0.012218480255827308
1761505919298342000,1.765341796875,-0.13781097236573694,-0.01612536976756528,0.020745193321630356
1761505919308377900,1.7753779296875,-0.14618424843549727,-0.016499007119238376,0.009818579507246614
1761505919318415000,1.7854150390625,-0.14199030387699604,-0.01730069715725258,0.010634024075977504
1761505919328452000,1.7954521484375,-0.14168459892868995,-0.013601733041461556,0.01016724681444466
1761505919338489000,1.805489013671875,-0.1430325064063072,-0.016393354787677526,0.016009068177826703
1761505919348526000,1.815526123046875,-0.1457213070988655,-0.01156454639174044,0.017047617445327342
1761505919358562000,1.82556201171875,-0.14347966565191744,-0.014938443271629511,0.0072235580453649155
1761505919368599300,1.835599365234375,-0.14527005620002745,-0.016244630499370395,0.006447422573715448
1761505919378636000,1.845635986328125,-0.14391513445973395,-0.023385131637472658,-0.0027929186541587113
1761505919388673000,1.855673095703125,-0.1470546015292406,-0.02324930336335674,0.00692161595672369
1761505919398709000,1.865708984375,-0.1489969677686691,-0.024169779209140686,0.007588409302383661
1761505919408746000,1.87574609375,-0.14630232185721395,-0.020388982028793544,0.002902954899892211
1761505919418783000,1.885782958984375,-0.15199381149709223,-0.016812036857474594,0.0054634895702824
1761505919428820200,1.8958203125,-0.1457078630954027,-0.02050495482496917,0.006438545147515833
1761505919438857000,1.90585693359375,-0.13643091618418693,-0.022415227159392086,0.004653269165940582
1761505919448893200,1.91589306640625,-0.14046879339814186,-0.023398283379990607,0.005525229694880545
1761505919458930000,1.925929931640625,-0.1482563785344362,-0.01971575894234702,0.007840265171602369
1761505919468967000,1.935966796875,-0.1385316878557205,-0.024141941354144363,0.006650945789180696
1761505919479004200,1.946004150390625,-0.14527064072191714,-0.026057109059393405,0.01144066428374499
1761505919489041200,1.956041259765625,-0.14631518133878707,-0.017034356104955076,0.005790091176144778
1761505919499077000,1.9660771484375,-0.1537947234392166,-0.01901791287129745,0.004017820806615054
1761505919509114000,1.976114013671875,-0.1404798993140459,-0.018981855177227405,0.011421411594003438
1761505919519150800,1.98615087890625,-0.13853577950894833,-0.015174663180299102,0.009458039099164307
1761505919529188000,1.99618798828125,-0.14616788182258605,-0.01615419400325045,0.011466675507836043
1761505919539225000,2.00622509765625,-0.14706570744514463,-0.01789363981541246,0.0008262582236900926
1761505919549261000,2.016260986328125,-0.13494856867194174,-0.01524053149074316,0.014771598804742096
1761505919559298000,2.026298095703125,-0.14213409626185894,-0.025169092444796114,0.01077536877542734
1761505919569335000,2.0363349609375,-0.1424322024255991,-0.02408467647526413,0.011461378278210758
1761505919579372300,2.046372314453125,-0.1496124693185091,-0.01659773651966825,0.012205365045927464
1761505919589409000,2.056408935546875,-0.14766191977262497,-0.018828929637838155,0.00831142634730786
1761505919599445000,2.066445068359375,-0.14706103127002715,-0.020528956755064425,0.017474318424798546
1761505919609482000,2.07648193359375,-0.15364625487923622,-0.007954539201036096,0.013372253400832413
1761505919619519000,2.08651904296875,-0.14840484709441662,-0.032142438588757066,0.010090710979513823
1761505919629556200,2.09655615234375,-0.15109072517752647,-0.028286000622622667,0.005924458145536482
1761505919639592200,2.10659228515625,-0.14780220502614974,-0.010336465901508926,0.010811536067351699
1761505919649629200,2.116629150390625,-0.14390636663138864,-0.015624872899521141,0.016599143025465307
1761505919659666200,2.126666259765625,-0.15078677379488944,-0.005076444747764617,0.007931194858066737
1761505919669703000,2.136702880859375,-0.14031214153170585,-0.017439448040816933,0.008795410471968352
1761505919679740000,2.146739990234375,-0.14389935236871243,-0.019249730599485336,0.009589118132926523
1761505919689776000,2.156776123046875,-0.1488362242490053,-0.014837759376130997,0.008613039642386138
1761505919699813000,2.166813232421875,-0.1452414146274328,-0.015106347184441983,0.013881371966749429
1761505919709850000,2.17685009765625,-0.14045301130712032,-0.014764164416957645,0.009826434020139276
1761505919719887000,2.18688720703125,-0.14793722958266733,-0.014701456177979707,0.005966251460649072
1761505919729923800,2.196923828125,-0.1447936708599329,-0.011439933631382881,0.0038483459912240503
1761505919739960000,2.2069599609375,-0.1313216103464365,-0.01803407119940966,0.005662628871574997
1761505919749997000,2.2169970703125,-0.13835165511369704,-0.02642776900269091,0.005592924636229873
1761505919760034000,2.227033935546875,-0.14538286892473698,-0.015416417780611664,0.0014489201666787266
1761505919770071000,2.237071044921875,-0.1459820038616657,-0.019424045986775308,0.002722776027396321
1761505919780107000,2.24710693359375,-0.14328501986265182,-0.02076099367896095,0.00531260985750705
1761505919790144000,2.25714404296875,-0.15240999108254907,-0.018268062618374825,0.004115655157901347
1761505919800181200,2.26718115234375,-0.15345803883075712,-0.020245682834275067,0.004527706557512283
1761505919810218000,2.277218017578125,-0.14956629208922384,-0.02434371100394055,0.00923245018236339
1761505919820255000,2.2872548828125,-0.14612404268085954,-0.014755104327667504,0.009806194949708878
1761505919830291000,2.297291015625,-0.1405880358636379,-0.009227079887501894,0.011924794538877903
1761505919840328000,2.307327880859375,-0.1476169115871191,-0.009705054396484046,0.011517930771037936
1761505919850365200,2.317365234375,-0.1488105052858591,-0.012111056092288344,0.013964922064356506
1761505919860402200,2.327402099609375,-0.14970599282085895,-0.012818090116791426,0.005263217757828533
1761505919870438100,2.337438232421875,-0.15449088900983332,-0.013852365067973733,0.008974201104976237
1761505919880475100,2.34747509765625,-0.15359072529971599,-0.009738792269304394,0.008120397287234663
1761505919890512000,2.357511962890625,-0.15299568201601504,-0.02043947010701522,0.0025751842502504587
1761505919900549000,2.367549072265625,-0.14641162745058536,-0.007668123475089669,0.0026031682357192036
1761505919910585000,2.377585205078125,-0.15149579884707925,-0.016283647335506975,0.008965689004957676
1761505919920622000,2.3876220703125,-0.15313830535709858,-0.02476732497718185,0.007639189641550183
1761505919930659000,2.3976591796875,-0.14580664729475973,-0.016970405756961553,-0.0004986702371388673
1761505919940696000,2.407696044921875,-0.14236556693017482,-0.013226305591501295,0.006234729671105742
1761505919950733300,2.4177333984375,-0.14969430238306522,-0.01714179853480309,0.00803754130937159
1761505919960769300,2.427769287109375,-0.1495429112136364,-0.015392872508242726,0.007858823741599918
1761505919970806000,2.437805908203125,-0.1469984874278307,-0.019324878194928168,0.004485840177163481
1761505919980843000,2.447843017578125,-0.1454980197370052,-0.005022577402368188,0.003646101417392492
1761505919990880000,2.4578798828125,-0.1447451555430889,-0.020516170338727532,-0.0034049130726605654
1761505920000916000,2.467916015625,-0.14265256717801092,-0.022077318708226084,0.008880275743827224
1761505920010953000,2.477952880859375,-0.1375695648252964,-0.010366751441918313,0.004958279994502664
1761505920020990200,2.487990234375,-0.1462491303652525,-0.009487393057812005,-0.0025543241253122686
1761505920031028200,2.4980283203125,-0.15178221457302568,-0.014957896890770643,0.00292239025272429
1761505920041064200,2.508064208984375,-0.15327917513251305,-0.020848580630868672,0.004142798893153667
1761505920051101200,2.51810107421875,-0.1474427240639925,-0.009432502799108624,0.0005126256972551345
1761505920061138200,2.52813818359375,-0.14788929878771304,-0.006078077804669737,-0.006330116336978972
1761505920071175400,2.538175537109375,-0.1420522631973028,-0.013214761284179985,0.011804638757929205
1761505920081212200,2.548212158203125,-0.14025836551785467,-0.025359683113452047,0.004395385414734483
1761505920091248400,2.558248291015625,-0.15208032073676586,-0.01811539280731231,-0.0031161592591553923
1761505920101285000,2.56828515625,-0.1499824716746807,-0.010892145289201289,0.006894289558380842
1761505920111322000,2.578322021484375,-0.14669453604519367,-0.01027931062048301,0.010899689274840056
1761505920121359400,2.588359375,-0.14655191270411014,-0.009282152809295802,0.015690722943656147
1761505920131395300,2.598395263671875,-0.14969254881739616,-0.016905450761970132,0.0011196151470765471
1761505920141432300,2.608432373046875,-0.14819500373601913,-0.014140022902935742,-0.002786123587191105
1761505920151469300,2.61846923828125,-0.14788754522204398,-0.012938300696667283,-0.004369301125407218
1761505920161506000,2.628506103515625,-0.14130465970039366,-0.016896043612807988,-0.0004945785839110613
1761505920171542300,2.638542236328125,-0.1540256095856428,-0.01940470196548849,-0.00001651274338364601
1761505920181579300,2.648579345703125,-0.14863514871895311,-0.013521142085921018,0.004881817224808037
1761505920191616300,2.6586162109375,-0.15012451049387454,-0.012861436068173497,-0.00007364975810050964
1761505920201653200,2.6686533203125,-0.14563304429352283,-0.011811835683695971,0.0010550985435023904
1761505920211689200,2.678689208984375,-0.14234101701080798,-0.012128208156488835,0.005992993337102234
1761505920221726200,2.688726318359375,-0.15251520502269267,-0.01037314465008676,0.009272124605625867
1761505920231763200,2.69876318359375,-0.1522176833808422,-0.017603388164564967,0.007861088763922452
1761505920241800200,2.70880029296875,-0.1535638372927904,-0.016447039469983427,0.004572312884218991
1761505920251837200,2.718837158203125,-0.14578560450673103,-0.027717132959794253,0.004911737439036369
1761505920261873200,2.728873046875,-0.14129355378448963,-0.017569157101400196,0.0008584434602409601
1761505920271910100,2.73891015625,-0.13964754014313221,-0.018389515307266263,0.007549319401010871
1761505920281947100,2.748947021484375,-0.15595862347483633,-0.015926723656617105,0.011271993185952305
1761505920291983000,2.758983154296875,-0.14369535422921179,-0.02048752876613289,0.00769581519961357
1761505920302020400,2.769020263671875,-0.14055062646269798,-0.014695903220027685,0.002411371990665793
1761505920312057300,2.779057373046875,-0.15042203213572503,-0.010121781971212477,0.01144687482882291
1761505920322094000,2.789093994140625,-0.14038988294303417,-0.015408143142610787,-0.0033945743417367336
1761505920332131000,2.799131103515625,-0.1409890178799629,-0.020214100385922938,0.009212905231676996
1761505920342167000,2.8091669921875,-0.13799568128287792,-0.01693407406825572,-0.0014277312481775879
1761505920352204300,2.819204345703125,-0.1550543681114912,-0.010478029796667397,0.012775566149316728
1761505920362241300,2.8292412109375,-0.1505664090424776,-0.004385320678446441,0.015518800442852079
1761505920372278300,2.8392783203125,-0.13724515517652033,-0.016933471280056983,0.010176051175408065
1761505920382314200,2.849314208984375,-0.15220716198682785,-0.017353194529470057,0.006751008630171418
1761505920392351200,2.859351318359375,-0.14876783518791198,-0.017715908628329634,0.0014588205061852931
1761505920402388200,2.86938818359375,-0.1508674378156662,-0.010259473408851772,0.006315905148535967
1761505920412425200,2.87942529296875,-0.14503040222525596,-0.014372187690995632,0.003700133159570396
1761505920422461200,2.889461181640625,-0.14936989273428916,-0.013508045142330229,0.009701419400982559
1761505920432498200,2.899498291015625,-0.14846972902417183,-0.02173257865747437,0.007387991359457374
1761505920442535200,2.90953515625,-0.14427403090000152,-0.019045842057839036,0.00632065438888967
1761505920452571100,2.919571044921875,-0.15116086780428886,-0.012682590636238455,-0.0012500731263309717
1761505920462608400,2.9296083984375,-0.14622574948966502,-0.019650694349501282,0.010330218823812902
1761505920472645400,2.939645263671875,-0.14413140755891798,-0.017064458982273937,0.01181216447725892
1761505920482682000,2.94968212890625,-0.15459785651564598,-0.0170925890982151,0.006048632514476775
1761505920492718300,2.95971826171875,-0.14531740247309208,-0.014584369136951863,0.0008993965251371264
1761505920502755000,2.969755126953125,-0.14979834727942942,-0.01227439342783764,-0.0003505304707214236
1761505920512792300,2.979792236328125,-0.15398410853147507,-0.012508092585857956,-0.002067892315238714
1761505920522829300,2.989829345703125,-0.1473983004003763,-0.020190920439735055,0.003883892228640616
1761505920532865300,2.999865234375,-0.14575111771523952,-0.02256006072387099,-0.0018502309765666722
1761505920542902300,3.00990234375,-0.1488888312190771,-0.011057674581836908,0.0029679829601198435
1761505920552939300,3.019939208984375,-0.14424597384929655,-0.013475001389253883,0.0052535731466487046
1761505920562976000,3.02997607421875,-0.14439444240927696,-0.017160028311237693,0.00398998295161873
1761505920573012200,3.04001220703125,-0.13676935435831547,-0.01638988418895751,0.0059682607546448704
1761505920583049200,3.05004931640625,-0.13767302519977093,-0.007660141098033636,0.003862776375375688
1761505920593086200,3.060086181640625,-0.149345927336812,-0.009761625155620277,0.006437887560389936
1761505920603123200,3.070123291015625,-0.15472937394082545,-0.014285130462050438,0.0018728811997920274
1761505920613159200,3.0801591796875,-0.14754910704791546,-0.022107531183399257,0.003606938450783491
1761505920623196200,3.090196044921875,-0.14664718977212904,-0.014669599734991788,0.00964519570171833
1761505920633233400,3.1002333984375,-0.14799217464029787,-0.021557295155804602,0.005859576215781271
1761505920643270100,3.110270263671875,-0.1485930631428957,-0.014163677773158996,-0.001896810064651072
1761505920653306400,3.120306396484375,-0.15248247179687022,-0.007173508358560502,0.0025791663056239484
1761505920663343000,3.130343017578125,-0.15053893651366232,-0.010743293136730789,-0.000663943801447749
1761505920673380000,3.140380126953125,-0.15038812986612318,-0.024174912041984496,0.012152319684438407
1761505920683417300,3.150417236328125,-0.1351210026293993,-0.014520985044538973,0.019021949725598095
1761505920693453300,3.160453369140625,-0.14036065684854984,-0.0037230573774315414,0.00516260692756623
1761505920703490300,3.170490234375,-0.134379244351387,-0.011658764013834297,0.0009448796346783637
1761505920713527300,3.18052734375,-0.14201485379636286,-0.02164678180385381,0.009425634666904806
1761505920723563300,3.190563232421875,-0.15892974824011324,-0.01131955865472555,-0.0027563860360532997
1761505920733600300,3.200600341796875,-0.1505529650390148,0.0010274981505237518,0.002834711969271302
1761505920743637200,3.21063720703125,-0.14980945319533348,-0.013714728429261594,0.0038322716392576693
1761505920753674200,3.22067431640625,-0.14831424620151518,-0.020506050803512334,0.005903598020598292
1761505920763710200,3.230710205078125,-0.14726269132196904,-0.01883011694792658,0.004569792133569717
1761505920773747200,3.240747314453125,-0.1462134745299816,-0.019067195373121647,0.0044866438947618005
1761505920783784200,3.2507841796875,-0.14486848966181276,-0.011085877763014286,0.0055599722146987916
1761505920793821400,3.260821533203125,-0.14621581261754035,-0.018155085496883838,-0.002333667111955583
1761505920803857400,3.270857421875,-0.1394821204483509,-0.02069828543998301,0.00394238095022738
1761505920813894100,3.28089404296875,-0.13574234939813612,-0.013905775755643843,0.005743402490206062
1761505920823931100,3.29093115234375,-0.149659231069684,-0.007615827032271772,0.010464512727968394
1761505920833967000,3.300967041015625,-0.1489098740071058,-0.010553962843399494,0.00800824214965105
1761505920844004000,3.311004150390625,-0.1465133342593908,-0.008557071671448648,-0.00032229075692594047
1761505920854041300,3.321041259765625,-0.14426760115921497,-0.01635968998009339,0.006076251173764467
1761505920864078300,3.331078369140625,-0.13692659074664115,-0.022626842349767685,-0.00397931542713195
1761505920874114300,3.3411142578125,-0.14695406376421452,-0.019937986858282238,0.004675480997748673
1761505920884151300,3.3511513671875,-0.1496469561100006,-0.014171623617596923,0.0035625513197854158
1761505920894188300,3.361188232421875,-0.14635492882728576,-0.014776822969131171,0.001537913624383509
1761505920904225300,3.371225341796875,-0.1508446414619684,-0.021403401502035558,0.007028108538500964
1761505920914261200,3.38126123046875,-0.14889993713498115,-0.017493808576557784,0.004933730075135827
1761505920924298200,3.39129833984375,-0.1556342138260603,-0.013714417902007699,0.0032245880696922537
1761505920934335200,3.401335205078125,-0.14292144724726677,-0.018896058323606846,0.005630626298114657
1761505920944371200,3.41137109375,-0.15070786333978176,-0.01956840462721884,0.005445150195993483
1761505920954408200,3.421408203125,-0.15160510444045067,-0.025305012050457296,0.002076331350021064
1761505920964445400,3.431445556640625,-0.15534662905633448,-0.014715594301186501,0.006975391970574856
1761505920974482200,3.441482177734375,-0.14112988765537737,-0.016668792461883276,0.016079722261242567
1761505920984518400,3.451518310546875,-0.13948328949213026,-0.011732632967643439,-0.0025006211766973136
1761505920994555100,3.46155517578125,-0.14561960029006005,-0.008065050370804966,0.00401077001132071
1761505921004592000,3.471592041015625,-0.14112579600214958,-0.015172964413557201,0.0036106282452121373
1761505921014629000,3.481629150390625,-0.1477080970019102,-0.013658705659396945,-0.00153710990678519
1761505921024665000,3.4916650390625,-0.14831424620151518,-0.0009499942012131214,0.01065912198461592
1761505921034702000,3.5017021484375,-0.14861585949659348,-0.010362842451781033,-0.00004749240353703498
1761505921044739000,3.511739013671875,-0.13575403983592987,-0.012703633424267172,0.002820427715592086
1761505921054775000,3.521775146484375,-0.1570060867011547,-0.013011311133950949,0.0028462197439745067
1761505921064812300,3.531812255859375,-0.15461130051910876,-0.011808547748066485,0.0032772681050002575
1761505921074849000,3.54184912109375,-0.1426443838715553,-0.012145615949016064,0.0024468086302280425
1761505921084886000,3.551885986328125,-0.15686170979440212,-0.019898677761200814,0.0039700361421331765
1761505921094922000,3.561921875,-0.1439957984805107,-0.01166133956341073,0.01019694783296436
1761505921104959000,3.571958984375,-0.14070552476346493,-0.01419717818396166,0.009499028696678579
1761505921114996000,3.581995849609375,-0.1505757613927126,-0.015871924729458985,0.009034626055322587
1761505921125032200,3.5920322265625,-0.15311726256906985,-0.007815313393436371,0.0031437779184430837
1761505921135069200,3.602069091796875,-0.14578911163806915,-0.02338412699047476,0.005364413109980523
1761505921145106200,3.612106201171875,-0.1612064610004425,-0.02338933288855478,0.004072692799009382
1761505921155143000,3.622142822265625,-0.15970482426583765,-0.008386957535240798,0.0029281624063849446
1761505921165179100,3.63217919921875,-0.14638941561877727,-0.01666431721616536,-0.00026069676280021664
1761505921175215900,3.6422158203125,-0.14324293428659438,-0.012980057479161769,0.011771576738543808
1761505921185253000,3.652253173828125,-0.14878244823515413,-0.019175532852113247,0.0011800035648047923
1761505921195289000,3.6622890625,-0.14055296455025673,-0.014989351474959403,0.006136858787201344
1761505921205326000,3.672326171875,-0.1481833132982254,-0.009577920885477214,0.006395619321241975
1761505921215363000,3.682363037109375,-0.14234920031726359,-0.011998499095905571,0.0028629516830667853
1761505921225400000,3.692400146484375,-0.1544745223969221,-0.006996836617402732,0.007610109677538275
1761505921235436000,3.70243603515625,-0.14848258850574492,-0.016759795213583856,0.0015425897995010017
1761505921245473000,3.71247314453125,-0.15567103870511054,-0.010420143863279371,0.002719816885329783
1761505921255510000,3.722510009765625,-0.14774258379340172,-0.01579937094990164,0.003235693985596299
1761505921265546000,3.7325458984375,-0.14325287115871904,-0.008712006504833697,0.004982281924597919
1761505921275583000,3.7425830078125,-0.14415128130316734,-0.006120145114418119,0.004836261050030589
1761505921285620000,3.752619873046875,-0.15028642305731774,-0.022338252933043985,0.0037266558403149246
1761505921295656000,3.762656005859375,-0.1455044494777918,-0.0052798400990664955,0.009454568500444292
1761505921305693200,3.772693115234375,-0.14521043496727942,-0.012374127475265412,0.0020898849513381716
1761505921315730200,3.782730224609375,-0.13384148421287537,-0.010940057817846537,0.0015407266359776257
1761505921325767200,3.79276708984375,-0.15089958651959895,-0.015118055888544767,0.000029774083755910393
1761505921335803100,3.80280322265625,-0.13413900585472582,-0.011452555650938301,0.0026442308984696863
1761505921345839900,3.81283984375,-0.1426665957033634,-0.0071380351863801475,0.004397285110875964
1761505921355877000,3.822877197265625,-0.1419172386407852,-0.01526362010538578,0.008882577298767864
1761505921365913000,3.8329130859375,-0.1561339800417423,-0.0006648023179732262,0.0014726663684472441
1761505921375950000,3.8429501953125,-0.1344330203652382,-0.009423661905527115,0.007538724941760301
1761505921385987000,3.852987060546875,-0.1504395677924156,-0.008111958252452313,0.00862487621065229
1761505921396024000,3.863024169921875,-0.15762684894800186,-0.0029192484475672243,0.004959960494935512
1761505921406060000,3.87306005859375,-0.1429629483014345,-0.010003726815804838,0.009407149162143469
1761505921416097300,3.88309716796875,-0.1381751295030117,-0.0214543279716745,0.0047471214618533845
1761505921426134000,3.893134033203125,-0.14625556010603905,-0.009267777224071324,0.0027687705935910342
1761505921436170000,3.903169921875,-0.13533201503157616,-0.012265205474384129,0.0006719444448128342
1761505921446207000,3.91320703125,-0.1405705002069473,-0.0024556860564276576,0.010387830762565135
1761505921456244000,3.923243896484375,-0.14475684598088265,-0.0075240388292819255,-0.0006561988864094018
1761505921466280000,3.933280029296875,-0.14685118791162965,-0.016155545710120348,0.002290887416154146
1761505921476317200,3.943317138671875,-0.14250351409614084,-0.0075448441552929575,0.013163615618832409
1761505921486354200,3.953354248046875,-0.15208148978054523,-0.011589808697160333,0.0007759528085589408
1761505921496391200,3.96339111328125,-0.14370470657944678,-0.011799323261994867,0.002772569985873997
1761505921506427100,3.97342724609375,-0.14684651173651217,-0.007765555967576801,0.006646086950972676
1761505921516463900,3.9834638671875,-0.14475158528387547,-0.009150178726390004,0.006063866616226732
1761505921526501000,3.993501220703125,-0.13891338064968586,-0.014934771743509918,0.0022326909555122256
1761505921536537000,4.003537109375,-0.14699322673082352,-0.01144376955628395,0.0024214915258809924
1761505921546572000,4.013572021484375,-0.14324819498360156,-0.014912797373719512,0.00126147130317986
1761505921556609300,4.023609375,-0.14024725960195064,-0.013779445962235331,0.010924677585624157
1761505921566646000,4.03364599609375,-0.1387456228673458,-0.009247465088404714,0.00992927334010601
1761505921576682000,4.043681884765625,-0.14023673820793628,-0.012455631746258586,-0.0013479074776172636
1761505921586719000,4.053718994140625,-0.13903203859329222,-0.010910192402545362,0.002743891880661249
1761505921596756000,4.063755859375,-0.1438175193041563,-0.008873334546387194,0.00013568214364349842
1761505921606792000,4.0737919921875,-0.15309680430293082,-0.012822528829891234,0.007782141776196658
1761505921616829200,4.0838291015625,-0.1490548354357481,-0.002478628540597856,-0.0000624707769602537
1761505921626866200,4.0938662109375,-0.148749130487442,-0.012726356712728738,0.005762801310420036
1761505921636903200,4.103903076171875,-0.13991992734372616,-0.01724149604961276,0.005010229377448558
1761505921646939100,4.113939208984375,-0.14291151037514208,-0.011975556611735372,0.0046635713642463085
1761505921656976000,4.123975830078125,-0.12510931170284748,-0.01700892940275371,0.005965045884251594
1761505921667013000,4.13401318359375,-0.14066928440630436,-0.012676873281504958,0.001624094070494175
1761505921677049000,4.144049072265625,-0.14096855961382387,-0.00950538537222892,0.005350749910809099
1761505921687086000,4.154086181640625,-0.1483008021980524,-0.015624178779777138,0.0019618746574968098
1761505921697123000,4.164123046875,-0.14155951124429703,-0.014710041343234479,0.006908464214205741
1761505921707159000,4.174158935546875,-0.1517377909094095,-0.014963760375976562,0.0003773088797926903
1761505921717196000,4.184196044921875,-0.15697569156289098,-0.01682443968132138,0.0019993936562910674
1761505921727233300,4.1942333984375,-0.14904314499795435,-0.007852174805104733,0.0058376201122999185
1761505921737269200,4.204269287109375,-0.14335866962075233,-0.007147168340906501,0.004187039893679321
1761505921747306000,4.214305908203125,-0.1468015035510063,-0.006737272365763783,0.002300897353515029
1761505921757343000,4.224343017578125,-0.1475514451354742,-0.0122947238298133,0.009986337289586663
1761505921767379000,4.23437890625,-0.13288286831378937,-0.011447788144275545,0.0016650106027722357
1761505921777416000,4.244416015625,-0.1408113232254982,-0.007617653663177043,-0.0009908376682549714
1761505921787453200,4.254453125,-0.1482955415010452,-0.005085121244564652,0.00020052754078060388
1761505921797489200,4.2644892578125,-0.14560206463336944,-0.008496500590629875,0.0011329495526850224
1761505921807526100,4.274526123046875,-0.14859014053344727,-0.008334788956586271,0.002630786895006895
1761505921817563100,4.284563232421875,-0.14065759396851063,-0.010598386507015676,-0.003246872966736555
1761505921827600100,4.29460009765625,-0.14678747502565384,-0.013446798208076507,0.007686353251524269
1761505921837636000,4.304635986328125,-0.15396715739667416,-0.015994856989383698,0.009989369496889411
1761505921847673000,4.314673095703125,-0.15605857671797274,-0.00977601900715381,-0.004447992384806275
1761505921857710000,4.3247099609375,-0.14513503164350985,-0.012872852511331438,0.0018116159992292522
1761505921867746000,4.33474609375,-0.14663316124677658,-0.007086889521032571,0.001137881456129253
1761505921877783000,4.344782958984375,-0.14827508323490618,-0.01442691355291754,-0.001673559235408902
1761505921887820000,4.354820068359375,-0.14588088157474993,-0.012165179166011512,0.0056532399887219064
1761505921897856000,4.36485595703125,-0.15081599988937378,-0.013540814900770783,0.013963095433451235
1761505921907893200,4.374893310546875,-0.14064414996504782,-0.012254775411915034,-0.0003384747067466378
1761505921917930200,4.38493017578125,-0.1526174963533878,-0.018327154128160328,0.0007435483762994408
1761505921927966200,4.39496630859375,-0.14154080654382706,-0.007887903705611824,-0.004736307806894183
1761505921938003000,4.4050029296875,-0.14139175346195698,-0.00861150527242571,0.0018522768031805754
1761505921948040000,4.4150400390625,-0.14169687388837338,-0.0030943492861464617,-0.00044292146191000936
1761505921958076000,4.425075927734375,-0.14244155477583406,-0.009661452716775237,0.0037203356973826885
1761505921968113200,4.435113037109375,-0.1431856511414051,-0.011038330560550093,0.0009118541479110718
1761505921978150100,4.445150146484375,-0.14452595983445643,-0.013197700551524758,0.004053915033303201
1761505921988186000,4.45518603515625,-0.14033435336351394,-0.018727204562723636,0.00535352638978511
1761505921998223000,4.46522314453125,-0.1431768833130598,-0.006864880800805985,0.002910517151840031
1761505922008260000,4.475260009765625,-0.14228081125617026,-0.016232008479814975,0.012359276966005563
1761505922018296000,4.485296142578125,-0.13988777863979338,-0.014597265151143074,0.0070195964384824035
1761505922028333300,4.495333251953125,-0.15230711522996424,-0.011262421640008687,-0.0061981239877641195
1761505922038370300,4.505370361328125,-0.1419827050924301,-0.01880684567019343,-0.0008466068919748067
1761505922048407600,4.515407470703125,-0.14123568611741066,-0.01122875683242455,0.0033279753789305683
1761505922058443500,4.525443603515625,-0.1478267549455166,-0.012029241294041275,0.0021410671493038535
1761505922068480500,4.53548046875,-0.14438275197148323,-0.009714023154228925,-0.00327175167966634
1761505922078517500,4.545517578125,-0.14946692336797712,-0.02278767720097676,-0.001184497076831758
1761505922088553500,4.555553466796875,-0.14572832136154173,-0.014259594161994755,0.007265424425713717
1761505922098590500,4.565590576171875,-0.14916531007289885,-0.009266571647673845,0.004626527289487421
1761505922108627500,4.57562744140625,-0.15275602804124355,-0.011697452056407927,0.003135302351042628
1761505922118665500,4.58566552734375,-0.14901742603480814,-0.009165358029212803,0.002221804235316813
1761505922128702500,4.595702392578125,-0.13974106364548206,-0.01987387211350724,0.0013374956814572213
1761505922138738400,4.605738525390625,-0.14916531007289885,-0.010939692491665482,-0.003671820380538702
1761505922148775700,4.615775634765625,-0.15544892038702965,-0.013942417971603572,0.0006429375460371375
1761505922158812400,4.6258125,-0.1472200212240219,-0.01595984047492966,0.002576645554974675
1761505922168848600,4.6358486328125,-0.14931436315476893,-0.006832147574983537,-0.000874773540534079
1761505922178885400,4.645885498046875,-0.14092998116910457,-0.016691570549272,0.00010090309120714663
1761505922188922400,4.65592236328125,-0.14362696516811846,-0.013761581511981785,0.009723740830644964
1761505922198958300,4.665958251953125,-0.15155834268927573,-0.008956026127468795,0.002251139927655458
1761505922208995600,4.67599560546875,-0.14512158764004707,-0.011210819316934793,0.003383431893214583
1761505922219032600,4.686032470703125,-0.14691723888516425,-0.010722999267373233,0.00007993336841464042
1761505922229068500,4.696068603515625,-0.14377718729376793,-0.015434885019063949,-0.00026807635165750977
1761505922239105500,4.70610546875,-0.14332768996059894,-0.009070281890593468,-0.00023432021252810952
1761505922249142500,4.716142578125,-0.14347791208624838,-0.019921163587644695,0.0002754194078966975
1761505922259178500,4.726178466796875,-0.14587328279018402,-0.01833575755972415,-0.0013061506951227784
1761505922269215500,4.736215576171875,-0.14138883085250853,-0.01920527040325105,0.0007654679471626877
1761505922279252500,4.74625244140625,-0.14229074812829492,-0.006689378103427589,0.0008315554533153772
1761505922289288400,4.756288330078125,-0.1421434486120939,-0.0053489050135947765,0.0028489962229505178
1761505922299325400,4.766325439453125,-0.13555880952477453,-0.01638577426942065,0.001770224542915821
1761505922309362400,4.776362548828125,-0.14707447527348994,-0.0158119381705299,0.00428330334238708
1761505922319398400,4.7863984375,-0.14422376201748846,-0.021852789237350224,0.0067854223564267156
1761505922329435600,4.796435546875,-0.15229893192350863,-0.010248020433075725,-0.000827536865323782
1761505922339472600,4.80647265625,-0.14511223528981207,-0.013559519601240754,0.0035468057613819836
1761505922349508600,4.816508544921875,-0.158277421811223,-0.017434662267845125,0.004507138693518937
1761505922359545300,4.82654541015625,-0.1458604233086109,-0.008556907274667173,-0.0011154869612306356
1761505922369582300,4.836582275390625,-0.14795301167368888,-0.006795888951513916,0.002716200156137347
1761505922379618300,4.846618408203125,-0.14720307008922098,-0.007261296239867806,0.002819879726320505
1761505922389655600,4.856655517578125,-0.1477957752853632,-0.006848477655276655,-0.0006302607275545597
1761505922399692500,4.866692626953125,-0.14271160388886928,-0.010272278091497718,-0.0033798151640221474
1761505922409728500,4.876728515625,-0.14286591766774653,-0.007505936917010694,-0.0022337504014372823
1761505922419765500,4.886765625,-0.14990122313201426,-0.008732830097153782,0.0015999460099264979
1761505922429802500,4.896802490234375,-0.1504968509376049,-0.014896412494499236,0.006025763095542788
1761505922439838500,4.90683837890625,-0.14571020118296146,-0.012473496196512132,-0.000534947126917541
1761505922449875700,4.916875732421875,-0.14301672431528567,-0.010918375709000974,0.0031217487497255205
1761505922459912400,4.926912353515625,-0.14870412230193614,-0.012454353104624897,0.006921067967452108
1761505922469948400,4.936948486328125,-0.15065116471648216,-0.005577635735552758,0.008175086616538464
1761505922479985400,4.9469853515625,-0.14541501762866973,-0.011648827141709625,0.004352642251551151
1761505922490022400,4.9570224609375,-0.14810615640878677,-0.017772479387465862,0.0033937706241384145
1761505922500058400,4.967058349609375,-0.13793196839690208,-0.006994717725552618,0.0018322934610769152
1761505922510095600,4.977095703125,-0.14630699803233146,-0.007120919654797762,0.00976947966851294
1761505922520132600,4.987132568359375,-0.14406418754160402,-0.01023090490149334,0.0011172405268996953
1761505922530168600,4.99716845703125,-0.15184709650278091,-0.017178020625654607,-0.0035132688179612156
1761505922540205600,5.00720556640625,-0.1356780519902706,-0.007077975562214851,0.004516308380663395
1761505922550242300,5.0172421875,-0.14211246895194052,-0.01319143520751968,-0.00014682459216564892
1761505922560278500,5.027278564453125,-0.1430114636182785,-0.004227828561794013,0.0017707359995692968
1761505922570315500,5.0373154296875,-0.12655308077037333,-0.01743553905067965,0.005054470377974212
1761505922580352500,5.0473525390625,-0.13344108671844004,-0.014812661467492579,-0.0009867094824090599
1761505922590388500,5.057388427734375,-0.15289572877287863,-0.018270893896277993,0.0005735986368730664
1761505922600425500,5.067425537109375,-0.14631050516366959,-0.009071487466990947,-0.0014624737679958342
1761505922610462500,5.07746240234375,-0.1397223589450121,-0.008641553350817411,0.008016900380142033
1761505922620498400,5.08749853515625,-0.13942308373749254,-0.013121804037410765,0.0020155776061117647
1761505922630535700,5.09753564453125,-0.14376841946542263,-0.00444174530711025,0.0016575944812968373
1761505922640572700,5.10757275390625,-0.14496552029550075,-0.012192925689462572,-0.002393251812085509
1761505922650608600,5.117608642578125,-0.13792963030934333,-0.02092701616194099,-0.0011043810453265906
1761505922660645400,5.127645263671875,-0.1448106219947338,-0.007636193966865539,0.0033230069428682326
1761505922670682400,5.137682373046875,-0.14450900869965552,-0.0048189080564305185,0.0019169030046090484
1761505922680718300,5.14771826171875,-0.14256371985077856,-0.01687465376490727,0.00024031156189739702
1761505922690755300,5.15775537109375,-0.15004852264821528,-0.006284651493746787,-0.000107771223410964
1761505922700792600,5.16779248046875,-0.14017302532196044,-0.011725308177713304,0.00010356997232884168
1761505922710828500,5.17782861328125,-0.14825053331553936,-0.003503624206781387,0.0018071224872022865
1761505922720865500,5.187865478515625,-0.1506447349756956,-0.01274243106469512,0.0014813245989382267
1761505922730902500,5.197902587890625,-0.1488449920773506,-0.018624913232028483,0.0027335531497374175
1761505922740938500,5.2079384765625,-0.14420447279512882,-0.009301423765346407,0.005590038559399545
1761505922750975500,5.2179755859375,-0.14585107095837593,-0.017511947021447122,-0.002181764485873282
1761505922761012500,5.228012451171875,-0.14584639478325842,-0.01894568788530305,-0.0025735768150538206
1761505922771048400,5.23804833984375,-0.14569792622327804,-0.003271057559922337,-0.0011730623673647641
1761505922781085400,5.24808544921875,-0.13747019610404967,-0.013103793456684797,-0.0026333441782742735
1761505922791122400,5.258122314453125,-0.1371685828089714,-0.012920819838903844,-0.0009175532363355159
1761505922801158400,5.268158447265625,-0.14330547812879085,-0.016653558360133318,-0.001550517377629876
1761505922811195400,5.2781953125,-0.14869184734225271,-0.016729199145920574,0.0028792086981236933
1761505922821232600,5.288232666015625,-0.1427104348450899,-0.008273304560314863,0.003557400220632553
1761505922831268600,5.2982685546875,-0.13926993900239468,-0.0106211645944044,-0.003984028134867549
1761505922841305600,5.3083056640625,-0.14001929606497288,-0.009757022045738995,0.0011642945390194653
1761505922851342300,5.31834228515625,-0.1383709443360567,-0.012192121971864252,0.0014128990052267908
1761505922861378300,5.32837841796875,-0.1474953310340643,-0.01538574864771217,0.003344268926605582
1761505922871415300,5.338415283203125,-0.14795067358613012,-0.011004062964767218,-0.0020193769983947274
1761505922881452500,5.34845263671875,-0.14062018456757067,-0.015300298853963612,0.0009908376682549714
1761505922891488500,5.358488525390625,-0.1406190155237913,-0.016274130588490514,-0.0009341025123372674
1761505922901525500,5.368525390625,-0.15198913532197475,-0.019259923199936746,0.00032375206165015694
1761505922911562500,5.3785625,-0.14211129990816115,-0.010364267223887145,0.005622589122131466
1761505922921598500,5.388598388671875,-0.15153671537935734,-0.011885047050379216,0.003491276181861758
1761505922931635500,5.398635498046875,-0.1355254917770624,-0.013573128001485019,-0.00036371874585747714
1761505922941671400,5.40867138671875,-0.1486924318641424,-0.013052227666229009,0.0013450579334050416
1761505922951708700,5.418708740234375,-0.13792203152477742,-0.012907047041878103,0.003247201760299504
1761505922961745400,5.428745361328125,-0.15707506028413773,-0.013610080744698643,-0.004039630779623985
1761505922971781400,5.438781494140625,-0.1461445009469986,-0.014231938970088958,0.000038688042573630805
1761505922981818400,5.448818359375,-0.1461491771221161,-0.00938420667797327,0.00013962766639888285
1761505922991855400,5.45885546875,-0.15018822337985038,-0.006984360728319734,0.0037695451339706774
1761505923001891300,5.468891357421875,-0.13687339925467967,-0.006862378316465765,-0.0037706776451319453
1761505923011928600,5.478928466796875,-0.15019289955496787,-0.00692431937046349,-0.00017221476174890995
1761505923021965600,5.488965576171875,-0.14584873287081718,-0.013078531151264906,0.0031350831553339955
1761505923032001000,5.4990009765625,-0.14973638795912264,-0.019033621897082773,0.004077478571981191
1761505923042038000,5.5090380859375,-0.15257657982110975,-0.016328527656849473,0.004977642282098531
1761505923052075000,5.519074951171875,-0.14583762695491312,-0.008899236172623932,0.00019482845235615966
1761505923062111000,5.529111083984375,-0.14672960735857485,-0.009212759101204573,0.005425495647452772
1761505923072148000,5.53914794921875,-0.14597791220843792,-0.01247044572290033,-0.0016552929263561962
1761505923082184000,5.549183837890625,-0.13909633600115776,-0.01506859072363004,0.005916530567407608
1761505923092221000,5.559220947265625,-0.13400748842954635,-0.012497552925534545,0.0013793255291879177
1761505923102258000,5.5692578125,-0.13834405632913113,-0.012963088078051804,-0.005353014933131635
1761505923112294000,5.5792939453125,-0.148366853171587,-0.017533939657546578,0.001695917197689414
1761505923122331000,5.589330810546875,-0.15419745902121065,-0.0061597282061353325,-0.006995631041005253
1761505923132368000,5.599367919921875,-0.13879004653096197,-0.013667162960488349,-0.00629310879483819
1761505923142403800,5.60940380859375,-0.14687339974343777,-0.0054187005804851645,0.00027494448386132715
1761505923152441000,5.619441162109375,-0.154060680899024,-0.015254231222532688,-0.0037923780202865597
1761505923162478000,5.62947802734375,-0.14537994631528853,-0.012352554964274167,-0.007479432502575218
1761505923172514000,5.63951416015625,-0.14373627076148987,-0.009845485780481248,0.007355221601016819
1761505923182550800,5.64955078125,-0.1444797826051712,-0.007317282477114349,0.0010210866760462522
1761505923192587800,5.659587890625,-0.1459732360333204,-0.012593195319734513,0.000792830878123641
1761505923202623700,5.669623779296875,-0.13684358863830565,-0.004531560748722404,0.0004582651615142822
1761505923212661000,5.679660888671875,-0.14372925649881363,-0.021102993783354757,-0.0014345628477632998
1761505923222698000,5.689697998046875,-0.14971183803975582,-0.011906601295061409,0.0023235110441222786
1761505923232734000,5.69973388671875,-0.14911504119038582,-0.018703641024045644,-0.000368321855738759
1761505923242771000,5.70977099609375,-0.1462789409816265,-0.010176690496224909,0.005683160202950239
1761505923252807000,5.719806884765625,-0.14073767346739768,-0.011060560658667236,-0.004932597563974559
1761505923262844000,5.729843994140625,-0.1432768365561962,-0.011479534989409148,0.0047051820162683725
1761505923272881200,5.739881103515625,-0.14791443322896958,-0.007023468896001577,0.0002688800692558288
1761505923282917000,5.749917236328125,-0.142527479493618,-0.009422511128056794,-0.005199906730651855
1761505923292953900,5.759953857421875,-0.15166355662941933,-0.019316603556927294,-0.001055683065392077
1761505923302990800,5.769990966796875,-0.1503220788925886,-0.011060341462958603,0.007317848732694983
1761505923313026800,5.78002685546875,-0.14029869752824306,-0.006162833478674292,-0.002763327233493328
1761505923323063800,5.790063720703125,-0.1504752236276865,-0.005392360562831163,-0.005124393809027969
1761505923333101000,5.80010107421875,-0.14883505520522594,-0.0036134777894243596,0.0038808600213378667
1761505923343137000,5.810136962890625,-0.14494389298558236,-0.010625347579177468,0.004163512887619436
1761505923353174000,5.820174072265625,-0.15107903473973272,-0.015716441906802357,-0.0009357830127701163
1761505923363210000,5.8302099609375,-0.14793606053888797,-0.0075158189902082085,0.001911642307601869
1761505923373247000,5.8402470703125,-0.13940963973402976,-0.00017858970360830426,-0.0024880174234509465
1761505923383284000,5.850283935546875,-0.13760989683568478,-0.01333955670762807,0.0005272387444972992
1761505923393320000,5.86031982421875,-0.14329320316910743,-0.01603990170750767,0.002528459031693637
1761505923403357000,5.87035693359375,-0.14972469752132891,-0.016590996251627802,0.0023522622145712374
1761505923413394000,5.880393798828125,-0.14508417823910713,-0.007998341810144484,-0.0010961246736347675
1761505923423430000,5.890429931640625,-0.14703122065365315,-0.011330865500029175,0.0015208163591101764
1761505923433467000,5.900466796875,-0.13924889621436595,-0.017936382978595792,0.002020034585520625
1761505923443503900,5.91050390625,-0.14463468090593815,-0.009818963099736719,-0.0034332623843103646
1761505923453539800,5.920539794921875,-0.14358429507017134,-0.008161934874020517,-0.003079005586542189
1761505923463577000,5.9305771484375,-0.1453776082277298,-0.00744123765034601,-0.008063589066080748
1761505923473613000,5.940613037109375,-0.1500134513348341,-0.004749057690612971,-0.00007145780101418494
1761505923483650000,5.950650146484375,-0.1411848327130079,-0.015805818956997245,-0.004059285328164696
1761505923493687000,5.96068701171875,-0.13699205719828605,-0.01213162395628169,-0.0003721212480217218
1761505923503723000,5.970722900390625,-0.14297113160789013,-0.01591313352268189,-0.0008383505202829838
1761505923513759700,5.980759765625,-0.14177753790915013,-0.013611962174531072,-0.006591945610940456
1761505923523797000,5.990796875,-0.14491875854432582,-0.0126174164455384,-0.002116188436374068
1761505923533833000,6.0008330078125,-0.15000351446270943,-0.013584873238205909,0.002930646624416113
1761505923543870000,6.010869873046875,-0.13923136055767535,-0.01870550418756902,0.0008828107165172696
1761505923553906000,6.020906005859375,-0.1413204417914152,-0.00624605478271842,-0.002971161297895014
1761505923563943000,6.03094287109375,-0.1488023219794035,-0.008974383768066764,-0.0019888357296586035
1761505923573980000,6.04097998046875,-0.1437128898859024,-0.013178685323800891,0.0060455637745559215
1761505923584016000,6.051015869140625,-0.144758015024662,-0.01326663760188967,-0.005498378220573068
1761505923594053000,6.06105322265625,-0.14161328725814817,-0.016795323184691367,-0.0030626024410128593
1761505923604089900,6.07108984375,-0.14714578694403171,-0.010783150223083793,0.0006152458215132355
1761505923614126000,6.0811259765625,-0.14520108261704445,-0.014822470475453882,-0.002945771128311753
1761505923624162800,6.091162841796875,-0.14878946249783037,-0.016135854628961534,-0.0010285027975216506
1761505923634198800,6.10119873046875,-0.14474632458686829,-0.01807725275401026,-0.00021477526184171436
1761505923644235800,6.11123583984375,-0.13561667719185352,-0.013200623160973191,-0.00009556932896375655
1761505923654273000,6.12127294921875,-0.1402566119521856,-0.010065722668729722,0.0011525675686076282
1761505923664309000,6.13130908203125,-0.14788754522204398,-0.013547847429756074,-0.005131481136940419
1761505923674346000,6.141345947265625,-0.14429799629747866,-0.009609064942412078,-0.0028044629614800212
1761505923684383000,6.151383056640625,-0.13921031776964662,-0.01611274774800986,0.0006800181534141301
1761505923694419000,6.1614189453125,-0.14280337382555008,-0.0074424980256706475,-0.0025567352781072257
1761505923704456000,6.1714560546875,-0.14205635485053061,-0.012779822199326009,-0.007472345174662769
1761505923714492000,6.181491943359375,-0.13607201974391936,-0.008953943768236786,-0.0017998524961993097
1761505923724529200,6.191529052734375,-0.14983984833359718,-0.008114880861900747,0.0011683131270110606
1761505923734566000,6.20156591796875,-0.15014029258489608,-0.009260141906887292,0.006704794868268072
1761505923744601900,6.211601806640625,-0.14624620775580405,-0.00965944342277944,-0.0016536854911595581
1761505923754638800,6.221638916015625,-0.13831307666897774,-0.014153320775926112,-0.0010319368636235594
1761505923764674800,6.2316748046875,-0.1450467688381672,-0.011437266750261186,0.0004488762786611914
1761505923774711800,6.2417119140625,-0.13262977033555506,-0.008401442718319595,-0.0054752165406942365
1761505923784749000,6.2517490234375,-0.14251052835881708,-0.01649235818274319,-0.007274849841184913
1761505923794785000,6.261784912109375,-0.14849895511865616,-0.011949307925626635,-0.004676613508909941
1761505923804822000,6.271822021484375,-0.14999766924381255,-0.007521609410177916,-0.005690357128717005
1761505923814859000,6.28185888671875,-0.14864800820052623,-0.01148649445315823,0.001442928817309439
1761505923824895000,6.29189501953125,-0.1513368088930845,-0.015386168772820383,-0.0004942132577300071
1761505923834932000,6.301931884765625,-0.14893676201403142,-0.012922591670881957,-0.002415098317712545
1761505923844968000,6.311968017578125,-0.152827924233675,-0.006978424177877605,0.0005239508088678122
1761505923855005000,6.3220048828125,-0.15566753157377242,-0.012290102453622966,0.0040626828616485
1761505923865042000,6.3320419921875,-0.14609306302070618,-0.014723558411933482,-0.0019831366412341594
1761505923875078000,6.342077880859375,-0.13846446783840655,-0.0043363852364942425,-0.00124992699585855
1761505923885115000,6.352114990234375,-0.13472761939764022,0.00015473390398547052,0.0005113105230033397
1761505923895151900,6.36215185546875,-0.14923954435288905,-0.0030383630488999185,0.0020244915649294854
1761505923905187800,6.372187744140625,-0.15133563984930515,-0.013840638097561895,-0.004969605106115341
1761505923915225000,6.38222509765625,-0.1481909120827913,-0.0030951164711266756,-0.0021772344412282108
1761505923925261000,6.392260986328125,-0.1454950971275568,-0.010197678485326468,-0.0008522694477811455
1761505923935298000,6.402298095703125,-0.14788520713448525,-0.021354977516736835,-0.012301591962017118
1761505923945334800,6.412334716796875,-0.13680793280303477,-0.006208280055597424,0.002820245052501559
1761505923955371000,6.42237109375,-0.14368717092275618,-0.006827434867247939,0.0037571240438148377
1761505923965407700,6.43240771484375,-0.14847557424306868,-0.016189027854613958,-0.007123020280338823
1761505923975444000,6.44244384765625,-0.1544622474372387,-0.002978139027953148,-0.004129574085399508
1761505923985481000,6.45248095703125,-0.14054653480947016,-0.0047310653761960565,0.006054075874574482
1761505923995518000,6.46251806640625,-0.1406973414570093,-0.012659081896487623,-0.0012516805615276098
1761505924005554000,6.472553955078125,-0.14758300931751728,-0.010130403669085353,0.005026267196796834
1761505924015591000,6.4825908203125,-0.13920564159452914,-0.009804697112366556,-0.003987133407406509
1761505924025627000,6.492626953125,-0.148631641587615,-0.008731953314319252,0.0020956936376169324
1761505924035664000,6.502663818359375,-0.1445879191547632,-0.006749839586392045,-0.004307816729135811
1761505924045700900,6.512700927734375,-0.13590835361480713,-0.006653393474593758,-0.00931987273748964
1761505924055736800,6.52273681640625,-0.13441314662098883,-0.004968289931863546,-0.001533273981884122
1761505924065773800,6.53277392578125,-0.1385971543073654,-0.017839060083962976,-0.004245199821703136
1761505924075809800,6.542809814453125,-0.13351006030142307,-0.006497892385628074,-0.002258665646985173
1761505924085846800,6.5528466796875,-0.14293722933828829,0.00023391835372895,-0.002714519655704498
1761505924095883800,6.5628837890625,-0.14114391618072986,-0.013359046859387307,-0.001151909981481731
1761505924105919700,6.572919677734375,-0.140697925978899,-0.017165983127988872,-0.004109261949732899
1761505924115956700,6.582956787109375,-0.14009411486685275,-0.013873627051711081,-0.004635404715687037
1761505924125992700,6.59299267578125,-0.14952420651316642,-0.012735654264036566,0.00662201195564121
1761505924136029700,6.60302978515625,-0.13950316323637962,-0.012633600395359098,-0.00017681787163019178
1761505924146066700,6.613066650390625,-0.14234803127348422,-0.007299052700679749,0.0031214930213987824
1761505924156102700,6.6231025390625,-0.15222703573107718,-0.010828578533697873,-0.0020621201615780593
1761505924166140000,6.633139892578125,-0.1457955413788557,-0.012522870029881596,0.005072992415353655
1761505924176175900,6.64317578125,-0.1420534322410822,-0.013557839100807904,0.003755480076000094
1761505924186212900,6.653212890625,-0.14505261405706404,-0.004899024087935686,-0.008256115963496267
1761505924196249600,6.66324951171875,-0.13577216001451015,-0.012407098163105547,-0.004733677458390593
1761505924206285800,6.673285888671875,-0.13771394173204898,-0.01033905971739441,-0.003475238362513482
1761505924216322600,6.683322509765625,-0.13891454969346523,-0.012340645330771803,0.0010635741109028458
1761505924226358500,6.693358642578125,-0.1386100137889385,-0.01667476554494351,0.000012494155392050743
1761505924236395800,6.703395751953125,-0.14340017067492009,-0.01192768061570823,-0.0033606355395168065
1761505924246432800,6.713432861328125,-0.13935411015450955,-0.014662622004933654,-0.008442176587507129
1761505924256468700,6.72346875,-0.14773381596505641,-0.015734525552764535,-0.0009597849428653717
1761505924266505700,6.733505615234375,-0.14609130945503712,-0.01197769376989454,0.0057344885313883424
1761505924276541700,6.743541748046875,-0.1474386324107647,-0.013615213577542452,-0.00024484160654246803
1761505924286578700,6.75357861328125,-0.14085107071399688,-0.0036842597370035945,-0.000899542655609548
1761505924296616000,6.763615966796875,-0.1404021579027176,-0.002978303424734622,-0.0026073694868013263
1761505924306652000,6.77365185546875,-0.1398047765314579,-0.014530446992628275,-0.006521108864434063
1761505924316689000,6.78368896484375,-0.14430150342881679,-0.010572667543869464,-0.0022917276663705706
1761505924326724900,6.793724853515625,-0.1492418824404478,-0.008664879427477717,-0.00005019581727683544
1761505924336761600,6.80376171875,-0.15358721816837786,-0.007893529728800058,0.003929265740327537
1761505924346798600,6.813798583984375,-0.14684943434596062,-0.010400525847356765,-0.0007667100561782718
1761505924356834600,6.82383447265625,-0.13906886347234249,-0.005990965776797383,0.0005491217827424407
1761505924366871800,6.833871826171875,-0.13637304851710796,-0.007652158720977604,-0.002658843945711851
1761505924376907800,6.84390771484375,-0.13996318196356294,-0.010152578968275337,-0.0009183204213157295
1761505924386944800,6.85394482421875,-0.14729659359157085,-0.005676456467527896,-0.0031252924136817455
1761505924396981800,6.863981689453125,-0.1408633456736803,-0.009408902727812527,-0.0048071445534005755
1761505924407017700,6.874017822265625,-0.14295710308253765,-0.007919212159328162,-0.015908493880182503
1761505924417054700,6.8840546875,-0.14011106600165366,-0.012698062200006096,-0.0008042290549725294
1761505924427090700,6.894090576171875,-0.14624270062446593,-0.01109839018471539,0.0007760258737951516
1761505924437128000,6.9041279296875,-0.13771978695094583,-0.010816212242469191,0.0008875964894890784
1761505924447164700,6.91416455078125,-0.15103168846666812,-0.012904361894447356,0.0024944836968556045
1761505924457200600,6.92420068359375,-0.14579261876940727,-0.004968034203536809,-0.0022808774787932634
1761505924467237600,6.934237548828125,-0.14489128601551055,-0.005259016506746411,0.00023015549406409262
1761505924477273600,6.944273681640625,-0.14638883109688758,-0.011370704320073127,-0.004381977943889797
1761505924487310600,6.954310546875,-0.15476678334176538,-0.015092154262308031,-0.0062448126737028355
1761505924497347800,6.964347900390625,-0.15163082340359688,-0.005244275595340878,-0.0005721373321488499
1761505924507383800,6.9743837890625,-0.13487316534817217,-0.008312595391087233,0.004898658761754632
1761505924517420800,6.9844208984375,-0.14115443757474422,-0.007734722437895834,-0.006851582927815616
1761505924527456800,6.994456787109375,-0.12753624658882617,-0.0055645935908891254,0.0019821867931634186
1761505924537493800,7.00449365234375,-0.13846037618517876,-0.0015613675652071833,0.003281578953936696
1761505924547529700,7.01452978515625,-0.14250292957425117,-0.012678791243955493,-0.001273636665008962
1761505924557566700,7.024566650390625,-0.1365232706427574,-0.020244933915603905,-0.005611008282192051
1761505924567603700,7.034603759765625,-0.1443044260382652,-0.010769596621766686,-0.0063950347993522874
1761505924577640000,7.044639892578125,-0.13487374987006187,-0.010685242806561291,0.002069024826399982
1761505924587676700,7.0546767578125,-0.14429799629747866,-0.00998213603850454,0.0005040770646184683
1761505924597712600,7.064712646484375,-0.15013035571277142,-0.016180552287213504,0.0015786474935710428
1761505924607749600,7.07474951171875,-0.1401046362608671,-0.01594904508627951,0.0029566578485071657
1761505924617786600,7.08478662109375,-0.14100070831775666,-0.009913089390285313,-0.0055638446722179645
1761505924627822600,7.094822509765625,-0.146684599173069,-0.010709536997601389,-0.0059172612197697155
1761505924637859800,7.10485986328125,-0.13306816175282002,-0.008165204543340951,-0.0046926147956401106
1761505924647895800,7.114895751953125,-0.13561375458240507,-0.001045746193267405,0.000401785733923316
1761505924657932800,7.124932861328125,-0.14039923529326914,-0.01108982328576967,-0.006418634870648384
1761505924667968800,7.13496875,-0.1408504861921072,-0.012113558576628564,0.0014219225618988275
1761505924678005800,7.145005859375,-0.14264789100289343,-0.013726619796454906,0.00256952169444412
1761505924688042800,7.155042724609375,-0.13666004876494406,-0.011946056522615253,-0.004166216301359236
1761505924698078700,7.16507861328125,-0.14788871426582337,-0.00305335968863219,-0.0044725423041731115
1761505924708115700,7.17511572265625,-0.1513292101085186,-0.002841470503620803,-0.0038559082431718706
1761505924718151700,7.185151611328125,-0.1387549752175808,-0.009610416649281977,0.0020008914936333892
1761505924728188700,7.195188720703125,-0.14114742331206798,-0.013852401600591837,0.010804156478494404
1761505924738225700,7.2052255859375,-0.14069909502267836,-0.016702676465176047,0.0002113777283579111
1761505924748261600,7.21526171875,-0.1442886439472437,-0.007870294983685017,-0.003284538096003234
1761505924758298600,7.225298583984375,-0.14728198054432867,-0.008620930687896907,-0.0007264876436442136
1761505924768334600,7.23533447265625,-0.14518646956980227,-0.01260990899251774,0.0015613675652071833
1761505924778371800,7.245371826171875,-0.15042553926706312,-0.009738280812650919,0.00018401479739695787
1761505924788407800,7.25540771484375,-0.14099953927397726,-0.0012118417414836585,-0.0021736907772719857
1761505924798444800,7.26544482421875,-0.14205050963163374,-0.016793204292841254,0.004820369361154735
1761505924808481800,7.275481689453125,-0.1480389363914728,-0.01135404544621706,0.005788812534511089
1761505924818517800,7.285517822265625,-0.14384499183297156,-0.004307597533427179,-0.0028767244800925254
1761505924828554800,7.2955546875,-0.14443945059478283,-0.005144084890186786,-0.0033995793104171753
1761505924838590700,7.3055908203125,-0.14518296243846415,0.0017992679743096232,-0.002597871006093919
1761505924848627700,7.315627685546875,-0.14278642269074915,-0.006453304325230419,0.005723455680720507
1761505924858663700,7.32566357421875,-0.13544716584384442,-0.010161986117437481,0.0030361162928864358
1761505924868700700,7.33570068359375,-0.14277356320917606,-0.010206154052726924,0.002742357510700822
1761505924878737700,7.345737548828125,-0.14083236601352692,-0.005424874592944979,-0.0007265241762623191
1761505924888773600,7.355773681640625,-0.14487258131504058,-0.010459069367870688,-0.004942388305626809
1761505924898810600,7.365810546875,-0.1388929223835468,-0.007901439040619879,-0.0025460677536204455
1761505924908846600,7.3758466796875,-0.14966215367913246,-0.008977653437387198,-0.0031265345226973293
1761505924918883800,7.3858837890625,-0.14636895735263825,-0.0004455700767226517,0.0013231748951599
1761505924928919800,7.395919921875,-0.13693945022821424,-0.013875855541415513,0.001983027043379843
1761505924938956800,7.405956787109375,-0.13829028031527996,-0.007926591748185455,-0.006412972314842045
1761505924948993800,7.415993896484375,-0.14083236601352692,-0.0036476723199710247,0.0019575272759422657
1761505924959029800,7.42602978515625,-0.13618775507807732,-0.009058299191854894,-0.002399389291927218
1761505924969066500,7.43606640625,-0.14157412429153918,-0.013051113421376794,-0.006396094245277345
1761505924979103000,7.44610302734375,-0.14936054038405416,-0.007336078509129583,-0.0064107438251376145
1761505924989139700,7.4561396484375,-0.14546937816441058,-0.009672047176025808,-0.0035222193093970415
1761505924999175700,7.46617578125,-0.13648995289504529,-0.0073690857295878225,-0.006055610244534909
1761505925009212700,7.476212646484375,-0.14412030164301395,-0.009732125066500157,-0.006400806953012943
1761505925019249700,7.486249755859375,-0.14292203176915644,-0.008253449082374572,0.0011945070141926408
1761505925029286100,7.4962861328125,-0.14052899915277958,-0.02033226513918489,-0.0032842823676764964
1761505925039323100,7.5063232421875,-0.13364508485794066,-0.010538016355596482,-0.007291106856241822
1761505925049359000,7.516359130859375,-0.14681553207635878,-0.012653784666862337,-0.0011474530020728706
1761505925059396000,7.52639599609375,-0.1444230839818716,-0.010471344327554106,-0.0014535232765600084
1761505925069432000,7.53643212890625,-0.14023264655470846,-0.00024292364409193395,-0.004640957673639059
1761505925079469000,7.546468994140625,-0.1412730955183506,-0.002249788220785558,-0.0036197979323565957
1761505925089506000,7.556506103515625,-0.14112579600214958,-0.011304580281302332,-0.0009033785805106163
1761505925099542000,7.5665419921875,-0.14337445171177388,-0.0051202108242549,-0.0007983107708394527
1761505925109579000,7.5765791015625,-0.14277356320917606,-0.011192461676336824,0.00042991584986448283
1761505925119615000,7.586614990234375,-0.13558920466303825,-0.012792425952572375,-0.0036780309256166216
1761505925129652000,7.59665185546875,-0.14037702346146105,-0.0031239772394299507,-0.006809606949612498
1761505925139688000,7.60668798828125,-0.14366729717850685,-0.008581037068925797,-0.010112374822050333
1761505925149725000,7.616724853515625,-0.14650982712805272,-0.004793590952083468,-0.0007316387427970766
1761505925159762200,7.62676220703125,-0.14650924260616302,-0.01110034467978403,-0.001033946157619357
1761505925169798100,7.636798095703125,-0.14052140036821364,-0.013217683893628417,-0.00020772446654736994
1761505925179835100,7.646835205078125,-0.149795424669981,-0.007068075222708284,0.0026817133646458388
1761505925189871000,7.65687109375,-0.1318400812625885,-0.005664857361279428,-0.004794686930626631
1761505925199908000,7.666908203125,-0.14366437456905842,-0.010400562379974871,0.00019669161587953566
1761505925209944000,7.676944091796875,-0.1509972016751766,-0.007838274143915623,0.0007962649442255496
1761505925219981000,7.68698095703125,-0.1384270584374666,-0.012706190707534551,0.002539163088798523
1761505925230017300,7.697017333984375,-0.1426110661238432,-0.004992036133632064,0.0017158640071749686
1761505925240054000,7.707053955078125,-0.142312959960103,-0.010425167098268866,-0.0031559432802721857
1761505925250091000,7.717091064453125,-0.13961597596108913,-0.00826619896609336,0.002610474759340286
1761505925260127000,7.727126953125,-0.14365502221882342,-0.014112221580557525,-0.0020532792679965493
1761505925270164000,7.7371640625,-0.14185820192992687,-0.01588469287948683,-0.005454137220047414
1761505925280200000,7.747199951171875,-0.139612468829751,-0.016560765510145573,-0.001644260075688362
1761505925290237000,7.75723681640625,-0.14693828167319298,-0.004835128538869321,-0.005818696216121315
1761505925300273200,7.767273193359375,-0.14139701415896413,-0.0017834858832880853,0.00007028875723481178
1761505925310310100,7.77731005859375,-0.13840426208376883,-0.019887736242078242,-0.0017342399140819907
1761505925320346000,7.78734619140625,-0.1361573599398136,-0.009385850645788013,-0.011299319584295153
1761505925330383000,7.797383056640625,-0.14543079971969128,-0.011076068755052983,0.002518047235533595
1761505925340420000,7.807420166015625,-0.15515665944218635,-0.01899992055688053,0.0024836335092782973
1761505925350456000,7.8174560546875,-0.1412421158581972,-0.012919559463579207,-0.006851802123524248
1761505925360493000,7.8274931640625,-0.14064882614016533,-0.014182619935646653,-0.007130838260613381
1761505925370529300,7.837529296875,-0.14513795425295828,-0.01873257485758513,0.003079188249632716
1761505925380566000,7.84756591796875,-0.1393032567501068,0.0018274346228688955,-0.004007409010455012
1761505925390602000,7.85760205078125,-0.14049918853640556,-0.00546706976685673,-0.0075118734674528235
1761505925400639000,7.867638916015625,-0.14783084659874438,-0.008855031704716384,-0.008961999210529028
1761505925410675000,7.877675048828125,-0.14288754497766493,-0.009317205856367946,-0.007239413201622665
1761505925420712000,7.8877119140625,-0.1449813023865223,-0.011431622460763902,-0.004869286536797881
1761505925430749200,7.897749267578125,-0.1346545541614294,-0.0039010990917682647,-0.009804441384039818
1761505925440785200,7.90778515625,-0.1520136852413416,-0.0007720072858035564,-0.001983027043379843
1761505925450822100,7.917822265625,-0.1451286019027233,-0.00886540696825832,-0.006962021032348275
1761505925460858000,7.927858154296875,-0.13255962770879268,-0.009748729141429066,0.0056175841534510254
1761505925470895000,7.93789501953125,-0.13735329172611235,-0.007656195575278252,0.00023790040910243987
1761505925480931000,7.94793115234375,-0.1416997964978218,-0.009151895759440958,-0.006063172496482729
1761505925490968000,7.957968017578125,-0.1426011292517185,-0.011212518083676695,-0.001631473659351468
1761505925501004000,7.968004150390625,-0.13945698600709439,-0.0052367133433930575,-0.004229563861154019
1761505925511041300,7.978041259765625,-0.14095394656658172,-0.011984908961970358,-0.0074840356124565004
1761505925521078000,7.988078125,-0.14050970993041992,-0.010983312437683343,-0.011209266680665313
1761505925531114000,7.998114013671875,-0.13900924223959446,-0.01679923217482865,-0.006770809309184551
1761505925541151000,8.00815087890625,-0.13167349252402782,-0.005271181868575513,-0.009281403890624642
1761505925551186200,8.018186279296875,-0.1394564014852047,-0.0047197037319652736,-0.006284304433874785
1761505925561222100,8.02822216796875,-0.15008008683025836,-0.017732786697894333,0.001320581079274416
1761505925571259100,8.038259033203126,-0.14947978284955024,-0.01210738456416875,-0.005525485423207283
1761505925581295000,8.048295166015626,-0.14034896641075612,-0.01005618765540421,-0.0030415231203660366
1761505925591331800,8.058331787109376,-0.1419914729207754,-0.006179108760040253,-0.004644391739740968
1761505925601368000,8.0683681640625,-0.14139584511518477,-0.0037221623282879587,0.0013979936970397828
1761505925611405000,8.078405029296874,-0.14992343496382235,-0.009681947515532374,-0.007414733235910535
1761505925621441000,8.08844091796875,-0.14483809452354907,-0.006486220214143395,-0.00691277506314218
1761505925631478000,8.09847802734375,-0.13750526741743088,-0.0032148703932762144,-0.00497216238938272
1761505925641514000,8.108513916015625,-0.13541326357424258,-0.02005211475724354,0.0012915376478806137
1761505925651551000,8.118551025390625,-0.1508271058052778,-0.0023373569063842295,-0.003259403654746711
1761505925661588000,8.128587890625,-0.1393038412719965,-0.01022509621521458,-0.0034628172723576425
1761505925671624200,8.138624267578125,-0.1415472362846136,-0.010277922380995005,-0.0030254487683996556
1761505925681661200,8.1486611328125,-0.1433463946610689,-0.012860833279974757,0.0026441578332334756
1761505925691697200,8.158697265625,-0.14169453580081462,-0.018972740289010106,-0.0004671425877138972
1761505925701734100,8.168734130859375,-0.1457294904053211,-0.007690919828787446,-0.0013078677281737328
1761505925711770000,8.17877001953125,-0.14647592485845087,-0.01217239435808733,-0.0029407661596313117
1761505925721807000,8.18880712890625,-0.15515549039840698,-0.004290646398626268,-0.0013976283708587289
1761505925731843000,8.198843017578126,-0.14737082787156106,-0.0018437647031620144,-0.00010229133069515228
1761505925741880000,8.208880126953124,-0.14572247614264489,-0.012650441932305693,-0.0014987871903926133
1761505925751916300,8.218916259765624,-0.13928864370286465,-0.006067081486620008,-0.006770626646094024
1761505925761953000,8.228953125,-0.14348025017380714,-0.011650653772614896,-0.00773746238425374
1761505925771989000,8.238989013671874,-0.14856325252652167,-0.011816530125122517,-0.009517075810022651
1761505925782026000,8.24902587890625,-0.14796411758959294,-0.013521306482702493,-0.0023195289887487885
1761505925792063000,8.25906298828125,-0.14631167420744895,-0.011322444731555878,-0.000702997170202434
1761505925802099000,8.269098876953125,-0.14406535658538341,-0.003594352963846177,-0.004769333293661475
1761505925812136200,8.27913623046875,-0.14376198972463608,-0.009589812252670527,0.0030476240675896406
1761505925822172200,8.289172119140625,-0.14480419225394725,-0.008538056443724781,-0.0066920449845492835
1761505925832209200,8.299209228515625,-0.1395651225566864,-0.006792728880047798,-0.004326411831751466
1761505925842245000,8.3092451171875,-0.14105857598483562,-0.017810747304931283,-0.007579056952148676
1761505925852282000,8.3192822265625,-0.14703998848199842,-0.015384926663804798,0.0016514204688370226
1761505925862318000,8.329318115234376,-0.1453857915341854,-0.012931158569827675,0.0021871713133528826
1761505925872355000,8.33935498046875,-0.14059505012631415,-0.012657675390690565,-0.009985679702460766
1761505925882391000,8.34939111328125,-0.13940262547135351,-0.005641056360583752,-0.007880451051518321
1761505925892428000,8.359427978515624,-0.13745792114436625,-0.018130188517645,-0.0031936084095388648
1761505925902465000,8.369465087890624,-0.13940671712458133,-0.023725286844652145,-0.01256057169176638
1761505925912501000,8.3795009765625,-0.1431377203464508,-0.010379976249672471,-0.009957987977936863
1761505925922538000,8.3895380859375,-0.14747604181170462,-0.0038399982879869636,-0.004211772476136684
1761505925932574000,8.399573974609375,-0.14957096826434135,-0.013931622582953423,-0.005755458254180848
1761505925942611000,8.40961083984375,-0.14582769008278845,-0.010451561914850025,-0.0037468218455091115
1761505925952647000,8.41964697265625,-0.1346025317132473,-0.023811449024453757,-0.0010476824220269918
1761505925962684200,8.42968408203125,-0.13804536564350128,-0.0041995340490713715,-0.005056187411025166
1761505925972720000,8.43972021484375,-0.13684768029153346,-0.00893527560038492,-0.010033902758359909
1761505925982757000,8.449757080078125,-0.1344540631532669,-0.014580642809905111,-0.006845993437245488
1761505925992793000,8.45979296875,-0.13924071290791035,-0.009861468800902365,-0.004163366757147014
1761505926002830000,8.469830078125,-0.13429858033061026,-0.019189451779611406,-0.0056073915529996155
1761505926012866000,8.479865966796876,-0.14343231937885284,-0.014021748551819473,-0.004217106238380074
1761505926022903000,8.489903076171874,-0.14687281522154808,-0.010238339289277792,0.0018537015752866863
1761505926032939000,8.49993896484375,-0.14432897595763206,-0.009438877740968018,-0.008792524395138024
1761505926042976300,8.509976318359374,-0.13564882589578628,-0.010517247562203555,-0.0061153776077553625
1761505926053012500,8.520012451171874,-0.1489671571522951,-0.010003452821169047,-0.004846051791682839
1761505926063049500,8.530049560546875,-0.14163199195861814,-0.01206478753145784,-0.006910108182020485
1761505926073086500,8.54008642578125,-0.1435696820229292,-0.008690470526460558,-0.008653590848483144
1761505926083122400,8.550122314453125,-0.12889935163557528,-0.009623696255963295,-0.000048807577788829804
1761505926093159400,8.560159423828125,-0.14565408708155153,-0.014255977432802318,-0.0075409168988466255
1761505926103195400,8.5701953125,-0.1444575707733631,-0.016171126871742308,-0.00962784270811826
1761505926113232400,8.580232421875,-0.14744856928288935,-0.015027601126115769,-0.006054696929082274
1761505926123269600,8.59026953125,-0.1466980431765318,-0.004269000822398812,-0.0017038082432001829
1761505926133305600,8.6003056640625,-0.14864099393785,-0.01100535987270996,-0.0023575959768146275
1761505926143342600,8.610342529296876,-0.1431120013833046,-0.009148699155356734,-0.007845854662172497
1761505926153378600,8.620378662109376,-0.13368074069321154,-0.015372268111631273,-0.006371653923764825
1761505926163415600,8.63041552734375,-0.13277823889553547,-0.008285670851543546,-0.0035579116772860284
1761505926173451500,8.640451416015624,-0.1254120940417051,-0.013375450004916637,-0.03612246640194207
1761505926183488300,8.65048828125,0.5125310047090054,0.11494173609483986,-0.5332847466632723
1761505926193525500,8.660525390625,-0.5468588062465191,-0.06406526134377345,0.06814759875396266
1761505926203561500,8.6705615234375,-0.6661486180156468,-0.15566731237806378,0.9193572170175611
1761505926213598500,8.680598388671875,-0.385802567371726,-0.04647756393868476,-0.010582257356122135
1761505926223634400,8.690634521484375,0.7427449509620666,0.12717157799489795,-0.5885512182679027
1761505926233671400,8.70067138671875,-0.4927636434435844,-0.04114484287491068,0.17986030806601047
