time,seconds_elapsed,z,y,x
1761505917622195200,0.0891953125,-0.007919175550341606,-0.004379035905003548,-0.00014221279707271606
1761505917632231200,0.099231201171875,-0.005479986313730478,-0.0023281353060156107,-0.003184075467288494
1761505917642268400,0.109268310546875,-0.007822769694030285,-0.002772616920992732,-0.0004814995336346328
1761505917652305400,0.119305419921875,-0.005822469014674425,-0.0021230720449239016,-0.0014226606581360102
1761505917662342400,0.12934228515625,-0.005878661759197712,-0.004568386357277632,-0.0023244069889187813
1761505917672379100,0.139379150390625,-0.0076209018006920815,-0.006419016979634762,-0.0020727382507175207
1761505917682416000,0.149416015625,-0.004032824654132128,-0.007215036079287529,-0.0005736448802053928
1761505917692453400,0.159453369140625,-0.007106112781912088,0.0004601942200679332,-0.0013739247806370258
1761505917702489300,0.1694892578125,-0.004876514431089163,-0.0017246630741283298,-0.001353418454527855
1761505917712526300,0.1795263671875,-0.00634791050106287,-0.0013435647124424577,-0.0007832356495782733
1761505917722563300,0.189563232421875,-0.006613960489630699,-0.0013230583863332868,-0.0017161410069093108
1761505917732600300,0.199600341796875,-0.006295446306467056,-0.0016290555940940976,-0.0011406318517401814
1761505917742637300,0.20963720703125,-0.004877313040196896,-0.005395830608904362,-0.00029108350281603634
1761505917752673300,0.21967333984375,-0.006368949543684721,-0.0019390475936233997,-0.0013440974289551377
1761505917762710300,0.229710205078125,-0.0049558766186237335,-0.0033688987605273724,-0.0026700852904468775
1761505917772747300,0.239747314453125,-0.007786816451698542,-0.0014913701452314854,-0.0024469124618917704
1761505917782784300,0.2497841796875,-0.006806773599237204,-0.0012684636749327183,-0.0015478292480111122
1761505917792821500,0.259821533203125,-0.007201453670859337,-0.0029611687641590834,-0.0037140443455427885
1761505917802858200,0.269858154296875,-0.006821686867624521,-0.002332130214199424,0.0009464874165132642
1761505917812894500,0.27989453125,-0.003972637467086315,-0.002121740486472845,-0.0030945930629968643
1761505917822931200,0.28993115234375,-0.005130846053361893,-0.0037739656399935484,-0.0022160164080560207
1761505917832968200,0.29996826171875,-0.004340420011430979,-0.0035473306197673082,-0.0006223807577043772
1761505917843005400,0.31000537109375,-0.006645651999861002,-0.005505552981048822,-0.0007773766992613673
1761505917853042400,0.32004248046875,-0.005683451890945435,-0.0034080471377819777,-0.00025992453447543085
1761505917863079400,0.330079345703125,-0.005553755909204483,-0.004863997455686331,-0.0015398397808894515
1761505917873115400,0.340115478515625,-0.005063468124717474,-0.004388889297842979,-0.0029880667570978403
1761505917883152100,0.350152099609375,-0.005446697119623423,-0.004059189930558205,-0.0017781927017495036
1761505917893189400,0.360189453125,-0.005650961305946112,-0.004228567238897085,-0.0010090717114508152
1761505917903226400,0.370226318359375,-0.007614243775606155,-0.0032650355715304613,-0.0019025622168555856
1761505917913263400,0.380263427734375,-0.005100485868752003,-0.0008588694618083537,-0.0023880566004663706
1761505917923299300,0.39029931640625,-0.007670436520129442,-0.007044061087071896,-0.0014559502014890313
1761505917933336300,0.40033642578125,-0.005874400492757559,-0.004640558268874884,-0.0008998821140266955
1761505917943373300,0.410373291015625,-0.006160157732665539,-0.0019441075855866075,0.0005022721597924829
1761505917953410300,0.420410400390625,-0.007159376051276922,-0.003992611076682806,-0.002255164785310626
1761505917963447300,0.430447265625,-0.005459214095026255,-0.004626177251338959,-0.0013598100049421191
1761505917973484300,0.440484375,-0.005686914082616568,-0.0031406658235937357,0.00007163903501350433
1761505917983520300,0.450520263671875,-0.006169478874653578,-0.00461712246760726,-0.0034586472902446985
1761505917993557200,0.46055712890625,-0.005175587255507708,-0.002697782125324011,-0.0017001620726659894
1761505918003594500,0.470594482421875,-0.00560994865372777,-0.0011558119440451264,-0.0011142665753141046
1761505918013631200,0.48063134765625,-0.005724730901420116,-0.0041033984161913395,0.000215716048842296
1761505918023667200,0.490667236328125,-0.004633900243788958,-0.002948385663330555,-0.00025752768851816654
1761505918033703200,0.500703125,-0.004866127856075764,-0.0029414615128189325,-0.0003171824791934341
1761505918043740200,0.510740234375,-0.005527124274522066,-0.0008801747462712228,-0.0005347627447918057
1761505918053777200,0.520777099609375,-0.004066913388669491,-0.0029289445374161005,0.00006391586794052273
1761505918063814100,0.530814208984375,-0.005958290304988623,-0.003967044875025749,-0.0005360943032428622
1761505918073851100,0.54085107421875,-0.005242698825895786,-0.003629355924203992,-0.0016487629618495703
1761505918083888000,0.55088818359375,-0.007783621083945036,-0.0032655680552124977,-0.0002689792599994689
1761505918093924000,0.560924072265625,-0.0054605454206466675,-0.0028072381392121315,0.00005885586142539978
1761505918103961000,0.570961181640625,-0.008972189389169216,-0.003852528752759099,-0.0016437029698863626
1761505918113998000,0.580998046875,-0.004128698725253344,-0.0017156084068119526,-0.0024802018888294697
1761505918124035000,0.59103515625,-0.006213953718543053,-0.0046698530204594135,0.0010359697043895721
1761505918134072000,0.601072021484375,-0.006558300461620092,-0.002775280037894845,-0.0017156084068119526
1761505918144108000,0.61110791015625,-0.00449861166998744,-0.002124936319887638,-0.0003382214636076242
1761505918154145000,0.62114501953125,-0.006579872220754623,-0.0003731088654603809,-0.0012604740913957357
1761505918164182300,0.631182373046875,-0.0033009881153702736,-0.003067961661145091,-0.001038366463035345
1761505918174219000,0.641218994140625,-0.005382248666137457,-0.0037923413328826427,-0.002919357270002365
1761505918184256000,0.651256103515625,-0.005664810072630644,-0.0030900659039616585,-0.002254898427054286
1761505918194292000,0.6612919921875,-0.004782238509505987,-0.00017417073831893504,-0.0027925907634198666
1761505918204329000,0.671328857421875,-0.005937783978879452,-0.0034171019215136766,0.00047936898772604764
1761505918214366200,0.6813662109375,-0.006293582264333963,-0.0043867588974535465,-0.0023845944087952375
1761505918224403200,0.6914033203125,-0.00700810831040144,-0.0024612934794276953,-0.0044352286495268345
1761505918234440200,0.701440185546875,-0.005662945564836264,-0.0031547807157039642,-0.0017925737192854285
1761505918244477000,0.711476806640625,-0.006636863574385643,-0.001722798915579915,-0.003038400551304221
1761505918254513200,0.72151318359375,-0.005022455472499132,-0.004552407655864954,-0.0011640676530078053
1761505918264550100,0.731550048828125,-0.004926315508782864,0.0007440872141160071,-0.00019494339358061552
1761505918274587100,0.741587158203125,-0.0030988543294370174,-0.0002593918761704117,-0.003896737238392234
1761505918284624100,0.7516240234375,-0.006445115897804499,-0.002670884132385254,0.0005568669876083732
1761505918294661000,0.7616611328125,-0.006648315116763115,-0.001967543503269553,-0.0020274645648896694
1761505918304697000,0.771697021484375,-0.007185474969446659,-0.0013632721966132522,-0.0007592672482132912
1761505918314734300,0.781734375,-0.007370564620941877,-0.0010612696642056108,-0.0031041805632412434
1761505918324771000,0.79177099609375,-0.004867991898208857,-0.000037017940485384315,-0.0009914948605000973
1761505918334808000,0.80180810546875,-0.005333778914064169,-0.005270662251859903,-0.003914314322173595
1761505918344845000,0.811844970703125,-0.005366535857319832,-0.002478603972122073,-0.0032738239970058203
1761505918354882000,0.821882080078125,-0.005172924138605595,-0.0033015208318829536,-0.0010900318156927824
1761505918364918000,0.83191796875,-0.005163869354873896,-0.004151335451751947,-0.000056459015468135476
1761505918374955300,0.841955322265625,-0.006554305553436279,-0.0052203284576535225,-0.001740375766530633
1761505918384992000,0.851991943359375,-0.007155114784836769,-0.001977929612621665,-0.0008594020619057119
1761505918395029000,0.862029052734375,-0.004206462763249874,-0.0022919164039194584,0.0007179882377386093
1761505918405066000,0.87206591796875,-0.006313822232186794,-0.003349990351125598,-0.0010524812387302518
1761505918415102000,0.88210205078125,-0.0049255164340138435,-0.005056543741375208,-0.0023606258910149336
1761505918425139200,0.89213916015625,-0.006158826407045126,-0.0028788771014660597,-0.0009763148264028132
1761505918435176200,0.90217626953125,-0.007363906595855951,-0.002569950418546796,-0.0004703142330981791
1761505918445213200,0.912213134765625,-0.0063095614314079285,-0.0011544802691787481,-0.0022825952619314194
1761505918455250000,0.92225,-0.006903179921209812,-0.00041758365114219487,-0.0021374530624598265
1761505918465286100,0.9322861328125,-0.005145493429154158,-0.0033422671258449554,-0.0020687435753643513
1761505918475323100,0.9423232421875,-0.007159908767789602,-0.002019208623096347,-0.0030298782512545586
1761505918485360000,0.952360107421875,-0.005453355144709349,-0.004561728797852993,-0.0008940231637097895
1761505918495397000,0.962397216796875,-0.004583566449582577,-0.0031523837242275476,-0.0022114890161901712
1761505918505434000,0.97243408203125,-0.004338821861892939,-0.004445881117135286,-0.002049835165962577
1761505918515471000,0.98247119140625,-0.00589597225189209,-0.001695900922641158,-0.0023214775137603283
1761505918525507300,0.99250732421875,-0.004250404890626669,-0.003060770919546485,0.00036671728594228625
1761505918535544000,1.0025439453125,-0.007314638234674931,-0.0029230855870991945,0.0005488775204867125
1761505918545581000,1.0125810546875,-0.005195028148591518,-0.003436010330915451,-0.0006916229031048715
1761505918555618000,1.0226181640625,-0.00444002216681838,-0.0031846079509705305,-0.0026636936236172915
1761505918565655000,1.032655029296875,-0.006849916651844978,-0.004005926661193371,-0.0011374361347407103
1761505918575691300,1.042691162109375,-0.007386277429759502,-0.002263420494273305,-0.0011965582380071282
1761505918585728300,1.052728271484375,-0.005760150961577892,0.00022317290131468326,-0.001496430253610015
1761505918595765000,1.062764892578125,-0.005239236634224653,-0.002900714986026287,-0.003347060875967145
1761505918605802000,1.072802001953125,-0.007421431131660938,-0.0022943131625652313,-0.0018908443162217736
1761505918615839000,1.0828388671875,-0.007443801499903202,-0.005795304663479328,-0.002001631772145629
1761505918625875000,1.092875,-0.005816876422613859,-0.002544117858633399,-0.0046488139778375626
1761505918635912200,1.102912109375,-0.005944708362221718,-0.0052208611741662025,0.0005768407136201859
1761505918645949200,1.11294921875,-0.006445382256060839,-0.004486893769353628,0.000005326322025211994
1761505918655986200,1.122986083984375,-0.006421413738280535,-0.0068270135670900345,-0.002192580606788397
1761505918666023000,1.13302294921875,-0.006144445389509201,-0.004128698725253344,-0.0018375811632722616
1761505918676060200,1.14306005859375,-0.005824865773320198,-0.0038722362369298935,0.000570981705095619
1761505918686096100,1.15309619140625,-0.004008323885500431,-0.0026069683954119682,-0.0022011026740074158
1761505918696133000,1.163133056640625,-0.005849633365869522,-0.0035513252951204777,-0.00004207794336252846
1761505918706170000,1.173170166015625,-0.006058691535145044,-0.005353220272809267,-0.0014868428697809577
1761505918716207000,1.18320703125,-0.004352936986833811,-0.003914314322173595,-0.0004213120846543461
1761505918726244000,1.193244140625,-0.006082660052925348,-0.005644303746521473,0.0007012102869339287
1761505918736280300,1.2032802734375,-0.006644320674240589,-0.003919374197721481,-0.0014386395923793316
1761505918746317000,1.213317138671875,-0.005991579964756966,-0.00552339619025588,-0.0021052288357168436
1761505918756354000,1.22335400390625,-0.006356166675686836,-0.00390286254696548,-0.002055960241705179
1761505918766391000,1.23339111328125,-0.007333014160394669,-0.0028783443849533796,-0.0023220102302730083
1761505918776428300,1.24342822265625,-0.00635030772536993,-0.0038930089212954044,-0.00061279337387532
1761505918786464300,1.25346435546875,-0.005274123977869749,-0.0037199032958596945,-0.00043835630640387535
1761505918796501200,1.263501220703125,-0.005992112215608358,-0.005221127066761255,-0.0006639260682277381
1761505918806538000,1.2735380859375,-0.006046440917998552,-0.0019451729021966457,0.0002921487612184137
1761505918816575000,1.283574951171875,-0.006570551078766584,-0.004277569241821766,-0.0007198524544946849
1761505918826612000,1.293612060546875,-0.005555886775255203,0.0002532666258048266,-0.0009049421059899032
1761505918836649200,1.303649169921875,-0.006381732877343893,-0.0037238982040435076,-0.002373941708356142
1761505918846685200,1.313685302734375,-0.00885021686553955,-0.004731638357043266,-0.0035920715890824795
1761505918856722200,1.32372216796875,-0.006686398293823004,-0.0029020465444773436,-0.0022005699574947357
1761505918866759200,1.33375927734375,-0.0054666707292199135,-0.002133724745362997,0.00014887070574332029
1761505918876796000,1.3437958984375,-0.003888215171173215,-0.0019856528379023075,-0.0021558289881795645
1761505918886833200,1.353833251953125,-0.0030312100425362587,-0.005803028121590614,-0.0015361113473773003
1761505918896869000,1.363869140625,-0.005947371479123831,-0.005638711154460907,-0.001517735538072884
1761505918906906000,1.373906005859375,-0.004997421521693468,-0.0030341395176947117,-0.0007158577209338546
1761505918916943000,1.383943115234375,-0.006217149551957846,-0.004838164895772934,-0.0016330503858625889
1761505918926980000,1.39397998046875,-0.0068179587833583355,-0.0031462584156543016,-0.0017358483746647835
1761505918937017000,1.40401708984375,-0.00595589354634285,-0.0017478326335549355,-0.00018961707246489823
1761505918947053300,1.41405322265625,-0.004808603785932064,-0.0028810077346861362,-0.0018546254141256213
1761505918957090000,1.424090087890625,-0.007876564748585224,-0.005818474106490612,-0.001335575245320797
1761505918967127000,1.434126953125,-0.005566805601119995,-0.002627208363264799,-0.001603222917765379
1761505918977164000,1.4441640625,-0.007538077421486378,-0.0009614011505618691,-0.0024892566725611687
1761505918987201300,1.454201171875,-0.007127950433641672,-0.001448759576305747,-0.0007531419396400452
1761505918997237200,1.4642373046875,-0.006827545817941427,-0.002832005498930812,-0.004408597014844418
1761505919007274200,1.474274169921875,-0.007199855986982584,0.00039760995423421264,0.000496945867780596
1761505919017311000,1.48431103515625,-0.00279125920496881,-0.00046365635353140533,-0.0017028251895681024
1761505919027348000,1.494347900390625,-0.00882038939744234,-0.005789978429675102,-0.004079164005815983
1761505919037385000,1.504385009765625,-0.005440571811050177,-0.006266417913138866,0.00004207794336252846
1761505919047421000,1.5144208984375,-0.006196376867592335,-0.001243696198798716,-0.000601075473241508
1761505919057458200,1.524458251953125,-0.006570284720510244,-0.003192331176251173,-0.0021116205025464296
1761505919067495200,1.5344951171875,-0.004768922459334135,-0.002995523624122143,0.0005395564367063344
1761505919077532200,1.5445322265625,-0.005998237524181604,-0.006343116983771324,-0.002204564632847905
1761505919087569000,1.55456884765625,-0.006569752003997564,-0.0029995182994753122,-0.0002884203568100929
1761505919097606100,1.564606201171875,-0.005229915492236614,-0.0019204054260626435,-0.0007366303470917046
1761505919107642000,1.57464208984375,-0.004948153160512447,-0.003236006945371628,-0.0009025452891364694
1761505919117679000,1.58467919921875,-0.006871488410979509,-0.003216033335775137,0.0002306297537870705
1761505919127716000,1.594716064453125,-0.00621075788512826,-0.005635781679302454,0.0002836266648955643
1761505919137753000,1.604753173828125,-0.007724498864263296,-0.004452272783964872,-0.0026929883752018213
1761505919147790000,1.6147900390625,-0.0046730488538742065,-0.0038003309164196253,-0.0027366643771529198
1761505919157826300,1.624826416015625,-0.004863464739173651,-0.003683684393763542,-0.0014564828015863895
1761505919167863000,1.634863037109375,-0.008016647771000862,-0.004611529875546694,0.0001512675517005846
1761505919177900000,1.644900146484375,-0.003209375310689211,-0.0033073797821998596,-0.003524960018694401
1761505919187937000,1.65493701171875,-0.006076801102608442,-0.005428321193903685,-0.002665557898581028
1761505919197974000,1.66497412109375,-0.004906075540930033,-0.0029023129027336836,-0.002374208066612482
1761505919208010000,1.675010009765625,-0.005947105120867491,-0.003691940102726221,-0.0009395632077939808
1761505919218047200,1.685047119140625,-0.006450442597270012,-0.0029952572658658028,-0.002246110001578927
1761505919228084000,1.695083984375,-0.00612207455560565,-0.005783586762845516,-0.002348109148442745
1761505919238121000,1.705120849609375,-0.006040581967681646,-0.0031071100383996964,-0.0005824333056807518
1761505919248158000,1.715157958984375,-0.0065588331781327724,-0.002313754288479686,0.00015899071877356619
1761505919258194000,1.72519384765625,-0.005601426586508751,-0.005822735372930765,-0.0023270701058208942
1761505919268231200,1.735231201171875,-0.0057585532777011395,-0.004467719234526157,-0.0006538060260936618
1761505919278268200,1.74526806640625,-0.007497597485780716,-0.0026194851379841566,-0.003596598980948329
1761505919288305200,1.75530517578125,-0.00577799417078495,-0.005597964394837618,-0.004329234827309847
1761505919298342000,1.765341796875,-0.005959355738013983,-0.003715375903993845,-0.00021385183208622038
1761505919308377900,1.7753779296875,-0.006837932392954826,-0.0002492718631401658,-0.0018080200534313917
1761505919318415000,1.7854150390625,-0.0038519962690770626,-0.0034410704392939806,-0.0022945795208215714
1761505919328452000,1.7954521484375,-0.004403536673635244,-0.0009747169679030776,-0.0023225427139550447
1761505919338489000,1.805489013671875,-0.0032083101104944944,-0.006601443514227867,0.0013859090395271778
1761505919348526000,1.815526123046875,-0.007105047348886728,-0.0030131004750728607,-0.001918807509355247
1761505919358562000,1.82556201171875,-0.004682902246713638,-0.0032378712203353643,-0.000254331884207204
1761505919368599300,1.835599365234375,-0.005833121482282877,-0.0016082830261439085,-0.0023148194886744022
1761505919378636000,1.845635986328125,-0.007607319392263889,-0.0006340986583381891,-0.0006325007416307926
1761505919388673000,1.855673095703125,-0.006118612363934517,-0.003222425002604723,0.00025779398856684566
1761505919398709000,1.865708984375,-0.005647765472531319,-0.002167813014239073,-0.0004577973741106689
1761505919408746000,1.87574609375,-0.005142830312252045,-0.004826713353395462,-0.002728408435359597
1761505919418783000,1.885782958984375,-0.006340720225125551,-0.003186472225934267,-0.0011622034944593906
1761505919428820200,1.8958203125,-0.005218996666371822,-0.0024146882351487875,-0.000016777914424892515
1761505919438857000,1.90585693359375,-0.005152684170752764,-0.0031523837242275476,-0.003650128608569503
1761505919448893200,1.91589306640625,-0.005980394314974546,-0.005416869651526213,-0.0021763353142887354
1761505919458930000,1.925929931640625,-0.0072954632341861725,-0.0037920749746263027,-0.0028389296494424343
1761505919468967000,1.935966796875,-0.006777212489396334,-0.0052320463582873344,-0.0010149306617677212
1761505919479004200,1.946004150390625,-0.0071037160232663155,-0.005312473513185978,-0.0006924218614585698
1761505919489041200,1.956041259765625,-0.007964981719851494,-0.003680488560348749,-0.0000958738019107841
1761505919499077000,1.9660771484375,-0.0076025258749723434,-0.0030000510159879923,-0.002020007697865367
1761505919509114000,1.976114013671875,-0.008561530150473118,-0.0052176653407514095,0.0035233621019870043
1761505919519150800,1.98615087890625,-0.006186256650835276,-0.0028250813484191895,-0.002092179376631975
1761505919529188000,1.99618798828125,-0.006176136899739504,-0.004852812271565199,-0.0025457157753407955
1761505919539225000,2.00622509765625,-0.0060211410745978355,-0.003453587181866169,-0.00042583944741636515
1761505919549261000,2.016260986328125,-0.006247776094824076,-0.005674397107213736,-0.0016223976854234934
1761505919559298000,2.026298095703125,-0.005101284943521023,-0.003781156148761511,-0.001422128058038652
1761505919569335000,2.0363349609375,-0.005408880300819874,-0.0006585997180081904,0.001603222917765379
1761505919579372300,2.046372314453125,-0.007300523575395346,-0.0036828855518251657,-0.0018128136871382594
1761505919589409000,2.056408935546875,-0.004701544530689716,-0.0033241575583815575,-0.0014450311427935958
1761505919599445000,2.066445068359375,-0.0067777447402477264,-0.0032732912804931402,-0.0013781858142465353
1761505919609482000,2.07648193359375,-0.00577799417078495,-0.0025182850658893585,0.001871403306722641
1761505919619519000,2.08651904296875,-0.006953780073672533,-0.0016943031223490834,-0.0010543455136939883
1761505919629556200,2.09655615234375,-0.0044200485572218895,-0.004466920159757137,-0.0028160265646874905
1761505919639592200,2.10659228515625,-0.005331914871931076,-0.0024285365361720324,-0.0009134642314165831
1761505919649629200,2.116629150390625,-0.006731938570737839,-0.0004370247188489884,-0.0022362563759088516
1761505919659666200,2.126666259765625,-0.005248291417956352,-0.00449781259521842,-0.001127848750911653
1761505919669703000,2.136702880859375,-0.00433056615293026,-0.0018216022290289402,-0.00004846953015658073
1761505919679740000,2.146739990234375,-0.00797430332750082,-0.002386192325502634,-0.0015036207623779774
1761505919689776000,2.156776123046875,-0.00683100800961256,-0.003123621689155698,-0.0009930927772074938
1761505919699813000,2.166813232421875,-0.007366836071014404,-0.0018064221367239952,0.00014460964302998036
1761505919709850000,2.17685009765625,-0.004233094397932291,-0.003424825146794319,-0.0008799084462225437
1761505919719887000,2.18688720703125,-0.005599562544375658,-0.0018940401496365666,0.0009688580175861716
1761505919729923800,2.196923828125,-0.005210474599152803,-0.003849599277600646,-0.0012314456980675459
1761505919739960000,2.2069599609375,-0.004807804711163044,-0.00063383235828951,-0.002513491315767169
1761505919749997000,2.2169970703125,-0.0067575047723948956,-0.001886317040771246,-0.00006125270738266408
1761505919760034000,2.227033935546875,-0.004852545913308859,-0.0046757119707763195,-0.0029356025625020266
1761505919770071000,2.237071044921875,-0.004697815980762243,-0.0025515747256577015,-0.0024229439441114664
1761505919780107000,2.24710693359375,-0.0055180699564516544,-0.003388339886441827,-0.0006916229031048715
1761505919790144000,2.25714404296875,-0.004205930046737194,-0.0015568839153274894,-0.0006170544074848294
1761505919800181200,2.26718115234375,-0.006080529186874628,-0.002674346324056387,-0.0005169195355847478
1761505919810218000,2.277218017578125,-0.00618039770051837,-0.0034013893455266953,-0.002092179376631975
1761505919820255000,2.2872548828125,-0.004976116586476564,-0.004083158448338509,-0.001496430253610015
1761505919830291000,2.297291015625,-0.00418409239500761,-0.0027944548055529594,-0.001443166984245181
1761505919840328000,2.307327880859375,-0.00606268597766757,-0.0023214775137603283,-0.0026639599818736315
1761505919850365200,2.317365234375,-0.005046157632023096,-0.0017904432024806738,0.00020985709852539003
1761505919860402200,2.327402099609375,-0.0052054147236049175,-0.0034317492973059416,-0.004012851044535637
1761505919870438100,2.337438232421875,-0.005850698333233595,-0.002831206424161792,-0.0004916195175610483
1761505919880475100,2.34747509765625,-0.0076030585914850235,-0.001987783471122384,-0.00023302659974433482
1761505919890512000,2.357511962890625,-0.005034439731389284,-0.003742007538676262,0.00213638786226511
1761505919900549000,2.367549072265625,-0.005238970275968313,-0.0025744778104126453,-0.00047590688336640596
1761505919910585000,2.377585205078125,-0.005909820552915335,-0.001657551503740251,-0.000502804818097502
1761505919920622000,2.3876220703125,-0.007645935285836458,-0.003973702434450388,-0.0007384945638477802
1761505919930659000,2.3976591796875,-0.0038535939529538155,-0.0033214944414794445,-0.0025739450938999653
1761505919940696000,2.407696044921875,-0.0049191247671842575,-0.004649346694350243,-0.0027137610595673323
1761505919950733300,2.4177333984375,-0.004449343308806419,-0.002237854292616248,-0.0005542038124985993
1761505919960769300,2.427769287109375,-0.005345496814697981,-0.0019438412273302674,-0.0006652576266787946
1761505919970806000,2.437805908203125,-0.005661347880959511,-0.0030394657514989376,-0.001255946815945208
1761505919980843000,2.447843017578125,-0.0041039311327040195,-0.001588841900229454,-0.0010729875648394227
1761505919990880000,2.4578798828125,-0.007364439312368631,-0.0034354778472334146,-0.002213885774835944
1761505920000916000,2.467916015625,-0.005001416429877281,-0.005281048361212015,-0.0008625978953205049
1761505920010953000,2.477952880859375,-0.008688828907907009,-0.0020567593164741993,-0.0025571673177182674
1761505920020990200,2.487990234375,-0.005108209326863289,-0.0029944581910967827,-0.005555620416998863
1761505920031028200,2.4980283203125,-0.006988667417317629,-0.0016596820205450058,0.0015504923649132252
1761505920041064200,2.508064208984375,-0.007438741624355316,-0.0026578346733003855,0.00003808320252574049
1761505920051101200,2.51810107421875,-0.0048978193663060665,-0.002025333931669593,-0.0010450243717059493
1761505920061138200,2.52813818359375,-0.006681871134787798,-0.0035385421942919493,-0.0019401127938181162
1761505920071175400,2.538175537109375,-0.005160407163202763,-0.003862116253003478,-0.0018341189716011286
1761505920081212200,2.548212158203125,-0.007138869725167751,-0.004442951641976833,-0.0009038768475875258
1761505920091248400,2.558248291015625,-0.0052235242910683155,-0.0011574097443372011,-0.001537709147669375
1761505920101285000,2.56828515625,-0.007646201644092798,-0.004622448701411486,-0.0009741843095980585
1761505920111322000,2.578322021484375,-0.005608084611594677,-0.004862399306148291,-0.000316916179144755
1761505920121359400,2.588359375,-0.006432599388062954,-0.005464540328830481,-0.0006016080733388662
1761505920131395300,2.598395263671875,-0.009074721485376358,-0.0017457021167501807,-0.0005629922379739583
1761505920141432300,2.608432373046875,-0.0032061797101050615,-0.0011254518758505583,0.000055660068028373644
1761505920151469300,2.61846923828125,-0.006019010208547115,-0.002409095410257578,-0.00148125016130507
1761505920161506000,2.628506103515625,-0.003090864745900035,-0.003971838392317295,0.0009339706157334149
1761505920171542300,2.638542236328125,-0.006618754006922245,-0.0054243262857198715,0.00040187101694755256
1761505920181579300,2.648579345703125,-0.006292783189564943,-0.0031878037843853235,-0.0018397116800770164
1761505920191616300,2.6586162109375,-0.007129548583179712,-0.0018391790799796581,-0.0013968279818072915
1761505920201653200,2.6686533203125,-0.008987103588879108,-0.0037768951151520014,-0.003035471076145768
1761505920211689200,2.678689208984375,-0.004322843160480261,-0.0028599686920642853,-0.0013084110105410218
1761505920221726200,2.688726318359375,-0.003620034782215953,-0.006316218990832567,-0.0008966863388195634
1761505920231763200,2.69876318359375,-0.005234443116933107,-0.0030988543294370174,-0.0015419702976942062
1761505920241800200,2.70880029296875,-0.004791293293237686,-0.004610730800777674,0.0006846986943855882
1761505920251837200,2.718837158203125,-0.00680197961628437,-0.0009092031978070736,-0.002537992550060153
1761505920261873200,2.728873046875,-0.005275722127407789,-0.002847185591235757,-0.000672448193654418
1761505920271910100,2.73891015625,-0.0067963870242238045,-0.0024919197894632816,-0.0021574266720563173
1761505920281947100,2.748947021484375,-0.005816077347844839,-0.0048855687491595745,-0.0004575310740619898
1761505920291983000,2.758983154296875,-0.005857090000063181,-0.004524177871644497,-0.0007906925166025758
1761505920302020400,2.769020263671875,-0.006292250473052263,-0.0029590383637696505,-0.004461593925952911
1761505920312057300,2.779057373046875,-0.004051733296364546,-0.0029433255549520254,-0.0017116136150434613
1761505920322094000,2.789093994140625,-0.007995341904461384,-0.0017070862231776118,-0.0010671286145225167
1761505920332131000,2.799131103515625,-0.007798800710588694,-0.004874649923294783,-0.001540904981084168
1761505920342167000,2.8091669921875,-0.00649651512503624,-0.0016666061710566282,-0.001820536912418902
1761505920352204300,2.819204345703125,-0.004072239622473717,-0.0041792988777160645,0.00045140579459257424
1761505920362241300,2.8292412109375,-0.005134574603289366,-0.001663144095800817,-0.0021827267482876778
1761505920372278300,2.8392783203125,-0.005559881217777729,-0.004825914278626442,-0.002469282830134034
1761505920382314200,2.849314208984375,-0.003811516100540757,-0.004403536673635244,-0.0026325348298996687
1761505920392351200,2.859351318359375,-0.006618754006922245,-0.005470931995660067,-0.0008681904873810709
1761505920402388200,2.86938818359375,-0.006703176535665989,-0.004240551497787237,-0.0008905610884539783
1761505920412425200,2.87942529296875,-0.002794188680127263,-0.0025630262680351734,-0.002886600326746702
1761505920422461200,2.889461181640625,-0.005410744342952967,-0.0025979136116802692,0.0009901633020490408
1761505920432498200,2.899498291015625,-0.004160390235483646,-0.0018911106744781137,-0.002769953804090619
1761505920442535200,2.90953515625,-0.0068243504501879215,-0.0030213561840355396,-0.0013451626291498542
1761505920452571100,2.919571044921875,-0.005886651109904051,-0.0030538467690348625,-0.0011763182701542974
1761505920462608400,2.9296083984375,-0.005113269202411175,-0.005583583377301693,0.00010892329009948298
1761505920472645400,2.939645263671875,-0.006511695217341185,-0.001344363670796156,0.00023808660625945777
1761505920482682000,2.94968212890625,-0.0057010287418961525,-0.0015227955300360918,-0.0015813850332051516
1761505920492718300,2.95971826171875,-0.00830879621207714,-0.0016261261189356446,-0.0013622068800032139
1761505920502755000,2.969755126953125,-0.005291967187076807,-0.0014820491196587682,-0.004186489153653383
1761505920512792300,2.979792236328125,-0.004160656593739986,-0.005169461946934462,-0.00210709311068058
1761505920522829300,2.989829345703125,-0.005386775825172663,-0.0017153420485556126,-0.002229065867140889
1761505920532865300,2.999865234375,-0.006072007119655609,-0.0031289479229599237,0.00021598236344289035
1761505920542902300,3.00990234375,-0.005020058713853359,0.00004420847471919842,-0.000883636821527034
1761505920552939300,3.019939208984375,-0.005043494515120983,-0.004778509959578514,-0.0010804444318637252
1761505920562976000,3.02997607421875,-0.006042712368071079,-0.0024977787397801876,-0.001300155185163021
1761505920573012200,3.04001220703125,-0.007492803502827883,-0.005092230159789324,0.00012516857532318681
1761505920583049200,3.05004931640625,-0.005316734779626131,-0.0027984497137367725,0.00038269624928943813
1761505920593086200,3.060086181640625,-0.006852579768747091,-0.0012034825049340725,-0.0010980212828144431
1761505920603123200,3.070123291015625,-0.005283711478114128,-0.004551075864583254,-0.0023331954143941402
1761505920613159200,3.0801591796875,-0.0054304515942931175,-0.003203516360372305,-0.0016913736471906304
1761505920623196200,3.090196044921875,-0.005269596818834543,-0.003127083647996187,0.00042743736412376165
1761505920633233400,3.1002333984375,-0.006355633959174156,-0.0017678063595667481,-0.0006977482116781175
1761505920643270100,3.110270263671875,-0.00430180411785841,-0.0032413334120064974,-0.0006431533838622272
1761505920653306400,3.120306396484375,-0.006552175153046846,-0.0052205948159098625,-0.0018005631864070892
1761505920663343000,3.130343017578125,-0.006928746122866869,-0.002703374717384577,-0.0022778017446398735
1761505920673380000,3.140380126953125,-0.005062402691692114,-0.0019944412633776665,-0.0008303736103698611
1761505920683417300,3.150417236328125,-0.008992962539196014,-0.0032415995374321938,-0.0014807175612077117
1761505920693453300,3.160453369140625,-0.005124188028275967,-0.003425091505050659,-0.0024410535115748644
1761505920703490300,3.170490234375,-0.006794256623834372,-0.0070549799129366875,-0.000955009541939944
1761505920713527300,3.18052734375,-0.006868824828416109,-0.0029561088886111975,0.0005520732956938446
1761505920723563300,3.190563232421875,-0.006107693538069725,-0.00777589762583375,-0.0001102548703784123
1761505920733600300,3.200600341796875,-0.004628840368241072,-0.0031819448340684175,-0.00017949705943465233
1761505920743637200,3.21063720703125,-0.0065284729935228825,-0.0033603766933083534,-0.00018748654110822827
1761505920753674200,3.22067431640625,-0.006420615129172802,-0.0027659591287374496,0.0006330333999358118
1761505920763710200,3.230710205078125,-0.006714361719787121,-0.0016586167039349675,-0.0009033442474901676
1761505920773747200,3.240747314453125,-0.007559116464108229,-0.004483697935938835,-0.0015401060227304697
1761505920783784200,3.2507841796875,-0.005299424286931753,-0.002348109148442745,-0.0015257250051945448
1761505920793821400,3.260821533203125,-0.006090383045375347,-0.004722050856798887,-0.001543834456242621
1761505920803857400,3.270857421875,-0.005659749731421471,-0.002779541304334998,0.0015552861150354147
1761505920813894100,3.28089404296875,-0.006393184419721365,-0.0019526296528056264,-0.0008378304773941636
1761505920823931100,3.29093115234375,-0.006363090593367815,-0.002027997048571706,0.0010700580896809697
1761505920833967000,3.300967041015625,-0.006970824208110571,-0.0023041670210659504,0.00013315805699676275
1761505920844004000,3.311004150390625,-0.007772435434162617,-0.003565173828974366,-0.001442900625988841
1761505920854041300,3.321041259765625,-0.003875964554026723,-0.004296477884054184,-0.002371544949710369
1761505920864078300,3.331078369140625,-0.007638745009899139,-0.0025015072897076607,-0.0016961672808974981
1761505920874114300,3.3411142578125,-0.004898618441075087,-0.004009655211120844,0.0008287757518701255
1761505920884151300,3.3511513671875,-0.006970824208110571,-0.002807770622894168,0.00022503710351884365
1761505920894188300,3.361188232421875,-0.005598763469606638,-0.0030807447619736195,0.0003787015157286078
1761505920904225300,3.371225341796875,-0.007081345189362764,-0.0037228327710181475,-0.0002822950773406774
1761505920914261200,3.38126123046875,-0.006464290898293257,-0.0003057308786083013,-0.004652808886021376
1761505920924298200,3.39129833984375,-0.008050203323364258,-0.005577990785241127,-0.0016314524691551924
1761505920934335200,3.401335205078125,-0.005947637837380171,-0.004828311037272215,-0.0006593986763618886
1761505920944371200,3.41137109375,-0.003829092951491475,-0.0019228023011237383,0.0015217302134260535
1761505920954408200,3.421408203125,-0.005641906522214413,-0.003916977439075708,-0.0012783173006027937
1761505920964445400,3.431445556640625,-0.00657641002908349,-0.0023044333793222904,-0.002115348819643259
1761505920974482200,3.441482177734375,-0.006883738562464714,-0.0018809906905516982,0.0005515406373888254
1761505920984518400,3.451518310546875,-0.006770554464310408,-0.0027236149180680513,-0.0017670074012130499
1761505920994555100,3.46155517578125,-0.007554056588560343,-0.004548412747681141,-0.005644570104777813
1761505921004592000,3.471592041015625,-0.007074687164276838,-0.0006815029191784561,-0.0018165421206504107
1761505921014629000,3.481629150390625,-0.005774798337370157,-0.00424241553992033,-0.001374457380734384
1761505921024665000,3.4916650390625,-0.005593703594058752,-0.005684517323970795,-0.003611512714996934
1761505921034702000,3.5017021484375,-0.0072805495001375675,-0.004798749927431345,0.00042823629337362945
1761505921044739000,3.511739013671875,-0.005387574899941683,-0.004514324478805065,0.00047617321251891553
1761505921054775000,3.521775146484375,-0.00504029868170619,-0.002275404753163457,0.0012128035305067897
1761505921064812300,3.531812255859375,-0.007808654569089413,-0.002417883835732937,-0.00024527712957933545
1761505921074849000,3.54184912109375,-0.007751929108053446,-0.002484196564182639,-0.0025390577502548695
1761505921084886000,3.551885986328125,-0.00788269005715847,-0.0028245486319065094,0.001088433898985386
1761505921094922000,3.561921875,-0.0049255164340138435,-0.004840295296162367,-0.0006412891671061516
1761505921104959000,3.571958984375,-0.006819023750722408,-0.0024176177103072405,-0.0006756439688615501
1761505921114996000,3.581995849609375,-0.005786516238003969,-0.002788063371554017,-0.001689775730483234
1761505921125032200,3.5920322265625,-0.005051483865827322,-0.004430168308317661,-0.002115881536155939
1761505921135069200,3.602069091796875,-0.006356698926538229,-0.007723433431237936,0.000690291344653815
1761505921145106200,3.612106201171875,-0.007487743627279997,-0.0043920851312577724,-0.0031875374261289835
1761505921155143000,3.622142822265625,-0.006000634748488665,-0.001967010786756873,-0.0024642229545861483
1761505921165179100,3.63217919921875,-0.005489307455718517,-0.004093811381608248,-0.0018306568963453174
1761505921175215900,3.6422158203125,-0.005017395596951246,-0.004671717062592506,0.0014205301413312554
1761505921185253000,3.652253173828125,-0.00782543234527111,-0.004554271697998047,-0.0003731088654603809
1761505921195289000,3.6622890625,-0.0038426751270890236,-0.0021640846971422434,-0.0021489046048372984
1761505921205326000,3.672326171875,-0.006598514039069414,-0.003166232258081436,-0.0014271880500018597
1761505921215363000,3.682363037109375,-0.007991613820195198,-0.006698915269225836,-0.0013129384024068713
1761505921225400000,3.692400146484375,-0.005631520412862301,-0.0034882084000855684,-0.004376106429845095
1761505921235436000,3.70243603515625,-0.006226470693945885,-0.0036421390250325203,-0.0023411849979311228
1761505921245473000,3.71247314453125,-0.005191565956920385,-0.0013771206140518188,-0.0017129451734945178
1761505921255510000,3.722510009765625,-0.004526575095951557,-0.003769171889871359,0.0003736414946615696
1761505921265546000,3.7325458984375,-0.0044349622912704945,-0.0022357236593961716,-0.001814411603845656
1761505921275583000,3.7425830078125,-0.00800279900431633,-0.0022690133191645145,0.001543834456242621
1761505921285620000,3.752619873046875,-0.0028487835079431534,-0.0057372478768229485,-0.0006386260502040386
1761505921295656000,3.762656005859375,-0.007674431428313255,-0.0044229780323803425,-0.00315984059125185
1761505921305693200,3.772693115234375,-0.0035891421139240265,-0.003982757218182087,0.002341451123356819
1761505921315730200,3.782730224609375,-0.0049460227601230145,-0.0047031426802277565,-0.0017662084428593516
1761505921325767200,3.79276708984375,-0.005435511935502291,-0.0036495958920568228,-0.0015052186790853739
1761505921335803100,3.80280322265625,-0.006941263098269701,-0.0037619813811033964,-0.0016045545926317573
1761505921345839900,3.81283984375,-0.00782383419573307,-0.003337473375722766,-0.0011888351291418076
1761505921355877000,3.822877197265625,-0.006110623013228178,-0.004200071096420288,-0.0033332123421132565
1761505921365913000,3.8329130859375,-0.006710899528115988,-0.003454119898378849,-0.0009052084642462432
1761505921375950000,3.8429501953125,-0.007769505959004164,-0.0009422263829037547,-0.004225371405482292
1761505921385987000,3.852987060546875,-0.006593187805265188,-0.004368915688246489,0.00037257623625919223
1761505921396024000,3.863024169921875,-0.004248807206749916,-0.0024836640805006027,0.00038722361205145717
1761505921406060000,3.87306005859375,-0.00669305631890893,-0.002654372714459896,-0.00035952674807049334
1761505921416097300,3.88309716796875,-0.006441654171794653,-0.0007611314067617059,0.00021518341964110732
1761505921426134000,3.893134033203125,-0.0054879761300981045,-0.004889297299087048,-0.0032056469935923815
1761505921436170000,3.903169921875,-0.007181746419519186,-0.0024463797453790903,0.0008503473363816738
1761505921446207000,3.91320703125,-0.005408081226050854,-0.003231213428080082,-0.000800279900431633
1761505921456244000,3.923243896484375,-0.008841162547469139,-0.004442685283720493,-0.0022857910953462124
1761505921466280000,3.933280029296875,-0.006535930093377829,-0.0012570120161399245,-0.002418416552245617
1761505921476317200,3.943317138671875,-0.005434180144220591,-0.004686897154897451,-0.0007912251749075949
1761505921486354200,3.953354248046875,-0.006746053230017424,-0.006073072552680969,-0.0008825715631246567
1761505921496391200,3.96339111328125,-0.004080761689692736,-0.001136637176387012,-0.0015012238873168826
1761505921506427100,3.97342724609375,-0.0057321880012750626,-0.004797684494405985,-0.0025598304346203804
1761505921516463900,3.9834638671875,-0.006307430565357208,-0.0021374530624598265,0.0003507383225951344
1761505921526501000,3.993501220703125,-0.008831574581563473,-0.001172323478385806,-0.002225603675469756
1761505921536537000,4.003537109375,-0.004322310443967581,-0.0048855687491595745,-0.003979827743023634
1761505921546572000,4.013572021484375,-0.006632336415350437,0.00040959418402053416,-0.0011544802691787481
1761505921556609300,4.023609375,-0.00566960358992219,-0.0014543522847816348,-0.0031185615807771683
1761505921566646000,4.03364599609375,-0.005334577988833189,-0.0011936287628486753,-0.00006711165769957006
1761505921576682000,4.043681884765625,-0.006779609248042107,-0.0009177253232337534,-0.00018748654110822827
1761505921586719000,4.053718994140625,-0.003739344421774149,-0.0036999296862632036,-0.0035595810040831566
1761505921596756000,4.063755859375,-0.0070709590800106525,-0.0017592841759324074,-0.002407231368124485
1761505921606792000,4.0737919921875,-0.006051500793546438,-0.003102049930021167,0.00009693906031316146
1761505921616829200,4.0838291015625,-0.0054272557608783245,-0.004566788673400879,-0.0012626046082004905
1761505921626866200,4.0938662109375,-0.005876531358808279,-0.00398755120113492,-0.002147306688129902
1761505921636903200,4.103903076171875,-0.00794341042637825,-0.002712695859372616,-0.0005720470217056572
1761505921646939100,4.113939208984375,-0.00242187874391675,-0.0070248860865831375,-0.0013630058383569121
1761505921656976000,4.123975830078125,-0.007209443487226963,-0.00433056615293026,-0.00098217383492738
1761505921667013000,4.13401318359375,-0.006100769154727459,-0.0005723133217543364,-0.0007131945458240807
1761505921677049000,4.144049072265625,-0.006102367304265499,-0.0029848709236830473,0.0005589975044131279
1761505921687086000,4.154086181640625,-0.008702144958078861,-0.0014146711910143495,-0.001928128651343286
1761505921697123000,4.164123046875,-0.002755040070042014,-0.0024024376180022955,-0.0005984122981317341
1761505921707159000,4.174158935546875,-0.007309578359127045,-0.0020823257509618998,-0.00004340952364145778
1761505921717196000,4.184196044921875,-0.005787848029285669,-0.0035518580116331577,-0.0005837649223394692
1761505921727233300,4.1942333984375,-0.00501100393012166,-0.00404614070430398,0.000036218989407643676
1761505921737269200,4.204269287109375,-0.005644835997372866,-0.003132410114631057,0.0005142564186826348
1761505921747306000,4.214305908203125,-0.0062429821118712425,-0.005370797123759985,-0.0017251957906410098
1761505921757343000,4.224343017578125,-0.005946306046098471,-0.004339354578405619,-0.0028610338922590017
1761505921767379000,4.23437890625,-0.005600095260888338,-0.002368349116295576,-0.0013576794881373644
1761505921777416000,4.244416015625,-0.008404936641454697,-0.003913515247404575,-0.0009632653673179448
1761505921787453200,4.254453125,-0.0065380604937672615,-0.0028937908355146646,-0.000978711643256247
1761505921797489200,4.2644892578125,-0.0030423952266573906,-0.002493784064427018,-0.00011717908637365326
1761505921807526100,4.274526123046875,-0.005031510256230831,-0.0046152579598128796,-0.0014120079576969147
1761505921817563100,4.284563232421875,-0.006840861868113279,-0.0017281252657994628,0.00034674355993047357
1761505921827600100,4.29460009765625,-0.006423011887818575,-0.001446096459403634,-0.003501257859170437
1761505921837636000,4.304635986328125,-0.005359877832233906,-0.0023758059833198786,-0.0015672702575102448
1761505921847673000,4.314673095703125,-0.005933522712439299,-0.0022101574577391148,-0.00010599380766507238
1761505921857710000,4.3247099609375,-0.0030980552546679974,-0.005904227960854769,-0.00000852211542223813
1761505921867746000,4.33474609375,-0.004280232358723879,-0.003381948219612241,-0.002055161399766803
1761505921877783000,4.344782958984375,-0.00618172949180007,-0.0056951697915792465,-0.0012833772925660014
1761505921887820000,4.354820068359375,-0.006444583646953106,-0.0013819142477586865,-0.0013811152894049883
1761505921897856000,4.36485595703125,-0.007840080186724663,-0.004513525404036045,-0.001074052881449461
1761505921907893200,4.374893310546875,-0.005633118096739054,-0.004472246393561363,-0.001139300293289125
1761505921917930200,4.38493017578125,-0.010157829150557518,-0.0006034722900949419,-0.0006652576266787946
1761505921927966200,4.39496630859375,-0.005115133244544268,-0.00304612354375422,-0.0034887411165982485
1761505921938003000,4.4050029296875,-0.006456301547586918,-0.004610198084264994,0.0016367788193747401
1761505921948040000,4.4150400390625,-0.00615270109847188,-0.005035771057009697,-0.0014863101532682776
1761505921958076000,4.425075927734375,-0.00714765815064311,-0.0032735576387494802,-0.00341577036306262
1761505921968113200,4.435113037109375,-0.0057007623836398125,-0.0017265273490920663,0.00001304948909819359
1761505921978150100,4.445150146484375,-0.007407848723232746,-0.003920173272490501,-0.002357163932174444
1761505921988186000,4.45518603515625,-0.005114867351949215,-0.0017539578257128596,0.00009906959166983142
1761505921998223000,4.46522314453125,-0.0070190271362662315,-0.0033129723742604256,-0.0012213257141411304
1761505922008260000,4.475260009765625,-0.006126069463789463,-0.00370126124471426,-0.0017619474092498422
1761505922018296000,4.485296142578125,-0.005618204362690449,-0.0044176517985761166,-0.0010615360224619508
1761505922028333300,4.495333251953125,-0.0062488410621881485,-0.0030272151343524456,-0.0026290726382285357
1761505922038370300,4.505370361328125,-0.0062403189949691296,-0.0026940538082271814,0.0006159891490824521
1761505922048407600,4.515407470703125,-0.004342017695307732,-0.002939863596111536,-0.0006801713607273996
1761505922058443500,4.525443603515625,-0.0067452541552484035,-0.0029755497816950083,-0.001320927869528532
1761505922068480500,4.53548046875,-0.004472246393561363,-0.0011944277212023735,-0.0021433120127767324
1761505922078517500,4.545517578125,-0.00683047529309988,-0.002046372974291444,0.00020506340661086142
1761505922088553500,4.555553466796875,-0.005305549595504999,-0.0008868326549418271,-0.003038400551304221
1761505922098590500,4.565590576171875,-0.00580862071365118,-0.003775297198444605,-0.002267415402457118
1761505922108627500,4.57562744140625,-0.005263471510261297,-0.001386441639624536,0.0005075985100120306
1761505922118665500,4.58566552734375,-0.007134342100471258,-0.004593686666339636,0.00048389637959189713
1761505922128702500,4.595702392578125,-0.005406483076512814,-0.0025776736438274384,-0.0022295983508229256
1761505922138738400,4.605738525390625,-0.0027856663800776005,-0.0022748722694814205,-0.0015560849569737911
1761505922148775700,4.615775634765625,-0.003185939509421587,-0.002709500025957823,-0.0005685848882421851
1761505922158812400,4.6258125,-0.007545001804828644,-0.003433080855756998,-0.0023497070651501417
1761505922168848600,4.6358486328125,-0.007702660746872425,-0.00436039362102747,-0.0012748552253469825
1761505922178885400,4.645885498046875,-0.006666424684226513,-0.00561128044500947,-0.0005488775204867125
1761505922188922400,4.65592236328125,-0.005865079816430807,-0.0027979169972240925,-0.0018634138396009803
1761505922198958300,4.665958251953125,-0.00418276060372591,-0.0006295712664723396,-0.0006087986403144896
1761505922208995600,4.67599560546875,-0.005705290008336306,-0.0034615767654031515,-0.001960352761670947
1761505922219032600,4.686032470703125,-0.007735151331871748,-0.0018247979460284114,-0.0011656655697152019
1761505922229068500,4.696068603515625,-0.005407282151281834,-0.000648479734081775,-0.002208026824519038
1761505922239105500,4.70610546875,-0.006019542925059795,-0.006739927921444178,-0.001531850197352469
1761505922249142500,4.716142578125,-0.0059628174640238285,-0.0020064255222678185,-0.0021675468888133764
1761505922259178500,4.726178466796875,-0.008796953596174717,-0.004829110112041235,-0.002305498579517007
1761505922269215500,4.736215576171875,-0.0062576294876635075,-0.00336197461001575,0.00031558459158986807
1761505922279252500,4.74625244140625,-0.004854942671954632,-0.003943076357245445,-0.0003432814555708319
1761505922289288400,4.756288330078125,-0.006791593506932259,-0.004602475091814995,-0.0004916195175610483
1761505922299325400,4.766325439453125,-0.005603556986898184,-0.0017867147689685225,-0.0009723200928419828
1761505922309362400,4.776362548828125,-0.006167881190776825,-0.0011981561547145247,-0.0022152173332870007
1761505922319398400,4.7863984375,-0.005583849735558033,0.0000900148443179205,-0.001535312389023602
1761505922329435600,4.796435546875,-0.006643787957727909,-0.003120958572253585,-0.0046546729281544685
1761505922339472600,4.80647265625,-0.004196343012154102,-0.00195129809435457,-0.001505751279182732
1761505922349508600,4.816508544921875,-0.0059966398403048515,-0.00330258603207767,-0.001999235013499856
1761505922359545300,4.82654541015625,-0.007178550586104393,-0.0054152715019881725,-0.0010388991795480251
1761505922369582300,4.836582275390625,-0.0038517299108207226,-0.001874066423624754,-0.0017153420485556126
1761505922379618300,4.846618408203125,-0.005173723213374615,-0.0020237360149621964,-0.001253017340786755
1761505922389655600,4.856655517578125,-0.003487143199890852,-0.0034320156555622816,-0.003501790575683117
1761505922399692500,4.866692626953125,-0.008020642213523388,-0.003434146288782358,0.001017061178572476
1761505922409728500,4.876728515625,-0.0040975394658744335,-0.004613393917679787,-0.0024197481106966734
1761505922419765500,4.886765625,-0.007921572774648666,-0.002766491612419486,-0.0009720537927933037
1761505922429802500,4.896802490234375,-0.003609115956351161,-0.004605404566973448,-0.0027214842848479748
1761505922439838500,4.90683837890625,-0.006658168975263834,-0.003979029133915901,-0.001175519311800599
1761505922449875700,4.916875732421875,-0.006010754499584436,-0.002936934120953083,-0.0013044163351878524
1761505922459912400,4.926912353515625,-0.004457865376025438,-0.004008856136351824,-0.000996554852463305
1761505922469948400,4.936948486328125,-0.00586587842553854,-0.004881307948380709,-0.000669518718495965
1761505922479985400,4.9469853515625,-0.006601976230740547,-0.0020655477419495583,-0.0018761969404295087
1761505922490022400,4.9570224609375,-0.00666456064209342,-0.001853826455771923,0.000316916179144755
1761505922500058400,4.967058349609375,-0.0057436395436525345,-0.00022663500567432493,0.0000351537273672875
1761505922510095600,4.977095703125,-0.0052363071590662,-0.0029760824982076883,-0.0007874967413954437
1761505922520132600,4.987132568359375,-0.006720487028360367,-0.005122057627886534,-0.00016937704640440643
1761505922530168600,4.99716845703125,-0.0073143718764185905,-0.001701759872958064,-0.0025928535033017397
1761505922540205600,5.00720556640625,-0.005967345088720322,-0.003993410151451826,-0.002228533150628209
1761505922550242300,5.0172421875,-0.005905027035623789,-0.0032916669733822346,0.00039308256236836314
1761505922560278500,5.027278564453125,-0.008043278940021992,-0.003418966196477413,-0.0000125168571685208
1761505922570315500,5.0373154296875,-0.004691957030445337,-0.005802495405077934,0.0008066715090535581
1761505922580352500,5.0473525390625,-0.005179848056286573,-0.004366252571344376,-0.0006591323763132095
1761505922590388500,5.057388427734375,-0.006823285017162561,-0.004294081125408411,-0.0007395598222501576
1761505922600425500,5.067425537109375,-0.006850715726613998,-0.0019510318525135517,-0.00007430219557136297
1761505922610462500,5.07746240234375,-0.0073537868447601795,-0.0018887137994170189,-0.001415736391209066
1761505922620498400,5.08749853515625,-0.005601959303021431,-0.0031132353469729424,-0.0009869674686342478
1761505922630535700,5.09753564453125,-0.003294063964858651,-0.005817675497382879,-0.0007890945998951793
1761505922640572700,5.10757275390625,-0.006431001238524914,-0.0027569043450057507,-0.002305232221260667
1761505922650608600,5.117608642578125,-0.00592473428696394,-0.003195793367922306,-0.0020639498252421618
1761505922660645400,5.127645263671875,-0.006590791046619415,-0.002665291540324688,-0.0010495517635717988
1761505922670682400,5.137682373046875,-0.005787315312772989,-0.0023366576060652733,-0.001062334980815649
1761505922680718300,5.14771826171875,-0.006250971462577581,-0.004824316129088402,-0.0015283881220966578
1761505922690755300,5.15775537109375,-0.007095992565155029,-0.005265069659799337,-0.0019587550777941942
1761505922700792600,5.16779248046875,-0.006412359420210123,-0.0052472264505922794,-0.001041295938193798
1761505922710828500,5.17782861328125,-0.0057127466425299644,-0.0010926949325948954,-0.002560895634815097
1761505922720865500,5.187865478515625,-0.005051483865827322,-0.0035358788445591927,-0.0017787253018468618
1761505922730902500,5.197902587890625,-0.006342850625514984,-0.003483148291707039,-0.002547047333791852
1761505922740938500,5.2079384765625,-0.008560731075704098,-0.005205947440117598,-0.0016591493040323257
1761505922750975500,5.2179755859375,-0.007580954115837812,-0.001333178486675024,-0.0011377023765817285
1761505922761012500,5.228012451171875,-0.007410511840134859,-0.003314836649224162,0.0000798948312876746
1761505922771048400,5.23804833984375,-0.004458664450794458,-0.0029236183036118746,-0.0020823257509618998
1761505922781085400,5.24808544921875,-0.005506617948412895,-0.00016937704640440643,-0.00044847631943412125
1761505922791122400,5.258122314453125,-0.006502640433609486,-0.005344431847333908,0.0005456816870719194
1761505922801158400,5.268158447265625,-0.006642988882958889,-0.002002697205170989,-0.00011851066665258259
1761505922811195400,5.2781953125,-0.006195311434566975,-0.004299407359212637,0.00012996226723771542
1761505922821232600,5.288232666015625,-0.0064989118836820126,-0.005437109619379044,-0.0029907298739999533
1761505922831268600,5.2982685546875,-0.008188953623175621,-0.005535114090889692,-0.0015923039754852653
1761505922841305600,5.3083056640625,-0.005175320897251368,-0.00401604687795043,-0.003232811111956835
1761505922851342300,5.31834228515625,-0.005475192796438932,-0.0033747577108442783,-0.00037630466977134347
1761505922861378300,5.32837841796875,-0.006601709872484207,-0.0036677054595202208,-0.00216594897210598
1761505922871415300,5.338415283203125,-0.007258445490151644,-0.00549197057262063,-0.0005105279851704836
1761505922881452500,5.34845263671875,-0.006192381959408522,-0.0015361113473773003,0.000009853695701167453
1761505922891488500,5.358488525390625,-0.0056890444830060005,-0.004304200876504183,-0.0027598338201642036
1761505922901525500,5.368525390625,-0.006602508947253227,-0.0007544735562987626,-0.0004980111261829734
1761505922911562500,5.3785625,-0.0032858080230653286,-0.0020423782989382744,-0.0013068130938336253
1761505922921598500,5.388598388671875,-0.006124471314251423,-0.001683650421909988,-0.0019140138756483793
1761505922931635500,5.398635498046875,-0.00523604080080986,-0.0033545177429914474,-0.0026666230987757444
1761505922941671400,5.40867138671875,-0.0051654670387506485,-0.0019744676537811756,-0.00199337606318295
1761505922951708700,5.418708740234375,-0.006334594916552305,-0.006154565140604973,-0.0022445120848715305
1761505922961745400,5.428745361328125,-0.006401972845196724,0.00253399764187634,-0.002204564632847905
1761505922971781400,5.438781494140625,-0.005691175349056721,-0.0026847326662391424,-0.005668005906045437
1761505922981818400,5.448818359375,-0.005239769350737333,-0.005851497408002615,-0.0003246393462177366
1761505922991855400,5.45885546875,-0.00791544746607542,-0.00039414784987457097,-0.000838895735796541
1761505923001891300,5.468891357421875,-0.004820853937417269,-0.005056810099631548,-0.0003129214164800942
1761505923011928600,5.478928466796875,-0.005219529382884502,-0.0005885586142539978,-0.002570216776803136
1761505923021965600,5.488965576171875,-0.00885048322379589,-0.003266367129981518,-0.0004825647920370102
1761505923032001000,5.4990009765625,-0.0054142065346241,-0.0005941512063145638,-0.001960885478183627
1761505923042038000,5.5090380859375,-0.005372128449380398,-0.0031166973058134317,-0.004178233444690704
1761505923052075000,5.519074951171875,-0.005540440324693918,0.0015241270884871483,-0.00012596751912496984
1761505923062111000,5.529111083984375,-0.004087952431291342,-0.0023156185634434223,-0.001121989800594747
1761505923072148000,5.53914794921875,-0.006792924832552671,-0.0018895127577707171,-0.0019949739798903465
1761505923082184000,5.549183837890625,-0.00629091914743185,-0.004732437431812286,-0.0019062906503677368
1761505923092221000,5.559220947265625,-0.006626477465033531,-0.001969673903658986,-0.0016729978378862143
1761505923102258000,5.5692578125,-0.005705023650079966,-0.00313001312315464,-0.0017086841398850083
1761505923112294000,5.5792939453125,-0.006672549992799759,-0.0008452873444184661,-0.001062068622559309
1761505923122331000,5.589330810546875,-0.0033041839487850666,-0.003340402850881219,-0.00126739835832268
1761505923132368000,5.599367919921875,-0.006010488141328096,-0.0043747746385633945,0.0007765777409076691
1761505923142403800,5.60940380859375,-0.006426474079489708,-0.0046661244705319405,0.000029827404432580806
1761505923152441000,5.619441162109375,-0.0063095614314079285,-0.005375057924538851,-0.0005382248782552779
1761505923162478000,5.62947802734375,-0.006512227933853865,-0.0013488910626620054,-0.0012924320762977004
1761505923172514000,5.63951416015625,-0.008019843138754368,-0.0023102923296391964,-0.0014777880860492587
1761505923182550800,5.64955078125,-0.005332979839295149,-0.0029976540245115757,-0.0018580874893814325
1761505923192587800,5.659587890625,-0.006943659856915474,-0.0009198558400385082,-0.0008641957538202405
1761505923202623700,5.669623779296875,-0.007792143151164055,-0.004779841285198927,-0.001859685406088829
1761505923212661000,5.679660888671875,-0.004521248396486044,-0.0011086739832535386,-0.00042104575550183654
1761505923222698000,5.689697998046875,-0.006667756475508213,-0.002695651724934578,0.0004242415598127991
1761505923232734000,5.69973388671875,-0.0034639735240489244,-0.00224930583499372,-0.0010418286547064781
1761505923242771000,5.70977099609375,-0.006682403851300478,-0.0026844663079828024,0.0003070624661631882
1761505923252807000,5.719806884765625,-0.007668306119740009,-0.003433613572269678,0.0002814961189869791
1761505923262844000,5.729843994140625,-0.006454170681536198,-0.000978711643256247,-0.002472478663548827
1761505923272881200,5.739881103515625,-0.00646562222391367,-0.0026841999497264624,0.00017550231132190675
1761505923282917000,5.749917236328125,-0.006597981322556734,-0.003341201925650239,-0.0013350426452234387
1761505923292953900,5.759953857421875,-0.006354302167892456,-0.005903162993490696,-0.001160339335910976
1761505923302990800,5.769990966796875,-0.0051630702801048756,-0.004427505191415548,-0.0010833739070221782
1761505923313026800,5.78002685546875,-0.006937534548342228,-0.004053330980241299,-0.0009677927591837943
1761505923323063800,5.790063720703125,-0.0052027516067028046,-0.003876497270539403,0.0005435511702671647
1761505923333101000,5.80010107421875,-0.006390787661075592,-0.004736165516078472,-0.0014415690675377846
1761505923343137000,5.810136962890625,-0.006301305256783962,0.00014807176194153726,-0.001802960061468184
1761505923353174000,5.820174072265625,-0.005524727515876293,-0.0034946000669151545,-0.0015752597246319056
1761505923363210000,5.8302099609375,-0.006439789664000273,-0.0034386736806482077,-0.0013134710025042295
1761505923373247000,5.8402470703125,-0.005365204066038132,-0.004230963997542858,-0.0017512947088107467
1761505923383284000,5.850283935546875,-0.005774531979113817,-0.0008042746339924634,-0.0014895059866830707
1761505923393320000,5.86031982421875,-0.004899151157587767,-0.004199538845568895,-0.0013233247445896268
1761505923403357000,5.87035693359375,-0.0063066319562494755,-0.003096990054473281,-0.003013899317011237
1761505923413394000,5.880393798828125,-0.00615110294893384,-0.004983306862413883,-0.001540904981084168
1761505923423430000,5.890429931640625,-0.006006227340549231,-0.0033593112602829933,-0.0005542038124985993
1761505923433467000,5.900466796875,-0.004883971065282822,-0.0011821772204712033,0.0003038666909560561
1761505923443503900,5.91050390625,-0.006844324059784412,-0.0023968450259417295,-0.001520132296718657
1761505923453539800,5.920539794921875,-0.005082643125206232,-0.0026461167726665735,0.0014839133946225047
1761505923463577000,5.9305771484375,-0.005149221979081631,-0.0036762275267392397,-0.001567802974022925
1761505923473613000,5.940613037109375,-0.006432599388062954,-0.0016812535468488932,-0.00020346550445538014
1761505923483650000,5.950650146484375,-0.005590241402387619,-0.0018125474452972412,-0.0016365124611184
1761505923493687000,5.96068701171875,-0.006222475785762072,-0.0022807312197983265,-0.0022884542122483253
1761505923503723000,5.970722900390625,-0.00566907087340951,-0.0020932445768266916,-0.0006620618514716625
1761505923513759700,5.980759765625,-0.005891445092856884,-0.003989148885011673,-0.001207743538543582
1761505923523797000,5.990796875,-0.00512951472774148,-0.005123921670019627,-0.0016144082183018327
1761505923533833000,6.0008330078125,-0.006169745232909918,-0.0006596649764105678,-0.0006636597099713981
1761505923543870000,6.010869873046875,-0.00632127933204174,-0.0026578346733003855,-0.001651692553423345
1761505923553906000,6.020906005859375,-0.004536428488790989,-0.003025350859388709,-0.0011994877131655812
1761505923563943000,6.03094287109375,-0.005164135713130236,-0.0007142598042264581,-0.0003283677506260574
1761505923573980000,6.04097998046875,-0.0052086105570197105,-0.004568386357277632,-0.0022178804501891136
1761505923584016000,6.051015869140625,-0.004049869254231453,-0.001514806062914431,-0.0016407734947279096
1761505923594053000,6.06105322265625,-0.005148955620825291,-0.0020543625578284264,-0.0015787219163030386
1761505923604089900,6.07108984375,-0.004425108432769775,-0.0018306568963453174,-0.0018485001055523753
1761505923614126000,6.0811259765625,-0.007072290405631065,-0.003438939806073904,-0.0022857910953462124
1761505923624162800,6.091162841796875,-0.005899967160075903,-0.0025513083674013615,-0.001859152689576149
1761505923634198800,6.10119873046875,-0.005772667936980724,-0.003410177771002054,-0.0026085663121193647
1761505923644235800,6.11123583984375,-0.005550027824938297,-0.002055161399766803,-0.0007054713787510991
1761505923654273000,6.12127294921875,-0.004040548112243414,-0.006731672212481499,-0.0035369442775845528
1761505923664309000,6.13130908203125,-0.006087453570216894,-0.0022394522093236446,0.0004993426846340299
1761505923674346000,6.141345947265625,-0.005517270881682634,-0.0034029872622340918,0.0002868224401026964
1761505923684383000,6.151383056640625,-0.005930060520768166,-0.0022389194928109646,-0.0021654162555933
1761505923694419000,6.1614189453125,-0.005532717332243919,-0.004835501778870821,-0.0010871023405343294
1761505923704456000,6.1714560546875,-0.005314071662724018,-0.005014466121792793,-0.00006498113361885771
1761505923714492000,6.181491943359375,-0.0046362970024347305,-0.004373176954686642,-0.0011206581257283688
1761505923724529200,6.191529052734375,-0.006638195365667343,-0.0011355718597769737,0.00013662016135640442
1761505923734566000,6.20156591796875,-0.0049678608775138855,-0.0018335863715037704,-0.0006982808117754757
1761505923744601900,6.211601806640625,-0.006931675598025322,-0.0039265644736588,-0.0016410398529842496
1761505923754638800,6.221638916015625,-0.006642988882958889,-0.0043891556560993195,-0.0027800737880170345
1761505923764674800,6.2316748046875,-0.005815544631332159,-0.002174204681068659,-0.0006599313346669078
1761505923774711800,6.2417119140625,-0.005653890781104565,-0.004023769870400429,-0.0024972460232675076
1761505923784749000,6.2517490234375,-0.00421205535531044,-0.0037816886324435472,-0.0006466155173256993
1761505923794785000,6.261784912109375,-0.005703159607946873,-0.004881041590124369,-0.0018112158868461847
1761505923804822000,6.271822021484375,-0.005816876422613859,-0.0030000510159879923,-0.0012753878254443407
1761505923814859000,6.28185888671875,-0.004992361646145582,-0.002995789982378483,-0.0010964233661070466
1761505923824895000,6.29189501953125,-0.006144179031252861,-0.0009275790071114898,-0.003194727934896946
1761505923834932000,6.301931884765625,-0.004938033409416676,-0.002926813904196024,-0.00008069378236541525
1761505923844968000,6.311968017578125,-0.005028847139328718,-0.002126534003764391,0.0000798948312876746
1761505923855005000,6.3220048828125,-0.0052291168831288815,-0.002721750643104315,-0.0017100156983360648
1761505923865042000,6.3320419921875,-0.006951116491109133,-0.007358580362051725,-0.0031736891251057386
1761505923875078000,6.342077880859375,-0.005146825220435858,-0.005622731987386942,-0.0016343819443136454
1761505923885115000,6.352114990234375,-0.006294913589954376,-0.0036738307680934668,-0.0017281252657994628
1761505923895151900,6.36215185546875,-0.0031611721497029066,-0.0006801713607273996,-0.0022804648615419865
1761505923905187800,6.372187744140625,-0.007778560742735863,-0.0010985539993271232,-0.0012114719720557332
1761505923915225000,6.38222509765625,-0.005428321193903685,-0.003413107246160507,-0.0021113541442900896
1761505923925261000,6.392260986328125,-0.004501807503402233,-0.0034759577829390764,-0.0011086739832535386
1761505923935298000,6.402298095703125,-0.007970308884978294,-0.001942243310622871,-0.0025947177782654762
1761505923945334800,6.412334716796875,-0.004355067387223244,-0.0036434705834835768,0.00010173275222769007
1761505923955371000,6.42237109375,-0.007171093951910734,-0.001520665013231337,-0.002370745874941349
1761505923965407700,6.43240771484375,-0.006650445982813835,-0.0021166803780943155,-0.001874066423624754
1761505923975444000,6.44244384765625,-0.006389189511537552,-0.002043443499132991,0.00037523938226513565
1761505923985481000,6.45248095703125,-0.009019060991704464,-0.0030120352748781443,-0.0007563377148471773
1761505923995518000,6.46251806640625,-0.006105563137680292,-0.002588059986010194,-0.0018375811632722616
1761505924005554000,6.472553955078125,-0.005708752200007439,-0.0034914042335003614,0.0005600627628155053
1761505924015591000,6.4825908203125,-0.005597698036581278,-0.004322310443967581,-0.0018405106384307146
1761505924025627000,6.492626953125,-0.006369215901941061,-0.0036506610922515392,0.00032384038786403835
1761505924035664000,6.502663818359375,-0.006958839949220419,-0.0016945693641901016,-0.00010519486386328936
1761505924045700900,6.512700927734375,-0.006936469115316868,-0.001336107961833477,-0.0009760485263541341
1761505924055736800,6.52273681640625,-0.003951864782720804,-0.002368349116295576,0.00023036343918647617
1761505924065773800,6.53277392578125,-0.005535114090889692,-0.0021022993605583906,-0.0010466222884133458
1761505924075809800,6.542809814453125,-0.006388657260686159,-0.003477289341390133,-0.0015672702575102448
1761505924085846800,6.5528466796875,-0.004729773849248886,-0.0036709012929350138,-0.0025979136116802692
1761505924095883800,6.5628837890625,-0.006569219287484884,-0.0048424256965518,-0.00022849922243040055
1761505924105919700,6.572919677734375,-0.005305016878992319,-0.0046538738533854485,-0.0012767193838953972
1761505924115956700,6.582956787109375,-0.00717588746920228,0.00019574233738239855,-0.003032275242730975
1761505924125992700,6.59299267578125,-0.007384412921965122,-0.0054482948035001755,0.0005451490869745612
1761505924136029700,6.60302978515625,-0.007889614440500736,-0.0020154803059995174,-0.0013491574209183455
1761505924146066700,6.613066650390625,-0.005130046978592873,-0.007012103218585253,-0.0011733887949958444
1761505924156102700,6.6231025390625,-0.006231530569493771,-0.002767290687188506,-0.0014966964954510331
1761505924166140000,6.633139892578125,-0.007902397774159908,-0.005765477195382118,-0.0006628608098253608
1761505924176175900,6.64317578125,-0.00683180708438158,-0.0019244002178311348,0.0003304982965346426
1761505924186212900,6.653212890625,-0.007273092865943909,-0.003841077210381627,-0.0012354403734207153
1761505924196249600,6.66324951171875,-0.007209975738078356,-0.003486876841634512,-0.0012002866715192795
1761505924206285800,6.673285888671875,-0.006872553378343582,-0.001383245806209743,-0.002067944500595331
1761505924216322600,6.683322509765625,-0.005161472596228123,-0.005547896958887577,-0.00015393071225844324
1761505924226358500,6.693358642578125,-0.006208893842995167,-0.0019022959750145674,-0.0034642398823052645
1761505924236395800,6.703395751953125,-0.007210508454591036,-0.0035625104792416096,-0.0006583334179595113
1761505924246432800,6.713432861328125,-0.004869856406003237,-0.0007366303470917046,-0.0035891421139240265
1761505924256468700,6.72346875,-0.006804376374930143,-0.0033957967534661293,-0.0012090750969946384
1761505924266505700,6.733505615234375,-0.006710633169859648,-0.0037345506716519594,-0.0014769891276955605
1761505924276541700,6.743541748046875,-0.00589597225189209,-0.003811249742284417,-0.004381166305392981
1761505924286578700,6.75357861328125,-0.005263737868517637,-0.002385925967246294,-0.0014410364674404263
1761505924296616000,6.763615966796875,-0.007592938374727964,-0.0030072415247559547,-0.0006444850005209446
1761505924306652000,6.77365185546875,-0.004421912599354982,-0.005563609767705202,0.0008689894457347691
1761505924316689000,6.78368896484375,-0.0036607813090085983,-0.0040735709480941296,0.0017230651574209332
1761505924326724900,6.793724853515625,-0.0073535204865038395,-0.0036392095498740673,-0.001306014135479927
1761505924336761600,6.80376171875,-0.007111971732228994,-0.004275172483175993,-0.0001525991247035563
1761505924346798600,6.813798583984375,-0.007801730185747147,-0.002445580903440714,-0.0004516721237450838
1761505924356834600,6.82383447265625,-0.005391037091612816,-0.002161954063922167,0.001323857344686985
1761505924366871800,6.833871826171875,-0.006566822528839111,-0.004560397006571293,-0.0015361113473773003
1761505924376907800,6.84390771484375,-0.004491155035793781,-0.002004561247304082,0.00044581317342817783
1761505924386944800,6.85394482421875,-0.00666456064209342,-0.0054727960377931595,-0.001740375766530633
1761505924396981800,6.863981689453125,-0.005027781706303358,-0.0023438481148332357,-0.0004993426846340299
1761505924407017700,6.874017822265625,-0.004441353492438793,-0.004267715383321047,-0.0035563854034990072
1761505924417054700,6.8840546875,-0.006824882701039314,-0.0019800602458417416,-0.0014860439114272594
1761505924427090700,6.894090576171875,-0.004279167391359806,-0.004537760280072689,0.00035499935620464385
1761505924437128000,6.9041279296875,-0.007877630181610584,-0.0008167914929799736,-0.0027867318131029606
1761505924447164700,6.91416455078125,-0.0038432078436017036,-0.002174471039324999,-0.00012197277828818187
1761505924457200600,6.92420068359375,-0.005298358853906393,-0.003906324505805969,-0.0005589975044131279
1761505924467237600,6.934237548828125,-0.004185423720628023,-0.004767591133713722,-0.0035473306197673082
1761505924477273600,6.944273681640625,-0.004577973857522011,-0.0009949569357559085,-0.0014301175251603127
1761505924487310600,6.954310546875,-0.004348942078649998,-0.004601676017045975,0.002371811307966709
1761505924497347800,6.964347900390625,-0.004991562571376562,-0.0025949841365218163,-0.0008234494016505778
1761505924507383800,6.9743837890625,-0.006457100156694651,-0.002704440150409937,-0.0016085492679849267
1761505924517420800,6.9844208984375,-0.0037260286044329405,-0.003897003596648574,-0.0021025657188147306
1761505924527456800,6.994456787109375,-0.005416603293269873,-0.002121740486472845,-0.0013462279457598925
1761505924537493800,7.00449365234375,-0.006774016655981541,-0.000663393409922719,-0.0008759136544540524
1761505924547529700,7.01452978515625,-0.004508465528488159,-0.004138019867241383,-0.001344363670796156
1761505924557566700,7.024566650390625,-0.0065132929012179375,-0.0033633061684668064,-0.00012410330236889422
1761505924567603700,7.034603759765625,-0.005785184912383556,-0.0014921691035851836,-0.0015864450251683593
1761505924577640000,7.044639892578125,-0.007388674188405275,-0.003323358716443181,-0.0011520835105329752
1761505924587676700,7.0546767578125,-0.004614192992448807,-0.0022927154786884785,-0.0028788771014660597
1761505924597712600,7.064712646484375,-0.00563950976356864,-0.004017910920083523,-0.003459712490439415
1761505924607749600,7.07474951171875,-0.0072943982668221,-0.0023465112317353487,-0.0028687571175396442
1761505924617786600,7.08478662109375,-0.006853911560028791,-0.002880475018173456,-0.0023158849216997623
1761505924627822600,7.094822509765625,-0.005089567042887211,-0.0028104339726269245,-0.0017270599491894245
1761505924637859800,7.10485986328125,-0.003983289934694767,-0.00401578051969409,-0.0003123887872789055
1761505924647895800,7.114895751953125,-0.006886934395879507,-0.0013749900972470641,-0.0020003002136945724
1761505924657932800,7.124932861328125,-0.005531119182705879,-0.0027595674619078636,0.00011771172285079956
1761505924667968800,7.13496875,-0.0064922538585960865,-0.004571848548948765,-0.0016948357224464417
1761505924678005800,7.145005859375,-0.005103681702166796,-0.001228782464750111,-0.0003230414295103401
1761505924688042800,7.155042724609375,-0.007808920927345753,-0.005465338937938213,0.0015909724170342088
1761505924698078700,7.16507861328125,-0.0065409899689257145,-0.002864762442186475,-0.0023470439482480288
1761505924708115700,7.17511572265625,-0.007828895002603531,-0.0020639498252421618,-0.004089550115168095
1761505924718151700,7.185151611328125,-0.004494350403547287,-0.00316010694950819,-0.0003038666909560561
1761505924728188700,7.195188720703125,-0.005575594026595354,-0.004345213528722525,-0.0002980077115353197
1761505924738225700,7.2052255859375,-0.006505303550511599,-0.0031494542490690947,-0.0024173513520509005
1761505924748261600,7.21526171875,-0.006110090296715498,-0.002880208659917116,-0.002567287301644683
1761505924758298600,7.225298583984375,-0.005025384947657585,-0.0037974014412611723,-0.0011017497163265944
1761505924768334600,7.23533447265625,-0.008054197765886784,-0.0041705104522407055,-0.0012444951571524143
1761505924778371800,7.245371826171875,-0.006885336712002754,-0.0020634171087294817,-0.0034645062405616045
1761505924788407800,7.25540771484375,-0.007928497157990932,-0.004727909807115793,-0.00038242992013692856
1761505924798444800,7.26544482421875,-0.004992628004401922,-0.006570551078766584,-0.0005017395596951246
1761505924808481800,7.275481689453125,-0.006060289219021797,-0.0035449336282908916,-0.00013262542779557407
1761505924818517800,7.285517822265625,-0.005391569808125496,-0.003385410411283374,-0.0009496832499280572
1761505924828554800,7.2955546875,-0.005621932912617922,-0.0028703550342470407,-0.0025329324416816235
1761505924838590700,7.3055908203125,-0.003988349810242653,-0.0031441280152648687,-0.0017438378417864442
1761505924848627700,7.315627685546875,-0.005550027824938297,-0.0013480921043083072,-0.0031340080313384533
1761505924858663700,7.32566357421875,-0.0068094367161393166,-0.0019270633347332478,-0.002510828198865056
1761505924868700700,7.33570068359375,-0.005452289711683989,-0.0024370586033910513,-0.0005728459218516946
1761505924878737700,7.345737548828125,-0.0065772091038525105,-0.00592420157045126,-0.0015763250412419438
1761505924888773600,7.355773681640625,-0.003993942867964506,-0.0008780442294664681,0.0014045510906726122
1761505924898810600,7.365810546875,-0.006652310024946928,-0.003260508179664612,-0.0006500775925815105
1761505924908846600,7.3758466796875,-0.00401631323620677,-0.0024615598376840353,-0.003584881080314517
1761505924918883800,7.3858837890625,-0.005193963181227446,-0.005269064102321863,0.00010652644414221868
1761505924928919800,7.395919921875,-0.006716225761920214,-0.0017262609908357263,-0.005622731987386942
1761505924938956800,7.405956787109375,-0.006459763273596764,-0.005786249879747629,-0.0005605954211205244
1761505924948993800,7.415993896484375,-0.005340703297406435,-0.0005091963685117662,-0.0013363742036744952
1761505924959029800,7.42602978515625,-0.004560663364827633,-0.004351871553808451,-0.004060255363583565
1761505924969066500,7.43606640625,-0.0030024477746337652,-0.003031742526218295,0.00022264027211349458
1761505924979103000,7.44610302734375,-0.003605121048167348,-0.002508431440219283,-0.0041398839093744755
1761505924989139700,7.4561396484375,-0.00782729685306549,-0.0035950010642409325,-0.0015078817959874868
1761505924999175700,7.46617578125,-0.004327103961259127,-0.002578738844022155,-0.000999750685878098
1761505925009212700,7.476212646484375,-0.006031260825693607,-0.005751895252615213,-0.0014732606941834092
1761505925019249700,7.486249755859375,-0.006054430268704891,-0.004715126473456621,-0.0010634001810103655
1761505925029285600,7.49628564453125,-0.005273858085274696,-0.004289553500711918,-0.001341434195637703
1761505925039323100,7.5063232421875,-0.008099738508462906,-0.004397145472466946,0.00026551715563982725
1761505925049359000,7.516359130859375,-0.004870389122515917,-0.005906092468649149,-0.0015736619243398309
1761505925059396000,7.52639599609375,-0.007903463207185268,-0.0033920682035386562,-0.0005427522119134665
1761505925069432000,7.53643212890625,-0.006101035512983799,-0.003278883872553706,-0.0006183860241435468
1761505925079469000,7.546468994140625,-0.007439274340867996,-0.0006740460521541536,-0.0005864280392415822
1761505925089506000,7.556506103515625,-0.0057622818276286125,-0.0036128442734479904,-0.0016375777777284384
1761505925099542000,7.5665419921875,-0.006703442893922329,-0.0033276197500526905,-0.0015747271245345473
1761505925109579000,7.5765791015625,-0.007580954115837812,-0.002877279184758663,0.0002519350382499397
1761505925119615000,7.586614990234375,-0.006631537340581417,-0.004324973560869694,-0.000928377965465188
1761505925129652000,7.59665185546875,-0.006234992761164904,-0.004503405187278986,-0.0019081549253314734
1761505925139688000,7.60668798828125,-0.005345230456441641,-0.003272492438554764,0.0005584649043157697
1761505925149725000,7.616724853515625,-0.006049903109669685,-0.003795803524553776,-0.0007752461824566126
1761505925159762200,7.62676220703125,-0.004235225263983011,-0.004177168011665344,-0.002662628423422575
1761505925169798100,7.636798095703125,-0.004351072479039431,-0.0006450176006183028,-0.0010508833220228553
1761505925179835100,7.646835205078125,-0.004541488364338875,-0.0049026133492589,-0.0015571502735838294
1761505925189871000,7.65687109375,-0.00487305223941803,-0.003893807763233781,-0.0005036037764512002
1761505925199908000,7.666908203125,-0.006117281038314104,-0.005358013790100813,-0.0005025385180488229
1761505925209944000,7.676944091796875,-0.006013151258230209,-0.004511661361902952,-0.000056459015468135476
1761505925219981000,7.68698095703125,-0.00785765703767538,0.00019281286222394556,0.0002854908525478095
1761505925230017300,7.697017333984375,-0.005067196674644947,-0.00236302288249135,-0.0018607506062835455
1761505925240054000,7.707053955078125,-0.005889047868549824,-0.0035449336282908916,-0.0021904499735683203
1761505925250091000,7.717091064453125,-0.003905792022123933,-0.003322559641674161,-0.003314836649224162
1761505925260127000,7.727126953125,-0.006165483966469765,-0.003300189273431897,-0.002367816399782896
1761505925270164000,7.7371640625,-0.006679740734398365,-0.0022570290602743626,-0.0027047062758356333
1761505925280200000,7.747199951171875,-0.005057076457887888,-0.004191815387457609,-0.0017132115317508578
1761505925290237000,7.75723681640625,-0.008008657954633236,-0.0024317323695868254,-0.0020034960471093655
1761505925300273200,7.767273193359375,-0.006338856182992458,0.000182959163794294,-0.0021015002857893705
1761505925310310100,7.77731005859375,-0.004816060420125723,-0.004487959202378988,-0.0019491675775498152
1761505925320346000,7.78734619140625,-0.006841394584625959,-0.003680222202092409,-0.0020839234348386526
1761505925330383000,7.797383056640625,-0.005490372888743877,0.00039468047907575965,-0.0010213222121819854
1761505925340420000,7.807420166015625,-0.004387557972222567,-0.006387325469404459,-0.001838912721723318
1761505925350456000,7.8174560546875,-0.006127134896814823,-0.004018709994852543,-0.000993625377304852
1761505925360493000,7.8274931640625,-0.004495682194828987,-0.0010985539993271232,0.0005030711181461811
1761505925370529300,7.837529296875,-0.004866394214332104,-0.006695453077554703,-0.0012293151812627912
1761505925380566000,7.84756591796875,-0.006572415120899677,-0.0029670277144759893,-0.00140987744089216
1761505925390602000,7.85760205078125,-0.0032778186723589897,-0.003713245503604412,-0.0004551342281047255
1761505925400639000,7.867638916015625,-0.005617139395326376,-0.0037614486645907164,-0.003926032222807407
1761505925410675000,7.877675048828125,-0.008534099906682968,-0.0030660973861813545,-0.0026551715563982725
1761505925420712000,7.8877119140625,-0.00651568965986371,-0.003061303636059165,-0.001392300589941442
1761505925430749200,7.897749267578125,-0.006521016359329224,-0.006856574676930904,-0.0014383733505383134
1761505925440785200,7.90778515625,-0.005122856702655554,-0.004540423396974802,-0.0019201391842216253
1761505925450822100,7.917822265625,-0.008820123039186,-0.0046485476195812225,-0.0021933794487267733
1761505925460858000,7.927858154296875,-0.004057858604937792,-0.0006719155353493989,-0.002109756227582693
1761505925470895000,7.93789501953125,-0.00678307143971324,-0.006666424684226513,-0.0009438242996111512
1761505925480931000,7.94793115234375,-0.006238188594579697,-0.007696002721786499,-0.0020903151016682386
1761505925490968000,7.957968017578125,-0.003946538548916578,-0.003058374160900712,0.0003009371866937727
1761505925501004000,7.968004150390625,-0.0057162088342010975,-0.004568652715533972,-0.0018346516881138086
1761505925511041300,7.978041259765625,-0.005260009318590164,-0.004206462763249874,-0.0019478360190987587
1761505925521078000,7.988078125,-0.0048919604159891605,-0.004494883120059967,-0.00041518680518493056
1761505925531114000,7.998114013671875,-0.006596383638679981,-0.0028698223177343607,-0.002728408435359597
1761505925541151000,8.00815087890625,-0.005134308245033026,-0.0044014062732458115,0.00006231796578504145
1761505925551186200,8.018186279296875,-0.004957207944244146,-0.0037918086163699627,-0.0025161546654999256
1761505925561222100,8.02822216796875,-0.00628905463963747,-0.0020658141002058983,0.00006072007090551779
1761505925571259100,8.038259033203126,-0.005403021350502968,-0.0023289343807846308,-0.002174737397581339
1761505925581295000,8.048295166015626,-0.006305566523224115,-0.0033563817851245403,-0.0030804784037172794
1761505925591331800,8.058331787109376,-0.007243531756103039,-0.003157177474349737,0.0005933523061685264
1761505925601368000,8.0683681640625,-0.004222175572067499,-0.0020570256747305393,-0.0011289139511063695
1761505925611405000,8.078405029296874,-0.008334895595908165,-0.0031880701426416636,-0.002017344580963254
1761505925621441000,8.08844091796875,-0.004877579398453236,-0.003187004942446947,-0.002612294629216194
1761505925631478000,8.09847802734375,-0.005281847435981035,-0.0018924422329291701,-0.0016538230702280998
1761505925641514000,8.108513916015625,-0.006610231939703226,-0.0062126219272613525,-0.0023552996572107077
1761505925651551000,8.118551025390625,-0.005800098646432161,-0.003500725142657757,-0.0017973673529922962
1761505925661588000,8.128587890625,-0.008110923692584038,-0.0029979203827679157,-0.001318264752626419
1761505925671624200,8.138624267578125,-0.005589442327618599,-0.0034463966730982065,0.00024767397553659976
1761505925681661200,8.1486611328125,-0.0065322015434503555,-0.002159024588763714,-0.0011294466676190495
1761505925691697200,8.158697265625,-0.005004878621548414,-0.002519350266084075,-0.0015073491958901286
1761505925701734100,8.168734130859375,-0.005064533557742834,-0.003314836649224162,-0.0010871023405343294
1761505925711770000,8.17877001953125,-0.006324208807200193,-0.004816060420125723,-0.002085787709802389
1761505925721807000,8.18880712890625,-0.005535912699997425,-0.003993942867964506,-0.0026253440883010626
1761505925731843000,8.198843017578126,-0.003915912006050348,-0.0006346312584355474,-0.0030338731594383717
1761505925741880000,8.208880126953124,-0.0059779975563287735,-0.003961452282965183,-0.0017353157745674253
1761505925751916300,8.218916259765624,-0.005175587255507708,-0.0046568033285439014,-0.0012857741676270962
1761505925761953000,8.228953125,-0.00558278476819396,-0.00043595946044661105,-0.0011835087789222598
1761505925771989000,8.238989013671874,-0.005161206237971783,-0.003897003596648574,0.00024048343766480684
1761505925782026000,8.24902587890625,-0.004137753508985043,-0.002269545802846551,-0.0019358517602086067
1761505925792063000,8.25906298828125,-0.0064802695997059345,-0.0012546151410788298,-0.0028610338922590017
1761505925802099000,8.269098876953125,-0.005907157436013222,-0.0044019389897584915,-0.0017574200173839927
1761505925812136200,8.27913623046875,-0.006969226058572531,-0.0006564692012034357,-0.0015843145083636045
1761505925822172200,8.289172119140625,-0.008979380130767822,-0.003165433183312416,-0.0012325108982622623
1761505925832209200,8.299209228515625,-0.0046661244705319405,-0.00549276964738965,-0.0018381137633696198
1761505925842245000,8.3092451171875,-0.008493353612720966,-0.0037622477393597364,-0.0014650048688054085
1761505925852282000,8.3192822265625,-0.005120726302266121,-0.0029531794134527445,-0.0016314524691551924
1761505925862318000,8.329318115234376,-0.007182279136031866,-0.000261788722127676,0.0006359628750942647
1761505925872355000,8.33935498046875,-0.005155080929398537,-0.004233360756188631,-0.0016018913593143225
1761505925882391000,8.34939111328125,-0.006477074231952429,-0.004327370319515467,-0.002092179376631975
1761505925892428000,8.359427978515624,-0.004188885912299156,-0.0037587855476886034,-0.0005211806274019182
1761505925902465000,8.369465087890624,-0.006842992268502712,-0.00063356600003317,0.00040240364614874125
1761505925912501000,8.3795009765625,-0.003941478207707405,-0.0020423782989382744,-0.002147573046386242
1761505925922538000,8.3895380859375,-0.005000085104256868,-0.0035625104792416096,0.0006836334359832108
1761505925932574000,8.399573974609375,-0.005637645721435547,-0.003762780223041773,-0.0007827030494809151
1761505925942611000,8.40961083984375,-0.005110073368996382,-0.002296976512297988,0.002017610939219594
1761505925952647000,8.41964697265625,-0.007171360310167074,0.00011238539445912465,-0.0018753979820758104
1761505925962684200,8.42968408203125,-0.005742041394114494,-0.00507065886631608,0.00006285060226218775
1761505925972720000,8.43972021484375,-0.00768881244584918,-0.0029579729307442904,0.0008189220097847283
1761505925982757000,8.449757080078125,-0.0041547976434230804,-0.0012506204657256603,-0.0005496764206327498
1761505925992793000,8.45979296875,-0.004476241301745176,-0.004680505488067865,-0.002369148191064596
1761505926002830000,8.469830078125,-0.0067812069319188595,-0.0013219931861385703,-0.001437308033928275
1761505926012866000,8.479865966796876,-0.004580903332680464,-0.004455202259123325,-0.00023702133330516517
1761505926022903000,8.489903076171874,-0.0037952708080410957,-0.0021734058391302824,-0.0006378270918503404
1761505926032939000,8.49993896484375,-0.006048038601875305,-0.004245078656822443,-0.0006319681415334344
1761505926042976300,8.509976318359374,-0.005386243108659983,-0.00398701848462224,-0.0025214808993041515
1761505926053012500,8.520012451171874,-0.005623264703899622,-0.0052168662659823895,-0.002424808219075203
1761505926063049500,8.530049560546875,-0.005576126743108034,-0.0006487460341304541,-0.0019773971289396286
1761505926073086500,8.54008642578125,-0.007228351663798094,-0.0013307816116139293,-0.0035806200467050076
1761505926083122400,8.550122314453125,-0.005154281854629517,-0.0014418354257941246,-0.0012000204296782613
1761505926093159400,8.560159423828125,-0.007419300265610218,-0.005131911486387253,-0.0018753979820758104
1761505926103195400,8.5701953125,-0.0054879761300981045,-0.004729241598397493,-0.0009542105835862458
1761505926113232400,8.580232421875,-0.007996140979230404,-0.003951864782720804,-0.0022921827621757984
1761505926123269600,8.59026953125,-0.00558145297691226,-0.0017113472567871213,-0.0030312100425362587
1761505926133305600,8.6003056640625,-0.004603273700922728,-0.005253884010016918,-0.0010468886466696858
1761505926143342600,8.610342529296876,-0.00544323492795229,-0.0022397185675799847,0.00046631949953734875
1761505926153378600,8.620378662109376,-0.007154848426580429,-0.0024264061357825994,-0.0016258598770946264
1761505926163415600,8.63041552734375,-0.00788322277367115,0.00101146858651191,0.001924666459672153
1761505926173451500,8.640451416015624,-0.016320116817951202,0.6759536862373352,0.15056394040584564
1761505926183488300,8.65048828125,-0.014007695019245148,0.4233342111110687,0.029499834403395653
1761505926193525500,8.660525390625,0.003019491909071803,-0.564186692237854,-0.07232905924320221
1761505926203561500,8.6705615234375,0.002801911672577262,-0.5528756976127625,-0.12219062447547913
1761505926213598500,8.680598388671875,-0.007249124348163605,0.14648211002349854,0.004732969682663679
1761505926223634400,8.690634521484375,-0.006308229640126228,-0.055208925157785416,-0.014329138211905956
1761505926233671400,8.70067138671875,-0.005674929823726416,0.006779342889785767,0.00019520970818120986
