time,seconds_elapsed,z,y,x
1761505917642268400,0.109268310546875,-0.0018838183023035526,0.0005695230793207884,0.0005452781333588064
1761505917652305400,0.119305419921875,0.00011747004464268684,0.0012168299872428179,-0.0003924275515601039
1761505917662342400,0.12934228515625,0.00006127730011940002,-0.0012284843251109123,-0.001294173882342875
1761505917672379100,0.139379150390625,-0.0016816677525639534,-0.003077516332268715,-0.00104497279971838
1761505917682416000,0.149416015625,0.0019064093939960003,-0.003873535431921482,0.0004541205707937479
1761505917692453400,0.159453369140625,-0.0011673737317323685,0.003802813356742263,-0.00034788763150572777
1761505917702489300,0.1694892578125,0.001062224619090557,0.0016179560916498303,-0.00032738130539655685
1761505917712526300,0.1795263671875,-0.0004075481556355953,0.0019953777082264423,0.0002484770957380533
1761505917722563300,0.189563232421875,-0.0006735981442034245,0.0020158840343356133,-0.0006844282615929842
1761505917732600300,0.199600341796875,-0.0003552250564098358,0.001710206619463861,-0.00010941224172711372
1761505917742637300,0.20963720703125,0.0010629082098603249,-0.002056568395346403,0.0007401361363008618
1761505917752673300,0.21967333984375,-0.00042774248868227005,0.001397974556311965,-0.0003094278508797288
1761505917762710300,0.229710205078125,0.0009853304363787174,-0.00003187661059200764,-0.0016354157123714685
1761505917772747300,0.239747314453125,-0.0018473709933459759,0.0018496511038392782,-0.0014184064930304885
1761505917782784300,0.2497841796875,-0.0008673281408846378,0.0020725575741380453,-0.0005193232791498303
1761505917792821500,0.259821533203125,-0.001262714620679617,0.00038145040161907673,-0.0026880071964114904
1761505917802858200,0.269858154296875,-0.0008829478174448013,0.0010104889515787363,0.0019725244492292404
1761505917812894500,0.27989453125,0.001968780532479286,0.0012148015666753054,-0.0020591847132891417
1761505917822931200,0.28993115234375,0.0008105719462037086,-0.00043742358684539795,-0.001180608058348298
1761505917832968200,0.29996826171875,0.0015990962274372578,-0.0002064690925180912,0.0004063721280544996
1761505917843005400,0.31000537109375,-0.0007061357609927654,-0.0021646914537996054,0.0002513761864975095
1761505917853042400,0.32004248046875,0.0002581770531833172,-0.0000719856470823288,0.0007762224413454533
1761505917863079400,0.330079345703125,0.0003878730349242687,-0.001527935964986682,-0.0005036927759647369
1761505917873115400,0.340115478515625,0.0008766120299696922,-0.0010493071749806404,-0.0019573401659727097
1761505917883152100,0.350152099609375,0.0004933830350637436,-0.0007196078076958656,-0.0007474662270396948
1761505917893189400,0.360189453125,0.0002899644896388054,-0.0008909048046916723,0.000024612643755972385
1761505917903226400,0.370226318359375,-0.0016733179800212383,0.00007262686267495155,-0.000868877861648798
1761505917913263400,0.380263427734375,0.0008393833413720131,0.0024811923503875732,-0.0013580701779574156
1761505917923299300,0.39029931640625,-0.0017305673100054264,-0.0037039993330836296,-0.0004259637789800763
1761505917933336300,0.40033642578125,0.00006596185266971588,-0.0013016159646213055,0.00013183063128963113
1761505917943373300,0.410373291015625,-0.00021979538723826408,0.0013948347186669707,0.0015339849051088095
1761505917953410300,0.420410400390625,-0.0012185913510620594,-0.0006546287331730127,-0.0012219732161611319
1761505917963447300,0.430447265625,0.00048157060518860817,-0.0012881949078291655,-0.00032661843579262495
1761505917973484300,0.440484375,0.00025450391694903374,0.00019587622955441475,0.0011070474283769727
1761505917983520300,0.450520263671875,-0.00022806087508797646,-0.0012805804144591093,-0.002423238940536976
1761505917993557200,0.46055712890625,0.0007649161852896214,0.0006408402696251869,-0.0006679564248770475
1761505918003594500,0.470594482421875,0.0003305547870695591,0.002182810567319393,-0.0000820609275251627
1761505918013631200,0.48063134765625,0.00021640583872795105,-0.0007662163116037846,0.0012501394376158714
1761505918023667200,0.490667236328125,0.0013072364963591099,0.00038879644125699997,0.0007768956711515784
1761505918033703200,0.500703125,0.001075149979442358,0.000395400682464242,0.0007177334045991302
1761505918043740200,0.510740234375,0.0004141535609960556,0.0024566873908042908,0.000500153168104589
1761505918053777200,0.520777099609375,0.0018757698126137257,0.0004047148395329714,0.0011037527583539486
1761505918063814100,0.530814208984375,-0.00001560710370540619,-0.0006333854980766773,0.0005037426017224789
1761505918073851100,0.54085107421875,0.0006996328011155128,-0.00029489584267139435,-0.0006101554026827216
1761505918083888000,0.55088818359375,-0.0018412894569337368,0.00006889202632009983,0.0007696283282712102
1761505918093924000,0.560924072265625,0.0004810835234820843,0.0005288233514875174,0.0010950028663501143
1761505918103961000,0.570961181640625,-0.0030305604450404644,-0.0005164672620594501,-0.000607555964961648
1761505918113998000,0.580998046875,0.001811919268220663,0.0016239737160503864,-0.0014494754141196609
1761505918124035000,0.59103515625,-0.000273335725069046,-0.0013302708975970745,0.002066696062684059
1761505918134072000,0.601072021484375,-0.0006149960681796074,0.0005603013560175896,-0.0006787230959162116
1761505918144108000,0.61110791015625,0.0014446927234530449,0.0012106450740247965,0.0006986638763919473
1761505918154145000,0.62114501953125,-0.0006317803636193275,0.0029640740249305964,-0.00021276797633618116
1761505918164182300,0.631182373046875,0.0026471037417650223,0.00026922114193439484,0.0000093396520242095
1761505918174219000,0.641218994140625,0.000566170085221529,-0.00044528604485094547,-0.001875437912531197
1761505918184256000,0.651256103515625,0.00028360867872834206,0.0002569893840700388,-0.001210979069583118
1761505918194292000,0.6612919921875,0.0011683418415486813,0.003175899153575301,-0.0017445870907977223
1761505918204329000,0.671328857421875,0.000012796372175216675,-0.00006703194230794907,0.0015273726312443614
1761505918214366200,0.6813662109375,-0.00034184474498033524,-0.0010312495287507772,-0.001335647189989686
1761505918224403200,0.6914033203125,-0.0010563707910478115,0.000894215889275074,-0.003386281430721283
1761505918234440200,0.701440185546875,0.000291536096483469,0.00020173238590359688,-0.0007362163159996271
1761505918244477000,0.711476806640625,-0.0006823819130659103,0.001633714186027646,-0.001982043031603098
1761505918254513200,0.72151318359375,0.0009342427365481853,-0.001194123411551118,-0.00010221987031400204
1761505918264550100,0.731550048828125,0.0010303827002644539,0.004102371633052826,0.0008669043891131878
1761505918274587100,0.741587158203125,0.0028610914014279842,0.0030982177704572678,-0.002827082062140107
1761505918284624100,0.7516240234375,-0.000485170166939497,0.0006867256015539169,0.0016265221638604999
1761505918294661000,0.7616611328125,-0.0006872080266475677,0.001391381025314331,-0.000955251045525074
1761505918304697000,0.771697021484375,-0.001224367879331112,0.001995652448385954,0.00031294627115130424
1761505918314734300,0.781734375,-0.0014076321385800838,0.002296487335115671,-0.002026074333116412
1761505918324771000,0.79177099609375,0.001094940584152937,0.0033207391388714314,0.00008661136962473392
1761505918334808000,0.80180810546875,0.0006315759383141994,-0.0019136113114655018,-0.0028316592797636986
1761505918344845000,0.811844970703125,0.0005988189950585365,0.0008784469682723284,-0.0021911689545959234
1761505918354882000,0.821882080078125,0.0007941387593746185,0.000057366909459233284,-0.000005166628398001194
1761505918364918000,0.83191796875,0.0008031935431063175,-0.0007924477104097605,0.0010284062009304762
1761505918374955300,0.841955322265625,-0.0005823723040521145,-0.0018659699708223343,-0.0006435763789340854
1761505918384992000,0.851991943359375,-0.0011831815354526043,0.0013764288742095232,0.00023739732569083571
1761505918395029000,0.862029052734375,0.0017661298625171185,0.001069115474820137,0.0018091278616338968
1761505918405066000,0.87206591796875,-0.0003412296064198017,0.00001104152761399746,0.000038658385165035725
1761505918415102000,0.88210205078125,0.0010516378097236156,-0.0016979146748781204,-0.0012622353387996554
1761505918425139200,0.89213916015625,-0.00018167216330766678,0.0004797519650310278,0.00012207572581246495
1761505918435176200,0.90217626953125,-0.001383359543979168,0.0007886437233537436,0.000631759234238416
1761505918445213200,0.912213134765625,-0.0003290143795311451,0.0022041138727217913,-0.0011805217945948243
1761505918455250000,0.92225,-0.0009185979142785072,0.0029371625278145075,-0.0010270453058183193
1761505918465286100,0.9322861328125,0.0008390885777771473,0.00001247902400791645,-0.0009583358187228441
1761505918475323100,0.9423232421875,-0.0011746822856366634,0.0013392011169344187,-0.0019234181381762028
1761505918485360000,0.952360107421875,0.0005318713374435902,-0.0012033190578222275,0.00021243694936856627
1761505918495397000,0.962397216796875,0.0014037149958312511,0.0002070434857159853,-0.0011047733714804053
1761505918505434000,0.97243408203125,0.0016484595835208893,-0.0010864539071917534,-0.000943119521252811
1761505918515471000,0.98247119140625,0.0000944351777434349,0.0016624447889626026,-0.0012111172545701265
1761505918525507300,0.99250732421875,0.0017400025390088558,0.00029757479205727577,0.001477077603340149
1761505918535544000,1.0025439453125,-0.0013212109915912151,0.00043579423800110817,0.0016619949601590633
1761505918545581000,1.0125810546875,0.000798399094492197,-0.00007713050581514835,0.00042149453656747937
1761505918555618000,1.0226181640625,0.0015564560890197754,0.00017487606965005398,-0.0015470918733626604
1761505918565655000,1.032655029296875,-0.0008534383960068226,-0.0006464426405727863,-0.000020834384486079216
1761505918575691300,1.042691162109375,-0.0013855528086423874,0.001092907739803195,-0.00007184327114373446
1761505918585728300,1.052728271484375,0.00024057365953922272,0.003579501062631607,-0.00037171528674662113
1761505918595765000,1.062764892578125,0.0007618940435349941,0.0004593788180500269,-0.0022256062366068363
1761505918605802000,1.072802001953125,-0.001420300453901291,0.0010657806415110826,-0.0007693897932767868
1761505918615839000,1.0828388671875,-0.0014394172467291355,-0.002437882823869586,-0.000872115371748805
1761505918625875000,1.092875,0.00018750783056020737,0.0008133039809763432,-0.0035192975774407387
1761505918635912200,1.102912109375,0.000060566235333681107,-0.001863132230937481,0.0017096571391448379
1761505918645949200,1.11294921875,-0.00044010765850543976,-0.0011291648261249065,0.0011381427757441998
1761505918655986200,1.122986083984375,-0.0004164385609328747,-0.0034670932218432426,-0.0010599975939840078
1761505918666023000,1.13302294921875,-0.00013947021216154099,-0.0007687783800065517,-0.0007049981504678726
1761505918676060200,1.14306005859375,0.00018143793568015099,-0.0005146630574017763,0.0017102793790400028
1761505918686096100,1.15309619140625,0.001997979823499918,0.000750604784116149,-0.001061804941855371
1761505918696133000,1.163133056640625,0.0001567695289850235,-0.00019419146701693535,0.0010994208278134465
1761505918706170000,1.173170166015625,-0.000052288640290498734,-0.0019960864447057247,-0.00034534407313913107
1761505918716207000,1.18320703125,0.0016546258702874184,-0.0005580577999353409,0.0007234285585582256
1761505918726244000,1.193244140625,-0.00007509719580411911,-0.0022880472242832184,0.001845950959250331
1761505918736280300,1.2032802734375,-0.0006354274228215218,-0.0005648017395287752,-0.0002893209457397461
1761505918746317000,1.213317138671875,0.000017313286662101746,-0.0021688237320631742,-0.0009559101890772581
1761505918756354000,1.22335400390625,-0.0003466550260782242,-0.0005498090758919716,-0.0009024348109960556
1761505918766391000,1.23339111328125,-0.0013235025107860565,0.00047470908612012863,-0.0011684847995638847
1761505918776428300,1.24342822265625,-0.00034032342955470085,-0.0005430742166936398,0.0005450578173622489
1761505918786464300,1.25346435546875,0.0007358603179454803,-0.0003699685912579298,0.0007194948848336935
1761505918796501200,1.263501220703125,0.00001622876152396202,-0.0018700100481510162,0.0004911625874228776
1761505918806538000,1.2735380859375,-0.00003809994086623192,0.0014059441164135933,0.0014472374459728599
1761505918816575000,1.283574951171875,-0.0005626748315989971,-0.000928578432649374,0.0004361500614322722
1761505918826612000,1.293612060546875,0.00045198947191238403,0.003602257464081049,0.0002510604099370539
1761505918836649200,1.303649169921875,-0.0003738277591764927,-0.0003781360574066639,-0.0012159360339865088
1761505918846685200,1.313685302734375,-0.0028423117473721504,-0.0013858762104064226,-0.002434066031128168
1761505918856722200,1.32372216796875,-0.0006791469641029835,0.0004409276880323887,-0.0010419465834274888
1761505918866759200,1.33375927734375,0.0005405806005001068,0.0012092494871467352,0.0013074941234663129
1761505918876796000,1.3437958984375,0.0021178231108933687,0.0013552019372582436,-0.0009978237794712186
1761505918886833200,1.353833251953125,0.002974828239530325,-0.0024621733464300632,-0.00037810613866895437
1761505918896869000,1.363869140625,0.00005797808989882469,-0.0023001632653176785,-0.0003580576740205288
1761505918906906000,1.373906005859375,0.0010079280473291874,0.00030440837144851685,0.0004438201431185007
1761505918916943000,1.383943115234375,-0.00021281884983181953,-0.0015003564767539501,-0.0004729676293209195
1761505918926980000,1.39397998046875,-0.0008136280812323093,0.0001915500033646822,-0.0005757656181231141
1761505918937017000,1.40401708984375,0.00004843715578317642,0.0015899757854640484,0.0009704657131806016
1761505918947053300,1.41405322265625,0.0011922591365873814,0.0004606880247592926,-0.0006991281406953931
1761505918957090000,1.424090087890625,-0.001877890434116125,-0.0024773713666945696,-0.0001782987965270877
1761505918967127000,1.434126953125,0.00043186871334910393,0.0007138943765312433,-0.0004459464689716697
1761505918977164000,1.4441640625,-0.001541611272841692,0.002379543147981167,-0.0013310057111084461
1761505918987201300,1.454201171875,-0.0011314842849969864,0.0018921848386526108,0.0004051090218126774
1761505918997237200,1.4642373046875,-0.0008346163667738438,0.0005114648956805468,-0.0032534687779843807
1761505919007274200,1.474274169921875,-0.0012069265358150005,0.003741080407053232,0.0016520742792636156
1761505919017311000,1.48431103515625,0.0031995910685509443,0.002878907835111022,-0.0005451967008411884
1761505919027348000,1.494347900390625,-0.0028295391239225864,-0.0024474142119288445,-0.0029215356335043907
1761505919037385000,1.504385009765625,0.0005487254820764065,-0.002925360342487693,0.001203334890305996
1761505919047421000,1.5144208984375,-0.00020707957446575165,0.0020973612554371357,0.0005601814482361078
1761505919057458200,1.524458251953125,-0.0005850251764059067,0.00015320489183068275,-0.0009560897015035152
1761505919067495200,1.5344951171875,0.0012163370847702026,0.000350012443959713,0.0016950871795415878
1761505919077532200,1.5445322265625,-0.000014806631952524185,-0.002998568583279848,-0.001044715754687786
1761505919087569000,1.55456884765625,-0.0005863211117684841,0.0003450301010161638,0.0008714285213500261
1761505919097606100,1.564606201171875,0.0007506455294787884,0.0014241539174690843,0.0004268199554644525
1761505919107642000,1.57464208984375,0.0010324078612029552,0.00010855239816009998,0.00026090501341968775
1761505919117679000,1.58467919921875,-0.0008959393016994,0.0001321628224104643,0.0013906166423112154
1761505919127716000,1.594716064453125,-0.00023520877584815025,-0.0022875855211168528,0.0014436135534197092
1761505919137753000,1.604753173828125,-0.001753450371325016,-0.0011025527492165565,-0.0015347233274951577
1761505919147790000,1.6147900390625,0.0012979996390640736,-0.00045061088167130947,-0.0015783993294462562
1761505919157826300,1.624826416015625,0.0011030957102775574,-0.00033221952617168427,-0.0002992537338286638
1761505919167863000,1.634863037109375,-0.002050087321549654,-0.001260065007954836,0.0013084965758025646
1761505919177900000,1.644900146484375,0.0027546612545847893,0.00004065735265612602,-0.0023599539417773485
1761505919187937000,1.65493701171875,-0.00011276453733444214,-0.002080284059047699,-0.0015005518216639757
1761505919197974000,1.66497412109375,0.0010517812334001064,0.00045055593363940716,-0.001213635434396565
1761505919208010000,1.675010009765625,0.000010751653462648392,-0.00033907126635313034,0.00022100942442193627
1761505919218047200,1.685047119140625,-0.000496856402605772,0.00035552913323044777,-0.0010797057766467333
1761505919228084000,1.695083984375,-0.00016848836094141006,-0.0024328003637492657,-0.0011817049235105515
1761505919238121000,1.705120849609375,-0.00009328732267022133,0.000245851231738925,0.0005842389073222876
1761505919248158000,1.715157958984375,-0.0006115385331213474,0.0010392069816589355,0.0013256629463285208
1761505919258194000,1.72519384765625,0.0003388752229511738,-0.002465866506099701,-0.0011638948926702142
1761505919268231200,1.735231201171875,0.00018174853175878525,-0.0011108503676950932,0.0005093691870570183
1761505919278268200,1.74526806640625,-0.0015630591660737991,0.0007375734858214855,-0.0024327996652573347
1761505919288305200,1.75530517578125,0.00015654414892196655,-0.0022409057710319757,-0.0031654355116188526
1761505919298342000,1.765341796875,-0.00002978835254907608,-0.0003594213631004095,0.0009523204062134027
1761505919308377900,1.7753779296875,-0.0009083650074899197,0.003106682561337948,-0.000641847844235599
1761505919318415000,1.7854150390625,0.0020702830515801907,-0.00008213939145207405,-0.0011327340034767985
1761505919328452000,1.7954521484375,0.001518742647022009,0.0023842141963541508,-0.001160697196610272
1761505919338489000,1.805489013671875,0.00270953425206244,-0.0032456284388899803,0.0025525051169097424
1761505919348526000,1.815526123046875,-0.001187202986329794,0.0003427146002650261,-0.0007522113155573606
1761505919358562000,1.82556201171875,0.0012269900180399418,0.00012456090189516544,0.0009035136317834258
1761505919368599300,1.835599365234375,0.00007677078247070312,0.0017541490960866213,-0.001156974001787603
1761505919378636000,1.845635986328125,-0.0017004450783133507,0.0027251732535660267,0.0005321959033608437
1761505919388673000,1.855673095703125,-0.00021173804998397827,0.00013684690929949284,0.0014224906917661428
1761505919398709000,1.865708984375,0.0002535558305680752,0.0011947497259825468,0.0007043356890790164
1761505919408746000,1.87574609375,0.0007584909908473492,-0.0014641506131738424,-0.0015662753721699119
1761505919418783000,1.885782958984375,-0.000442486722022295,0.0001751878298819065,0.0000052371760830283165
1761505919428820200,1.8958203125,0.0006792368367314339,0.0009469718206673861,0.0011506627779453993
1761505919438857000,1.90585693359375,0.0007410724647343159,0.00021256040781736374,-0.0024827169254422188
1761505919448893200,1.91589306640625,-0.00008663767948746681,-0.0020519255194813013,-0.0010089235147461295
1761505919458930000,1.925929931640625,-0.0014067240990698338,-0.00042088539339601994,-0.0016737624537199736
1761505919468967000,1.935966796875,-0.000888473354279995,-0.0018608567770570517,0.00015023653395473957
1761505919479004200,1.946004150390625,-0.0012180185876786709,-0.0019388517830520868,0.00047804234782233834
1761505919489041200,1.956041259765625,-0.0020792842842638493,-0.00030686683021485806,0.001074590370990336
1761505919499077000,1.9660771484375,-0.0017206333577632904,0.0003771744668483734,-0.0008480052929371595
1761505919509114000,1.976114013671875,-0.002679637633264065,-0.0018404398579150438,0.004695364274084568
1761505919519150800,1.98615087890625,-0.0003078663721680641,0.0005553038790822029,-0.0009187512332573533
1761505919529188000,1.99618798828125,-0.00029774662107229233,-0.0014724270440638065,-0.0013722876319661736
1761505919539225000,2.00622509765625,-0.00014580972492694855,-0.00007132068276405334,0.0007487940602004528
1761505919549261000,2.016260986328125,-0.0003724447451531887,-0.00229213060811162,-0.00044776417780667543
1761505919559298000,2.026298095703125,0.0007715462706983089,-0.00039803306572139263,-0.0002455078065395355
1761505919569335000,2.0363349609375,0.00046395091339945793,0.0027245234232395887,0.002779843285679817
1761505919579372300,2.046372314453125,-0.0014319936744868755,-0.00029551167972385883,-0.0006407717010006309
1761505919589409000,2.056408935546875,0.0011669853702187538,0.00006321631371974945,-0.00027298915665596724
1761505919599445000,2.066445068359375,-0.0009100777097046375,0.00010990118607878685,-0.00019949802663177252
1761505919609482000,2.07648193359375,0.00008967285975813866,0.0008649074006825686,0.0030500912107527256
1761505919619519000,2.08651904296875,-0.0010898192413151264,0.0016916383756324649,0.00012014375533908606
1761505919629556200,2.09655615234375,0.0014439122751355171,-0.001080978661775589,-0.001641537295654416
1761505919639592200,2.10659228515625,0.0005295947194099426,0.0009586575906723738,0.0002596194390207529
1761505919649629200,2.116629150390625,-0.0008704289793968201,0.0029501693788915873,-0.0010631727054715157
1761505919659666200,2.126666259765625,0.0006111906841397285,-0.0011087236925959587,0.00004305096808820963
1761505919669703000,2.136702880859375,0.001528915949165821,0.0015674866735935211,0.0011224301997572184
1761505919679740000,2.146739990234375,-0.002115404698997736,0.0010028327815234661,-0.00033232150599360466
1761505919689776000,2.156776123046875,-0.0009721093811094761,0.00026540341787040234,0.00017820647917687893
1761505919699813000,2.166813232421875,-0.0015093069523572922,0.001585078425705433,0.0013119051000103354
1761505919709850000,2.17685009765625,0.001624434720724821,-0.00003332458436489105,0.00028738705441355705
1761505919719887000,2.18688720703125,0.0002596154808998108,0.001494819181971252,0.002141880802810192
1761505919729923800,2.196923828125,0.0006487034261226654,-0.0004607399459928274,-0.00005842279642820358
1761505919739960000,2.2069599609375,0.0010513425804674625,0.0027558975853025913,-0.0013401285978034139
1761505919749997000,2.2169970703125,-0.000898357480764389,0.0015034128446131945,0.0011121099814772606
1761505919760034000,2.227033935546875,0.0010053175501525402,-0.0012826444581151009,-0.001767233363352716
1761505919770071000,2.237071044921875,0.0011600474826991558,0.0008414927870035172,-0.0012545747449621558
1761505919780107000,2.24710693359375,0.00034056929871439934,0.0000037883874028921127,0.00047783361515030265
1761505919790144000,2.25714404296875,0.0016527092084288597,0.0018352443585172296,0.0005524021107703447
1761505919800181200,2.26718115234375,-0.00021994253620505333,0.000715404748916626,0.0006558946333825588
1761505919810218000,2.277218017578125,-0.00031981104984879494,-0.000011638272553682327,-0.0009193652076646686
1761505919820255000,2.2872548828125,0.0008846698328852654,-0.0006895139813423157,-0.0003300149692222476
1761505919830291000,2.297291015625,0.0016766940243542194,0.0005991896614432335,-0.00027675169985741377
1761505919840328000,2.307327880859375,-0.00019883876666426659,0.0010712244547903538,-0.0014976527309045196
1761505919850365200,2.317365234375,0.0008176895789802074,0.0016022587660700083,0.0013761643785983324
1761505919860402200,2.327402099609375,0.0006612720899283886,-0.00003871810622513294,-0.0028473001439124346
1761505919870438100,2.337438232421875,0.000015988480299711227,0.0005618247669190168,0.0006739313830621541
1761505919880475100,2.34747509765625,-0.001731804572045803,0.0014039126690477133,0.0009349188767373562
1761505919890512000,2.357511962890625,0.0008368142880499363,-0.00035031139850616455,0.0033043334260582924
1761505919900549000,2.367549072265625,0.0006372435018420219,0.0008152560330927372,0.0006948084337636828
1761505919910585000,2.377585205078125,-0.00003360677510499954,0.0017321823397651315,0.0006679104990325868
1761505919920622000,2.3876220703125,-0.001766685862094164,-0.0005806505214422941,0.0004259400302544236
1761505919930659000,2.3976591796875,0.002025655470788479,0.00007155747152864933,-0.0014095104997977614
1761505919940696000,2.407696044921875,0.0009652874432504177,-0.0012569043319672346,-0.0015502506867051125
1761505919950733300,2.4177333984375,0.0014350689016282558,0.0011545880697667599,0.0006093065603636205
1761505919960769300,2.427769287109375,0.0005450751632452011,0.0014466048451140523,0.0004994511255063117
1761505919970806000,2.437805908203125,0.0002292240969836712,0.0003509803209453821,-0.0000912380637601018
1761505919980843000,2.447843017578125,0.0017918297089636326,0.0018022351432591677,0.00008980603888630867
1761505919990880000,2.4578798828125,-0.0014686784707009792,-0.00004440080374479294,-0.0010510921711102128
1761505920000916000,2.467916015625,0.0009012040682137012,-0.0018930693622678518,0.0003035502159036696
1761505920010953000,2.477952880859375,-0.0027862084098160267,0.001331219682469964,-0.001391019206494093
1761505920020990200,2.487990234375,0.0007987720891833305,0.0003946314100176096,-0.004392444156110287
1761505920031028200,2.4980283203125,-0.0010816860012710094,0.0017294075805693865,0.002713668392971158
1761505920041064200,2.508064208984375,-0.0015261340886354446,0.0007277796976268291,0.0012042607413604856
1761505920051101200,2.51810107421875,0.001014788169413805,0.0013602804392576218,0.00012115319259464741
1761505920061138200,2.52813818359375,-0.0007661427371203899,-0.0001518777571618557,-0.0007800048915669322
1761505920071175400,2.538175537109375,0.0007553212344646454,-0.0004754518158733845,-0.0006740110693499446
1761505920081212200,2.548212158203125,-0.001218354795128107,-0.0010594860650599003,0.00025594141334295273
1761505920091248400,2.558248291015625,0.0006969906389713287,0.002226055832579732,-0.00037789088673889637
1761505920101285000,2.56828515625,-0.001720411702990532,-0.0012440341524779797,0.00018950417870655656
1761505920111322000,2.578322021484375,0.00031770532950758934,-0.0014839847572147846,0.0008467723382636905
1761505920121359400,2.588359375,-0.0005037924274802208,-0.002086422173306346,0.0005594039103016257
1761505920131395300,2.598395263671875,-0.003145914524793625,0.001632416038773954,0.0005980197456665337
1761505920141432300,2.608432373046875,0.002725522732362151,0.002251697238534689,0.0012143442872911692
1761505920151469300,2.61846923828125,-0.00008730776607990265,0.0009680537041276693,-0.0003225659020245075
1761505920161506000,2.628506103515625,0.002843553898856044,-0.0005951982457190752,0.0020897206850349903
1761505920171542300,2.638542236328125,-0.0006843353621661663,-0.0020476861391216516,0.0015576210571452975
1761505920181579300,2.648579345703125,-0.00035530561581254005,0.00018628337420523167,-0.0006828431505709887
1761505920191616300,2.6586162109375,-0.001192071009427309,0.001534908078610897,-0.0002399594523012638
1761505920201653200,2.6686533203125,-0.0030470131896436214,-0.0004050040151923895,-0.0018770726164802909
1761505920211689200,2.678689208984375,0.0016172472387552261,0.0005119224078953266,-0.00015001255087554455
1761505920221726200,2.688726318359375,0.002321813488379121,-0.0029450072906911373,0.00026119116228073835
1761505920231763200,2.69876318359375,0.0007074051536619663,0.00027235737070441246,-0.0003840927965939045
1761505920241800200,2.70880029296875,0.0011530052870512009,-0.001242687925696373,0.001845352235250175
1761505920251837200,2.718837158203125,-0.0008576810359954834,0.002458839677274227,-0.0013773390091955662
1761505920261873200,2.728873046875,0.0006684414111077785,0.0005229120142757893,0.0004826175281777978
1761505920271910100,2.73891015625,-0.0008522234857082367,0.0008781778160482645,-0.0010023609502241015
1761505920281947100,2.748947021484375,0.00012894859537482262,-0.0015164995566010475,0.0006957532605156302
1761505920291983000,2.758983154296875,0.00008793594315648079,-0.00115510867908597,0.00036259181797504425
1761505920302020400,2.769020263671875,-0.00034502893686294556,0.00040545384399592876,-0.0033052731305360794
1761505920312057300,2.779057373046875,0.0018954882398247719,0.0004211666528135538,-0.0005552927032113075
1761505920322094000,2.789093994140625,-0.0020472826436161995,0.0016556567279621959,0.00008671393152326345
1761505920332131000,2.799131103515625,-0.0018507414497435093,-0.001511906972154975,-0.0003870624350383878
1761505920342167000,2.8091669921875,-0.0005460111424326897,0.0016906775999814272,-0.000663423677906394
1761505920352204300,2.819204345703125,0.0018782643601298332,-0.000822015106678009,0.0016085190000012517
1761505920362241300,2.8292412109375,0.0008171936497092247,0.0016913270810618997,-0.0010246087331324816
1761505920372278300,2.8392783203125,0.00039188703522086143,-0.0014714431017637253,-0.001311164814978838
1761505920382314200,2.849314208984375,0.0021405441220849752,-0.0010506696999073029,-0.0014743717620149255
1761505920392351200,2.859351318359375,-0.0006666937842965126,-0.002118065021932125,0.00028997258050367236
1761505920402388200,2.86938818359375,-0.0007504201494157314,-0.0008889322634786367,0.0002669980167411268
1761505920412425200,2.87942529296875,0.0031585677061229944,0.000788592966273427,-0.0017290412215515971
1761505920422461200,2.889461181640625,0.0005437475629150867,0.0007510057184845209,0.002150135114789009
1761505920432498200,2.899498291015625,0.001794101670384407,0.0014578086556866765,-0.001609981874935329
1761505920442535200,2.90953515625,-0.0008696648292243481,0.00032800878398120403,-0.0001877214526757598
1761505920452571100,2.919571044921875,0.00006803451105952263,0.00029551819898188114,-0.00001887709368020296
1761505920462608400,2.9296083984375,0.0008423067629337311,-0.0022358999121934175,0.0012664723908528686
1761505920472645400,2.939645263671875,-0.0005561192519962788,0.0020033197943121195,0.00139563565608114
1761505920482682000,2.94968212890625,0.00025601498782634735,0.0018198355101048946,-0.0004190482432022691
1761505920492718300,2.95971826171875,-0.002351752482354641,0.0017165049212053418,-0.0001998700900003314
1761505920502755000,2.969755126953125,0.0006637554615736008,0.001861989381723106,-0.003028823295608163
1761505920512792300,2.979792236328125,0.0017950660549104214,-0.0018254234455525875,-0.0009494272526353598
1761505920522829300,2.989829345703125,0.0005700686015188694,0.0016236940864473581,-0.0010658716782927513
1761505920532865300,2.999865234375,-0.000115162692964077,0.00021008821204304695,0.0013791765086352825
1761505920542902300,3.00990234375,0.0009367605671286583,0.0033808962907642126,0.0002818817156367004
1761505920552939300,3.019939208984375,0.0009133247658610344,-0.0014418221544474363,0.00008507410530000925
1761505920562976000,3.02997607421875,-0.00008656317368149757,0.0008362224325537682,-0.00013288459740579128
1761505920573012200,3.04001220703125,-0.001536654308438301,-0.001758228987455368,0.0012924391776323318
1761505920583049200,3.05004931640625,0.0006367014721035957,0.0005366762634366751,0.0015463896561414003
1761505920593086200,3.060086181640625,-0.0008991435170173645,0.002131643472239375,0.00006567209493368864
1761505920603123200,3.070123291015625,0.0006699743680655956,-0.0012217103503644466,-0.0011623183963820338
1761505920613159200,3.0801591796875,0.0005232342518866062,0.0001258491538465023,-0.000520496629178524
1761505920623196200,3.090196044921875,0.000683982390910387,0.0001978767104446888,0.0016020911280065775
1761505920633233400,3.1002333984375,-0.0004020547494292259,0.0015571539988741279,0.0004769055522046983
1761505920643270100,3.110270263671875,0.001650629099458456,0.00008360808715224266,0.0005295393639244139
1761505920653306400,3.120306396484375,-0.0005997419357299805,-0.0018956533167511225,-0.0006278704386204481
1761505920663343000,3.130343017578125,-0.0009761112742125988,0.0006179884076118469,-0.0011007972061634064
1761505920673380000,3.140380126953125,0.0008902321569621563,0.0013269218616187572,0.000346630928106606
1761505920683417300,3.150417236328125,-0.0030403570272028446,0.00007638521492481232,-0.00030101113952696323
1761505920693453300,3.160453369140625,0.0008284174837172031,-0.0001071067526936531,-0.001261347089894116
1761505920703490300,3.170490234375,-0.0008411221206188202,-0.003741007763892412,0.00022774894023314118
1761505920713527300,3.18052734375,-0.0009156903252005577,0.0003578632604330778,0.0017348318360745907
1761505920723563300,3.190563232421875,-0.00015481654554605484,-0.004465347621589899,0.0010737718548625708
1761505920733600300,3.200600341796875,0.0013240366242825985,0.00012860517017543316,0.0010045296512544155
1761505920743637200,3.21063720703125,-0.0005757813341915607,-0.00005097547546029091,0.0009960035094991326
1761505920753674200,3.22067431640625,-0.00046792346984148026,0.0005434420891106129,0.0018165234941989183
1761505920763710200,3.230710205078125,-0.0007602074183523655,0.0016472161514684558,0.00028359948191791773
1761505920773747200,3.240747314453125,-0.0016049621626734734,-0.0011778650805354118,-0.00035316229332238436
1761505920783784200,3.2507841796875,0.000656412448734045,0.0009555227588862181,-0.0003374741645529866
1761505920793821400,3.260821533203125,-0.00013454630970954895,-0.001418418949469924,-0.0003555836156010628
1761505920803857400,3.270857421875,0.00029953476041555405,0.0005191841628402472,0.002749216742813587
1761505920813894100,3.28089404296875,-0.0004338999278843403,0.001346095814369619,0.00035610003396868706
1761505920823931100,3.29093115234375,-0.0004021208733320236,0.0012711624149233103,0.002261699642986059
1761505920833967000,3.300967041015625,-0.0010098544880747795,0.0009949924424290657,0.0013247996103018522
1761505920844004000,3.311004150390625,-0.0018075560219585896,-0.0002711608540266752,-0.00024588906671851873
1761505920854041300,3.321041259765625,0.0020889148581773043,-0.001002464909106493,-0.0011745333904400468
1761505920864078300,3.331078369140625,-0.0016711805947124958,0.0007895026355981827,-0.0004968716530129313
1761505920874114300,3.3411142578125,0.001068945974111557,-0.0007186452858150005,0.0020280713215470314
1761505920884151300,3.3511513671875,-0.0010022851638495922,0.00048364815302193165,0.001421696855686605
1761505920894188300,3.361188232421875,0.00036977557465434074,0.0002106740139424801,0.0015753612387925386
1761505920904225300,3.371225341796875,-0.0011086342856287956,-0.0004371260292828083,0.0009210058487951756
1761505920914261200,3.38126123046875,-0.000491579994559288,0.0029799758922308683,-0.003449507988989353
1761505920924298200,3.39129833984375,-0.002075121272355318,-0.0022933774162083864,-0.0004272102378308773
1761505920934335200,3.401335205078125,0.00002744421362876892,-0.0015436976682394743,0.0005448435549624264
1761505920944371200,3.41137109375,0.0021499430295079947,0.001358069246634841,0.002732018241658807
1761505920954408200,3.421408203125,0.00033712945878505707,-0.0006361058913171291,-0.00006802927237004042
1761505920964445400,3.431445556640625,-0.0005950541235506535,0.000977239804342389,-0.0009070610394701362
1761505920974482200,3.441482177734375,-0.0009023826569318771,0.0014006824931129813,0.0017598284175619483
1761505920984518400,3.451518310546875,-0.0007851719856262207,0.0005560442805290222,-0.0005563866579905152
1761505920994555100,3.46155517578125,-0.0015686741098761559,-0.0012687535490840673,-0.0044339494779706
1761505921004592000,3.471592041015625,-0.0010868888348340988,0.0025985499378293753,-0.0006072962423786521
1761505921014629000,3.481629150390625,0.00021299999207258224,-0.0009623626247048378,-0.0001652115024626255
1761505921024665000,3.4916650390625,0.00039697205647826195,-0.002406445797532797,-0.002399899298325181
1761505921034702000,3.5017021484375,-0.0012898738496005535,-0.0015206784009933472,0.0016398497391492128
1761505921044739000,3.511739013671875,0.0006049759685993195,-0.0012365961447358131,0.0016894135624170303
1761505921054775000,3.521775146484375,0.0009522521868348122,0.001002323580905795,0.002426043851301074
1761505921064812300,3.531812255859375,-0.0018142350018024445,0.0008601013105362654,0.0009696193155832589
1761505921074849000,3.54184912109375,-0.0017575095407664776,0.0007937885820865631,-0.0013241613050922751
1761505921084886000,3.551885986328125,-0.0018856488168239594,0.000454228138551116,0.002305437345057726
1761505921094922000,3.561921875,0.0010715248063206673,-0.0015615185257047415,0.0005757142789661884
1761505921104959000,3.571958984375,-0.0008203070610761642,0.0008642268367111683,0.0005412434111349285
1761505921114996000,3.581995849609375,0.00021220045164227486,0.0004937811754643917,-0.00047288835048675537
1761505921125032200,3.5920322265625,0.0009499387815594673,-0.001146647846326232,-0.0008970280177891254
1761505921135069200,3.602069091796875,-0.00035527627915143967,-0.004439912736415863,0.0019091449212282896
1761505921145106200,3.612106201171875,-0.00148475868627429,-0.0011053935158997774,-0.0019703246653079987
1761505921155143000,3.622142822265625,0.00000235019251704216,0.001319680828601122,-0.0012470101937651634
1761505921165179100,3.63217919921875,0.0005163522437214851,-0.0008048408199101686,-0.0006126591470092535
1761505921175215900,3.6422158203125,0.0009882641024887562,-0.0013827465008944273,0.0026385278906673193
1761505921185253000,3.652253173828125,-0.0018157968297600746,-0.0012648033443838358,0.0008477723458781838
1761505921195289000,3.6622890625,0.0021669603884220123,0.0011253836564719677,-0.0009280233643949032
1761505921205326000,3.672326171875,-0.0005852016620337963,0.00012475810945034027,-0.0002052438212558627
1761505921215363000,3.682363037109375,-0.0019783014431595802,-0.0034079249016940594,-0.00009099417366087437
1761505921225400000,3.692400146484375,0.00038441363722085953,-0.00019347690977156162,-0.003156665712594986
1761505921235436000,3.70243603515625,-0.0002105366438627243,-0.0003474075347185135,-0.0011217441642656922
1761505921245473000,3.71247314453125,0.0008272407576441765,0.0019207217264920473,-0.0004948191344738007
1761505921255510000,3.722510009765625,0.0014922316186130047,-0.0004713295493274927,0.0015917675336822867
1761505921265546000,3.7325458984375,0.0015874975360929966,0.0010643098503351212,-0.0005963171133771539
1761505921275583000,3.7425830078125,-0.001980339176952839,0.0010310201905667782,0.002761928830295801
1761505921285620000,3.752619873046875,0.003176541533321142,-0.002432835754007101,0.0005765733076259494
1761505921295656000,3.762656005859375,-0.0016491063870489597,-0.001118565909564495,-0.0019446412334218621
1761505921305693200,3.772693115234375,0.0024406220763921738,-0.0006776505615562201,0.003559436183422804
1761505921315730200,3.782730224609375,0.0010837414301931858,-0.0013980360236018896,-0.0005482233827933669
1761505921325767200,3.79276708984375,0.0005972995422780514,-0.0003415078390389681,-0.00028793420642614365
1761505921335803100,3.80280322265625,-0.0009084516204893589,-0.0004538933280855417,-0.00038727011997252703
1761505921345839900,3.81283984375,-0.0017899549566209316,-0.000024523818865418434,0.000024096574634313583
1761505921355877000,3.822877197265625,-0.00007674377411603928,-0.0008871215395629406,-0.0021202806383371353
1761505921365913000,3.8329130859375,-0.0006742416881024837,-0.00014253915287554264,0.00031306425807997584
1761505921375950000,3.8429501953125,-0.0017328481189906597,0.0023693544790148735,-0.0030070985667407513
1761505921385987000,3.852987060546875,-0.000557133462280035,-0.0010513316374272108,0.0015849662013351917
1761505921396024000,3.863024169921875,0.0017872471362352371,0.000833919970318675,0.0015996135771274567
1761505921406060000,3.87306005859375,-0.0006560902111232281,0.0006659850478172302,0.0008515417575836182
1761505921416097300,3.88309716796875,-0.0004046880640089512,0.0025592264719307423,0.0014262518379837275
1761505921426134000,3.893134033203125,0.0005501625128090382,-0.001566846389323473,-0.001995012629777193
1761505921436170000,3.903169921875,-0.0011436077766120434,0.0008760711643844843,0.0020609817001968622
1761505921446207000,3.91320703125,0.0006319875828921795,0.00009143748320639133,0.0004131317837163806
1761505921456244000,3.923243896484375,-0.002801093738526106,-0.00112003437243402,-0.0010723794111981988
1761505921466280000,3.933280029296875,-0.0004950263537466526,0.002069219946861267,-0.001206947723403573
1761505921476317200,3.943317138671875,0.0006067235954105854,-0.001360665075480938,0.00042024365393444896
1761505921486354200,3.953354248046875,-0.0007042074576020241,-0.0027442967984825373,0.0003286288119852543
1761505921496391200,3.96339111328125,0.001961084082722664,0.002192138694226742,-0.00029002351220697165
1761505921506427100,3.97342724609375,0.00030750827863812447,-0.0014605384785681963,-0.001357323955744505
1761505921516463900,3.9834638671875,-0.0002677342854440212,0.0011996929533779621,0.0015532447723671794
1761505921526501000,3.993501220703125,-0.0027913744561374187,0.002166067948564887,-0.0010219288524240255
1761505921536537000,4.003537109375,0.0017178896814584732,-0.0015471773222088814,-0.0027761529199779034
1761505921546572000,4.013572021484375,-0.0005921362899243832,0.0037479856982827187,0.00004919455386698246
1761505921556609300,4.023609375,0.00036983005702495575,0.0018879066919907928,-0.001919063739478588
1761505921566646000,4.03364599609375,0.0007053487934172153,0.002149487379938364,0.0011333927977830172
1761505921576682000,4.043681884765625,-0.0007396824657917023,0.0024253909941762686,0.0010130179580301046
1761505921586719000,4.053718994140625,0.0023000482469797134,-0.0003540252801030874,-0.0023627206683158875
1761505921596756000,4.063755859375,-0.0010315664112567902,0.0015866202302277088,-0.0012103711487725377
1761505921606792000,4.0737919921875,-0.000012019183486700058,0.0002444570418447256,0.0012935001868754625
1761505921616829200,4.0838291015625,0.0006122258491814137,-0.0012202817015349865,-0.00006604345981031656
1761505921626866200,4.0938662109375,0.00016338331624865532,-0.0006421732250601053,-0.0009502531029284
1761505921636903200,4.103903076171875,-0.0019034957513213158,0.000632682116702199,0.0006250065634958446
1761505921646939100,4.113939208984375,0.0036171944811940193,-0.0036782785318791866,-0.00017111049965023994
1761505921656976000,4.123975830078125,-0.0011703702621161938,-0.0009839585982263088,0.0002097215037792921
1761505921667013000,4.13401318359375,-0.00006051547825336456,0.0027694664895534515,0.00048033002531155944
1761505921677049000,4.144049072265625,-0.00006211362779140472,0.0003569088876247406,0.001752522075548768
1761505921687086000,4.154086181640625,-0.0026628095656633377,0.0019261756679043174,-0.0007405492942780256
1761505921697123000,4.164123046875,0.0032842953223735094,0.0009384092409163713,0.0005891670589335263
1761505921707159000,4.174158935546875,-0.0012705330736935139,0.001255757175385952,0.0011408586287871003
1761505921717196000,4.184196044921875,0.0002511972561478615,-0.00021377508528530598,0.0006005032337270677
1761505921727233300,4.1942333984375,0.0010267728939652443,-0.0007093318272382021,0.0012151958653703332
1761505921737269200,4.204269287109375,0.00039294082671403885,0.000204398762434721,0.001693233265541494
1761505921747306000,4.214305908203125,-0.00020564207807183266,-0.0020367836114019156,-0.0005476728547364473
1761505921757343000,4.224343017578125,0.00009103398770093918,-0.0010053410660475492,-0.0016835109563544393
1761505921767379000,4.23437890625,0.000436591450124979,0.0009622848592698574,-0.00018160208128392696
1761505921777416000,4.244416015625,-0.0023682499304413795,-0.0005828812718391418,0.00021281203953549266
1761505921787453200,4.254453125,-0.0005028457380831242,0.0004341159947216511,0.00019426539074629545
1761505921797489200,4.2644892578125,0.0029928195290267467,0.0008341227658092976,0.0010557979112491012
1761505921807526100,4.274526123046875,0.001001821830868721,-0.0012907229829579592,-0.00024201907217502594
1761505921817563100,4.284563232421875,-0.0008075297810137272,0.0015964097110554576,0.0015167323872447014
1761505921827600100,4.29460009765625,-0.00039196526631712914,0.0018745721317827702,-0.00233379821293056
1761505921837636000,4.304635986328125,0.00067116878926754,0.0009448626078665257,-0.0003998106112703681
1761505921847673000,4.314673095703125,0.00009519094601273537,0.001105255214497447,0.0010604843264445662
1761505921857710000,4.3247099609375,0.0029306584037840366,-0.002588815288618207,0.001157956081442535
1761505921867746000,4.33474609375,0.0017453650943934917,-0.00006959447637200356,-0.0008925041183829308
1761505921877783000,4.344782958984375,-0.0001561320386826992,-0.0023828160483390093,-0.00012072001118212938
1761505921887820000,4.354820068359375,-0.0004208916798233986,0.0019244692521169782,-0.0002174139954149723
1761505921897856000,4.36485595703125,-0.0018163882195949554,-0.0012071419041603804,0.000089648412540555
1761505921907893200,4.374893310546875,0.00038681551814079285,-0.0011681397445499897,0.000019591650925576687
1761505921917930200,4.38493017578125,-0.004137895535677671,0.0027006343007087708,0.000493634317535907
1761505921927966200,4.39496630859375,0.0009027519263327122,0.00025321985594928265,-0.0023307129740715027
1761505921938003000,4.4050029296875,-0.00043841637670993805,-0.001310854684561491,0.0027948070783168077
1761505921948040000,4.4150400390625,-0.0001361612230539322,-0.0017416414339095354,-0.00032830238342285156
1761505921958076000,4.425075927734375,-0.0011311182752251625,0.000020571984350681305,-0.0022577624768018723
1761505921968113200,4.435113037109375,0.00031416909769177437,0.0015629740664735436,0.0011693479027599096
1761505921978150100,4.445150146484375,-0.0013929172419011593,-0.0006306718569248915,-0.001200865488499403
1761505921988186000,4.45518603515625,0.000898504164069891,0.0015297321369871497,0.0012554433196783066
1761505921998223000,4.46522314453125,-0.0010056556202471256,-0.00002928241156041622,-0.00006495194975286722
1761505922008260000,4.475260009765625,-0.00011682789772748947,-0.00041976943612098694,-0.0006110342219471931
1761505922018296000,4.485296142578125,0.0003910372033715248,-0.0011361599899828434,0.00008937716484069824
1761505922028333300,4.495333251953125,-0.00024241767823696136,0.00024842703714966774,-0.001478661084547639
1761505922038370300,4.505370361328125,-0.00023389561101794243,0.0005815883632749319,0.001766400644555688
1761505922048407600,4.515407470703125,0.0016616671346127987,0.0003308192826807499,0.0004682634607888758
1761505922058443500,4.525443603515625,-0.0007415693253278732,0.00029513309709727764,-0.00017249304801225662
1761505922068480500,4.53548046875,0.001527581363916397,0.0020730795804411173,-0.0009985808283090591
1761505922078517500,4.545517578125,-0.0008306475356221199,0.001221134327352047,0.0013497945619747043
1761505922088553500,4.555553466796875,0.0006926404312252998,0.002375320065766573,-0.0018924796022474766
1761505922098590500,4.565590576171875,0.00018956931307911873,-0.0005131445359438658,-0.0011214944534003735
1761505922108627500,4.57562744140625,0.000731572974473238,0.00187528261449188,0.00164839590433985
1761505922118665500,4.58566552734375,-0.001139297615736723,-0.0013319624122232199,0.001624693744815886
1761505922128702500,4.595702392578125,0.0005876645445823669,0.0006782189011573792,-0.0010856918524950743
1761505922138738400,4.605738525390625,0.00320848124101758,0.000981020275503397,-0.0004121784586459398
1761505922148775700,4.615775634765625,0.002805615309625864,0.0005435820203274488,0.0005744998343288898
1761505922158812400,4.6258125,-0.0015534469857811928,-0.00017999880947172642,-0.0012066223425790668
1761505922168848600,4.6358486328125,-0.001713873352855444,-0.0011105115991085768,-0.00013256038073450327
1761505922178885400,4.645885498046875,-0.0006776372902095318,-0.002361398423090577,0.0005934173241257668
1761505922188922400,4.65592236328125,0.00011920789256691933,0.00045275501906871796,-0.0007268341723829508
1761505922198958300,4.665958251953125,0.0018015271052718163,0.002621100749820471,0.0005277810269035399
1761505922208995600,4.67599560546875,0.00027710432186722755,-0.00021583237685263157,-0.0008207445498555899
1761505922219032600,4.686032470703125,-0.0017527570016682148,0.0014209464425221086,-0.000026057357899844646
1761505922229068500,4.696068603515625,0.0005718125030398369,0.002597571350634098,-0.0010705888271331787
1761505922239105500,4.70610546875,-0.00004044827073812485,-0.0034938768949359655,-0.0003944121999666095
1761505922249142500,4.716142578125,0.000013896264135837555,0.0012390881311148405,-0.0010293863015249372
1761505922259178500,4.726178466796875,-0.002820239868015051,-0.001583596458658576,-0.0011673379922285676
1761505922269215500,4.736215576171875,-0.0002847835421562195,-0.00011155754327774048,0.0014485452556982636
1761505922279252500,4.74625244140625,0.0011179032735526562,-0.0006926592905074358,0.0007896792376413941
1761505922289288400,4.756288330078125,-0.0008204663172364235,-0.0013531192671507597,0.0006465833284892142
1761505922299325400,4.766325439453125,0.0003675702027976513,0.0014626410556957126,0.0001658827532082796
1761505922309362400,4.776362548828125,-0.00020092912018299103,0.0020553525537252426,-0.0010803586337715387
1761505922319398400,4.7863984375,0.00038310233503580093,0.0033435237128287554,-0.0004004536895081401
1761505922329435600,4.796435546875,-0.0006798673421144485,0.0001333151012659073,-0.003518582321703434
1761505922339472600,4.80647265625,0.0017675776034593582,0.0013029755791649222,-0.00036966055631637573
1761505922349508600,4.816508544921875,-0.00003421492874622345,-0.00005064299330115318,-0.000858371495269239
1761505922359545300,4.82654541015625,-0.001216125674545765,-0.0021633284632116556,0.00010196433868259192
1761505922369582300,4.836582275390625,0.002107235137373209,0.0013795164413750172,-0.0005758572369813919
1761505922379618300,4.846618408203125,0.0007852418348193169,0.0012298468500375748,-0.00011353252921253443
1761505922389655600,4.856655517578125,0.0024691889993846416,-0.0001787950750440359,-0.0023611567448824644
1761505922399692500,4.866692626953125,-0.0020643100142478943,-0.00018092570826411247,0.0021576951257884502
1761505922409728500,4.876728515625,0.0018562455661594868,-0.0013580333907157183,-0.001280690310522914
1761505922419765500,4.886765625,-0.001967787742614746,0.0004888689145445824,0.00016700400738045573
1761505922429802500,4.896802490234375,0.002343427622690797,-0.0013504151720553637,-0.0015801232075318694
1761505922439838500,4.90683837890625,-0.0007056253962218761,-0.000724039738997817,-0.00003415823448449373
1761505922449875700,4.916875732421875,-0.00006072176620364189,0.0003206026740372181,-0.00016458809841424227
1761505922459912400,4.926912353515625,0.0014921673573553562,-0.0007513193413615227,0.00014327338431030512
1761505922469948400,4.936948486328125,0.00008154753595590591,-0.0016218482051044703,0.0004696003161370754
1761505922479985400,4.9469853515625,-0.0006545502692461014,0.0011939120013266802,-0.0007370779057964683
1761505922490022400,4.9570224609375,-0.0007195658981800079,0.0014071159530431032,0.0014561335556209087
1761505922500058400,4.967058349609375,0.0002013552002608776,0.003034307388588786,0.00117437110748142
1761505922510095600,4.977095703125,0.0007081814110279083,0.00028332113288342953,0.00035632814979180694
1761505922520132600,4.987132568359375,-0.0007759984582662582,-0.0018626539967954159,0.0009744478156790137
1761505922530168600,4.99716845703125,-0.001372070051729679,0.0015601753257215023,-0.0014506567968055606
1761505922540205600,5.00720556640625,-0.000025043264031410217,-0.0007314749527722597,-0.00108633644413203
1761505922550242300,5.0172421875,0.00003580283373594284,-0.000027611851692199707,0.001534084090963006
1761505922560278500,5.027278564453125,-0.00210244907066226,-0.0001549110747873783,0.0011284846113994718
1761505922570315500,5.0373154296875,0.0012489869259297848,-0.002539314329624176,0.0019506996031850576
1761505922580352500,5.0473525390625,0.0007610959000885487,-0.0011030714958906174,0.0004848957760259509
1761505922590388500,5.057388427734375,-0.0008829124271869659,-0.0010301389265805483,0.0004054445889778435
1761505922600425500,5.067425537109375,-0.0009103431366384029,0.001312910346314311,0.0010707022156566381
1761505922610462500,5.07746240234375,-0.001413361169397831,0.0013753930106759071,-0.00026847037952393293
1761505922620498400,5.08749853515625,0.0003384663723409176,0.00015087146311998367,0.0001602985430508852
1761505922630535700,5.09753564453125,0.002645603148266673,-0.0025514063891023397,0.0003579797921702266
1761505922640572700,5.10757275390625,-0.0004913341253995895,0.0005093647632747889,-0.001158157829195261
1761505922650608600,5.117608642578125,0.000013300683349370956,0.00007479637861251831,-0.000920184887945652
1761505922660645400,5.127645263671875,-0.0006527560763061047,0.0006052982062101364,0.00009421317372471094
1761505922670682400,5.137682373046875,0.00015157833695411682,0.0009332871995866299,0.00008505105506628752
1761505922680718300,5.14771826171875,-0.0003120778128504753,-0.0015543713234364986,-0.0003810020862147212
1761505922690755300,5.15775537109375,-0.0011559040285646915,-0.0019982566591352224,-0.0008051530458033085
1761505922700792600,5.16779248046875,-0.0004722708836197853,-0.0019804134499281645,0.00011230609379708767
1761505922710828500,5.17782861328125,0.0002273540012538433,0.002173713641241193,-0.0014064490096643567
1761505922720865500,5.187865478515625,0.0008886167779564857,-0.0002694702707231045,-0.0006242786766961217
1761505922730902500,5.197902587890625,-0.00040283193811774254,-0.00021747732535004616,-0.0013920763740316033
1761505922740938500,5.2079384765625,-0.002620712388306856,-0.0019402764737606049,-0.0005041783442720771
1761505922750975500,5.2179755859375,-0.0016407696530222893,0.001931451028212905,0.00001789920497685671
1761505922761012500,5.228012451171875,-0.001470327377319336,-0.00005020713433623314,0.001235496369190514
1761505922771048400,5.23804833984375,0.0014819544740021229,0.0003388598561286926,-0.0009237363701686263
1761505922781085400,5.24808544921875,0.00043400097638368607,0.0030931010842323303,0.0007101130904629827
1761505922791122400,5.258122314453125,-0.0005621244199573994,-0.0020832610316574574,0.001706313923932612
1761505922801158400,5.268158447265625,-0.0007024728693068027,0.0012584736105054617,0.0010421215556561947
1761505922811195400,5.2781953125,-0.0002548741176724434,-0.001039756927639246,0.001292687957175076
1761505922821232600,5.288232666015625,-0.0005584745667874813,-0.0021774591878056526,-0.001828004140406847
1761505922831268600,5.2982685546875,-0.002250262536108494,-0.0022741013672202826,-0.0004331582458689809
1761505922841305600,5.3083056640625,0.0007633701898157597,-0.0007550341542810202,-0.0020736653823405504
1761505922851342300,5.31834228515625,0.0004648561589419842,-0.00011943746358156204,0.0007886741659604013
1761505922861378300,5.32837841796875,-0.0006616609171032906,-0.00041238521225750446,-0.0010009701363742352
1761505922871415300,5.338415283203125,-0.001319213304668665,-0.0022356652189046144,0.0006500944728031754
1761505922881452500,5.34845263671875,-0.00025314977392554283,0.0017201940063387156,0.0011704762000590563
1761505922891488500,5.358488525390625,0.0002524321898818016,-0.0010528471320867538,-0.0015946243656799197
1761505922901525500,5.368525390625,-0.0006610322743654251,0.0024968802463263273,0.0006671983283013105
1761505922911562500,5.3785625,0.0026576807722449303,0.0012052529491484165,-0.00013848475646227598
1761505922921598500,5.388598388671875,-0.00018098251894116402,0.001563980826176703,-0.00074568553827703
1761505922931635500,5.398635498046875,0.0007090354338288307,-0.0001086886040866375,-0.0014971439959481359
1761505922941671400,5.40867138671875,0.0007796091958880424,0.0012713614851236343,-0.0008238969603553414
1761505922951708700,5.418708740234375,-0.0003885170444846153,-0.0029098631348460913,-0.001073947292752564
1761505922961745400,5.428745361328125,-0.00045589497312903404,0.0057786996476352215,-0.0010339998407289386
1761505922971781400,5.438781494140625,0.0002562534064054489,0.0005587306804955006,-0.004495061002671719
1761505922981818400,5.448818359375,0.0007076594047248363,-0.002608034061267972,0.0008483054116368294
1761505922991855400,5.45885546875,-0.001967743504792452,0.00284985126927495,0.0003338533570058644
1761505923001891300,5.468891357421875,0.0011268500238656998,-0.0018128110095858574,0.0008598276763223112
1761505923011928600,5.478928466796875,0.0007292283698916435,0.0026523619890213013,-0.001392766134813428
1761505923021965600,5.488965576171875,-0.002901725471019745,-0.00002544652670621872,0.0006948858499526978
1761505923032001000,5.4990009765625,0.0005353908054530621,0.002645330037921667,-0.0007811060640960932
1761505923042038000,5.5090380859375,0.000577468890696764,0.0001227839384227991,-0.0029984540306031704
1761505923052075000,5.519074951171875,0.00040875375270843506,0.004765745252370834,0.0010500793578103185
1761505923062111000,5.529111083984375,0.0018612416461110115,0.0009259998332709074,0.0000540571054443717
1761505923072148000,5.53914794921875,-0.0008426066488027573,0.0013506446266546845,-0.0008171885274350643
1761505923082184000,5.549183837890625,-0.00034060096368193626,-0.0014922800473868847,-0.0007285051979124546
1761505923092221000,5.559220947265625,-0.0006771553307771683,0.0012732993345707655,-0.0005003458354622126
1761505923102258000,5.5692578125,0.0002442984841763973,0.00011296011507511139,-0.0005360321374610066
1761505923112294000,5.5792939453125,-0.0007224725559353828,0.0023945332504808903,0.00011360796634107828
1761505923122331000,5.589330810546875,0.0026458934880793095,-0.00010058213956654072,-0.00009172176942229271
1761505923132368000,5.599367919921875,-0.000060508958995342255,-0.001136238919571042,0.0019528118427842855
1761505923142403800,5.60940380859375,-0.0004764948971569538,-0.001427588751539588,0.0012060614535585046
1761505923152441000,5.619441162109375,-0.00036084698513150215,-0.002136348746716976,0.0006369698676280677
1761505923162478000,5.62947802734375,-0.0005635134875774384,0.0018898181151598692,-0.0001172373304143548
1761505923172514000,5.63951416015625,-0.0020714038982987404,0.0009257965721189976,-0.0002987872576341033
1761505923182550800,5.64955078125,0.0006154594011604786,0.00023843487724661827,-0.0006790866609662771
1761505923192587800,5.659587890625,-0.0009983619675040245,0.0023212709929794073,0.00030736124608665705
1761505923202623700,5.669623779296875,-0.0018468452617526054,-0.0015387143939733505,-0.0006881284061819315
1761505923212661000,5.679660888671875,0.0014251312240958214,0.0021283389069139957,0.0007567665888927877
1761505923222698000,5.689697998046875,-0.0007213768549263477,0.0005413612816482782,0.0016020538751035929
1761505923232734000,5.69973388671875,0.0024797653313726187,0.0009921323508024216,0.000130160478875041
1761505923242771000,5.70977099609375,-0.0007386649958789349,0.0005569718778133392,0.0014790515415370464
1761505923252807000,5.719806884765625,-0.0017255558632314205,-0.00019393861293792725,0.001456497237086296
1761505923262844000,5.729843994140625,-0.0005114204250276089,0.0022609634324908257,-0.0012974775163456798
1761505923272881200,5.739881103515625,-0.0005245446227490902,0.0005558622069656849,0.0013496242463588715
1761505923282917000,5.749917236328125,-0.0006569037213921547,-0.00010113976895809174,-0.00016092066653072834
1761505923292953900,5.759953857421875,-0.0004154276102781296,-0.0026611306238919497,0.000011427211575210094
1761505923302990800,5.769990966796875,0.0007758042775094509,-0.001185472821816802,0.00008839264046400785
1761505923313026800,5.78002685546875,-0.0010003959760069847,-0.0008100853301584721,0.00020411674631759524
1761505923323063800,5.790063720703125,0.0007343869656324387,-0.0006332516204565763,0.0017154606757685542
1761505923333101000,5.80010107421875,-0.00045544980093836784,-0.0014894329942762852,-0.0002708833198994398
1761505923343137000,5.810136962890625,-0.00036596739664673805,0.003394804196432233,-0.0006322743138298392
1761505923353174000,5.820174072265625,0.0004098261706531048,-0.0002457976806908846,-0.00040282460395246744
1761505923363210000,5.8302099609375,-0.0005052359774708748,-0.0001898712944239378,-0.00014103588182479143
1761505923373247000,5.8402470703125,0.0005674567073583603,-0.0009751010220497847,-0.0005843831459060311
1761505923383284000,5.850283935546875,0.0001581287942826748,0.002451588399708271,-0.0003225944237783551
1761505923393320000,5.86031982421875,0.0010342532768845558,-0.0009418237023055553,-0.00015446916222572327
1761505923403357000,5.87035693359375,-0.000373227521777153,0.0001607250887900591,-0.0018450437346473336
1761505923413394000,5.880393798828125,-0.0002187378704547882,-0.001720496453344822,-0.0003747993614524603
1761505923423430000,5.890429931640625,-0.00007386226207017899,-0.00009650085121393204,0.0006119018071331084
1761505923433467000,5.900466796875,0.0010484778322279453,0.0020821718499064445,0.0014716839650645852
1761505923443503900,5.91050390625,-0.0009118751622736454,0.0008675039280205965,-0.0003523150226101279
1761505923453539800,5.920539794921875,0.000847475603222847,0.0006242829840630293,0.0026467740535736084
1761505923463577000,5.9305771484375,0.0007808967493474483,-0.0004058277700096369,-0.0004049423150718212
1761505923473613000,5.940613037109375,-0.0005039172247052193,0.0015907431952655315,0.0009601825731806457
1761505923483650000,5.950650146484375,0.00033844076097011566,0.0014594492968171835,-0.000472864368930459
1761505923493687000,5.96068701171875,-0.0002958206459879875,0.0009941193275153637,-0.0011265210341662169
1761505923503723000,5.970722900390625,0.00025758426636457443,0.0011816059704869986,0.000499871326610446
1761505923513759700,5.980759765625,0.000034568365663290024,-0.0007137281354516745,-0.00004367681685835123
1761505923523797000,5.990796875,0.0007964987307786942,-0.001848500920459628,-0.00045034149661660194
1761505923533833000,6.0008330078125,-0.00024559395387768745,0.002619070466607809,0.0004983648541383445
1761505923543870000,6.010869873046875,-0.00039712805300951004,0.0006209006533026695,-0.0004896679893136024
1761505923553906000,6.020906005859375,0.001385413110256195,0.00025690230540931225,-0.0000402708537876606
1761505923563943000,6.03094287109375,0.0007577058859169483,0.002567993476986885,0.0008308491087518632
1761505923573980000,6.04097998046875,0.0007135272026062012,-0.0012890682555735111,-0.0010526562109589577
1761505923584016000,6.051015869140625,0.0018722685053944588,0.0017645120387896895,-0.0004755492554977536
1761505923594053000,6.06105322265625,0.0007704021409153938,0.0012297327630221844,-0.0004184751305729151
1761505923604089900,6.07108984375,0.0014942493289709091,0.0014534384245052934,-0.0006882533198222518
1761505923614126000,6.0811259765625,-0.0011531668715178967,-0.0001553941983729601,-0.0011221475433558226
1761505923624162800,6.091162841796875,0.000019156374037265778,0.0007322372402995825,-0.0006955091375857592
1761505923634198800,6.10119873046875,0.00014662696048617363,-0.0001284035388380289,-0.001439973944798112
1761505923644235800,6.11123583984375,0.0003692670725286007,0.0012266128323972225,0.0004631209885701537
1761505923654273000,6.12127294921875,0.0018771900795400143,-0.003447198076173663,-0.0023700338788330555
1761505923664309000,6.13130908203125,-0.00016971537843346596,0.001045021926984191,0.001666253199800849
1761505923674346000,6.141345947265625,0.0003992062993347645,-0.00011556129902601242,0.0014504491118714213
1761505923684383000,6.151383056640625,-0.000013583339750766754,0.0010485064703971148,-0.001001789583824575
1761505923694419000,6.1614189453125,0.0003842310979962349,-0.0015472245868295431,0.00007678312249481678
1761505923704456000,6.1714560546875,0.0006028767675161362,-0.0017261889297515154,0.0010989042930305004
1761505923714492000,6.181491943359375,0.0012812120839953423,-0.0010828811209648848,0.000041901832446455956
1761505923724529200,6.191529052734375,-0.0007206862792372704,0.002154723973944783,0.0012991800904273987
1761505923734566000,6.20156591796875,0.0009509283117949963,0.0014563746517524123,0.0004668132751248777
1761505923744601900,6.211601806640625,-0.0010128864087164402,-0.0006366034504026175,-0.00047594576608389616
1761505923754638800,6.221638916015625,-0.0007247659377753735,-0.0010960099752992392,-0.0016174233751371503
1761505923764674800,6.2316748046875,0.0001026783138513565,0.0011189409997314215,0.0005027190782129765
1761505923774711800,6.2417119140625,0.0002663377672433853,-0.0007326153572648764,-0.0013293363153934479
1761505923784749000,6.2517490234375,0.00170817319303751,-0.0004905341193079948,0.0005212941905483603
1761505923794785000,6.261784912109375,0.00021751131862401962,-0.0015874691307544708,-0.0006447667255997658
1761505923804822000,6.271822021484375,0.00010379450395703316,0.00029352144338190556,-0.00010893866419792175
1761505923814859000,6.28185888671875,0.0009275502525269985,0.0003024209290742874,0.00006513099651783705
1761505923824895000,6.29189501953125,-0.0002242671325802803,0.0023706317879259586,-0.0020331735722720623
1761505923834932000,6.301931884765625,0.0009842468425631523,0.00036922632716596127,0.0010857463348656893
1761505923844968000,6.311968017578125,0.0008934331126511097,0.0011695062275975943,0.0012463348684832454
1761505923855005000,6.3220048828125,0.0006945854984223843,0.0005761759821325541,-0.0005438812077045441
1761505923865042000,6.3320419921875,-0.001027414109557867,-0.0040606539696455,-0.0020075547508895397
1761505923875078000,6.342077880859375,0.0007775514386594296,-0.00232204282656312,-0.00046908820513635874
1761505923885115000,6.352114990234375,-0.0003705369308590889,-0.00037314160726964474,-0.0005628315266221762
1761505923895151900,6.36215185546875,0.002765580313280225,0.0026184909511357546,-0.001111083198338747
1761505923905187800,6.372187744140625,-0.0018518082797527313,0.0022001084871590137,-0.00004209030885249376
1761505923915225000,6.38222509765625,0.0005011670291423798,-0.00011726119555532932,-0.0009378019021824002
1761505923925261000,6.392260986328125,0.0014276807196438313,-0.00018011173233389854,0.00006487825885415077
1761505923935298000,6.402298095703125,-0.0020389272831380367,0.0013521098298951983,-0.0014201991725713015
1761505923945334800,6.412334716796875,0.001576314214617014,-0.0003491174429655075,0.001276251394301653
1761505923955371000,6.42237109375,-0.001239620614796877,0.0017749305116012692,-0.0012003278825432062
1761505923965407700,6.43240771484375,-0.0007189726456999779,0.0011789151467382908,-0.0007036484312266111
1761505923975444000,6.44244384765625,-0.0004554586485028267,0.0012475054245442152,0.0015498186694458127
1761505923985481000,6.45248095703125,-0.0030853301286697388,0.0002789136487990618,0.00041824154322966933
1761505923995518000,6.46251806640625,-0.00017143692821264267,0.0007025583181530237,-0.0006645740941166878
1761505924005554000,6.472553955078125,0.0002253740094602108,-0.0002007859293371439,0.0017330697737634182
1761505924015591000,6.4825908203125,0.0003399602137506008,-0.0010386891663074493,-0.0006600640481337905
1761505924025627000,6.492626953125,-0.00043155765160918236,-0.0003670398145914078,0.001504287007264793
1761505924035664000,6.502663818359375,-0.0010205511935055256,0.0015894141979515553,0.0010719898855313659
1761505924045700900,6.512700927734375,-0.0009981803596019745,0.0019478756003081799,0.00020113622304052114
1761505924055736800,6.52273681640625,0.0019879513420164585,0.0009152193088084459,0.0014060873072594404
1761505924065773800,6.53277392578125,0.0004047020338475704,0.0011812690645456314,0.0001291015651077032
1761505924075809800,6.542809814453125,-0.0004465114325284958,-0.00019411882385611534,-0.00039204489439725876
1761505924085846800,6.5528466796875,0.0012123719789087772,-0.0003877307754009962,-0.0014226882485672832
1761505924095883800,6.5628837890625,-0.0006238427013158798,-0.0015615297015756369,0.00094904302386567
1761505924105919700,6.572919677734375,0.0006403597071766853,-0.0013729778584092855,-0.00009917712304741144
1761505924115956700,6.582956787109375,-0.0012268126010894775,0.00347246159799397,-0.0018498341087251902
1761505924125992700,6.59299267578125,-0.0014353380538523197,-0.0021715755574405193,0.0017275902209803462
1761505924136029700,6.60302978515625,-0.001937798224389553,0.0012592694256454706,-0.0001651128986850381
1761505924146066700,6.613066650390625,0.0008217692375183105,-0.0037373534869402647,0.000010655727237462997
1761505924156102700,6.6231025390625,-0.00027775950729846954,0.0005077789537608624,-0.00031468411907553673
1761505924166140000,6.633139892578125,-0.0019486267119646072,-0.0024904075544327497,0.0005191515665501356
1761505924176175900,6.64317578125,-0.0008756169117987156,0.0013489045668393373,0.0015121280448511243
1761505924186212900,6.653212890625,-0.001316902693361044,-0.0005677724257111549,-0.00005381065420806408
1761505924196249600,6.66324951171875,-0.0012517240829765797,-0.00021386798471212387,-0.00002134207170456648
1761505924206285800,6.673285888671875,-0.000914301723241806,0.001889763050712645,-0.0008889999007806182
1761505924216322600,6.683322509765625,0.0007985751144587994,-0.002275717444717884,0.0010226978920400143
1761505924226358500,6.693358642578125,-0.0002488461323082447,0.0013698835391551256,-0.0022876113653182983
1761505924236395800,6.703395751953125,-0.001248843502253294,-0.0002918264362961054,0.0005180785665288568
1761505924246432800,6.713432861328125,0.001091808546334505,0.0025340537540614605,-0.0024127301294356585
1761505924256468700,6.72346875,-0.0008408203721046448,-0.00012778770178556442,-0.00003045494668185711
1761505924266505700,6.733505615234375,-0.0007470771670341492,-0.00046654161997139454,-0.0002983689773827791
1761505924276541700,6.743541748046875,0.00006699655205011368,-0.0005413130857050419,-0.0032066120766103268
1761505924286578700,6.75357861328125,0.0006992309354245663,0.0008840106893330812,-0.00026648235507309437
1761505924296616000,6.763615966796875,-0.0016306238248944283,0.00026387348771095276,0.0005263938801363111
1761505924306652000,6.77365185546875,0.0015404019504785538,-0.0022924947552382946,0.0020398683845996857
1761505924316689000,6.78368896484375,0.0023019840009510517,-0.0008038044907152653,0.002895331010222435
1761505924326724900,6.793724853515625,-0.0013907551765441895,-0.000369443092495203,-0.00013374839909374714
1761505924336761600,6.80376171875,-0.001149212010204792,-0.0010042469948530197,0.001017061062157154
1761505924346798600,6.813798583984375,-0.0018389704637229443,0.0008253445848822594,0.0007179881213232875
1761505924356834600,6.82383447265625,0.0005732933059334755,0.001107061980292201,0.0024951358791440725
1761505924366871800,6.833871826171875,-0.00060249213129282,-0.001291380962356925,-0.00036483281292021275
1761505924376907800,6.84390771484375,0.001473977230489254,0.0012648359406739473,0.0016147516435012221
1761505924386944800,6.85394482421875,-0.0006994283758103848,-0.0022033988498151302,-0.0005714372964575887
1761505924396981800,6.863981689453125,0.0009374096989631653,0.0009277318604290485,0.0006657796911895275
1761505924407017700,6.874017822265625,0.0015238379128277302,-0.0009961354080587626,-0.002391262911260128
1761505924417054700,6.8840546875,-0.0008573504164814949,0.0012883474119007587,-0.0003164665540680289
1761505924427090700,6.894090576171875,0.0016883648931980133,-0.0012693526223301888,0.001524576684460044
1761505924437128000,6.9041279296875,-0.0019090427085757256,0.0024530808441340923,-0.0016189030138775706
1761505924447164700,6.91416455078125,0.002125379629433155,0.001095401355996728,0.001045856042765081
1761505924457200600,6.92420068359375,0.000669507309794426,-0.0006308432202786207,0.0005996681284159422
1761505924467237600,6.934237548828125,0.0017824424430727959,-0.0014921098481863737,-0.002388664986938238
1761505924477273600,6.944273681640625,0.0013931277208030224,0.002276741899549961,-0.0002674756105989218
1761505924487310600,6.954310546875,0.0016221594996750355,-0.0013299770653247833,0.0035344532225281
1761505924497347800,6.964347900390625,0.0009806365706026554,0.0006790121551603079,0.00033585185883566737
1761505924507383800,6.9743837890625,-0.0004849010147154331,0.0005695561412721872,-0.00044924800749868155
1761505924517420800,6.9844208984375,0.0022464569192379713,-0.0006203425582498312,-0.0009473306126892567
1761505924527456800,6.994456787109375,0.0005558822304010391,0.0011549205519258976,-0.0001909928396344185
1761505924537493800,7.00449365234375,-0.000800273846834898,0.002613153774291277,0.0002790208673104644
1761505924547529700,7.01452978515625,0.0014652772806584835,-0.0008614726830273867,-0.0001894291490316391
1761505924557566700,7.024566650390625,-0.0005414700135588646,-0.00007881736382842064,0.0010197263909503818
1761505924567603700,7.034603759765625,0.0001866379752755165,0.0017923197010532022,-0.00044261536095291376
1761505924577640000,7.044639892578125,-0.0014176699332892895,-0.000034821219742298126,-0.000013690558262169361
1761505924587676700,7.0546767578125,0.001356811262667179,0.0009958220180124044,-0.0017404841491952538
1761505924597712600,7.064712646484375,0.00033376552164554596,-0.0007332661189138889,-0.0023148737382143736
1761505924607749600,7.07474951171875,-0.001321122981607914,0.0009381335694342852,-0.0017239183653146029
1761505924617786600,7.08478662109375,-0.000881765503436327,0.0004095560871064663,-0.0011765153612941504
1761505924627822600,7.094822509765625,0.0008825790137052536,0.00047959713265299797,-0.0005876903887838125
1761505924637859800,7.10485986328125,0.001988348551094532,-0.0007223004940897226,0.0008252515690401196
1761505924647895800,7.114895751953125,-0.000915295910090208,0.0019184899283573031,-0.0008626598864793777
1761505924657932800,7.124932861328125,0.00043974630534648895,0.0005380692891776562,0.0012524401536211371
1761505924667968800,7.13496875,-0.0005213883705437183,-0.001274211797863245,-0.0005601072916761041
1761505924678005800,7.145005859375,0.0008662296459078789,0.0020703990012407303,0.0008110399357974529
1761505924688042800,7.155042724609375,-0.0018390095792710781,-0.00216615735553205,0.0027250538114458323
1761505924698078700,7.16507861328125,-0.0005732369609177113,0.00043712486512959003,-0.0012152259005233645
1761505924708115700,7.17511572265625,-0.0018611419945955276,0.001237937482073903,-0.0029577319510281086
1761505924718151700,7.185151611328125,0.001469464972615242,0.00014747073873877525,0.0008204461773857474
1761505924728188700,7.195188720703125,0.0003882213495671749,-0.0010376358404755592,0.0008263051277026534
1761505924738225700,7.2052255859375,-0.000542663037776947,0.00015713879838585854,-0.0012912373058497906
1761505924748261600,7.21526171875,-0.0001474497839808464,0.00042638438753783703,-0.001441173255443573
1761505924758298600,7.225298583984375,0.0009357212111353874,-0.0004903862718492746,0.00002447236329317093
1761505924768334600,7.23533447265625,-0.002093091607093811,-0.0008634952828288078,-0.00011827307753264904
1761505924778371800,7.245371826171875,-0.0009277993813157082,0.0012516970746219158,-0.002346800873056054
1761505924788407800,7.25540771484375,-0.0019709598273038864,-0.0014127956237643957,0.0007352754473686218
1761505924798444800,7.26544482421875,0.0009627104736864567,-0.0032491120509803295,0.0006113278213888407
1761505924808481800,7.275481689453125,-0.00010495074093341827,-0.00022349460050463676,0.0009804419241845608
1761505924818517800,7.285517822265625,0.0005620187148451805,-0.00005873013287782669,0.00016001623589545488
1761505924828554800,7.2955546875,0.0003316556103527546,0.0004563252441585064,-0.0014232329558581114
1761505924838590700,7.3055908203125,0.001966166775673628,0.0001813631970435381,-0.0006292016478255391
1761505924848627700,7.315627685546875,0.0004044887609779835,0.001977398991584778,-0.0020193718373775482
1761505924858663700,7.32566357421875,-0.0008552917279303074,0.0013995692133903503,-0.0013954171445220709
1761505924868700700,7.33570068359375,0.0005018552765250206,0.0008895739447325468,0.0005425651324912906
1761505924878737700,7.345737548828125,-0.0006238846108317375,-0.0025955424644052982,-0.0004605543799698353
1761505924888773600,7.355773681640625,0.001959381625056267,0.002450614934787154,0.0025203218683600426
1761505924898810600,7.365810546875,-0.000701668206602335,0.0000751714687794447,0.0004590088501572609
1761505924908846600,7.3758466796875,0.001934328582137823,0.0008741198107600212,-0.0024757946375757456
1761505924918883800,7.3858837890625,0.0007562702521681786,-0.0019333511590957642,0.001217533485032618
1761505924928919800,7.395919921875,-0.0007659923285245895,0.0016094519523903728,-0.004511725157499313
1761505924938956800,7.405956787109375,-0.0005112434737384319,-0.00244716415181756,0.0005477984668686986
1761505924948993800,7.415993896484375,0.0006078165024518967,0.002829889301210642,-0.00022798031568527222
1761505924959029800,7.42602978515625,0.0013858862221240997,-0.0010085271205753088,-0.0029568311292678118
1761505924969066500,7.43606640625,0.0029441018123179674,0.0003116019070148468,0.0013260644627735019
1761505924979103000,7.44610302734375,0.002340973587706685,0.0008348587434738874,-0.00303446501493454
1761505924989139700,7.4561396484375,-0.0018812022171914577,-0.0002517108805477619,-0.00040246290154755116
1761505924999175700,7.46617578125,0.001616944558918476,0.0007692109793424606,0.00010046281386166811
1761505925009212700,7.476212646484375,-0.00008721230551600456,-0.002403945429250598,-0.0003730471944436431
1761505925019249700,7.486249755859375,-0.00011125719174742699,-0.0013663654681295156,0.000035942415706813335
1761505925029286100,7.4962861328125,0.0006693149916827679,-0.0009407924953848124,-0.00024209159892052412
1761505925039323100,7.5063232421875,-0.0021577831357717514,-0.0010483963415026665,0.0013648949097841978
1761505925049359000,7.516359130859375,0.0010715662501752377,-0.0025573433376848698,-0.0004742841701954603
1761505925059396000,7.52639599609375,-0.001963192131370306,-0.00004318123683333397,0.000556779676117003
1761505925069432000,7.53643212890625,-0.0001607644371688366,0.0000700030941516161,0.0004811458638869226
1761505925079469000,7.546468994140625,-0.0015018582344055176,0.0026779272593557835,0.0005089447950012982
1761505925089506000,7.556506103515625,0.00017513427883386612,-0.00026087090373039246,-0.000542204943485558
1761505925099542000,7.5665419921875,-0.0007669865153729916,0.000023126602172851562,-0.00047760468441993
1761505925109579000,7.5765791015625,-0.001644497737288475,0.0004734671674668789,0.001349057536572218
1761505925119615000,7.586614990234375,-0.0006963950581848621,-0.0009729170706123114,0.00016677798703312874
1761505925129652000,7.59665185546875,-0.0002998504787683487,-0.0011513486970216036,-0.0008129989728331566
1761505925139688000,7.60668798828125,0.0005893344059586525,0.00007807137444615364,0.001656029955483973
1761505925149725000,7.616724853515625,-0.00011533824726939201,-0.00044523971155285835,0.00032231886871159077
1761505925159762200,7.62676220703125,0.0016988134011626244,-0.000828032847493887,-0.0015634895535185933
1761505925169798100,7.636798095703125,0.001582966186106205,0.0027041174471378326,0.000048255547881126404
1761505925179835100,7.646835205078125,0.00139187416061759,-0.0015543585177510977,-0.0004580994136631489
1761505925189871000,7.65687109375,0.001060310285538435,-0.0005455529317259789,0.0005954470834694803
1761505925199908000,7.666908203125,-0.00018366100266575813,-0.002012693788856268,0.0005983762675896287
1761505925209944000,7.676944091796875,-0.0000795312225818634,-0.0011663413606584072,0.0010444557992741466
1761505925219981000,7.68698095703125,-0.00192593177780509,0.0035389901604503393,0.0013820691965520382
1761505925230017300,7.697017333984375,0.0008645285852253437,0.0009831544011831284,-0.0007641722913831472
1761505925240054000,7.707053955078125,0.00004286039620637894,-0.0002023898996412754,-0.0010915441671386361
1761505925250091000,7.717091064453125,0.00202611624263227,0.000019984086975455284,-0.002215930726379156
1761505925260127000,7.727126953125,-0.0002361023798584938,0.00004467181861400604,-0.0012755549978464842
1761505925270164000,7.7371640625,-0.0007503591477870941,0.0010878320317715406,-0.0016124448738992214
1761505925280200000,7.747199951171875,0.0008733528666198254,-0.0008530956692993641,-0.000615573488175869
1761505925290237000,7.75723681640625,-0.0020782286301255226,0.0009069873485714197,-0.0009058580035343766
1761505925300273200,7.767273193359375,-0.0004084780812263489,0.003518467303365469,-0.0010028989054262638
1761505925310310100,7.77731005859375,0.0011143176816403866,-0.0011524511501193047,-0.0008505661971867085
1761505925320346000,7.78734619140625,-0.0009117946028709412,-0.0003449327778071165,-0.000987838488072157
1761505925330383000,7.797383056640625,0.0004392270930111408,0.003729969961568713,0.00007476273458451033
1761505925340420000,7.807420166015625,0.0015428755432367325,-0.003055207896977663,-0.0007410449907183647
1761505925350456000,7.8174560546875,-0.00019670138135552406,-0.0006865924224257469,0.00010424235370010138
1761505925360493000,7.8274931640625,0.001434368547052145,0.002233833074569702,0.0015973945846781135
1761505925370529300,7.837529296875,0.0010636565275490284,-0.0033630658872425556,-0.0001349917147308588
1761505925380566000,7.84756591796875,-0.0006418135017156601,0.0003618253394961357,-0.0003143079811707139
1761505925390602000,7.85760205078125,0.0026527829468250275,-0.000384392449632287,0.000640435260720551
1761505925400639000,7.867638916015625,0.0003125341609120369,-0.00043355696834623814,-0.002833079546689987
1761505925410675000,7.877675048828125,-0.0026044263504445553,0.0002617943100631237,-0.0015622187638655305
1761505925420712000,7.8877119140625,-0.0005855723284184933,0.000263105146586895,-0.00029768701642751694
1761505925430749200,7.897749267578125,-0.0005908990278840065,-0.0035321658942848444,-0.0003437597770243883
1761505925440785200,7.90778515625,0.0008062319830060005,-0.0012147612869739532,-0.0008306592935696244
1761505925450822100,7.917822265625,-0.0028910343535244465,-0.0013228855095803738,-0.0011038995580747724
1761505925460858000,7.927858154296875,0.0018727732822299004,0.0026500888634473085,-0.0010181907564401627
1761505925470895000,7.93789501953125,-0.0008524395525455475,-0.0033444203436374664,0.00014774117153137922
1761505925480931000,7.94793115234375,-0.0003071143291890621,-0.004373722244054079,-0.001003909739665687
1761505925490968000,7.957968017578125,0.0019845357164740562,0.00026390631683170795,0.0013873425778001547
1761505925501004000,7.968004150390625,0.0002162102609872818,-0.0012496141716837883,-0.0007485456299036741
1761505925511041300,7.978041259765625,0.0006724097765982151,-0.0008874242193996906,-0.0008617299608886242
1761505925521078000,7.988078125,0.00104080094024539,-0.0011750943958759308,0.0006663005915470421
1761505925531114000,7.998114013671875,-0.0006636222824454308,0.00044996640644967556,-0.0016469210386276245
1761505925541151000,8.00815087890625,0.0008005518466234207,-0.001085795694962144,0.001145395915955305
1761505925551186200,8.018186279296875,0.0009776521474123001,-0.00047619803808629513,-0.0014330766862258315
1761505925561222100,8.02822216796875,-0.000353153795003891,0.001248298678547144,0.001142159104347229
1761505925571259100,8.038259033203126,0.0005328794941306114,0.0009851783979684114,-0.0010932983132079244
1761505925581295000,8.048295166015626,-0.0003682090900838375,-0.00004501640796661377,-0.0019997144117951393
1761505925591331800,8.058331787109376,-0.001306174322962761,0.0001541879028081894,0.0016741163562983274
1761505925601368000,8.0683681640625,0.001716866623610258,0.0012507964856922626,-0.000047994195483624935
1761505925611405000,8.078405029296874,-0.0023958534002304077,0.00011975201778113842,-0.0009364248253405094
1761505925621441000,8.08844091796875,0.0010632239282131195,0.00011954410001635551,-0.0015339243691414595
1761505925631478000,8.09847802734375,0.0006589558906853199,0.0014141068095341325,-0.0005754528101533651
1761505925641514000,8.108513916015625,-0.0006673573516309261,-0.0029082957189530134,-0.0012776142684742808
1761505925651551000,8.118551025390625,0.00014277594164013863,-0.0001963989343494177,-0.0007196819642558694
1761505925661588000,8.128587890625,-0.0021657291799783707,0.00030399695970118046,-0.00024060520809143782
1761505925671624200,8.138624267578125,0.0003557521849870682,-0.00014447933062911034,0.0013253334909677505
1761505925681661200,8.1486611328125,-0.000585983507335186,0.0011431681923568249,-0.00005403556860983372
1761505925691697200,8.158697265625,0.0009413394145667553,0.0007828425150364637,-0.0004319380968809128
1761505925701734100,8.168734130859375,0.0008826702833175659,-0.00001263059675693512,-0.00001355691347271204
1761505925711770000,8.17877001953125,-0.0003770049661397934,-0.001513854367658496,-0.0010122422827407718
1761505925721807000,8.18880712890625,0.0004121060483157635,-0.000691030640155077,-0.0015541709726676345
1761505925731843000,8.198843017578126,0.0020321067422628403,0.0026682810857892036,-0.0019626999273896217
1761505925741880000,8.208880126953124,-0.00002792244777083397,-0.0006591009441763163,-0.0006648489506915212
1761505925751916300,8.218916259765624,0.0007744878530502319,-0.0013544519897550344,-0.0002153073437511921
1761505925761953000,8.228953125,0.0003686430864036083,0.0028691517654806376,-0.00011735549196600914
1761505925771989000,8.238989013671874,0.0007902216166257858,-0.0005918922834098339,0.0013066367246210575
1761505925782026000,8.24902587890625,0.0018163635395467281,0.0010353375691920519,-0.0008684206986799836
1761505925792063000,8.25906298828125,-0.0005261525511741638,0.002050268230959773,-0.0017936028307303786
1761505925802099000,8.269098876953125,0.00004934566095471382,-0.0010964218527078629,-0.0006895082769915462
1761505925812136200,8.27913623046875,-0.0010127229616045952,0.002649047877639532,-0.000516402767971158
1761505925822172200,8.289172119140625,-0.0030202888883650303,0.00014006346464157104,-0.0001636403612792492
1761505925832209200,8.299209228515625,0.0012929667718708515,-0.0021872729994356632,-0.0007692432263866067
1761505925842245000,8.3092451171875,-0.0025327145121991634,-0.00045472639612853527,-0.00040017429273575544
1761505925852282000,8.3192822265625,0.000839912798255682,0.0003543419297784567,-0.0005666218930855393
1761505925862318000,8.329318115234376,-0.0012193657457828522,0.0030446406453847885,0.0017007780261337757
1761505925872355000,8.33935498046875,0.0008078324608504772,-0.0009269313886761665,-0.0005370761500671506
1761505925882391000,8.34939111328125,-0.000512958038598299,-0.001019395887851715,-0.0010298002744093537
1761505925892428000,8.359427978515624,0.0017752302810549736,-0.0004508111160248518,0.0005411984748207033
1761505925902465000,8.369465087890624,-0.000875523779541254,0.0026719162706285715,0.0014686782378703356
1761505925912501000,8.3795009765625,0.002025990281254053,0.0012631039135158062,-0.0010812984546646476
1761505925922538000,8.3895380859375,0.0009683086536824703,-0.000253850594162941,0.0017448712605983019
1761505925932574000,8.399573974609375,0.0003307480365037918,-0.00045412033796310425,0.0002785347169265151
1761505925942611000,8.40961083984375,0.0008609527722001076,0.001009883126243949,0.003080654889345169
1761505925952647000,8.41964697265625,-0.0012003341689705849,0.0034192451275885105,-0.0008123541483655572
1761505925962684200,8.42968408203125,0.00023006554692983627,-0.0017615482211112976,0.0011226264759898186
1761505925972720000,8.43972021484375,-0.0017167055048048496,0.00035113771446049213,0.0018786978907883167
1761505925982757000,8.449757080078125,0.0018209759145975113,0.002054681535810232,0.0005144369206391275
1761505925992793000,8.45979296875,0.0014995322562754154,-0.0013752034865319729,-0.0013050348497927189
1761505926002830000,8.469830078125,-0.000802802387624979,0.0019817757420241833,-0.0003731776960194111
1761505926012866000,8.479865966796876,0.0013975012116134167,-0.00115143321454525,0.0008271089754998684
1761505926022903000,8.489903076171874,0.00218493165448308,0.0011302107013761997,0.00042365980334579945
1761505926032939000,8.49993896484375,-0.00006783613935112953,-0.0009414621163159609,0.0004295187536627054
1761505926042976300,8.509976318359374,0.0005959733389317989,-0.0006839125417172909,-0.0014621414011344314
1761505926053012500,8.520012451171874,0.00035895174369215965,-0.0019137603230774403,-0.0013654687209054828
1761505926063049500,8.530049560546875,0.0004072533920407295,0.002655667718499899,-0.0009237185586243868
1761505926073086500,8.54008642578125,-0.0012449715286493301,0.0019736322574317455,-0.0025269414763897657
1761505926083122400,8.550122314453125,0.0008322917856276035,0.0018586490768939257,-0.00014303915668278933
1761505926093159400,8.560159423828125,-0.001432726625353098,-0.0018314269836992025,-0.0008184167090803385
1761505926103195400,8.5701953125,0.0005010589957237244,-0.0014307689853012562,0.00010353134712204337
1761505926113232400,8.580232421875,-0.002007105853408575,-0.000653392169624567,-0.0012344408314675093
1761505926123269600,8.59026953125,0.000409791711717844,0.0015847961185500026,-0.0019724711310118437
1761505926133305600,8.6003056640625,0.0013879709877073765,-0.0019577406346797943,0.000011850264854729176
1761505926143342600,8.610342529296876,0.0005491520278155804,0.0010562073439359665,0.0015246786642819643
1761505926153378600,8.620378662109376,-0.0011624614708125591,0.0008695197757333517,-0.0005675007123500109
1761505926163415600,8.63041552734375,-0.0018900735303759575,0.004308155272156,0.0029815826565027237
1761505926173451500,8.640451416015624,-0.01032696757465601,0.6792503595352173,0.15162084996700287
1761505926183488300,8.65048828125,-0.008014285936951637,0.4266302287578583,0.03055769018828869
1761505926193525500,8.660525390625,0.009012901224195957,-0.5608906745910645,-0.07127120345830917
1761505926203561500,8.6705615234375,0.008794603869318962,-0.5495778918266296,-0.12113535404205322
1761505926213598500,8.680598388671875,-0.001256431918591261,0.14977994561195374,0.005788241047412157
1761505926223634400,8.690634521484375,-0.00031423382461071014,-0.05191437155008316,-0.013269171118736267
1761505926233671400,8.70067138671875,0.00031906599178910255,0.010073894634842873,0.001255176728591323
