time,seconds_elapsed,z,y,x
1761479837488587500,0.06558740234375,-1.0137176513671875,-0.0233154296875,-0.0167694091796875
1761479837498626800,0.075626708984375,-1.01409912109375,-0.0202178955078125,-0.0179290771484375
1761479837508660500,0.085660400390625,-1.0134735107421875,-0.024505615234375,-0.018768310546875
1761479837518696400,0.095696533203125,-1.013458251953125,-0.020751953125,-0.0164794921875
1761479837528731600,0.105731689453125,-1.0134735107421875,-0.022125244140625,-0.01837158203125
1761479837538767600,0.115767578125,-1.012451171875,-0.0214385986328125,-0.0194549560546875
1761479837548803600,0.125803466796875,-1.0129852294921875,-0.023590087890625,-0.0179443359375
1761479837558839600,0.135839599609375,-1.0133514404296875,-0.02044677734375,-0.0161285400390625
1761479837568875500,0.14587548828125,-1.0121917724609375,-0.0209503173828125,-0.019012451171875
1761479837578911500,0.155911376953125,-1.0130767822265625,-0.0224151611328125,-0.0176544189453125
1761479837588946700,0.16594677734375,-1.013763427734375,-0.023284912109375,-0.0156707763671875
1761479837598982700,0.175982666015625,-1.0129547119140625,-0.0220184326171875,-0.01727294921875
1761479837609018600,0.1860185546875,-1.0128936767578125,-0.0204925537109375,-0.019256591796875
1761479837619054600,0.1960546875,-1.012908935546875,-0.0225830078125,-0.0169830322265625
1761479837629090600,0.206090576171875,-1.012298583984375,-0.023345947265625,-0.0172119140625
1761479837639126500,0.21612646484375,-1.0135040283203125,-0.0222320556640625,-0.018829345703125
1761479837649162500,0.22616259765625,-1.0139007568359375,-0.0207672119140625,-0.0175933837890625
1761479837659197700,0.23619775390625,-1.0130767822265625,-0.0231781005859375,-0.016815185546875
1761479837669233700,0.246233642578125,-1.01251220703125,-0.022430419921875,-0.0176239013671875
1761479837679269600,0.25626953125,-1.0122222900390625,-0.022796630859375,-0.0185699462890625
1761479837689305600,0.2663056640625,-1.0124053955078125,-0.0202178955078125,-0.016845703125
1761479837699341600,0.276341552734375,-1.01226806640625,-0.0233612060546875,-0.0178375244140625
1761479837709377500,0.28637744140625,-1.0127410888671875,-0.02227783203125,-0.0180816650390625
1761479837719412500,0.29641259765625,-1.01263427734375,-0.0233154296875,-0.018096923828125
1761479837729448400,0.306448486328125,-1.01263427734375,-0.0204315185546875,-0.0162506103515625
1761479837739484700,0.316484619140625,-1.0133209228515625,-0.0226287841796875,-0.01983642578125
1761479837749520600,0.326520751953125,-1.013336181640625,-0.0225830078125,-0.01837158203125
1761479837759556600,0.336556640625,-1.012908935546875,-0.02337646484375,-0.016937255859375
1761479837769592600,0.346592529296875,-1.0126190185546875,-0.0208740234375,-0.0180816650390625
1761479837779627500,0.35662744140625,-1.0125885009765625,-0.023101806640625,-0.0186767578125
1761479837789663500,0.36666357421875,-1.0131988525390625,-0.023468017578125,-0.0167694091796875
1761479837799699500,0.376699462890625,-1.012786865234375,-0.02239990234375,-0.0181121826171875
1761479837809735400,0.3867353515625,-1.01318359375,-0.021209716796875,-0.0182952880859375
1761479837819771600,0.396771728515625,-1.01300048828125,-0.02276611328125,-0.0181427001953125
1761479837829807600,0.4068076171875,-1.01263427734375,-0.022857666015625,-0.0168609619140625
1761479837839843800,0.41684375,-1.011688232421875,-0.0223236083984375,-0.0183868408203125
1761479837849878500,0.42687841796875,-1.0130767822265625,-0.0215911865234375,-0.0178070068359375
1761479837859914500,0.43691455078125,-1.0134429931640625,-0.0219573974609375,-0.0170745849609375
1761479837869950500,0.446950439453125,-1.0123291015625,-0.023345947265625,-0.017059326171875
1761479837879986400,0.456986328125,-1.0121612548828125,-0.0218505859375,-0.018310546875
1761479837890022700,0.467022705078125,-1.0133819580078125,-0.0218505859375,-0.0175628662109375
1761479837900058600,0.47705859375,-1.012725830078125,-0.0222015380859375,-0.0170745849609375
1761479837910093600,0.487093505859375,-1.01153564453125,-0.0229949951171875,-0.01806640625
1761479837920129500,0.497129638671875,-1.0128021240234375,-0.0218505859375,-0.0171966552734375
1761479837930165500,0.50716552734375,-1.0122528076171875,-0.023162841796875,-0.016815185546875
1761479837940201500,0.517201416015625,-1.0130157470703125,-0.0216827392578125,-0.016571044921875
1761479837950237700,0.52723779296875,-1.0126495361328125,-0.0216522216796875,-0.018402099609375
1761479837960273700,0.537273681640625,-1.012786865234375,-0.0213470458984375,-0.017730712890625
1761479837970309600,0.5473095703125,-1.0119781494140625,-0.022308349609375,-0.0177154541015625
1761479837980344600,0.557344482421875,-1.0120849609375,-0.020782470703125,-0.0178680419921875
1761479837990380500,0.567380615234375,-1.0125885009765625,-0.022979736328125,-0.017547607421875
1761479838000416800,0.577416748046875,-1.013153076171875,-0.02197265625,-0.0165863037109375
1761479838010452700,0.58745263671875,-1.013092041015625,-0.0214080810546875,-0.0178070068359375
1761479838020488700,0.59748876953125,-1.012542724609375,-0.0213165283203125,-0.0185089111328125
1761479838030524700,0.607524658203125,-1.01220703125,-0.0230865478515625,-0.017303466796875
1761479838040560600,0.617560546875,-1.0119781494140625,-0.0224761962890625,-0.0171966552734375
1761479838050595600,0.627595703125,-1.0129547119140625,-0.02197265625,-0.018402099609375
1761479838060631800,0.6376318359375,-1.0130462646484375,-0.0216064453125,-0.0168914794921875
1761479838070667800,0.647667724609375,-1.012237548828125,-0.0227813720703125,-0.0177459716796875
1761479838080703700,0.657703857421875,-1.0117950439453125,-0.0220489501953125,-0.01812744140625
1761479838090739700,0.66773974609375,-1.0130462646484375,-0.02215576171875,-0.0183258056640625
1761479838100775700,0.677775634765625,-1.0126495361328125,-0.022064208984375,-0.017547607421875
1761479838110811600,0.687811767578125,-1.0123291015625,-0.0233001708984375,-0.0172119140625
1761479838120846800,0.697846923828125,-1.01239013671875,-0.021636962890625,-0.0179443359375
1761479838130882800,0.7078828125,-1.0119781494140625,-0.0218353271484375,-0.0180511474609375
1761479838140918800,0.717918701171875,-1.0121307373046875,-0.0218048095703125,-0.0168914794921875
1761479838150954800,0.727954833984375,-1.013824462890625,-0.0223236083984375,-0.0176239013671875
1761479838160990700,0.73799072265625,-1.013275146484375,-0.0218505859375,-0.0179901123046875
1761479838171026700,0.748026611328125,-1.01300048828125,-0.0222320556640625,-0.017059326171875
1761479838181062700,0.758062744140625,-1.0124664306640625,-0.0224151611328125,-0.0177459716796875
1761479838191097900,0.768097900390625,-1.012603759765625,-0.0223846435546875,-0.0179595947265625
1761479838201133800,0.7781337890625,-1.0126800537109375,-0.022216796875,-0.0178680419921875
1761479838211169800,0.788169677734375,-1.0121612548828125,-0.02130126953125,-0.0173187255859375
1761479838221205800,0.798205810546875,-1.0129852294921875,-0.0214080810546875,-0.0182952880859375
1761479838231241700,0.80824169921875,-1.01190185546875,-0.021392822265625,-0.0178070068359375
1761479838241277700,0.818277587890625,-1.0119476318359375,-0.0222625732421875,-0.0177459716796875
1761479838251313700,0.828313720703125,-1.0120086669921875,-0.021331787109375,-0.017791748046875
1761479838261348600,0.8383486328125,-1.012969970703125,-0.02191162109375,-0.01800537109375
1761479838271384800,0.848384765625,-1.013397216796875,-0.0225677490234375,-0.0175018310546875
1761479838281420800,0.8584208984375,-1.0132598876953125,-0.0218353271484375,-0.017913818359375
1761479838291456800,0.868456787109375,-1.012420654296875,-0.021759033203125,-0.0177001953125
1761479838301492700,0.87849267578125,-1.012939453125,-0.022491455078125,-0.017303466796875
1761479838311528700,0.88852880859375,-1.0131988525390625,-0.0223388671875,-0.016876220703125
1761479838321564700,0.898564697265625,-1.0130767822265625,-0.021392822265625,-0.018585205078125
1761479838331599600,0.908599609375,-1.01251220703125,-0.021575927734375,-0.01861572265625
1761479838341635600,0.918635498046875,-1.0126953125,-0.022705078125,-0.0164337158203125
1761479838351671800,0.928671875,-1.0123291015625,-0.0221405029296875,-0.0173797607421875
1761479838361707800,0.938707763671875,-1.012664794921875,-0.021728515625,-0.0177764892578125
1761479838371743700,0.94874365234375,-1.012542724609375,-0.02117919921875,-0.0176544189453125
1761479838381779000,0.958779052734375,-1.0124664306640625,-0.022064208984375,-0.0181121826171875
1761479838391815000,0.96881494140625,-1.013519287109375,-0.022064208984375,-0.017364501953125
1761479838401850000,0.97885009765625,-1.0128021240234375,-0.0211639404296875,-0.016693115234375
1761479838411886000,0.988885986328125,-1.0117645263671875,-0.0215606689453125,-0.0172882080078125
1761479838421922000,0.998922119140625,-1.0128631591796875,-0.0220794677734375,-0.0174407958984375
1761479838431958000,1.0089580078125,-1.0130462646484375,-0.022705078125,-0.0181732177734375
1761479838441994000,1.018993896484375,-1.01287841796875,-0.022918701171875,-0.01715087890625
1761479838452030000,1.029030029296875,-1.0127105712890625,-0.0211334228515625,-0.0174713134765625
1761479838462066000,1.03906591796875,-1.0117340087890625,-0.0217437744140625,-0.0185699462890625
1761479838472102100,1.04910205078125,-1.0133209228515625,-0.022430419921875,-0.0173492431640625
1761479838482137000,1.05913720703125,-1.0132904052734375,-0.0222930908203125,-0.0172882080078125
1761479838492173000,1.069173095703125,-1.0122528076171875,-0.022796630859375,-0.0185089111328125
1761479838502209000,1.079208984375,-1.012786865234375,-0.0223388671875,-0.0186004638671875
1761479838512245000,1.089244873046875,-1.0131683349609375,-0.022216796875,-0.0172271728515625
1761479838522281200,1.09928125,-1.0124664306640625,-0.0216217041015625,-0.0175323486328125
1761479838532317200,1.109317138671875,-1.013427734375,-0.0218048095703125,-0.0175628662109375
1761479838542353200,1.119353271484375,-1.0136566162109375,-0.0218963623046875,-0.0173492431640625
1761479838552387800,1.129387939453125,-1.0127410888671875,-0.0218963623046875,-0.0171966552734375
1761479838562424000,1.139424072265625,-1.0127716064453125,-0.022857666015625,-0.0172882080078125
1761479838572460000,1.1494599609375,-1.01312255859375,-0.0221099853515625,-0.0172271728515625
1761479838582496300,1.159496337890625,-1.012969970703125,-0.0216827392578125,-0.01715087890625
1761479838592532200,1.1695322265625,-1.0131683349609375,-0.02142333984375,-0.017852783203125
1761479838602568200,1.179568115234375,-1.0132904052734375,-0.0217132568359375,-0.0179290771484375
1761479838612604200,1.189604248046875,-1.0128631591796875,-0.02191162109375,-0.0175018310546875
1761479838622640000,1.19964013671875,-1.0121612548828125,-0.0214996337890625,-0.0166015625
1761479838632675000,1.209675048828125,-1.0122528076171875,-0.02239990234375,-0.0177001953125
1761479838642711000,1.2197109375,-1.0120391845703125,-0.0223846435546875,-0.0170135498046875
1761479838652747300,1.229747314453125,-1.012969970703125,-0.0228271484375,-0.01776123046875
1761479838662783200,1.239783203125,-1.01336669921875,-0.0225372314453125,-0.01837158203125
1761479838672819200,1.249819091796875,-1.0126190185546875,-0.0223541259765625,-0.0170135498046875
1761479838682855200,1.259855224609375,-1.0125274658203125,-0.0225677490234375,-0.0172576904296875
1761479838692891100,1.26989111328125,-1.0139923095703125,-0.0218963623046875,-0.0182342529296875
1761479838702927000,1.279927001953125,-1.012969970703125,-0.021087646484375,-0.0182037353515625
1761479838712962000,1.289962158203125,-1.0125732421875,-0.0225982666015625,-0.0181732177734375
1761479838722998000,1.299998046875,-1.0126495361328125,-0.020904541015625,-0.0172119140625
1761479838733034200,1.3100341796875,-1.0127716064453125,-0.02130126953125,-0.01763916015625
1761479838743070200,1.3200703125,-1.01324462890625,-0.022369384765625,-0.017578125
1761479838753106200,1.330106201171875,-1.012725830078125,-0.0215911865234375,-0.0179901123046875
1761479838763142100,1.34014208984375,-1.013092041015625,-0.0220489501953125,-0.018157958984375
1761479838773178000,1.35017822265625,-1.0124053955078125,-0.0219573974609375,-0.017822265625
1761479838783214000,1.360214111328125,-1.011932373046875,-0.0218353271484375,-0.0176849365234375
1761479838793249000,1.3702490234375,-1.013153076171875,-0.02203369140625,-0.0175018310546875
1761479838803285200,1.38028515625,-1.012908935546875,-0.021453857421875,-0.0173797607421875
1761479838813321200,1.3903212890625,-1.0121612548828125,-0.021697998046875,-0.0179901123046875
1761479838823357200,1.400357177734375,-1.0134429931640625,-0.02178955078125,-0.0180511474609375
1761479838833393200,1.41039306640625,-1.01300048828125,-0.02294921875,-0.017333984375
1761479838843429000,1.42042919921875,-1.012847900390625,-0.022552490234375,-0.0176239013671875
1761479838853465000,1.430465087890625,-1.0129241943359375,-0.022705078125,-0.017425537109375
1761479838863500000,1.4405,-1.0121612548828125,-0.0222625732421875,-0.0178680419921875
1761479838873536000,1.450535888671875,-1.0128173828125,-0.022125244140625,-0.01776123046875
1761479838883572200,1.460572265625,-1.0128631591796875,-0.021728515625,-0.0167694091796875
1761479838893608200,1.470608154296875,-1.0147552490234375,-0.02142333984375,-0.0172576904296875
1761479838903644200,1.48064404296875,-1.013671875,-0.0222625732421875,-0.017730712890625
1761479838913680100,1.49068017578125,-1.012603759765625,-0.0224609375,-0.017486572265625
1761479838923716000,1.500716064453125,-1.013214111328125,-0.021881103515625,-0.017303466796875
1761479838933752000,1.510751953125,-1.0124969482421875,-0.021636962890625,-0.0183258056640625
1761479838943788000,1.5207880859375,-1.0135040283203125,-0.0212860107421875,-0.0176239013671875
1761479838953823000,1.530822998046875,-1.01385498046875,-0.0219879150390625,-0.0171661376953125
1761479838963859200,1.540859130859375,-1.0143585205078125,-0.0226898193359375,-0.018402099609375
1761479838973895200,1.550895263671875,-1.01239013671875,-0.022918701171875,-0.018218994140625
1761479838983931100,1.56093115234375,-1.0135345458984375,-0.0229949951171875,-0.017669677734375
1761479838993967000,1.570967041015625,-1.01251220703125,-0.0220184326171875,-0.017822265625
1761479839004003000,1.581003173828125,-1.01275634765625,-0.02252197265625,-0.01751708984375
1761479839014039000,1.5910390625,-1.0130462646484375,-0.022552490234375,-0.017120361328125
1761479839024075000,1.601074951171875,-1.013885498046875,-0.0234832763671875,-0.0175628662109375
1761479839034110000,1.61110986328125,-1.0137481689453125,-0.0228118896484375,-0.01739501953125
1761479839044146200,1.621146240234375,-1.0129852294921875,-0.0228271484375,-0.0177001953125
1761479839054182100,1.63118212890625,-1.013275146484375,-0.0218658447265625,-0.017608642578125
1761479839064218000,1.641218017578125,-1.01318359375,-0.02264404296875,-0.01708984375
1761479839074254000,1.651254150390625,-1.013824462890625,-0.0227508544921875,-0.0180206298828125
1761479839084290000,1.6612900390625,-1.0136566162109375,-0.0219879150390625,-0.0175018310546875
1761479839094326000,1.671325927734375,-1.0124359130859375,-0.0213623046875,-0.017730712890625
1761479839104362000,1.681362060546875,-1.01287841796875,-0.0220794677734375,-0.0176239013671875
1761479839114397000,1.69139697265625,-1.0145111083984375,-0.0224609375,-0.01739501953125
1761479839124433200,1.70143310546875,-1.01336669921875,-0.02227783203125,-0.017333984375
1761479839134469000,1.71146923828125,-1.01373291015625,-0.0215301513671875,-0.0172576904296875
1761479839144505000,1.721505126953125,-1.012603759765625,-0.0215301513671875,-0.0177154541015625
1761479839154541000,1.731541015625,-1.0129547119140625,-0.022216796875,-0.01751708984375
1761479839164577000,1.741576904296875,-1.0137939453125,-0.0223846435546875,-0.0180511474609375
1761479839174613000,1.751613037109375,-1.013763427734375,-0.021636962890625,-0.0178680419921875
1761479839184648000,1.76164794921875,-1.0137176513671875,-0.022491455078125,-0.0168304443359375
1761479839194684000,1.771683837890625,-1.0133514404296875,-0.023529052734375,-0.01715087890625
1761479839204720000,1.78172021484375,-1.0129241943359375,-0.022552490234375,-0.018646240234375
1761479839214756000,1.791756103515625,-1.013427734375,-0.0221099853515625,-0.01776123046875
1761479839224792000,1.8017919921875,-1.0124664306640625,-0.0218963623046875,-0.0174407958984375
1761479839234828000,1.811828125,-1.01300048828125,-0.0221710205078125,-0.0172271728515625
1761479839244864000,1.821864013671875,-1.0125732421875,-0.0233154296875,-0.016998291015625
1761479839254900000,1.83189990234375,-1.0138702392578125,-0.021697998046875,-0.0179443359375
1761479839264936000,1.84193603515625,-1.0133056640625,-0.0219879150390625,-0.0181884765625
1761479839274971100,1.85197119140625,-1.013824462890625,-0.02178955078125,-0.017913818359375
1761479839285007000,1.862007080078125,-1.01300048828125,-0.0222930908203125,-0.0177001953125
1761479839295043000,1.87204296875,-1.0125579833984375,-0.0220947265625,-0.0170745849609375
1761479839305079000,1.8820791015625,-1.01318359375,-0.0229339599609375,-0.017730712890625
1761479839315115000,1.892114990234375,-1.0135650634765625,-0.0224456787109375,-0.0172576904296875
1761479839325151000,1.90215087890625,-1.013763427734375,-0.021697998046875,-0.01788330078125
1761479839335187000,1.91218701171875,-1.013580322265625,-0.02215576171875,-0.017852783203125
1761479839345222000,1.922221923828125,-1.014007568359375,-0.0213165283203125,-0.0178375244140625
1761479839355258000,1.932258056640625,-1.013824462890625,-0.0223236083984375,-0.0175628662109375
1761479839365294000,1.942294189453125,-1.012939453125,-0.0220794677734375,-0.0181427001953125
1761479839375330000,1.952330078125,-1.0136566162109375,-0.0221099853515625,-0.0177154541015625
1761479839385367000,1.962366943359375,-1.013214111328125,-0.0228424072265625,-0.0177154541015625
1761479839395403000,1.972403076171875,-1.013458251953125,-0.02166748046875,-0.017730712890625
1761479839405439000,1.98243896484375,-1.012847900390625,-0.0222015380859375,-0.017486572265625
1761479839415475200,1.99247509765625,-1.0139312744140625,-0.0226287841796875,-0.0175323486328125
1761479839425511200,2.00251123046875,-1.0133514404296875,-0.022186279296875,-0.0179443359375
1761479839435545900,2.0125458984375,-1.0131683349609375,-0.0218048095703125,-0.0171661376953125
1761479839445581800,2.022581787109375,-1.0139617919921875,-0.022216796875,-0.017608642578125
1761479839455617800,2.03261767578125,-1.0133209228515625,-0.0220947265625,-0.0184173583984375
1761479839465654000,2.042654052734375,-1.013397216796875,-0.0216522216796875,-0.017578125
1761479839475690200,2.052690185546875,-1.013671875,-0.0218658447265625,-0.0177459716796875
1761479839485726200,2.062726318359375,-1.0135650634765625,-0.022979736328125,-0.01788330078125
1761479839495762200,2.07276220703125,-1.0135650634765625,-0.022796630859375,-0.0174713134765625
1761479839505796900,2.082796875,-1.0130615234375,-0.0218658447265625,-0.01727294921875
1761479839515832800,2.092832763671875,-1.01483154296875,-0.02178955078125,-0.0173492431640625
1761479839525869000,2.102869140625,-1.0141143798828125,-0.0220184326171875,-0.0177001953125
1761479839535905000,2.112905029296875,-1.0139923095703125,-0.0222930908203125,-0.0177764892578125
1761479839545941000,2.12294091796875,-1.0129241943359375,-0.0231475830078125,-0.0175628662109375
1761479839555977200,2.132977294921875,-1.0138092041015625,-0.022125244140625,-0.018035888671875
1761479839566013200,2.14301318359375,-1.0140380859375,-0.022125244140625,-0.0172882080078125
1761479839576049200,2.153049072265625,-1.0134429931640625,-0.0219879150390625,-0.01727294921875
1761479839586085000,2.163085205078125,-1.0138702392578125,-0.0222625732421875,-0.0174102783203125
1761479839596120000,2.1731201171875,-1.013702392578125,-0.0230712890625,-0.017333984375
1761479839606156000,2.183156005859375,-1.013275146484375,-0.0222930908203125,-0.017333984375
1761479839616192000,2.19319189453125,-1.0137481689453125,-0.02178955078125,-0.017669677734375
1761479839626228000,2.20322802734375,-1.01434326171875,-0.0220947265625,-0.017578125
1761479839636264200,2.21326416015625,-1.0135955810546875,-0.0224151611328125,-0.0177154541015625
1761479839646300200,2.223300048828125,-1.013519287109375,-0.02197265625,-0.0173492431640625
1761479839656336100,2.233336181640625,-1.0141143798828125,-0.021820068359375,-0.017547607421875
1761479839666371000,2.24337109375,-1.0136260986328125,-0.0223846435546875,-0.0172271728515625
1761479839676407000,2.253406982421875,-1.013916015625,-0.0221099853515625,-0.01763916015625
1761479839686443000,2.263443115234375,-1.0129852294921875,-0.021514892578125,-0.0179595947265625
1761479839696479000,2.27347900390625,-1.0144195556640625,-0.0220184326171875,-0.0182037353515625
1761479839706515200,2.28351513671875,-1.0130157470703125,-0.0216064453125,-0.0176239013671875
1761479839716551200,2.29355126953125,-1.01318359375,-0.0225982666015625,-0.0169219970703125
1761479839726587100,2.303587158203125,-1.013092041015625,-0.02197265625,-0.017364501953125
1761479839736623000,2.313623046875,-1.0136566162109375,-0.02197265625,-0.0175018310546875
1761479839746658000,2.323657958984375,-1.013458251953125,-0.020904541015625,-0.0179595947265625
1761479839756694000,2.333694091796875,-1.013458251953125,-0.0223846435546875,-0.0178070068359375
1761479839766730000,2.34372998046875,-1.0135498046875,-0.0225982666015625,-0.0174407958984375
1761479839776766000,2.353765869140625,-1.013702392578125,-0.0218963623046875,-0.017486572265625
1761479839786802200,2.36380224609375,-1.01348876953125,-0.0216827392578125,-0.018310546875
1761479839796838100,2.373838134765625,-1.0140838623046875,-0.0217742919921875,-0.018402099609375
1761479839806874000,2.3838740234375,-1.01300048828125,-0.02239990234375,-0.0175628662109375
1761479839816910000,2.39391015625,-1.0134429931640625,-0.0212860107421875,-0.0179595947265625
1761479839826945000,2.403945068359375,-1.01397705078125,-0.02197265625,-0.0183868408203125
1761479839836981000,2.41398095703125,-1.0129241943359375,-0.02130126953125,-0.0174102783203125
1761479839847017000,2.424016845703125,-1.0137481689453125,-0.021087646484375,-0.0176849365234375
1761479839857053000,2.434052978515625,-1.0139923095703125,-0.021453857421875,-0.017486572265625
1761479839867089200,2.444089111328125,-1.013458251953125,-0.0230712890625,-0.017364501953125
1761479839877125000,2.454125,-1.014617919921875,-0.0223236083984375,-0.0173187255859375
1761479839887161000,2.4641611328125,-1.0145263671875,-0.0225372314453125,-0.016815185546875
1761479839897197000,2.474197021484375,-1.0140380859375,-0.021820068359375,-0.0177154541015625
1761479839907232000,2.48423193359375,-1.0140380859375,-0.02264404296875,-0.0167236328125
1761479839917268000,2.49426806640625,-1.0142822265625,-0.0224456787109375,-0.0174560546875
1761479839927304000,2.504303955078125,-1.0140533447265625,-0.0220489501953125,-0.0178375244140625
1761479839937340000,2.51433984375,-1.0138092041015625,-0.0222320556640625,-0.0175018310546875
1761479839947376000,2.524376220703125,-1.013427734375,-0.0214385986328125,-0.016754150390625
1761479839957412000,2.534412109375,-1.0131378173828125,-0.0230712890625,-0.01751708984375
1761479839967448000,2.544447998046875,-1.013671875,-0.022186279296875,-0.01776123046875
1761479839977484000,2.554484130859375,-1.0137176513671875,-0.0224151611328125,-0.017425537109375
1761479839987519000,2.56451904296875,-1.0138092041015625,-0.0222015380859375,-0.017852783203125
1761479839997555000,2.574554931640625,-1.0133819580078125,-0.02215576171875,-0.017578125
1761479840007591000,2.5845908203125,-1.0142669677734375,-0.0213775634765625,-0.0175018310546875
1761479840017627000,2.594626953125,-1.0138397216796875,-0.0223236083984375,-0.0176544189453125
1761479840027663000,2.6046630859375,-1.0128021240234375,-0.0226898193359375,-0.0171356201171875
1761479840037699000,2.614698974609375,-1.013824462890625,-0.022857666015625,-0.017822265625
1761479840047735000,2.624735107421875,-1.0133514404296875,-0.0223846435546875,-0.017486572265625
1761479840057770000,2.63477001953125,-1.0141754150390625,-0.02178955078125,-0.0177001953125
1761479840067806000,2.644805908203125,-1.0133819580078125,-0.0225830078125,-0.017791748046875
1761479840077842000,2.654842041015625,-1.0137939453125,-0.0226898193359375,-0.018096923828125
1761479840087878000,2.6648779296875,-1.0146484375,-0.0218505859375,-0.0177154541015625
1761479840097913900,2.674913818359375,-1.0131378173828125,-0.0218963623046875,-0.01776123046875
1761479840107950000,2.6849501953125,-1.013214111328125,-0.0225067138671875,-0.0181427001953125
1761479840117986000,2.694986083984375,-1.0139007568359375,-0.02105712890625,-0.0180511474609375
1761479840128022000,2.70502197265625,-1.014312744140625,-0.02215576171875,-0.0176239013671875
1761479840138057000,2.715056884765625,-1.014495849609375,-0.0216522216796875,-0.01715087890625
1761479840148093000,2.725093017578125,-1.013916015625,-0.02142333984375,-0.0172882080078125
1761479840158129000,2.73512890625,-1.01446533203125,-0.0215911865234375,-0.0178375244140625
1761479840168164900,2.745164794921875,-1.012847900390625,-0.0218048095703125,-0.0179443359375
1761479840178201000,2.755201171875,-1.0129852294921875,-0.0222015380859375,-0.016571044921875
1761479840188237000,2.765237060546875,-1.01348876953125,-0.022369384765625,-0.0180511474609375
1761479840198273000,2.77527294921875,-1.0133209228515625,-0.0211029052734375,-0.0174560546875
1761479840208308000,2.785307861328125,-1.01300048828125,-0.0217132568359375,-0.0174560546875
1761479840218344000,2.795343994140625,-1.0136260986328125,-0.0227508544921875,-0.0170440673828125
1761479840228380000,2.8053798828125,-1.013763427734375,-0.0217742919921875,-0.0180206298828125
1761479840238416000,2.815415771484375,-1.0144500732421875,-0.0220947265625,-0.0177459716796875
1761479840248451800,2.825451904296875,-1.0141754150390625,-0.0216217041015625,-0.017578125
1761479840258488000,2.835488037109375,-1.0138702392578125,-0.021697998046875,-0.0177764892578125
1761479840268524000,2.84552392578125,-1.013153076171875,-0.0222625732421875,-0.0175018310546875
1761479840278560000,2.85556005859375,-1.0134124755859375,-0.0221099853515625,-0.0172882080078125
1761479840288595000,2.865594970703125,-1.0142364501953125,-0.021697998046875,-0.01812744140625
1761479840298631000,2.875630859375,-1.014556884765625,-0.0220794677734375,-0.017730712890625
1761479840308667000,2.8856669921875,-1.0140533447265625,-0.022430419921875,-0.0178375244140625
1761479840318702800,2.895702880859375,-1.0134735107421875,-0.0216064453125,-0.0185089111328125
1761479840328738800,2.90573876953125,-1.0143280029296875,-0.0217132568359375,-0.01708984375
1761479840338775000,2.915775146484375,-1.0136260986328125,-0.022430419921875,-0.018035888671875
1761479840348811000,2.92581103515625,-1.0136260986328125,-0.0220794677734375,-0.01788330078125
1761479840358846000,2.935845947265625,-1.0140380859375,-0.0220794677734375,-0.0166168212890625
1761479840368882000,2.9458818359375,-1.0140533447265625,-0.0219268798828125,-0.01751708984375
1761479840378918000,2.95591796875,-1.013519287109375,-0.0223541259765625,-0.017974853515625
1761479840388953300,2.965953369140625,-1.014251708984375,-0.022003173828125,-0.0179443359375
1761479840398989300,2.9759892578125,-1.0131683349609375,-0.0218353271484375,-0.0173797607421875
1761479840409025500,2.986025634765625,-1.0142974853515625,-0.0221710205078125,-0.01800537109375
1761479840419061500,2.9960615234375,-1.013946533203125,-0.0218505859375,-0.0172271728515625
1761479840429097500,3.006097412109375,-1.013916015625,-0.021728515625,-0.0174713134765625
1761479840439132400,3.01613232421875,-1.0142669677734375,-0.0217132568359375,-0.0179443359375
1761479840449168400,3.02616845703125,-1.0134124755859375,-0.02197265625,-0.0169677734375
1761479840459204400,3.036204345703125,-1.01324462890625,-0.021728515625,-0.017578125
1761479840469240300,3.046240234375,-1.0128021240234375,-0.0216522216796875,-0.016876220703125
1761479840479276500,3.056276611328125,-1.0142974853515625,-0.0221710205078125,-0.0173797607421875
1761479840489312500,3.0663125,-1.013763427734375,-0.02203369140625,-0.0176849365234375
1761479840499348500,3.076348388671875,-1.013885498046875,-0.0226287841796875,-0.0175628662109375
1761479840509383400,3.086383544921875,-1.0137786865234375,-0.0225067138671875,-0.0170440673828125
1761479840519419400,3.09641943359375,-1.0141143798828125,-0.0223236083984375,-0.0170440673828125
1761479840529455400,3.106455322265625,-1.0137786865234375,-0.0224761962890625,-0.0175018310546875
1761479840539491300,3.1164912109375,-1.01495361328125,-0.021026611328125,-0.01739501953125
1761479840549527300,3.12652734375,-1.0135498046875,-0.0216827392578125,-0.0172119140625
1761479840559563500,3.1365634765625,-1.013885498046875,-0.021728515625,-0.017791748046875
1761479840569599700,3.146599853515625,-1.014801025390625,-0.021759033203125,-0.017364501953125
1761479840579635700,3.1566357421875,-1.013671875,-0.0219268798828125,-0.01812744140625
1761479840589670400,3.16667041015625,-1.0150299072265625,-0.0218963623046875,-0.017974853515625
1761479840599706400,3.176706298828125,-1.0140228271484375,-0.0215911865234375,-0.016876220703125
1761479840609742300,3.186742431640625,-1.012420654296875,-0.0222320556640625,-0.017547607421875
1761479840619778300,3.1967783203125,-1.0139923095703125,-0.021942138671875,-0.01763916015625
1761479840629814500,3.206814453125,-1.0140380859375,-0.0216827392578125,-0.017547607421875
1761479840639850500,3.2168505859375,-1.014801025390625,-0.022705078125,-0.01763916015625
1761479840649886700,3.22688671875,-1.0140838623046875,-0.022735595703125,-0.0167694091796875
1761479840659921400,3.23692138671875,-1.01397705078125,-0.022125244140625,-0.0172576904296875
1761479840669957400,3.246957275390625,-1.014068603515625,-0.0214080810546875,-0.0172882080078125
1761479840679993600,3.25699365234375,-1.0145263671875,-0.022125244140625,-0.01776123046875
1761479840690029600,3.267029541015625,-1.0147247314453125,-0.02239990234375,-0.018035888671875
1761479840700065500,3.2770654296875,-1.013641357421875,-0.022674560546875,-0.0182037353515625
1761479840710101500,3.2871015625,-1.0144805908203125,-0.021759033203125,-0.0179901123046875
1761479840720137500,3.297137451171875,-1.0138092041015625,-0.0220184326171875,-0.018096923828125
1761479840730172400,3.30717236328125,-1.0144195556640625,-0.0213623046875,-0.0177764892578125
1761479840740208600,3.317208740234375,-1.0142059326171875,-0.02203369140625,-0.0172119140625
1761479840750244600,3.32724462890625,-1.0142669677734375,-0.0215301513671875,-0.0173187255859375
1761479840760280600,3.337280517578125,-1.013946533203125,-0.022003173828125,-0.017181396484375
1761479840770316500,3.347316650390625,-1.014007568359375,-0.0229644775390625,-0.0174102783203125
1761479840780352500,3.3573525390625,-1.0130767822265625,-0.0226593017578125,-0.0180206298828125
1761479840790388500,3.367388427734375,-1.0133819580078125,-0.0225830078125,-0.016845703125
1761479840800423700,3.377423583984375,-1.0143890380859375,-0.0218353271484375,-0.0172119140625
1761479840810459600,3.387459716796875,-1.014495849609375,-0.0220794677734375,-0.0178680419921875
1761479840820495600,3.39749560546875,-1.0132904052734375,-0.0223541259765625,-0.0183868408203125
1761479840830531600,3.407531494140625,-1.0137939453125,-0.022064208984375,-0.0174407958984375
1761479840840567600,3.417567626953125,-1.01409912109375,-0.021942138671875,-0.0175933837890625
1761479840850603500,3.427603515625,-1.0136566162109375,-0.02197265625,-0.01776123046875
1761479840860639500,3.437639404296875,-1.0136566162109375,-0.021881103515625,-0.017852783203125
1761479840870675500,3.447675537109375,-1.014190673828125,-0.0213623046875,-0.0177154541015625
1761479840880710700,3.457710693359375,-1.0135955810546875,-0.02227783203125,-0.01776123046875
1761479840890746600,3.46774658203125,-1.0145416259765625,-0.0230560302734375,-0.017791748046875
1761479840900782600,3.477782470703125,-1.0137176513671875,-0.0213623046875,-0.01776123046875
1761479840910818600,3.487818603515625,-1.01348876953125,-0.0218353271484375,-0.016510009765625
1761479840920854500,3.4978544921875,-1.0142974853515625,-0.022247314453125,-0.0174713134765625
1761479840930890500,3.507890380859375,-1.014556884765625,-0.0214996337890625,-0.0173492431640625
1761479840940926500,3.517926513671875,-1.014129638671875,-0.02130126953125,-0.017578125
1761479840950961700,3.527961669921875,-1.013702392578125,-0.0225830078125,-0.01776123046875
1761479840960997600,3.53799755859375,-1.01434326171875,-0.0211639404296875,-0.017486572265625
1761479840971033600,3.54803369140625,-1.0146484375,-0.0217132568359375,-0.0179443359375
1761479840981069600,3.558069580078125,-1.0140380859375,-0.022857666015625,-0.01873779296875
1761479840991105500,3.56810546875,-1.0133514404296875,-0.022857666015625,-0.017974853515625
1761479841001141500,3.5781416015625,-1.013275146484375,-0.0223388671875,-0.017578125
1761479841011177500,3.588177490234375,-1.0141143798828125,-0.0218658447265625,-0.017913818359375
1761479841021212700,3.598212646484375,-1.014312744140625,-0.02215576171875,-0.0173797607421875
1761479841031248600,3.60824853515625,-1.0129547119140625,-0.0229339599609375,-0.0181121826171875
1761479841041284600,3.61828466796875,-1.0137786865234375,-0.022491455078125,-0.0182342529296875
1761479841051320600,3.628320556640625,-1.013397216796875,-0.0217742919921875,-0.018280029296875
1761479841061356500,3.6383564453125,-1.013153076171875,-0.022705078125,-0.017303466796875
1761479841071392500,3.648392578125,-1.0132293701171875,-0.0230560302734375,-0.0174407958984375
1761479841081428500,3.658428466796875,-1.0137786865234375,-0.021575927734375,-0.0172271728515625
1761479841091463700,3.668463623046875,-1.0140533447265625,-0.0228271484375,-0.01788330078125
1761479841101499600,3.678499755859375,-1.0132904052734375,-0.022247314453125,-0.0176544189453125
1761479841111535600,3.68853564453125,-1.0133819580078125,-0.0227508544921875,-0.0182952880859375
1761479841121571600,3.698571533203125,-1.014190673828125,-0.0217742919921875,-0.0185089111328125
1761479841131607600,3.708607666015625,-1.0144195556640625,-0.0218658447265625,-0.018402099609375
1761479841141643500,3.7186435546875,-1.014129638671875,-0.021820068359375,-0.017913818359375
1761479841151679500,3.728679443359375,-1.0133209228515625,-0.0215606689453125,-0.0183258056640625
1761479841161714400,3.73871435546875,-1.0132904052734375,-0.022369384765625,-0.0177001953125
1761479841171750700,3.748750732421875,-1.014373779296875,-0.02239990234375,-0.01715087890625
1761479841181786600,3.75878662109375,-1.014434814453125,-0.0221099853515625,-0.0182647705078125
1761479841191822600,3.768822509765625,-1.01470947265625,-0.021942138671875,-0.017333984375
1761479841201858600,3.778858642578125,-1.01397705078125,-0.021942138671875,-0.01708984375
1761479841211894500,3.78889453125,-1.0135498046875,-0.022552490234375,-0.0177001953125
1761479841221930500,3.798930419921875,-1.013885498046875,-0.02130126953125,-0.017425537109375
1761479841231965400,3.80896533203125,-1.013092041015625,-0.0214996337890625,-0.01763916015625
1761479841242001400,3.81900146484375,-1.0136871337890625,-0.0220184326171875,-0.017730712890625
1761479841252037600,3.82903759765625,-1.01373291015625,-0.021697998046875,-0.01806640625
1761479841262073600,3.839073486328125,-1.0145111083984375,-0.022369384765625,-0.0174407958984375
1761479841272109600,3.849109619140625,-1.0138397216796875,-0.0214080810546875,-0.0178070068359375
1761479841282145500,3.8591455078125,-1.0137939453125,-0.0225067138671875,-0.017608642578125
1761479841292181500,3.869181396484375,-1.0141143798828125,-0.0227813720703125,-0.01812744140625
1761479841302216400,3.879216552734375,-1.0130157470703125,-0.022186279296875,-0.0182037353515625
1761479841312252400,3.88925244140625,-1.0135650634765625,-0.0228424072265625,-0.0173797607421875
1761479841322288600,3.89928857421875,-1.0136871337890625,-0.02166748046875,-0.01812744140625
1761479841332324600,3.90932470703125,-1.01263427734375,-0.022216796875,-0.0177764892578125
1761479841342360600,3.919360595703125,-1.0130462646484375,-0.022735595703125,-0.017608642578125
1761479841352396500,3.929396484375,-1.0135650634765625,-0.022552490234375,-0.0179901123046875
1761479841362432500,3.9394326171875,-1.014251708984375,-0.0224609375,-0.0171661376953125
1761479841372467500,3.949467529296875,-1.0142669677734375,-0.022918701171875,-0.017974853515625
1761479841382503400,3.95950341796875,-1.013702392578125,-0.0223846435546875,-0.0175628662109375
1761479841392540200,3.9695400390625,-1.01361083984375,-0.022796630859375,-0.018035888671875
1761479841402576100,3.979576171875,-1.014556884765625,-0.0228424072265625,-0.018035888671875
1761479841412612000,3.989612060546875,-1.0130157470703125,-0.02203369140625,-0.0185394287109375
1761479841422648000,3.99964794921875,-1.0135498046875,-0.021728515625,-0.0181121826171875
1761479841432684300,4.009684326171875,-1.0139617919921875,-0.0222930908203125,-0.0175628662109375
1761479841442718000,4.019718017578125,-1.0143585205078125,-0.0229949951171875,-0.01739501953125
1761479841452754000,4.02975390625,-1.01416015625,-0.0215911865234375,-0.01666259765625
1761479841462790100,4.0397900390625,-1.0135955810546875,-0.02197265625,-0.0177154541015625
1761479841472825000,4.0498251953125,-1.0130462646484375,-0.022369384765625,-0.0173492431640625
1761479841482861000,4.059861083984375,-1.0145721435546875,-0.0221710205078125,-0.0179290771484375
1761479841492897000,4.06989697265625,-1.0140838623046875,-0.0215911865234375,-0.0177001953125
1761479841502933000,4.07993310546875,-1.0142669677734375,-0.0217132568359375,-0.0170440673828125
1761479841512969200,4.08996923828125,-1.0131378173828125,-0.021270751953125,-0.0172119140625
1761479841523005200,4.100005126953125,-1.013458251953125,-0.022308349609375,-0.0178680419921875
1761479841533041200,4.110041259765625,-1.0142364501953125,-0.021759033203125,-0.01812744140625
1761479841543076000,4.120076171875,-1.013946533203125,-0.0207061767578125,-0.017486572265625
1761479841553112000,4.130112060546875,-1.0142059326171875,-0.02178955078125,-0.0178070068359375
1761479841563148000,4.14014794921875,-1.01446533203125,-0.022308349609375,-0.01763916015625
1761479841573184300,4.150184326171875,-1.0135345458984375,-0.0219879150390625,-0.0173187255859375
1761479841583220200,4.16022021484375,-1.01373291015625,-0.0222320556640625,-0.0175018310546875
1761479841593256200,4.170256103515625,-1.0135345458984375,-0.021636962890625,-0.0181884765625
1761479841603292200,4.180292236328125,-1.0136566162109375,-0.022674560546875,-0.0175018310546875
1761479841613327000,4.1903271484375,-1.014251708984375,-0.0222320556640625,-0.016815185546875
1761479841623363000,4.200363037109375,-1.014007568359375,-0.02099609375,-0.017852783203125
1761479841633399300,4.2103994140625,-1.013519287109375,-0.0215606689453125,-0.017547607421875
1761479841643435300,4.220435302734375,-1.0132904052734375,-0.022979736328125,-0.0180816650390625
1761479841653471200,4.23047119140625,-1.0130615234375,-0.0216217041015625,-0.01739501953125
1761479841663507200,4.240507080078125,-1.0130157470703125,-0.021697998046875,-0.017425537109375
1761479841673543200,4.250543212890625,-1.014404296875,-0.0218658447265625,-0.01824951171875
1761479841683578400,4.260578369140625,-1.0136871337890625,-0.021331787109375,-0.017913818359375
1761479841693614300,4.2706142578125,-1.014495849609375,-0.021728515625,-0.0178070068359375
1761479841703650300,4.280650390625,-1.0128631591796875,-0.02197265625,-0.0178375244140625
1761479841713686300,4.290686279296875,-1.013153076171875,-0.0223388671875,-0.01788330078125
1761479841723722200,4.30072216796875,-1.01446533203125,-0.0222625732421875,-0.0177154541015625
1761479841733758200,4.31075830078125,-1.0130615234375,-0.0220947265625,-0.0182952880859375
1761479841743794200,4.320794189453125,-1.0146636962890625,-0.0227203369140625,-0.0179290771484375
1761479841753829000,4.3308291015625,-1.0133056640625,-0.022216796875,-0.0172576904296875
1761479841763865300,4.340865234375,-1.0137481689453125,-0.0221710205078125,-0.01751708984375
1761479841773901300,4.3509013671875,-1.014190673828125,-0.0220489501953125,-0.017181396484375
1761479841783937300,4.360937255859375,-1.014434814453125,-0.021575927734375,-0.0179901123046875
1761479841793973200,4.37097314453125,-1.0140838623046875,-0.022064208984375,-0.0181427001953125
1761479841804009200,4.38100927734375,-1.0129852294921875,-0.0220489501953125,-0.0175933837890625
1761479841814045200,4.391045166015625,-1.01385498046875,-0.0224456787109375,-0.017303466796875
1761479841824080100,4.401080078125,-1.0136566162109375,-0.0222930908203125,-0.0178375244140625
1761479841834116000,4.4111162109375,-1.013885498046875,-0.0217742919921875,-0.017059326171875
1761479841844152300,4.42115234375,-1.01434326171875,-0.021636962890625,-0.017669677734375
1761479841854188300,4.431188232421875,-1.0135650634765625,-0.022430419921875,-0.0174407958984375
1761479841864224300,4.441224365234375,-1.0134429931640625,-0.0232696533203125,-0.017120361328125
1761479841874260200,4.45126025390625,-1.0130615234375,-0.0214691162109375,-0.017578125
1761479841884295200,4.461295166015625,-1.013702392578125,-0.022125244140625,-0.01751708984375
1761479841894331100,4.4713310546875,-1.013275146484375,-0.02203369140625,-0.0180206298828125
1761479841904367000,4.4813671875,-1.01385498046875,-0.0217437744140625,-0.0167083740234375
1761479841914403300,4.4914033203125,-1.0129852294921875,-0.022308349609375,-0.017242431640625
1761479841924439300,4.501439208984375,-1.0129547119140625,-0.0216522216796875,-0.0171966552734375
1761479841934475300,4.511475341796875,-1.01263427734375,-0.022369384765625,-0.0177154541015625
1761479841944511200,4.52151123046875,-1.0130767822265625,-0.02178955078125,-0.0174407958984375
1761479841954546200,4.531546142578125,-1.012939453125,-0.022064208984375,-0.0185089111328125
1761479841964582100,4.54158203125,-1.014312744140625,-0.0223541259765625,-0.01776123046875
1761479841974618000,4.5516181640625,-1.0143890380859375,-0.021881103515625,-0.017547607421875
1761479841984654000,4.561654052734375,-1.0139312744140625,-0.02069091796875,-0.017852783203125
1761479841994690300,4.571690185546875,-1.0128021240234375,-0.022491455078125,-0.0174102783203125
1761479842004726300,4.581726318359375,-1.0135498046875,-0.0222930908203125,-0.0171356201171875
1761479842014762200,4.59176220703125,-1.013397216796875,-0.0225982666015625,-0.0169525146484375
1761479842024797200,4.601797119140625,-1.0132293701171875,-0.0225372314453125,-0.01806640625
1761479842034833200,4.611833251953125,-1.013458251953125,-0.0221710205078125,-0.01776123046875
1761479842044869000,4.621869140625,-1.013671875,-0.0220794677734375,-0.017059326171875
1761479842054905000,4.631905029296875,-1.014007568359375,-0.0214691162109375,-0.0176544189453125
1761479842064941000,4.641941162109375,-1.0145416259765625,-0.0209808349609375,-0.018035888671875
1761479842074977300,4.651977294921875,-1.01336669921875,-0.022369384765625,-0.01763916015625
1761479842085013200,4.66201318359375,-1.0130767822265625,-0.022430419921875,-0.017608642578125
1761479842095048200,4.672048095703125,-1.0133514404296875,-0.0224456787109375,-0.017425537109375
1761479842105084200,4.682084228515625,-1.01324462890625,-0.022918701171875,-0.017730712890625
1761479842115120000,4.6921201171875,-1.01275634765625,-0.021453857421875,-0.01739501953125
1761479842125156000,4.702156005859375,-1.012725830078125,-0.0217132568359375,-0.0172576904296875
1761479842135192000,4.712192138671875,-1.01361083984375,-0.022918701171875,-0.0174713134765625
1761479842145228000,4.72222802734375,-1.012939453125,-0.0234375,-0.017333984375
1761479842155264300,4.73226416015625,-1.013153076171875,-0.0229644775390625,-0.0176544189453125
1761479842165299200,4.74229931640625,-1.0137176513671875,-0.02227783203125,-0.017669677734375
1761479842175335200,4.752335205078125,-1.0133514404296875,-0.0226593017578125,-0.0172882080078125
1761479842185371100,4.76237109375,-1.0125885009765625,-0.022308349609375,-0.0181121826171875
1761479842195407000,4.772406982421875,-1.013336181640625,-0.0224609375,-0.017059326171875
1761479842205443000,4.782443115234375,-1.0142822265625,-0.021514892578125,-0.018096923828125
1761479842215479000,4.79247900390625,-1.0133209228515625,-0.02239990234375,-0.017486572265625
1761479842225514200,4.80251416015625,-1.013458251953125,-0.0227813720703125,-0.018157958984375
1761479842235550200,4.81255029296875,-1.0135040283203125,-0.0218353271484375,-0.01812744140625
1761479842245586200,4.822586181640625,-1.0129852294921875,-0.02166748046875,-0.0176849365234375
1761479842255622100,4.8326220703125,-1.0118560791015625,-0.021697998046875,-0.0178070068359375
1761479842265658000,4.842658203125,-1.013519287109375,-0.02264404296875,-0.0181884765625
1761479842275694000,4.852694091796875,-1.0128631591796875,-0.0220947265625,-0.0175018310546875
1761479842285730000,4.86272998046875,-1.01312255859375,-0.0216827392578125,-0.0173492431640625
1761479842295765200,4.87276513671875,-1.013427734375,-0.0216522216796875,-0.017303466796875
1761479842305801200,4.88280126953125,-1.0138092041015625,-0.022491455078125,-0.0179290771484375
1761479842315837200,4.892837158203125,-1.014434814453125,-0.0222320556640625,-0.0182342529296875
1761479842325873200,4.902873046875,-1.0137786865234375,-0.0221405029296875,-0.017669677734375
1761479842335909000,4.9129091796875,-1.01434326171875,-0.022308349609375,-0.0183563232421875
1761479842345945000,4.922945068359375,-1.013916015625,-0.0225677490234375,-0.017822265625
1761479842355981000,4.93298095703125,-1.013275146484375,-0.0223541259765625,-0.0182647705078125
1761479842366017000,4.94301708984375,-1.013397216796875,-0.02197265625,-0.01806640625
1761479842376052200,4.95305224609375,-1.013153076171875,-0.0228271484375,-0.0178680419921875
1761479842386088200,4.963088134765625,-1.013641357421875,-0.02178955078125,-0.017608642578125
1761479842396123000,4.973122802734375,-1.013275146484375,-0.021759033203125,-0.017578125
1761479842406158800,4.983158935546875,-1.0144805908203125,-0.022430419921875,-0.018463134765625
1761479842416194800,4.99319482421875,-1.0131378173828125,-0.02215576171875,-0.0171661376953125
1761479842426230800,5.003230712890625,-1.013580322265625,-0.022552490234375,-0.01763916015625
1761479842436267000,5.01326708984375,-1.01312255859375,-0.0216217041015625,-0.0177459716796875
1761479842446302000,5.023302001953125,-1.0136871337890625,-0.0205841064453125,-0.0177764892578125
1761479842456338000,5.033337890625,-1.01275634765625,-0.0218658447265625,-0.017364501953125
1761479842466374000,5.043373779296875,-1.0132598876953125,-0.0220947265625,-0.0176849365234375
1761479842476409900,5.053409912109375,-1.01385498046875,-0.0224456787109375,-0.0185546875
1761479842486445800,5.06344580078125,-1.013885498046875,-0.02197265625,-0.017364501953125
1761479842496481800,5.073481689453125,-1.01239013671875,-0.0214080810546875,-0.0180511474609375
1761479842506517800,5.083517822265625,-1.0137939453125,-0.0218505859375,-0.018096923828125
1761479842516553000,5.093552978515625,-1.0134429931640625,-0.0217132568359375,-0.0175933837890625
1761479842526589000,5.1035888671875,-1.0148773193359375,-0.0225067138671875,-0.0177154541015625
1761479842536625000,5.113625,-1.014434814453125,-0.022674560546875,-0.017333984375
1761479842546660900,5.123660888671875,-1.0137786865234375,-0.021392822265625,-0.01776123046875
1761479842556696800,5.13369677734375,-1.0135040283203125,-0.0226593017578125,-0.01776123046875
1761479842566732800,5.14373291015625,-1.013885498046875,-0.021820068359375,-0.017913818359375
1761479842576768800,5.153768798828125,-1.013702392578125,-0.0214385986328125,-0.017181396484375
1761479842586804000,5.163803955078125,-1.0141448974609375,-0.021942138671875,-0.0169219970703125
1761479842596840000,5.17383984375,-1.014007568359375,-0.0226287841796875,-0.0171966552734375
1761479842606876000,5.1838759765625,-1.0142669677734375,-0.0227508544921875,-0.0172576904296875
1761479842616912000,5.193911865234375,-1.0140838623046875,-0.0214080810546875,-0.0175323486328125
1761479842626947800,5.20394775390625,-1.0134429931640625,-0.0220794677734375,-0.0177459716796875
1761479842636983800,5.21398388671875,-1.0134429931640625,-0.022003173828125,-0.017578125
1761479842647019800,5.224019775390625,-1.0136566162109375,-0.0222625732421875,-0.017333984375
1761479842657055000,5.234054931640625,-1.014129638671875,-0.021942138671875,-0.0173187255859375
1761479842667091000,5.244091064453125,-1.0133514404296875,-0.0220489501953125,-0.017791748046875
1761479842677127000,5.254126953125,-1.0138397216796875,-0.022216796875,-0.0177154541015625
1761479842687163000,5.264162841796875,-1.0140228271484375,-0.022003173828125,-0.0175323486328125
1761479842697198800,5.27419873046875,-1.012969970703125,-0.0225830078125,-0.01751708984375
1761479842707234800,5.28423486328125,-1.0134735107421875,-0.022735595703125,-0.0177001953125
1761479842717270800,5.294270751953125,-1.0144805908203125,-0.02252197265625,-0.0172576904296875
1761479842727306000,5.304305908203125,-1.01373291015625,-0.0216522216796875,-0.0174102783203125
1761479842737342000,5.314342041015625,-1.013824462890625,-0.02191162109375,-0.0173797607421875
1761479842747378000,5.3243779296875,-1.0123748779296875,-0.0227508544921875,-0.0180816650390625
1761479842757414000,5.334413818359375,-1.0135955810546875,-0.022857666015625,-0.017059326171875
1761479842767449900,5.344449951171875,-1.014007568359375,-0.0222930908203125,-0.018035888671875
1761479842777485800,5.35448583984375,-1.0140228271484375,-0.0213165283203125,-0.018035888671875
1761479842787520800,5.364520751953125,-1.014434814453125,-0.0217132568359375,-0.0174713134765625
1761479842797557000,5.374556884765625,-1.013275146484375,-0.0217742919921875,-0.0178680419921875
1761479842807593000,5.384593017578125,-1.0140380859375,-0.0223388671875,-0.0180816650390625
1761479842817629000,5.39462890625,-1.0127716064453125,-0.022857666015625,-0.0178070068359375
1761479842827665000,5.404664794921875,-1.013946533203125,-0.022186279296875,-0.0170440673828125
1761479842837700900,5.414700927734375,-1.0126800537109375,-0.022918701171875,-0.0176849365234375
1761479842847736800,5.42473681640625,-1.013824462890625,-0.0223236083984375,-0.0175628662109375
1761479842857772800,5.434772705078125,-1.013641357421875,-0.0223846435546875,-0.0175933837890625
1761479842867807700,5.444807861328125,-1.01416015625,-0.02178955078125,-0.0175628662109375
1761479842877844000,5.454843994140625,-1.0128326416015625,-0.022216796875,-0.018157958984375
1761479842887880000,5.4648798828125,-1.0145721435546875,-0.0218505859375,-0.017791748046875
1761479842897916000,5.474916015625,-1.0135498046875,-0.0217742919921875,-0.017333984375
1761479842907951900,5.484951904296875,-1.013641357421875,-0.022186279296875,-0.017669677734375
1761479842917987800,5.49498779296875,-1.014251708984375,-0.021820068359375,-0.0175018310546875
1761479842928023800,5.50502392578125,-1.0137481689453125,-0.0210418701171875,-0.0176239013671875
1761479842938058800,5.515058837890625,-1.0133514404296875,-0.0230865478515625,-0.0183258056640625
1761479842948094700,5.5250947265625,-1.0150909423828125,-0.0233917236328125,-0.017974853515625
1761479842958131000,5.535130859375,-1.0135345458984375,-0.0219879150390625,-0.0181427001953125
1761479842968167000,5.5451669921875,-1.01318359375,-0.0220794677734375,-0.0172271728515625
1761479842978203000,5.555202880859375,-1.0142059326171875,-0.0224761962890625,-0.0175628662109375
1761479842988238800,5.56523876953125,-1.0140838623046875,-0.0224609375,-0.0181732177734375
1761479842998273800,5.575273681640625,-1.01361083984375,-0.0222930908203125,-0.01763916015625
1761479843008309800,5.585309814453125,-1.0131378173828125,-0.0220947265625,-0.0170745849609375
1761479843018345700,5.595345703125,-1.013824462890625,-0.02215576171875,-0.017608642578125
1761479843028382000,5.6053818359375,-1.0133819580078125,-0.0218353271484375,-0.017578125
1761479843038418000,5.61541796875,-1.0143280029296875,-0.0217132568359375,-0.0171051025390625
1761479843048454000,5.625453857421875,-1.0138702392578125,-0.0219879150390625,-0.0178985595703125
1761479843058489900,5.63548974609375,-1.0142974853515625,-0.0217132568359375,-0.0176544189453125
1761479843068524800,5.64552490234375,-1.0138702392578125,-0.0216217041015625,-0.0178680419921875
1761479843078560800,5.655560791015625,-1.0130767822265625,-0.0219573974609375,-0.0187530517578125
1761479843088596700,5.6655966796875,-1.013427734375,-0.0224151611328125,-0.0179443359375
1761479843098632700,5.6756328125,-1.0142059326171875,-0.0218353271484375,-0.018096923828125
1761479843108669000,5.6856689453125,-1.01416015625,-0.022186279296875,-0.0183563232421875
1761479843118705000,5.695704833984375,-1.012786865234375,-0.02130126953125,-0.017822265625
1761479843128740900,5.705740966796875,-1.01324462890625,-0.0211181640625,-0.0174102783203125
1761479843138775800,5.71577587890625,-1.013671875,-0.0216827392578125,-0.0175933837890625
1761479843148811800,5.725811767578125,-1.01300048828125,-0.0220794677734375,-0.01788330078125
1761479843158847700,5.73584765625,-1.0133056640625,-0.02191162109375,-0.01806640625
1761479843168883700,5.7458837890625,-1.01336669921875,-0.0229644775390625,-0.01763916015625
1761479843178919700,5.755919677734375,-1.0138702392578125,-0.022003173828125,-0.01812744140625
1761479843188956000,5.765955810546875,-1.014129638671875,-0.02215576171875,-0.0171661376953125
1761479843198992000,5.775991943359375,-1.014007568359375,-0.0222625732421875,-0.01824951171875
1761479843209026800,5.78602685546875,-1.013275146484375,-0.021697998046875,-0.0179901123046875
1761479843219062800,5.796062744140625,-1.014678955078125,-0.021453857421875,-0.0182952880859375
1761479843229098800,5.8060986328125,-1.0145111083984375,-0.0222320556640625,-0.017608642578125
1761479843239134700,5.816134765625,-1.012939453125,-0.0225830078125,-0.0172882080078125
1761479843249170700,5.826170654296875,-1.013275146484375,-0.022064208984375,-0.0171356201171875
1761479843259206700,5.83620654296875,-1.0135955810546875,-0.0219879150390625,-0.017486572265625
1761479843269243000,5.846242919921875,-1.0146942138671875,-0.02276611328125,-0.017852783203125
1761479843279277800,5.85627783203125,-1.013763427734375,-0.0227508544921875,-0.0176239013671875
1761479843289313800,5.866313720703125,-1.014190673828125,-0.021240234375,-0.0178070068359375
1761479843299349800,5.876349853515625,-1.014007568359375,-0.0218048095703125,-0.018157958984375
1761479843309385700,5.8863857421875,-1.01416015625,-0.02276611328125,-0.0181427001953125
1761479843319421700,5.896421630859375,-1.013275146484375,-0.0218658447265625,-0.0181427001953125
1761479843329458000,5.9064580078125,-1.0135345458984375,-0.0223236083984375,-0.0179443359375
1761479843339494000,5.916493896484375,-1.014404296875,-0.0218505859375,-0.0181884765625
1761479843349528800,5.92652880859375,-1.0134429931640625,-0.0217437744140625,-0.0187835693359375
1761479843359564800,5.936564697265625,-1.01324462890625,-0.0219268798828125,-0.016754150390625
1761479843369600800,5.946600830078125,-1.014068603515625,-0.0216827392578125,-0.0172882080078125
1761479843379637000,5.956636962890625,-1.0130767822265625,-0.0223236083984375,-0.017486572265625
1761479843389673000,5.9666728515625,-1.013153076171875,-0.0218505859375,-0.0174407958984375
1761479843399708700,5.976708740234375,-1.01385498046875,-0.021881103515625,-0.0179443359375
1761479843409744000,5.986743896484375,-1.0142669677734375,-0.021942138671875,-0.01739501953125
1761479843419779800,5.99677978515625,-1.01348876953125,-0.02203369140625,-0.0178680419921875
1761479843429815800,6.00681591796875,-1.01324462890625,-0.021820068359375,-0.0173187255859375
1761479843439851800,6.016851806640625,-1.01348876953125,-0.0214996337890625,-0.017120361328125
1761479843449887700,6.0268876953125,-1.0137939453125,-0.021087646484375,-0.017486572265625
1761479843459923700,6.036923828125,-1.01385498046875,-0.0218505859375,-0.0181427001953125
1761479843469959700,6.046959716796875,-1.01318359375,-0.0221099853515625,-0.01776123046875
1761479843479995000,6.056994873046875,-1.0142059326171875,-0.0218048095703125,-0.01739501953125
1761479843490030800,6.06703076171875,-1.014495849609375,-0.0225830078125,-0.0168609619140625
1761479843500066800,6.07706689453125,-1.0144195556640625,-0.02288818359375,-0.018218994140625
1761479843510102800,6.087102783203125,-1.0136871337890625,-0.0225372314453125,-0.017547607421875
1761479843520138800,6.097138671875,-1.01275634765625,-0.0226898193359375,-0.0178375244140625
1761479843530174700,6.1071748046875,-1.014251708984375,-0.022003173828125,-0.0178985595703125
1761479843540210700,6.117210693359375,-1.0146942138671875,-0.0228424072265625,-0.016815185546875
1761479843550246000,6.127245849609375,-1.0135955810546875,-0.0215301513671875,-0.0176544189453125
1761479843560281900,6.13728173828125,-1.01397705078125,-0.02191162109375,-0.0173492431640625
1761479843570317800,6.14731787109375,-1.013824462890625,-0.022369384765625,-0.017730712890625
1761479843580353800,6.157353759765625,-1.01324462890625,-0.0224761962890625,-0.0180816650390625
1761479843590389800,6.1673896484375,-1.01416015625,-0.0233306884765625,-0.01776123046875
1761479843600425700,6.17742578125,-1.014129638671875,-0.0214996337890625,-0.0179290771484375
1761479843610460700,6.187460693359375,-1.0136566162109375,-0.0221405029296875,-0.0179595947265625
1761479843620496600,6.19749658203125,-1.0132598876953125,-0.0223388671875,-0.01788330078125
1761479843630532900,6.207532958984375,-1.01348876953125,-0.022003173828125,-0.0169219970703125
1761479843640568800,6.21756884765625,-1.013519287109375,-0.0229339599609375,-0.0165863037109375
1761479843650604800,6.227604736328125,-1.0131988525390625,-0.0219268798828125,-0.018280029296875
1761479843660640800,6.237640869140625,-1.0134735107421875,-0.021759033203125,-0.017791748046875
1761479843670676700,6.2476767578125,-1.012237548828125,-0.02142333984375,-0.017120361328125
1761479843680711700,6.257711669921875,-1.0137481689453125,-0.0209503173828125,-0.0173492431640625
1761479843690747600,6.26774755859375,-1.013427734375,-0.02197265625,-0.017486572265625
1761479843700783600,6.27778369140625,-1.013214111328125,-0.02215576171875,-0.01727294921875
1761479843710819800,6.28781982421875,-1.013336181640625,-0.020904541015625,-0.0174560546875
1761479843720855800,6.297855712890625,-1.0137481689453125,-0.022491455078125,-0.0178070068359375
1761479843730891800,6.307891845703125,-1.014068603515625,-0.0218353271484375,-0.0176239013671875
1761479843740926700,6.3179267578125,-1.0137939453125,-0.0224761962890625,-0.0172271728515625
1761479843750962700,6.327962646484375,-1.0136260986328125,-0.0219573974609375,-0.0172271728515625
1761479843760998700,6.33799853515625,-1.01361083984375,-0.0217742919921875,-0.01788330078125
1761479843771034600,6.34803466796875,-1.0138092041015625,-0.022552490234375,-0.01763916015625
1761479843781070600,6.358070556640625,-1.012603759765625,-0.0224151611328125,-0.01788330078125
1761479843791106800,6.36810693359375,-1.01397705078125,-0.0225830078125,-0.01806640625
1761479843801142800,6.378142822265625,-1.013671875,-0.0224761962890625,-0.01763916015625
1761479843811177700,6.388177734375,-1.0131072998046875,-0.02215576171875,-0.018280029296875
1761479843821213700,6.398213623046875,-1.0138092041015625,-0.02203369140625,-0.0178680419921875
1761479843831249700,6.408249755859375,-1.0127716064453125,-0.022491455078125,-0.017608642578125
1761479843841285600,6.41828564453125,-1.013153076171875,-0.0213165283203125,-0.017181396484375
1761479843851321600,6.428321533203125,-1.0130615234375,-0.0219268798828125,-0.0174102783203125
1761479843861357600,6.438357666015625,-1.0136871337890625,-0.0214996337890625,-0.0178680419921875
1761479843871393800,6.448393798828125,-1.0133209228515625,-0.022247314453125,-0.017547607421875
1761479843881428700,6.4584287109375,-1.0130615234375,-0.0223236083984375,-0.01763916015625
1761479843891464700,6.468464599609375,-1.0136260986328125,-0.021881103515625,-0.0172119140625
1761479843901500700,6.478500732421875,-1.012786865234375,-0.021759033203125,-0.0176239013671875
1761479843911536600,6.48853662109375,-1.012908935546875,-0.0223541259765625,-0.01763916015625
1761479843921572600,6.498572509765625,-1.012725830078125,-0.0218353271484375,-0.0180206298828125
1761479843931608600,6.508608642578125,-1.0146026611328125,-0.022735595703125,-0.01788330078125
1761479843941643800,6.518643798828125,-1.0140533447265625,-0.021636962890625,-0.0173797607421875
1761479843951679700,6.5286796875,-1.0135345458984375,-0.02252197265625,-0.017608642578125
1761479843961715700,6.5387158203125,-1.0140838623046875,-0.021759033203125,-0.0177154541015625
1761479843971751700,6.548751708984375,-1.013885498046875,-0.022216796875,-0.0181732177734375
1761479843981787600,6.55878759765625,-1.013214111328125,-0.0217132568359375,-0.0182037353515625
1761479843991823600,6.56882373046875,-1.0133056640625,-0.022369384765625,-0.017669677734375
1761479844001859600,6.578859619140625,-1.013275146484375,-0.0222930908203125,-0.017303466796875
1761479844011894800,6.588894775390625,-1.0129547119140625,-0.0218505859375,-0.01727294921875
1761479844021930800,6.5989306640625,-1.0136566162109375,-0.020965576171875,-0.017547607421875
1761479844031966700,6.608966796875,-1.0142059326171875,-0.021942138671875,-0.01763916015625
1761479844042002700,6.619002685546875,-1.013153076171875,-0.02239990234375,-0.017333984375
1761479844052038700,6.62903857421875,-1.012725830078125,-0.0227508544921875,-0.0176849365234375
1761479844062074600,6.63907470703125,-1.0129241943359375,-0.022918701171875,-0.01751708984375
1761479844072109800,6.64910986328125,-1.0122528076171875,-0.022613525390625,-0.017425537109375
1761479844082145800,6.659145751953125,-1.0133209228515625,-0.0228424072265625,-0.01800537109375
1761479844092181800,6.669181640625,-1.0144500732421875,-0.022125244140625,-0.0181121826171875
1761479844102217700,6.6792177734375,-1.0138397216796875,-0.0219573974609375,-0.017852783203125
1761479844112253700,6.689253662109375,-1.013336181640625,-0.0213165283203125,-0.0178680419921875
1761479844122289700,6.69928955078125,-1.0130767822265625,-0.0213623046875,-0.017822265625
1761479844132325600,6.70932568359375,-1.01336669921875,-0.0225677490234375,-0.0175933837890625
1761479844142361900,6.71936181640625,-1.01434326171875,-0.0223388671875,-0.0171051025390625
1761479844152396800,6.729396728515625,-1.0132598876953125,-0.022613525390625,-0.0181427001953125
1761479844162432800,6.739432861328125,-1.0132293701171875,-0.02117919921875,-0.0176544189453125
1761479844172468700,6.74946875,-1.0134429931640625,-0.0219879150390625,-0.01654052734375
1761479844182504700,6.759504638671875,-1.0129852294921875,-0.0220947265625,-0.0179901123046875
1761479844192540700,6.769540771484375,-1.0132904052734375,-0.0222625732421875,-0.0180816650390625
1761479844202577000,6.779576904296875,-1.012664794921875,-0.021575927734375,-0.0171661376953125
1761479844212611600,6.789611572265625,-1.01275634765625,-0.02203369140625,-0.0176239013671875
1761479844222647600,6.7996474609375,-1.0132293701171875,-0.022003173828125,-0.01776123046875
1761479844232683800,6.809683837890625,-1.0128631591796875,-0.0216827392578125,-0.0173187255859375
1761479844242719700,6.8197197265625,-1.013702392578125,-0.0218963623046875,-0.0181121826171875
1761479844252756000,6.829755859375,-1.0132598876953125,-0.0224456787109375,-0.018035888671875
1761479844262792000,6.8397919921875,-1.0125579833984375,-0.02166748046875,-0.017578125
1761479844272828000,6.849827880859375,-1.0128631591796875,-0.0224456787109375,-0.0178680419921875
1761479844282862600,6.859862548828125,-1.0134429931640625,-0.0225982666015625,-0.01788330078125
1761479844292898600,6.869898681640625,-1.0134124755859375,-0.0222625732421875,-0.0178070068359375
1761479844302934500,6.8799345703125,-1.012420654296875,-0.0221405029296875,-0.017578125
1761479844312970800,6.889970703125,-1.013519287109375,-0.02252197265625,-0.0169830322265625
1761479844323007000,6.900007080078125,-1.0132293701171875,-0.0223541259765625,-0.0176849365234375
1761479844333043000,6.91004296875,-1.01275634765625,-0.0210418701171875,-0.0177459716796875
1761479844343079000,6.920078857421875,-1.0135498046875,-0.0226287841796875,-0.0166015625
1761479844353113600,6.930113525390625,-1.0126495361328125,-0.022705078125,-0.0174560546875
1761479844363149600,6.940149658203125,-1.012115478515625,-0.021881103515625,-0.01678466796875
1761479844373185800,6.950185791015625,-1.013641357421875,-0.0215911865234375,-0.01702880859375
1761479844383221800,6.9602216796875,-1.012603759765625,-0.021820068359375,-0.0185546875
1761479844393259300,6.97025927734375,-1.0121307373046875,-0.02227783203125,-0.0179595947265625
1761479844403295200,6.980295166015625,-1.0132293701171875,-0.0220947265625,-0.0172271728515625
1761479844413331200,6.990331298828125,-1.0129241943359375,-0.02197265625,-0.017730712890625
1761479844423366400,7.000366455078125,-1.0119171142578125,-0.0214691162109375,-0.0179290771484375
1761479844433402400,7.01040234375,-1.0119781494140625,-0.02227783203125,-0.01751708984375
1761479844443438300,7.020438232421875,-1.013275146484375,-0.022430419921875,-0.016845703125
1761479844453474300,7.030474365234375,-1.01312255859375,-0.0223541259765625,-0.0177459716796875
1761479844463510300,7.04051025390625,-1.0125885009765625,-0.021087646484375,-0.017303466796875
1761479844473546200,7.050546142578125,-1.0121612548828125,-0.0218048095703125,-0.0175628662109375
1761479844483582200,7.060582275390625,-1.0126800537109375,-0.022735595703125,-0.0178375244140625
1761479844493617400,7.070617431640625,-1.0133056640625,-0.022369384765625,-0.018218994140625
1761479844503653400,7.0806533203125,-1.0127105712890625,-0.021636962890625,-0.0180816650390625
1761479844513689300,7.090689453125,-1.0129241943359375,-0.022308349609375,-0.0170745849609375
1761479844523725300,7.100725341796875,-1.013031005859375,-0.0232391357421875,-0.0169525146484375
1761479844533761300,7.11076123046875,-1.0122833251953125,-0.021881103515625,-0.0177001953125
1761479844543797200,7.12079736328125,-1.011810302734375,-0.021514892578125,-0.0178070068359375
1761479844553833200,7.130833251953125,-1.0128326416015625,-0.0221405029296875,-0.0178375244140625
1761479844563868200,7.1408681640625,-1.01275634765625,-0.0220184326171875,-0.0171661376953125
1761479844573904400,7.150904296875,-1.012939453125,-0.0225067138671875,-0.0177764892578125
1761479844583940400,7.1609404296875,-1.0136260986328125,-0.022247314453125,-0.0175628662109375
1761479844593976300,7.170976318359375,-1.01300048828125,-0.0217437744140625,-0.0172271728515625
1761479844604012300,7.18101220703125,-1.0134429931640625,-0.022552490234375,-0.0173797607421875
1761479844614048300,7.19104833984375,-1.0138702392578125,-0.021697998046875,-0.0189208984375
1761479844624084200,7.201084228515625,-1.012939453125,-0.0230560302734375,-0.017822265625
1761479844634120200,7.2111201171875,-1.0123748779296875,-0.0222015380859375,-0.017303466796875
1761479844644155100,7.221155029296875,-1.012969970703125,-0.021087646484375,-0.01776123046875
1761479844654191400,7.23119140625,-1.0124053955078125,-0.02276611328125,-0.0176544189453125
1761479844664227300,7.241227294921875,-1.013153076171875,-0.0225982666015625,-0.017486572265625
1761479844674263300,7.25126318359375,-1.0123138427734375,-0.0223541259765625,-0.018096923828125
1761479844684299300,7.26129931640625,-1.0129547119140625,-0.02215576171875,-0.0174102783203125
1761479844694335200,7.271335205078125,-1.0122528076171875,-0.021392822265625,-0.0179901123046875
1761479844704371200,7.28137109375,-1.012542724609375,-0.0213623046875,-0.017303466796875
1761479844714406100,7.29140625,-1.0130462646484375,-0.0222015380859375,-0.0171051025390625
1761479844724442400,7.3014423828125,-1.01263427734375,-0.02215576171875,-0.0180511474609375
1761479844734478300,7.311478271484375,-1.012969970703125,-0.0224761962890625,-0.0175323486328125
1761479844744514300,7.321514404296875,-1.0130462646484375,-0.021484375,-0.017486572265625
1761479844754550300,7.33155029296875,-1.0133819580078125,-0.022979736328125,-0.01788330078125
1761479844764586200,7.341586181640625,-1.012725830078125,-0.0223388671875,-0.0175018310546875
1761479844774622200,7.351622314453125,-1.0133819580078125,-0.0213775634765625,-0.0171661376953125
1761479844784657200,7.3616572265625,-1.0126953125,-0.0219879150390625,-0.0171966552734375
1761479844794693000,7.371693115234375,-1.0135040283203125,-0.021331787109375,-0.0180816650390625
1761479844804729300,7.381729248046875,-1.012908935546875,-0.022064208984375,-0.017486572265625
1761479844814765300,7.391765380859375,-1.01190185546875,-0.023529052734375,-0.01800537109375
1761479844824801300,7.40180126953125,-1.0129547119140625,-0.0214691162109375,-0.017333984375
1761479844834837200,7.411837158203125,-1.013275146484375,-0.02099609375,-0.0174560546875
1761479844844873200,7.421873291015625,-1.013763427734375,-0.021759033203125,-0.017913818359375
1761479844854909200,7.4319091796875,-1.013641357421875,-0.021728515625,-0.017791748046875
1761479844864944000,7.441944091796875,-1.012969970703125,-0.02203369140625,-0.0177459716796875
1761479844874980000,7.45197998046875,-1.012939453125,-0.022491455078125,-0.0177459716796875
1761479844885016300,7.462016357421875,-1.0127716064453125,-0.0214080810546875,-0.016815185546875
1761479844895052300,7.47205224609375,-1.01318359375,-0.021270751953125,-0.0172576904296875
1761479844905088300,7.482088134765625,-1.01263427734375,-0.0224609375,-0.0180816650390625
1761479844915124200,7.492124267578125,-1.012939453125,-0.0219879150390625,-0.0172576904296875
1761479844925160200,7.50216015625,-1.0131988525390625,-0.0214996337890625,-0.0176849365234375
1761479844935196200,7.512196044921875,-1.0133514404296875,-0.021453857421875,-0.017913818359375
1761479844945231000,7.522231201171875,-1.0125732421875,-0.021942138671875,-0.017120361328125
1761479844955267000,7.53226708984375,-1.01202392578125,-0.0224761962890625,-0.017425537109375
1761479844965303300,7.54230322265625,-1.0124053955078125,-0.021759033203125,-0.0180511474609375
1761479844975339300,7.55233935546875,-1.0120697021484375,-0.022125244140625,-0.0177001953125
1761479844985375200,7.562375244140625,-1.0128631591796875,-0.0221405029296875,-0.0177001953125
1761479844995411200,7.5724111328125,-1.0125274658203125,-0.0222015380859375,-0.0175628662109375
1761479845005447200,7.582447265625,-1.0125579833984375,-0.0224151611328125,-0.01763916015625
1761479845015482000,7.592482177734375,-1.0130615234375,-0.022491455078125,-0.017669677734375
1761479845025518000,7.60251806640625,-1.012969970703125,-0.0218048095703125,-0.0176849365234375
1761479845035554000,7.612553955078125,-1.0127105712890625,-0.0214996337890625,-0.0175018310546875
1761479845045590300,7.62259033203125,-1.0124359130859375,-0.022705078125,-0.017486572265625
1761479845055626200,7.632626220703125,-1.0131988525390625,-0.021240234375,-0.01788330078125
1761479845065662200,7.642662109375,-1.0134124755859375,-0.02203369140625,-0.0183258056640625
1761479845075698400,7.652698486328125,-1.0123443603515625,-0.0222625732421875,-0.0170135498046875
1761479845085734400,7.662734375,-1.0122833251953125,-0.022064208984375,-0.016998291015625
1761479845095769000,7.67276904296875,-1.01422119140625,-0.0220947265625,-0.0172576904296875
1761479845105805000,7.68280517578125,-1.01263427734375,-0.0221405029296875,-0.018035888671875
1761479845115841000,7.692841064453125,-1.0131988525390625,-0.0218048095703125,-0.0179290771484375
1761479845125877500,7.70287744140625,-1.0132598876953125,-0.0224151611328125,-0.0182342529296875
1761479845135913500,7.71291357421875,-1.013763427734375,-0.0231170654296875,-0.0179290771484375
1761479845145949400,7.722949462890625,-1.013427734375,-0.0224609375,-0.017791748046875
1761479845155985400,7.7329853515625,-1.0129241943359375,-0.0229034423828125,-0.0179443359375
1761479845166021400,7.743021484375,-1.0130615234375,-0.02215576171875,-0.0181427001953125
1761479845176057300,7.753057373046875,-1.01251220703125,-0.0233917236328125,-0.0179443359375
1761479845186092300,7.76309228515625,-1.0133209228515625,-0.02301025390625,-0.018035888671875
1761479845196128300,7.773128173828125,-1.0138397216796875,-0.0217132568359375,-0.016754150390625
1761479845206164500,7.78316455078125,-1.014007568359375,-0.0218963623046875,-0.01763916015625
1761479845216200400,7.793200439453125,-1.0127410888671875,-0.02264404296875,-0.0172576904296875
1761479845226236400,7.803236328125,-1.0128021240234375,-0.0233154296875,-0.017547607421875
1761479845236272400,7.8132724609375,-1.0132598876953125,-0.022430419921875,-0.017120361328125
1761479845246308400,7.823308349609375,-1.0127410888671875,-0.022369384765625,-0.01727294921875
1761479845256343300,7.83334326171875,-1.012115478515625,-0.0222320556640625,-0.0174560546875
1761479845266379300,7.843379150390625,-1.011749267578125,-0.0217437744140625,-0.0180511474609375
1761479845276415200,7.853415283203125,-1.0124359130859375,-0.0219268798828125,-0.017059326171875
1761479845286451500,7.863451416015625,-1.01324462890625,-0.0215606689453125,-0.016937255859375
1761479845296487400,7.8734873046875,-1.0131988525390625,-0.0217742919921875,-0.017547607421875
1761479845306523400,7.8835234375,-1.0134124755859375,-0.022705078125,-0.0177001953125
1761479845316559400,7.893559326171875,-1.0122833251953125,-0.0212860107421875,-0.01690673828125
1761479845326595300,7.90359521484375,-1.0125732421875,-0.022247314453125,-0.0181427001953125
1761479845336631300,7.91363134765625,-1.0140533447265625,-0.0225982666015625,-0.017608642578125
1761479845346666200,7.923666259765625,-1.01361083984375,-0.022491455078125,-0.0178680419921875
1761479845356702200,7.9337021484375,-1.0125274658203125,-0.02252197265625,-0.0175628662109375
1761479845366738400,7.943738525390625,-1.0127105712890625,-0.0223541259765625,-0.0181732177734375
1761479845376774400,7.9537744140625,-1.01263427734375,-0.0227508544921875,-0.01824951171875
1761479845386810400,7.963810302734375,-1.0130615234375,-0.0221099853515625,-0.017974853515625
1761479845396845300,7.97384521484375,-1.0141143798828125,-0.02215576171875,-0.0176849365234375
1761479845406881300,7.98388134765625,-1.014068603515625,-0.0222015380859375,-0.0174102783203125
1761479845416917200,7.993917236328125,-1.0152130126953125,-0.0223236083984375,-0.0172882080078125
1761479845426952400,8.003952392578125,-1.0133209228515625,-0.0222015380859375,-0.0177459716796875
1761479845436988400,8.013988525390625,-1.0121612548828125,-0.0213165283203125,-0.017730712890625
1761479845447024400,8.0240244140625,-1.0127716064453125,-0.02239990234375,-0.018157958984375
1761479845457060400,8.034060302734375,-1.0133209228515625,-0.0217437744140625,-0.0178680419921875
1761479845467096300,8.044096435546875,-1.013580322265625,-0.0218963623046875,-0.01763916015625
1761479845477132300,8.05413232421875,-1.0131072998046875,-0.021636962890625,-0.018646240234375
1761479845487168300,8.064168212890625,-1.0134124755859375,-0.022857666015625,-0.017791748046875
1761479845497204500,8.07420458984375,-1.0140838623046875,-0.02154541015625,-0.01763916015625
1761479845507240400,8.084240478515625,-1.0121917724609375,-0.021240234375,-0.01727294921875
1761479845517275400,8.094275390625,-1.0118560791015625,-0.0216522216796875,-0.017791748046875
1761479845527311400,8.104311279296875,-1.0135955810546875,-0.0225830078125,-0.0185699462890625
1761479845537347300,8.114347412109375,-1.01312255859375,-0.023223876953125,-0.0179595947265625
1761479845547383600,8.124383544921875,-1.0140228271484375,-0.022216796875,-0.0181732177734375
1761479845557419500,8.13441943359375,-1.0123291015625,-0.02178955078125,-0.0177001953125
1761479845567455500,8.14445556640625,-1.0127105712890625,-0.02154541015625,-0.0170135498046875
1761479845577491500,8.154491455078125,-1.0131683349609375,-0.02197265625,-0.0176239013671875
1761479845587527400,8.16452734375,-1.0127410888671875,-0.022491455078125,-0.016937255859375
1761479845597562400,8.174562255859374,-1.0137786865234375,-0.0210418701171875,-0.017578125
1761479845607598600,8.1845986328125,-1.0138092041015625,-0.0222930908203125,-0.0176544189453125
1761479845617634600,8.194634521484375,-1.0135955810546875,-0.0222320556640625,-0.0168914794921875
1761479845627670500,8.20467041015625,-1.0133209228515625,-0.021881103515625,-0.017120361328125
1761479845637706500,8.21470654296875,-1.0121917724609375,-0.0220489501953125,-0.0178375244140625
1761479845647742500,8.224742431640625,-1.0139617919921875,-0.022003173828125,-0.01715087890625
1761479845657778400,8.2347783203125,-1.0132293701171875,-0.021331787109375,-0.0168609619140625
1761479845667814400,8.244814453125,-1.0131072998046875,-0.0226898193359375,-0.0177764892578125
1761479845677850400,8.254850341796875,-1.0126495361328125,-0.02325439453125,-0.01727294921875
1761479845687885600,8.264885498046874,-1.012054443359375,-0.022064208984375,-0.017913818359375
1761479845697921500,8.274921630859374,-1.0131988525390625,-0.0220184326171875,-0.0178985595703125
1761479845707957500,8.28495751953125,-1.0130615234375,-0.0225372314453125,-0.016937255859375
1761479845717993500,8.294993408203124,-1.0130157470703125,-0.021728515625,-0.017608642578125
1761479845728029400,8.305029541015625,-1.0128936767578125,-0.02117919921875,-0.01763916015625
1761479845738065400,8.3150654296875,-1.011749267578125,-0.0222625732421875,-0.0168914794921875
1761479845748101400,8.325101318359375,-1.0135650634765625,-0.0218963623046875,-0.01763916015625
1761479845758137300,8.335137451171875,-1.0136566162109375,-0.022613525390625,-0.017913818359375
1761479845768172500,8.345172607421874,-1.0137786865234375,-0.02301025390625,-0.017364501953125
1761479845778208500,8.35520849609375,-1.014678955078125,-0.0228271484375,-0.0176239013671875
1761479845788244500,8.365244384765624,-1.013641357421875,-0.02215576171875,-0.01776123046875
1761479845798280400,8.375280517578124,-1.0129241943359375,-0.0225677490234375,-0.017242431640625
1761479845808316400,8.38531640625,-1.0130767822265625,-0.0221099853515625,-0.0180816650390625
1761479845818352400,8.395352294921874,-1.01287841796875,-0.0218505859375,-0.01812744140625
1761479845828388400,8.405388427734374,-1.01275634765625,-0.022491455078125,-0.0178375244140625
1761479845838424300,8.41542431640625,-1.0127410888671875,-0.0225067138671875,-0.017669677734375
1761479845848460500,8.42546044921875,-1.012786865234375,-0.02191162109375,-0.0176239013671875
1761479845858495500,8.43549560546875,-1.01300048828125,-0.0218505859375,-0.0177001953125
1761479845868531500,8.445531494140624,-1.0132598876953125,-0.0225067138671875,-0.0175933837890625
1761479845878567400,8.4555673828125,-1.0125885009765625,-0.0218505859375,-0.017486572265625
1761479845888603400,8.465603271484374,-1.013641357421875,-0.022552490234375,-0.0184478759765625
1761479845898639400,8.475639404296874,-1.01409912109375,-0.0230255126953125,-0.018218994140625
1761479845908675300,8.48567529296875,-1.01324462890625,-0.021270751953125,-0.017913818359375
1761479845918711300,8.495711181640624,-1.012481689453125,-0.02093505859375,-0.0174407958984375
1761479845928747500,8.50574755859375,-1.0133209228515625,-0.021820068359375,-0.0167388916015625
1761479845938783500,8.515783447265624,-1.01226806640625,-0.02178955078125,-0.0171356201171875
1761479845948818400,8.525818359375,-1.0129241943359375,-0.0213165283203125,-0.0174713134765625
1761479845958854400,8.5358544921875,-1.01324462890625,-0.021392822265625,-0.0178985595703125
1761479845968890400,8.545890380859374,-1.013031005859375,-0.0222625732421875,-0.017791748046875
1761479845978926300,8.55592626953125,-1.0120697021484375,-0.0222625732421875,-0.0176849365234375
1761479845988962300,8.56596240234375,-1.0124359130859375,-0.0218658447265625,-0.0170440673828125
1761479845998998500,8.57599853515625,-1.013092041015625,-0.02203369140625,-0.0175323486328125
1761479846009034500,8.586034423828124,-1.0133209228515625,-0.021148681640625,-0.0177764892578125
1761479846019070500,8.596070556640624,-1.0123138427734375,-0.0225830078125,-0.0173187255859375
1761479846029106400,8.6061064453125,-1.0129547119140625,-0.021514892578125,-0.0180206298828125
1761479846039142400,8.616142333984374,-1.01312255859375,-0.0221405029296875,-0.017608642578125
1761479846049178400,8.626178466796874,-1.0147705078125,-0.020751953125,-0.0174102783203125
1761479846059214300,8.63621435546875,-1.0160064697265625,-0.0224761962890625,-0.0178375244140625
1761479846069250300,8.646250244140624,-1.00189208984375,-0.0251922607421875,-0.015594482421875
1761479846079286300,8.656286376953124,-1.0200042724609375,-0.02020263671875,-0.0207061767578125
1761479846089321500,8.666321533203124,-1.0098876953125,-0.0206146240234375,-0.0170440673828125
1761479846099357400,8.676357421875,-1.0124359130859375,-0.02227783203125,-0.015594482421875
1761479846109393400,8.686393310546874,-1.0115203857421875,-0.02520751953125,-0.0189971923828125
1761479846119429400,8.696429443359374,-1.01361083984375,-0.0203857421875,-0.01702880859375
1761479846129465300,8.70646533203125,-1.0135345458984375,-0.0206146240234375,-0.0157470703125
