time,seconds_elapsed,z,y,x
1761479837529985800,0.10698583984375,-0.13587562038898468,-0.005790255572926253,-0.010305924632772802
1761479837540021800,0.117021728515625,-0.12585106998085974,0.0010008841382339597,-0.020903726617898792
1761479837550057700,0.1270576171875,-0.1310866325467825,-0.020195505283307283,-0.006073127634916454
1761479837560093700,0.13709375,-0.1346761814713478,0.010500880949292331,0.011779960974399
1761479837570129700,0.147129638671875,-0.12330255454182625,0.005503803314361721,-0.016496303705498577
1761479837580165600,0.15716552734375,-0.13198212008178234,-0.008857917781546711,-0.003143741385824978
1761479837590200600,0.16720068359375,-0.1387158122509718,-0.01738671320658177,0.016307612732984124
1761479837600236500,0.177236572265625,-0.13078852638304234,-0.004870893971994519,0.0006759630328044294
1761479837610272800,0.187272705078125,-0.1301882224023342,0.010017536145448685,-0.018775263221841306
1761479837620308700,0.197308837890625,-0.1303366909623146,-0.010553451386746019,0.0035194428304210303
1761479837630344700,0.2073447265625,-0.1243500177681446,-0.01802873743716627,0.0012190386672504246
1761479837640380700,0.217380615234375,-0.13616495872437953,-0.00720266138780862,-0.014898860179912298
1761479837650416600,0.227416748046875,-0.14005144476890563,0.007074157903622836,-0.0028997948284260927
1761479837660451600,0.23745166015625,-0.1319663379907608,-0.01659528883425519,0.004485365253128111
1761479837670487600,0.247487548828125,-0.1264279930859804,-0.009271229556482284,-0.0035406682815402745
1761479837680523500,0.2575234375,-0.12357786435186863,-0.013132690757606178,-0.012871336407680064
1761479837690559700,0.267559814453125,-0.12537643820643424,0.012232234786543995,0.004102156355511397
1761479837700595700,0.277595703125,-0.1240279462069273,-0.018575009675696492,-0.005748772785067558
1761479837710631700,0.287631591796875,-0.12867080357670782,-0.0077955492470413446,-0.00811469819881022
1761479837720666600,0.29766650390625,-0.12762801652550695,-0.01785575549043715,-0.008134772872459143
1761479837730702600,0.30770263671875,-0.12762918556928635,0.01040311966324225,0.010082692069839685
1761479837740738600,0.317738525390625,-0.1343617086946964,-0.011292506251018493,-0.024962244761083274
1761479837750774500,0.3277744140625,-0.13451076177656648,-0.010887688309792429,-0.010577946507185697
1761479837760810500,0.337810546875,-0.13032032434940338,-0.01868281743172556,0.0034719321605749427
1761479837770846700,0.3478466796875,-0.12747545631229876,0.00579672184633091,-0.007789484832435846
1761479837780881700,0.357881591796875,-0.12717092040777206,-0.016185411125421524,-0.013754165390506386
1761479837790917600,0.367917724609375,-0.13315700908005237,-0.019811730130109936,0.00502765543628484
1761479837800953600,0.37795361328125,-0.12911679377853869,-0.009359127035643905,-0.008127228886820376
1761479837810989600,0.387989501953125,-0.1330067869544029,0.002375807486940175,-0.010028459398262203
1761479837821025500,0.398025634765625,-0.13121814997196196,-0.012680069885589182,-0.008363905453216284
1761479837831061500,0.4080615234375,-0.12762567843794823,-0.013658924855105578,0.004234733226615935
1761479837841097500,0.418097412109375,-0.11834463987350463,-0.008553418409638107,-0.010767605594079941
1761479837851132700,0.428132568359375,-0.13195932372808455,-0.0014300328031182287,-0.005160013111680746
1761479837861168600,0.438168701171875,-0.13554887265264987,-0.005030797241441906,0.001956413031090051
1761479837871204600,0.44820458984375,-0.12462182044684886,-0.018795027368236333,0.0020671616628766057
1761479837881240600,0.458240478515625,-0.12297113063037395,-0.00435985744362697,-0.01020335930744186
1761479837891276500,0.468276611328125,-0.1349415544092655,-0.0044085919561795885,-0.0028257432115264235
1761479837901312500,0.4783125,-0.1285071374475956,-0.007883976449165492,0.001988689599186182
1761479837911347700,0.48834765625,-0.11683715792000293,-0.015579152327962219,-0.007730320257414132
1761479837921383700,0.4983837890625,-0.12925824807584285,-0.004328037533257156,0.0008260572942905128
1761479837931419600,0.508419677734375,-0.12387304790616034,-0.017094013870321213,0.004544986485876143
1761479837941455600,0.51845556640625,-0.13135901974737643,-0.0024094540282152592,0.0069552624979987735
1761479837951491600,0.52849169921875,-0.12776713273525236,-0.0021154943166300654,-0.01101164348302409
1761479837961527600,0.538527587890625,-0.12911445569097996,0.0008213445865549147,-0.004332914637774229
1761479837971563500,0.5485634765625,-0.12118424721360206,-0.008630958891566842,-0.004127930117584765
1761479837981598700,0.5585986328125,-0.12223229496181011,0.006404222752805799,-0.005660674376506358
1761479837991634700,0.568634765625,-0.12717676562666894,-0.015020130205713212,-0.002288202268723398
1761479838001670700,0.578670654296875,-0.13271394148766993,-0.005182371073961258,0.007190496025979518
1761479838011706600,0.58870654296875,-0.1321194827258587,0.00048822190836071965,-0.004709839925076812
1761479838021742600,0.59874267578125,-0.12673252899050713,0.0013820654755458235,-0.011583652951009571
1761479838031778600,0.608778564453125,-0.12344167075157164,-0.015897187034878878,0.000226593563798815
1761479838041814500,0.618814453125,-0.12119301504194736,-0.00991462376024574,0.0010262743078172207
1761479838051849700,0.628849609375,-0.13076573002934455,-0.004940744337812066,-0.011070826324354856
1761479838061885700,0.6388857421875,-0.1316658937394619,-0.001242291678674519,0.0037308205587789412
1761479838071921700,0.648921630859375,-0.123735685262084,-0.012800371797010301,-0.004545735404547304
1761479838081957600,0.65895751953125,-0.11939794831871986,-0.005667177182529121,-0.008131558002065867
1761479838091993600,0.66899365234375,-0.1316694008708,-0.006768635618407279,-0.009934680167585612
1761479838102029600,0.679029541015625,-0.12777823865115642,-0.005868892033398151,-0.0023423801413737237
1761479838112065500,0.6890654296875,-0.12463526445031166,-0.01790874605299905,0.0007973243901506066
1761479838122100500,0.6991005859375,-0.12523206129968165,-0.0016357297093607484,-0.006416479446180164
1761479838132136700,0.70913671875,-0.12118716982305049,-0.0037457806658931074,-0.0075534841194748875
1761479838142172700,0.719172607421875,-0.1226817922949791,-0.003481795967463404,0.0037753720865584908
1761479838152208600,0.729208740234375,-0.1392944889217615,-0.008549947810918092,-0.0032773046376183626
1761479838162244600,0.73924462890625,-0.13391162683963775,-0.0038114663132466373,-0.0067312627500854426
1761479838172280600,0.749280517578125,-0.13122282614707945,-0.007465933700185268,0.0025415011763572693
1761479838182316500,0.759316650390625,-0.1259884326249361,-0.009138890147395431,-0.004171951922401785
1761479838192351500,0.7693515625,-0.12733341749310492,-0.008866667343582957,-0.006325458428170532
1761479838202387500,0.779387451171875,-0.1280804364681244,-0.007320716543216258,-0.005374295183178037
1761479838212423700,0.789423583984375,-0.12299334246218203,0.0016534114965237677,0.000045592707395553586
1761479838222459600,0.799459716796875,-0.13107552663087843,0.0007194003157317638,-0.00956696110004559
1761479838232495600,0.80949560546875,-0.12045067224204539,0.0009102284464053809,-0.004862144409958273
1761479838242531600,0.819531494140625,-0.12090250766277312,-0.007562799937091767,-0.004165650045778602
1761479838252567600,0.829567626953125,-0.12150222712159156,0.0015849859028123317,-0.004578139836806804
1761479838262602500,0.8396025390625,-0.13093290328979493,-0.003977580127771944,-0.00663598568206653
1761479838272638500,0.849638427734375,-0.13512626332640648,-0.010334694069530814,-0.0015742087804712355
1761479838282674400,0.85967431640625,-0.13378127845823765,-0.0030531404929235576,-0.005621949801314622
1761479838292710700,0.869710693359375,-0.12554945668578146,-0.002299143787845969,-0.0036544673869386315
1761479838302746600,0.87974658203125,-0.13063187451660632,-0.009532766569498925,0.0000046031098812818525
1761479838312782600,0.889782470703125,-0.13317863638997077,-0.007890753249824047,0.004172280715964734
1761479838322818800,0.89981884765625,-0.131982704603672,0.001361680274643004,-0.012498137447424233
1761479838332853500,0.909853515625,-0.12644377517700195,-0.00046717912033200263,-0.012864029884058981
1761479838342889500,0.919889404296875,-0.12824468711912632,-0.011424644730705768,0.008673793386295437
1761479838352925400,0.929925537109375,-0.12465572271645069,-0.005891140397824347,-0.0004630326681770384
1761479838362961400,0.93996142578125,-0.1279448273897171,-0.002023085059132427,-0.004318685183022171
1761479838372997600,0.94999755859375,-0.1267465575158596,0.003363393752183765,-0.0031704832622781393
1761479838383033000,0.960033203125,-0.12599778497517108,-0.0052610440670512616,-0.007767090337537229
1761479838393069000,0.970069091796875,-0.13632102606892585,-0.005309942976385354,-0.00045755277546122666
1761479838403104000,0.98010400390625,-0.12928747417032718,0.0035010486572049555,0.006099997375532984
1761479838413140000,0.990139892578125,-0.11911620876789092,-0.00023192732604220508,0.0003184365657158196
1761479838423176000,1.000176025390625,-0.12989011623859406,-0.005322418865468353,-0.0011812274075113237
1761479838433212200,1.010212158203125,-0.13168635200560092,-0.011385883622895925,-0.00844184779394418
1761479838443248000,1.020248046875,-0.13003683123290538,-0.013499441710766403,0.0014302337325178085
1761479838453284000,1.0302841796875,-0.12839140211343764,0.0038727863127365706,-0.001526551980152726
1761479838463320000,1.040320068359375,-0.1188122573852539,-0.0021924685429781676,-0.012339695482701063
1761479838473356000,1.05035595703125,-0.13437515269815922,-0.00885223695943132,-0.0004136040358804166
1761479838483391000,1.060390869140625,-0.1340799691438675,-0.007409563870448619,0.0002887720798142254
1761479838493427000,1.070427001953125,-0.12390402756631373,-0.012332626421097665,-0.011714165729191154
1761479838503463000,1.080462890625,-0.12914835796058177,-0.007583787926193326,-0.012554982201196253
1761479838513499100,1.0904990234375,-0.13289163614213464,-0.00625206439839676,0.0009096804571337997
1761479838523535000,1.10053515625,-0.12601064445674418,-0.0002631261819042265,-0.0021544746201485393
1761479838533571000,1.110571044921875,-0.13543956705927848,-0.0020838570693507787,-0.002319072331022471
1761479838543607000,1.12060693359375,-0.1376870537251234,-0.0028942053378559645,-0.00016297200936824083
1761479838553642000,1.13064208984375,-0.12871230463087557,-0.0026977877166122198,0.0012748422414064406
1761479838563678000,1.140677978515625,-0.129008072707057,-0.012171097450144589,0.00024228432327508926
1761479838573714000,1.1507138671875,-0.13245090663731096,-0.004795618512388318,0.0008499678928405046
1761479838583750000,1.16075,-0.13095745320916174,-0.0006281966346316039,0.001815543255675584
1761479838593786000,1.1707861328125,-0.1329033265799284,0.0019038608599454164,-0.005027034381777048
1761479838603822000,1.180822021484375,-0.1341015964537859,-0.000910849500913173,-0.0057596229726448655
1761479838613858000,1.190858154296875,-0.12991349711418151,-0.002755929378326982,-0.001577460183482617
1761479838623894000,1.20089404296875,-0.12302899829745292,0.001321640525199473,0.007123020280338823
1761479838633929000,1.210928955078125,-0.1239320846170187,-0.007380739634763449,-0.0034958610254339872
1761479838643965000,1.22096484375,-0.12184066529572009,-0.007155187250580638,0.003327683117985725
1761479838654001000,1.2310009765625,-0.13096972816884517,-0.01144903025329113,-0.003984247330576181
1761479838664036900,1.241036865234375,-0.1348626439541578,-0.008564359928760677,-0.009871204743627458
1761479838674073000,1.251072998046875,-0.1275315704137087,-0.006753785109147429,0.003487184528633952
1761479838684109000,1.261109130859375,-0.1266366674005985,-0.008844126718211918,0.001259553340729326
1761479838694145000,1.27114501953125,-0.14100304640531539,-0.002256893815007061,-0.008269578233268111
1761479838704181000,1.281180908203125,-0.13098083408474923,0.005707216931972652,-0.007821797933150082
1761479838714216000,1.2912158203125,-0.12709200995266437,-0.009012523821368813,-0.00753817695248872
1761479838724252000,1.301251953125,-0.1278401979714632,0.007662022527866065,0.0018122005211189387
1761479838734288000,1.311287841796875,-0.1290384678453207,0.0037568683154880996,-0.002308094279281795
1761479838744324000,1.321323974609375,-0.13367547999620435,-0.006767904966045171,-0.0017193528722040355
1761479838754360000,1.331360107421875,-0.12858780146837234,0.0008340214050374925,-0.005726232159696519
1761479838764396000,1.34139599609375,-0.13217851943671702,-0.0036829445627517996,-0.007364537418633699
1761479838774432000,1.351431884765625,-0.12544541178941726,-0.002768861925136298,-0.0040896804664283986
1761479838784468000,1.361468017578125,-0.12080606155097484,-0.0015778437759727238,-0.002741224999539554
1761479838794503000,1.3715029296875,-0.13277531628608702,-0.0035606150910258293,-0.0010130495000630617
1761479838804539000,1.381538818359375,-0.1303764384508133,0.002039086345862597,0.00005271656792610883
1761479838814574800,1.391574951171875,-0.12304594943225383,-0.0003345109176822007,-0.005869092962797731
1761479838824611000,1.401611083984375,-0.13561609266996383,-0.0012003704993985593,-0.006484064789675175
1761479838834647000,1.41164697265625,-0.13127660216093062,-0.012541611262969671,0.0005064882174134254
1761479838844683300,1.421683349609375,-0.1297790570795536,-0.008628036282118409,-0.002403133885283023
1761479838854719200,1.43171923828125,-0.13052724509835242,-0.01009825496515259,-0.0005000402103178203
1761479838864754000,1.44175390625,-0.12304536491036415,-0.005686594269052147,-0.004945128251984715
1761479838874790000,1.451789794921875,-0.12947919735014438,-0.004335745915677398,-0.003917794498242437
1761479838884825900,1.461825927734375,-0.12992460303008554,-0.000510926930513233,0.005670921775884926
1761479838894861800,1.47186181640625,-0.1484802504181862,0.0025118549567647278,0.0008997070523910224
1761479838904898000,1.48189794921875,-0.13785890316069124,-0.005669314340688288,-0.003646978200227022
1761479838914934300,1.491934326171875,-0.12738543994128704,-0.007671447943337261,-0.0011189575599506497
1761479838924970200,1.50197021484375,-0.13336743696033954,-0.0020477811089716852,0.0005663469121791422
1761479838935006200,1.512006103515625,-0.12633563862740993,0.0003946618733927607,-0.009464980296604334
1761479838945042200,1.522042236328125,-0.13621172047555447,0.003838847510516643,-0.002579933490604162
1761479838955077000,1.5320771484375,-0.1396522163182497,-0.003133512252755463,0.0019580935315228996
1761479838965113000,1.542113037109375,-0.14458967272043227,-0.010069248066376895,-0.010120028405543416
1761479838975149000,1.552149169921875,-0.12528934444487094,-0.012254720612987876,-0.008257832996547221
1761479838985185000,1.56218505859375,-0.13651158020496368,-0.012972330830432473,-0.0029170564904808997
1761479838995221200,1.57222119140625,-0.12648702979683876,-0.003373951678816229,-0.004380279177147895
1761479839005257200,1.58225732421875,-0.12888298502266407,-0.008331501020956785,-0.0012914280500262974
1761479839015293200,1.592293212890625,-0.13172902210354803,-0.008567775728553533,0.002695047770254314
1761479839025329200,1.6023291015625,-0.13995850578844546,-0.017761501335725186,-0.001600311336107552
1761479839035364000,1.612364013671875,-0.13861527448594568,-0.011195530416257678,0.0002836757795885205
1761479839045400000,1.622400146484375,-0.13113573238551615,-0.011337971094250679,-0.0025991496477276083
1761479839055436000,1.63243603515625,-0.13398001590073108,-0.0019667700283229348,-0.0015724004158750176
1761479839065472000,1.642471923828125,-0.13308394384384153,-0.009531086069066077,0.0035344577364623546
1761479839075508200,1.65250830078125,-0.13937164581120012,-0.010512114729359746,-0.00550615966822952
1761479839085544200,1.662544189453125,-0.1377215405166149,-0.0031763832801021633,-0.0004778649111278355
1761479839095580200,1.672580078125,-0.12575170125961302,0.0029634346491657195,-0.0026332345804199577
1761479839105616100,1.6826162109375,-0.13009411437809468,-0.003992047044541687,-0.0015422244733199477
1761479839115651000,1.692651123046875,-0.1461094296336174,-0.00762695121448487,0.0008332176874391734
1761479839125687000,1.70268701171875,-0.13488719387352466,-0.005625913590379059,0.001201192483305931
1761479839135723000,1.712722900390625,-0.13848200349509715,0.001798281593620777,0.0020233590537682175
1761479839145759200,1.72275927734375,-0.12740706725120543,0.0018184475988149641,-0.002566800014395267
1761479839155795200,1.732795166015625,-0.13085165474712848,-0.004725311488844454,-0.0007012436045333743
1761479839165831200,1.7428310546875,-0.13908406104147433,-0.006228080734610557,-0.005984992693737149
1761479839175867100,1.7528671875,-0.13878770844340324,0.0011288578994572162,-0.004060746632888913
1761479839185902000,1.762902099609375,-0.13833879563212395,-0.0071921947927214205,0.0060573272775858635
1761479839195938000,1.77293798828125,-0.1347463240981102,-0.017426771222334353,0.0028986075183376667
1761479839205974000,1.78297412109375,-0.13055237953960894,-0.007966211372520774,-0.011841609767451881
1761479839216010000,1.793010009765625,-0.13548808237612248,-0.003672258771955967,-0.003244991536904126
1761479839226046200,1.803046142578125,-0.1260568216860294,-0.0017329612724483012,-0.00012963599534705281
1761479839236082200,1.813082275390625,-0.1312953068614006,-0.004421013046335429,0.0020017682764679194
1761479839246118100,1.8231181640625,-0.12710545395612716,-0.015659743283502756,0.004272051296010613
1761479839256154000,1.833154052734375,-0.13982698836326599,0.00017183116925880313,-0.0048251551341265434
1761479839266190000,1.843190185546875,-0.13429156606793402,-0.002623389039840549,-0.007203775632660836
1761479839276225000,1.85322509765625,-0.13937632198631764,-0.0007448452842421829,-0.0046078591216355555
1761479839286261000,1.863260986328125,-0.1312988139927387,-0.00553498390391469,-0.0025281485044397413
1761479839296297000,1.873296875,-0.12695756991803644,-0.0035633915700018404,0.0034616847611963746
1761479839306333200,1.883333251953125,-0.13309212715029717,-0.011833389928378164,-0.002945259671658277
1761479839316369200,1.893369140625,-0.13683482080996034,-0.007059490057453513,0.0018082732646726072
1761479839326405000,1.903405029296875,-0.138780694180727,0.00022825579792261122,-0.004216923575289547
1761479839336441000,1.913441162109375,-0.13698387389183045,-0.004339709704741835,-0.0039111272954382
1761479839346476000,1.92347607421875,-0.14117898749411106,0.003943312531989067,-0.0035064006857573986
1761479839356512000,1.933511962890625,-0.13938450529277324,-0.005960095714498311,-0.0007099383676424622
1761479839366548000,1.9435478515625,-0.13070318618714807,-0.0036468686023727057,-0.0064386547453701495
1761479839376584000,1.953583984375,-0.13773615356385707,-0.004026332906633615,-0.002147423824854195
1761479839386621000,1.963620849609375,-0.13339900114238262,-0.011185502212587742,-0.002056238410063088
1761479839396657000,1.973656982421875,-0.1357961254119873,0.00046482276646420356,-0.002187207845970988
1761479839406692900,1.98369287109375,-0.1298094522178173,-0.004679901444539427,0.00003386573698371649
1761479839416729000,1.99372900390625,-0.14043313756287096,-0.008781948202196507,-0.0005773797628469765
1761479839426765000,2.00376513671875,-0.1347498312294483,-0.004358140410576016,-0.004533880569972098
1761479839436800000,2.013800048828125,-0.13295768711566924,-0.0004910714525729417,0.0031255481420084832
1761479839446836000,2.0238359375,-0.14074293416440486,-0.00444998341249302,-0.0010801964521408081
1761479839456872000,2.033871826171875,-0.13445581671893597,-0.003322367622051388,-0.009054262337554245
1761479839466908000,2.043907958984375,-0.13520400473773478,0.0010402297679334878,-0.0008544066059403121
1761479839476944000,2.05394384765625,-0.13789806612730027,-0.0010344210816547275,-0.002483085520006716
1761479839486979800,2.063979736328125,-0.1368552790760994,-0.011821772555820642,-0.003741378485411405
1761479839497016000,2.07401611328125,-0.13685235646665095,-0.010168890782259405,0.0003217427676543593
1761479839507051000,2.084051025390625,-0.13191197745501995,-0.0011051116976886987,0.0022164704730734228
1761479839517087000,2.0940869140625,-0.14926993949115275,-0.00039181232918053863,0.0014869140895083545
1761479839527123000,2.104123046875,-0.14223755663633345,-0.002653619781322777,-0.0018873298502527177
1761479839537159000,2.114158935546875,-0.14104396293759344,-0.005280826479755342,-0.002505808808468282
1761479839547195000,2.12419482421875,-0.13056582354307175,-0.013757544657681137,-0.0005047346517443657
1761479839557230800,2.13423095703125,-0.13924129742980002,-0.00377995693013072,-0.005300901153404265
1761479839567266800,2.144266845703125,-0.1414911221832037,-0.0037190753220580517,0.0022612594628706574
1761479839577303000,2.154302978515625,-0.13565408659279346,-0.0024109701318666336,0.0024177469325251874
1761479839587339000,2.164339111328125,-0.1398392633229494,-0.005137015828583389,0.0008379851941019296
1761479839597374000,2.1743740234375,-0.13819091159403324,-0.013153770078253,0.001553805313259363
1761479839607410000,2.184409912109375,-0.13400222773253917,-0.005499236737098545,0.001600183471944183
1761479839617446000,2.19444580078125,-0.13864800771176813,-0.00038419527830556034,-0.0015339315690100193
1761479839627481900,2.20448193359375,-0.1444832897365093,-0.003415964189637452,-0.0006239040520042181
1761479839637517800,2.214517822265625,-0.13714754002094268,-0.006673559479787945,-0.002012435800954699
1761479839647554000,2.224553955078125,-0.1363970139145851,-0.002455211132392287,0.0015921280296519397
1761479839657590000,2.234590087890625,-0.14222937332987784,-0.0009806085351854563,-0.0005138312736526131
1761479839667625000,2.244625,-0.13744155453145504,-0.006454546434246003,0.002566288557741791
1761479839677661000,2.254660888671875,-0.14028466900289058,-0.0037264731772243976,-0.001508066475391388
1761479839687697000,2.26469677734375,-0.13115852873921394,0.002143770563043654,-0.004603000283427536
1761479839697732900,2.27473291015625,-0.1452250480145216,-0.0027596922379918396,-0.006997311541438103
1761479839707768800,2.284768798828125,-0.1314607265561819,0.0013698270484805107,-0.0013009082644246518
1761479839717804800,2.2948046875,-0.13310615567564962,-0.008464424951933324,0.005699691212642938
1761479839727841000,2.304841064453125,-0.13220833005309104,-0.0023855434296652673,0.0014202603277750313
1761479839737877200,2.314877197265625,-0.13774258330464362,-0.002418112258706242,-0.000003872457519173622
1761479839747912000,2.324911865234375,-0.13579729445576666,0.008058090907055884,-0.004504818872269243
1761479839757948000,2.334947998046875,-0.135796709933877,-0.0065394299724139265,-0.0029476708244532343
1761479839767983900,2.34498388671875,-0.13669512007832527,-0.008642722394596784,0.0007029606375843286
1761479839778019800,2.355019775390625,-0.13819324968159197,-0.001790408814419061,0.00037190205231308937
1761479839788055800,2.365055908203125,-0.1360971541851759,0.00018364947121590376,-0.007601414914429188
1761479839798092000,2.375092041015625,-0.1419341897755861,-0.0006772599407471716,-0.008479878249391913
1761479839808128000,2.3851279296875,-0.1313081663429737,-0.006903112185653299,-0.00025943638747558
1761479839818164200,2.395164306640625,-0.13564648780822752,0.003963113211002201,-0.004147913459688425
1761479839828199000,2.405198974609375,-0.14088088133037088,-0.0028079335602000355,-0.008450798285380005
1761479839838235000,2.41523486328125,-0.13055296406149863,0.0037736002545803783,0.0009658858900889754
1761479839848270800,2.425270751953125,-0.13863105657696723,0.005898538252990693,-0.0018812106367200611
1761479839858307000,2.43530712890625,-0.14102818084657193,0.0023580161019228396,0.00014879735354334116
1761479839868343000,2.445343017578125,-0.13578911114931105,-0.013499624373856932,0.0012520641540177165
1761479839878379000,2.45537890625,-0.14716098451316356,-0.0062268203592859206,0.001738934355508536
1761479839888415000,2.4654150390625,-0.14626315889060496,-0.008377002396807075,0.006726897102221846
1761479839898451200,2.475451171875,-0.1414741710484028,-0.0013531133756972849,-0.00211438007177785
1761479839908486100,2.485486083984375,-0.1414730020046234,-0.009383183764666318,0.007490063494443893
1761479839918522000,2.495522216796875,-0.14386837270855904,-0.007340115363430232,0.00025960078425705434
1761479839928558000,2.50555810546875,-0.14161913247704505,-0.0035717575395479797,-0.003593403115775436
1761479839938594000,2.515593994140625,-0.1392243462949991,-0.005382496755942702,-0.00032371552903205154
1761479839948630000,2.525630126953125,-0.13548749785423278,0.002505680944304913,0.007105923015065491
1761479839958666000,2.535666015625,-0.13264847503602503,-0.013360362033639103,-0.0003210486479103565
1761479839968702000,2.545701904296875,-0.1378869602113962,-0.004636829487793147,-0.0027048385119065642
1761479839978738200,2.55573828125,-0.13833411945700644,-0.007013422426022589,0.0006518515048548578
1761479839988773000,2.565773193359375,-0.13922785342633723,-0.004988236741349101,-0.003694982060417533
1761479839998809000,2.57580908203125,-0.13503566243350504,-0.004579856869857758,-0.0010835026540793478
1761479840008845000,2.585844970703125,-0.14371522797346115,0.0030455234420485792,-0.00028203181177377697
1761479840018881000,2.595881103515625,-0.13952771315574644,-0.006175875623337924,-0.0017185126219876109
1761479840028917000,2.6059169921875,-0.12935352514386175,-0.009654274057317525,0.003292502206750214
1761479840038953000,2.615952880859375,-0.13937924459576606,-0.011326445053238422,-0.0033923641183413564
1761479840048989200,2.6259892578125,-0.1347422324448824,-0.006702438514400273,0.000007343056239187717
1761479840059024100,2.636024169921875,-0.14282617017924784,-0.0007325337919406593,-0.002069499750435352
1761479840069060000,2.64606005859375,-0.1350467683494091,-0.008550897658988832,-0.0028056685378775
1761479840079096000,2.656095947265625,-0.13908172295391558,-0.009688176326919347,-0.005976370995864272
1761479840089132000,2.666132080078125,-0.14745909067690371,-0.0015569288521073757,-0.0022640359418466685
1761479840099168000,2.67616796875,-0.13264379886090755,-0.002037241448648274,-0.002730977600160986
1761479840109204000,2.686203857421875,-0.1333943249672651,-0.007900617056712508,-0.006499335424043238
1761479840119240000,2.696239990234375,-0.14012918618023396,0.006334518517460674,-0.005558857969846576
1761479840129276200,2.706276123046875,-0.14416940148174762,-0.004450988059490919,-0.0013662468519061804
1761479840139311000,2.71631103515625,-0.14596329916119574,0.00047835810147225856,0.00320559110827744
1761479840149347000,2.72634716796875,-0.14027531665265558,0.0027543950083665546,0.0017069865809753535
1761479840159383000,2.736383056640625,-0.14566110134422777,0.001060706300381571,-0.0036985257243737574
1761479840169419000,2.7464189453125,-0.12979893082380295,-0.0010889277478680014,-0.004703318852744996
1761479840179455000,2.756455078125,-0.1311427466481924,-0.005004110163915902,0.008634374691359699
1761479840189491000,2.766490966796875,-0.13608078757226466,-0.006586666647624224,-0.0059577210943214595
1761479840199527000,2.77652685546875,-0.1344359429746866,0.005844159450940787,-0.00007200579028576612
1761479840209562000,2.78656201171875,-0.13129238425195217,-0.00011498641548678278,-0.00017141104415059087
1761479840219598000,2.79659814453125,-0.1374257724404335,-0.010357052031811326,0.0038551775908097622
1761479840229634000,2.806634033203125,-0.13876783469915388,-0.0008988485358655452,-0.005845803418755531
1761479840239670000,2.816669921875,-0.1454980197370052,-0.004087506775651127,-0.0032934520548209547
1761479840249706000,2.8267060546875,-0.1428057119131088,0.0006027516661211848,-0.00164897278342396
1761479840259742000,2.836741943359375,-0.13980945270657538,-0.00016052432395517824,-0.003769216340407729
1761479840269778000,2.84677783203125,-0.13277473176419735,-0.005696768603194504,-0.0011805515540763735
1761479840279814000,2.85681396484375,-0.13531915555000304,-0.004125884290970862,0.000871047213487327
1761479840289849000,2.86684912109375,-0.1433990016311407,-0.00007854512892663478,-0.0074256016897968945
1761479840299885000,2.876885009765625,-0.14653963774442672,-0.0038730237747542557,-0.003547536413744092
1761479840309921000,2.886921142578125,-0.1416039349079132,-0.007244125909358263,-0.004554813760146498
1761479840319957000,2.89695703125,-0.13591712144315243,0.0008088504311628639,-0.01115097888847813
1761479840329993000,2.906992919921875,-0.1442968272536993,-0.0002484948683530092,0.0027888270009309053
1761479840340029000,2.91702880859375,-0.13741466652452944,-0.007251615096069872,-0.006471040911320596
1761479840350065000,2.92706494140625,-0.1374175891339779,-0.0036196518018841743,-0.005035035025142133
1761479840360100000,2.93710009765625,-0.14145897347927092,-0.0035869185760617254,0.0074024582762271165
1761479840370136000,2.947135986328125,-0.14160744203925132,-0.0022445092574693262,-0.0012873363967984915
1761479840380172000,2.957172119140625,-0.13636895686388015,-0.006559541178680956,-0.00570321661029011
1761479840390207500,2.96720751953125,-0.14355039280056953,-0.0031396679989062247,-0.005426043636724352
1761479840400243500,2.977243408203125,-0.1329249538898468,-0.0015327807915396987,0.00009133154526352882
1761479840410279400,2.987279541015625,-0.14399930561184882,-0.004695537405088544,-0.006133570851571858
1761479840420315400,2.9973154296875,-0.14055647168159485,-0.0015787936240434645,0.0014472396662458776
1761479840430351600,3.0073515625,-0.140257780995965,-0.00038583924612030384,-0.0009191241389140487
1761479840440386600,3.017386474609375,-0.14369769231677054,-0.00030941300904378295,-0.0055505102666094895
1761479840450422500,3.027422607421875,-0.13531623294055461,-0.0028889263745397326,0.003971113854367285
1761479840460458500,3.03745849609375,-0.13367138834297657,-0.0005205350090749561,-0.0019369228793308137
1761479840470494500,3.047494384765625,-0.12933248235583306,0.0002637655027210712,0.004946078100055456
1761479840480530400,3.057530517578125,-0.14399346039295197,-0.004850435705855489,-0.00013361805072054265
1761479840490566400,3.06756640625,-0.13875614426136015,-0.0035095607572235166,-0.0031352658184245225
1761479840500602400,3.077602294921875,-0.1399526605695486,-0.009372680636961013,-0.0019304931385442613
1761479840510637600,3.087637451171875,-0.13890870447456835,-0.008168382881116121,0.00334432372553274
1761479840520673500,3.097673583984375,-0.14220482341051102,-0.006321019715070724,0.0035234614184126256
1761479840530709500,3.10770947265625,-0.13891338064968586,-0.00786039464417845,-0.0009060819942504167
1761479840540745500,3.117745361328125,-0.15043372257351875,0.006441102430783212,-0.000045044718123972415
1761479840550781400,3.127781494140625,-0.1366670630276203,0.00003784779235720634,0.0016960633281618356
1761479840560817400,3.1378173828125,-0.13995850578844546,-0.0004572970471344888,-0.003974237393215298
1761479840570853400,3.147853271484375,-0.14893383940458296,-0.0009434548625722527,0.00029752164185047145
1761479840580889300,3.157889404296875,-0.13785714959502218,-0.002574965054541826,-0.007387004978768527
1761479840590924500,3.167924560546875,-0.15117372728586195,-0.0023315664864145217,-0.005878518378268927
1761479840600960500,3.17796044921875,-0.14129706091582775,0.0006161956695839762,0.004903554132580757
1761479840610996500,3.18799658203125,-0.1255880351305008,-0.005650500042364001,-0.0015296755190007387
1761479840621032400,3.198032470703125,-0.14099953927397726,-0.0028719204408116637,-0.002423683482967317
1761479840631068400,3.208068359375,-0.14145020565092561,-0.0002570800336077809,-0.001523958164267242
1761479840641104400,3.2181044921875,-0.1489326703608036,-0.010233991907723247,-0.0024448724014684555
1761479840651140400,3.228140380859375,-0.1418997029840946,-0.010580284594744443,0.006154759770072996
1761479840661175600,3.238175537109375,-0.1408598385423422,-0.004537351168692112,0.0017047215586528182
1761479840671211500,3.24821142578125,-0.14175883320868016,0.002447210489027202,0.0015372925698757171
1761479840681247500,3.25824755859375,-0.14624562323391438,-0.004630326681770384,-0.0031668300004675984
1761479840691283500,3.268283447265625,-0.14818506686389446,-0.007467011412419378,-0.006019552550464868
1761479840701319400,3.2783193359375,-0.13756313508450985,-0.010028258468862622,-0.007711085833981632
1761479840711355400,3.28835546875,-0.1457955413788557,-0.0009609539866447448,-0.005598788121435791
1761479840721391400,3.298391357421875,-0.13920973324775696,-0.003439016271661967,-0.006809095492959022
1761479840731426600,3.308426513671875,-0.14519640644192694,0.0030136669990606605,-0.0036416809706017374
1761479840741462500,3.318462646484375,-0.14309914190173148,-0.003600526976305991,0.0018142098151147363
1761479840751498500,3.32849853515625,-0.14369593875110148,0.0012440635106526314,0.0008104761326685547
1761479840761534500,3.338534423828125,-0.14055062646269798,-0.0035622042599134144,0.002197199517022818
1761479840771570400,3.3485703125,-0.14114917687773704,-0.013003785414621234,-0.00002887903461232781
1761479840781606400,3.3586064453125,-0.13202011400461197,-0.010120612927433104,-0.005966982113011181
1761479840791642400,3.368642333984375,-0.13501871129870413,-0.009301423765346407,0.005804612891841679
1761479840801677600,3.378677490234375,-0.14489596219062803,-0.0018840601809322834,0.0021671331723220645
1761479840811713500,3.388713623046875,-0.14594108732938765,-0.004210603432357311,-0.004475574511475861
1761479840821749500,3.39874951171875,-0.13411620950102807,-0.006954349182546138,-0.009710260294564068
1761479840831785500,3.408785400390625,-0.13905366590321064,-0.004119746811129152,-0.00043212607325986027
1761479840841821400,3.418821533203125,-0.14205109415352343,-0.00285960894851014,-0.001779047170188278
1761479840851857400,3.428857421875,-0.13771160364449023,-0.0031390469443984327,-0.00342884193751961
1761479840861893400,3.438893310546875,-0.13771218816637992,-0.002183006594888866,-0.0043862522602081296
1761479840871929300,3.448929443359375,-0.14294482812285422,0.0028291042123921215,-0.003180420134402811
1761479840881964500,3.458964599609375,-0.13710428540110586,-0.006260759161505848,-0.003771006438694894
1761479840892000500,3.46900048828125,-0.14638006326854228,-0.01399115248415619,-0.004049202325567603
1761479840902036500,3.479036376953125,-0.13830080170929432,0.002668981747236103,-0.003735003543552011
1761479840912072400,3.489072509765625,-0.1360527305215597,-0.0020651341025717555,0.008442742843087762
1761479840922108400,3.4991083984375,-0.14397943186759948,-0.0062480092777870595,-0.0010459653889760374
1761479840932144400,3.509144287109375,-0.1465232711315155,0.0010950286950916052,0.00014980200054123997
1761479840942180400,3.519180419921875,-0.142331664660573,0.003015256167948246,-0.0021554062019102276
1761479840952215600,3.529215576171875,-0.13813947366774082,-0.009653853932209312,-0.003978986633569002
1761479840962251500,3.53925146484375,-0.14442600659132002,0.004345134798530489,-0.0012778744487091898
1761479840972287500,3.54928759765625,-0.14741817414462566,-0.0011180990434251725,-0.005701700506638735
1761479840982323500,3.559323486328125,-0.14143150095045565,-0.012478391567338258,-0.013387560567818582
1761479840992359400,3.569359375,-0.1347065766096115,-0.01222100100647658,-0.005716879809461534
1761479841002395600,3.579395751953125,-0.13395955763459205,-0.007058284481056034,-0.0018596929246559738
1761479841012431600,3.589431640625,-0.1421925484508276,-0.0023153277376666663,-0.005119169644638896
1761479841022466300,3.59946630859375,-0.14413842182159423,-0.005128631592728197,0.00011869447622448205
1761479841032502500,3.60950244140625,-0.1308212596088648,-0.01276436890186742,-0.0070211308084428305
1761479841042538500,3.61953857421875,-0.1389016902118921,-0.008488609545119105,-0.008132069458719342
1761479841052574500,3.629574462890625,-0.13516659533679484,-0.0013183525895699858,-0.008427636605501174
1761479841062610700,3.639610595703125,-0.1327718091547489,-0.010491364202275871,0.001169774431735277
1761479841072646700,3.649646728515625,-0.13352058169543743,-0.013914452252443879,-0.00015440511042252183
1761479841082682600,3.6596826171875,-0.13890811995267868,0.0005956460718996822,0.001969071583263576
1761479841092717300,3.66971728515625,-0.1416039349079132,-0.01163994971551001,-0.004398417622037232
1761479841102753300,3.679753173828125,-0.13412322376370428,-0.005883815607894211,-0.0021420535299926996
1761479841112789500,3.68978955078125,-0.1350204648643732,-0.010762728489562869,-0.008535115567967296
1761479841122825700,3.69982568359375,-0.14295184238553046,-0.001285875092074275,-0.010480422683153301
1761479841132861700,3.70986181640625,-0.14519640644192694,-0.002310943823494017,-0.00926648031612858
1761479841142897700,3.719897705078125,-0.14235036936104298,-0.0020275968374684453,-0.004466331759095192
1761479841152933600,3.72993359375,-0.13442191444933413,0.00063228828785941,-0.008494619160797447
1761479841162968300,3.73996826171875,-0.13412205471992492,-0.007293225748091936,-0.00239730693269521
1761479841173004500,3.750004638671875,-0.1447457400649786,-0.007484254808165133,0.002802745928429067
1761479841183040500,3.76004052734375,-0.14534078334867953,-0.004691957208514213,-0.008248699842020868
1761479841193076700,3.77007666015625,-0.14803250665068626,-0.0031673231908120212,0.0009549809035845101
1761479841203112700,3.78011279296875,-0.14084814810454846,-0.0031357955413870513,0.0031865576142445203
1761479841213148700,3.790148681640625,-0.13665537258982657,-0.009198255651816725,-0.0028545674472115934
1761479841223184600,3.8001845703125,-0.1399438927412033,0.0028879399938508865,-0.0001378375681117177
1761479841233219600,3.810219482421875,-0.1321615683019161,0.0008734948989003896,-0.002220489061065018
1761479841243255600,3.820255615234375,-0.13799860389232635,-0.004144826453458517,-0.0031304983117617664
1761479841253291500,3.83029150390625,-0.13844693218171597,-0.0010167027618736028,-0.00645688452180475
1761479841263327500,3.840327392578125,-0.1460831261485815,-0.007533354646898805,-0.00012570873890072106
1761479841273363700,3.85036376953125,-0.13950024062693117,0.001830941754207015,-0.003577383562736213
1761479841283399700,3.860399658203125,-0.13904840520620346,-0.008927256690710782,-0.0018227949803695082
1761479841293435600,3.870435546875,-0.1421925484508276,-0.011478365945629775,-0.006958221640065312
1761479841303470600,3.880470703125,-0.13141922550201415,-0.005608213536906987,-0.007720310320053249
1761479841313506600,3.890506591796875,-0.13680793280303477,-0.012012637219112365,0.00042830841466784473
1761479841323542500,3.90054248046875,-0.13800678719878195,-0.0004659187450073659,-0.0068465962254442275
1761479841333578500,3.91057861328125,-0.1276835461050272,-0.005884162667766213,-0.00326351357428357
1761479841343614500,3.920614501953125,-0.13172083879709243,-0.011150321301352233,-0.00155729417828843
1761479841353650700,3.930650634765625,-0.13680559471547601,-0.00943451209310442,-0.005388561170548201
1761479841363686700,3.940686767578125,-0.1435375333189964,-0.008493486649636178,0.0025646993888542055
1761479841373721600,3.9507216796875,-0.14368775544464588,-0.013012023520004003,-0.005323934969119727
1761479841383757600,3.960757568359375,-0.13814648793041706,-0.007900050801131873,-0.0013916918204165995
1761479841393794000,3.9707939453125,-0.13724924682974815,-0.011928173806052654,-0.005999350012652576
1761479841403830000,3.980830078125,-0.14652385565340517,-0.012414258556254207,-0.0061106831663288175
1761479841413866000,3.990865966796875,-0.13140695054233073,-0.004596990667749196,-0.011124364876188337
1761479841423902000,4.00090185546875,-0.13664309763014315,-0.0016387619166634976,-0.006955189432762562
1761479841433938000,4.01093798828125,-0.1406844819754362,-0.00715250210314989,-0.0015362879228778183
1761479841443972000,4.02097216796875,-0.14457447515130042,-0.014048855754453688,0.00009829100901260972
1761479841454008000,4.031008056640625,-0.1426321089118719,-0.00024875059667974706,0.007391662887576967
1761479841464044000,4.0410439453125,-0.13709259496331214,-0.00411156350467354,-0.0029323453911580142
1761479841474080000,4.051080078125,-0.13170622574985028,-0.00796151693109423,0.0006345533101819455
1761479841484116000,4.061115966796875,-0.14666881708204746,-0.006097549690119922,-0.005003105516918003
1761479841494152200,4.071152099609375,-0.14188099828362463,-0.00041093715475872157,-0.0027522395838983356
1761479841504188200,4.081188232421875,-0.1436772340506315,-0.0015558694061823188,0.0036804055457934737
1761479841514223000,4.09122314453125,-0.13259995971918107,0.0027396906295791266,0.0018238909589126705
1761479841524259000,4.101259033203125,-0.13574118035435676,-0.007481916720606386,-0.004596296548005193
1761479841534295000,4.111294921875,-0.14337328266799448,-0.002074979643151164,-0.007150693738553673
1761479841544331000,4.1213310546875,-0.1405313372403383,0.008321436284668743,-0.0008931311811320483
1761479841554367000,4.131366943359375,-0.1430716693729162,-0.00241884291106835,-0.00407490302240476
1761479841564403000,4.14140283203125,-0.1456125860273838,-0.0075670742534101,-0.002539272686652839
1761479841574439200,4.151439208984375,-0.13648527671992777,-0.004421725432388484,0.000662153703160584
1761479841584474000,4.16147412109375,-0.13843115009069443,-0.006865154795441776,-0.0010662409920245408
1761479841594510000,4.171510009765625,-0.13648586124181747,-0.001055865728482604,-0.007742686548642814
1761479841604546000,4.181546142578125,-0.1376829620718956,-0.011207878441177307,-0.0010643778285011648
1761479841614582000,4.19158203125,-0.14351707505285738,-0.0069436268591322,0.005686685600597411
1761479841624618000,4.201617919921875,-0.1411246269583702,0.005124156347010285,-0.004337663878127933
1761479841634654000,4.211654052734375,-0.136335639116168,-0.0003668240183964371,-0.0014282975037582218
1761479841644689200,4.221689208984375,-0.13409282862544059,-0.0141994797389023,-0.006672134707681835
1761479841654725000,4.23172509765625,-0.13184943361282347,-0.0009262662657536565,0.00019590616459026932
1761479841664761000,4.241760986328125,-0.1313999362796545,-0.0016726459199562667,-0.00015917261708527802
1761479841674797000,4.251797119140625,-0.14501871178746223,-0.0034610271740704774,-0.007960073892679064
1761479841684833000,4.2618330078125,-0.13798691345453262,0.0016543613445945083,-0.004446458014845848
1761479841694869000,4.271868896484375,-0.1459177064538002,-0.0022305720636621117,-0.003416676575690508
1761479841704905000,4.281905029296875,-0.1299047292858362,-0.004600077673979104,-0.0038303354104980824
1761479841714940200,4.291940185546875,-0.13274784375727175,-0.008215199431218206,-0.004260653119161724
1761479841724976000,4.30197607421875,-0.1456166776806116,-0.007442753753997385,-0.0026331067162565884
1761479841735012000,4.31201220703125,-0.1318523562222719,-0.005700951587967574,-0.00830548979686573
1761479841745048000,4.322048095703125,-0.1475637200951576,-0.011884279865399002,-0.004694039567746222
1761479841755084000,4.332083984375,-0.13424480431675911,-0.007045753793045878,0.001932685095630586
1761479841765120000,4.3421201171875,-0.1385883864790201,-0.006479388614557683,-0.000513283284381032
1761479841775156000,4.352156005859375,-0.14292729246616362,-0.005332209607120603,0.00281808962803334
1761479841785191200,4.362191162109375,-0.14532324769198893,-0.0007346526837907732,-0.0049585539891384535
1761479841795227100,4.37222705078125,-0.1418827518492937,-0.005513959382195025,-0.00639498000042513
1761479841805263000,4.38226318359375,-0.13111118246614933,-0.005399740151688456,-0.0008521598499268293
1761479841815299000,4.392299072265625,-0.13963760327100752,-0.009377009752206504,0.0019295067578554152
1761479841825335000,4.4023349609375,-0.1376917299002409,-0.007864632427878677,-0.0033619872463867065
1761479841835371300,4.412371337890625,-0.1399345403909683,-0.002841196508985013,0.004275704557821155
1761479841845407200,4.4224072265625,-0.14442133041620253,-0.0016756415946409106,-0.0016497765010222792
1761479841855442000,4.43244189453125,-0.13678630549311638,-0.009573007248342036,0.0005357691108249128
1761479841865478100,4.44247802734375,-0.1355874510973692,-0.017842220155429096,0.0036240357160568235
1761479841875514000,4.45251416015625,-0.131844757437706,-0.00024513386748731134,-0.0008724354529753327
1761479841885550000,4.462550048828125,-0.13813012131750582,-0.006779138746112585,-0.00012095949854701757
1761479841895586300,4.47258642578125,-0.13394494458734987,-0.005783661435358226,-0.004903828127216547
1761479841905622300,4.482622314453125,-0.13963643422722816,-0.00293082928750664,0.008233630137052387
1761479841915658200,4.492658203125,-0.13110825985670088,-0.008435856444574893,0.003049012307077646
1761479841925693000,4.50269287109375,-0.13080898464918136,-0.001903130207583308,0.0033797603650949893
1761479841935729200,4.512729248046875,-0.12766717949211598,-0.009007025662343949,-0.0016101568766869604
1761479841945765000,4.52276513671875,-0.13200725452303885,-0.003291954217478633,0.0010831190615892409
1761479841955801300,4.53280126953125,-0.1306599315673113,-0.006057747402694076,-0.009319489144999533
1761479841965837300,4.54283740234375,-0.14412439329624174,-0.008929430381488055,-0.0021149828599765896
1761479841975873300,4.552873291015625,-0.14487375035881994,-0.004233509383909404,-0.000030194208864122628
1761479841985908000,4.562907958984375,-0.140384622246027,0.007483871215675026,-0.0030737631558440622
1761479841995944000,4.57294384765625,-0.1293126086115837,-0.010205350335128606,0.001344162884261459
1761479842005980200,4.582980224609375,-0.13664309763014315,-0.008296521039120852,0.0039841742653399705
1761479842016017200,4.59301708984375,-0.13514905968010424,-0.01128903565229848,0.005908876983914524
1761479842026053000,4.60305322265625,-0.1335001234292984,-0.010777104074787347,-0.00506539363078773
1761479842036089000,4.613089111328125,-0.13574702557325363,-0.007043543569650501,-0.0020910357288084925
1761479842046125000,4.623125,-0.1378390294164419,-0.006211257463973015,0.004697638030629604
1761479842056161300,4.633161376953125,-0.1411333947867155,-0.00017453458299860358,-0.0010622041377238928
1761479842066197200,4.643197265625,-0.14637246448397637,0.00463799853157252,-0.0047498796745203435
1761479842076233200,4.653233154296875,-0.1348538761258125,-0.008863726467825472,-0.0007948584384284913
1761479842086268200,4.66326806640625,-0.1320095926105976,-0.009452540940139443,-0.0005786036055535077
1761479842096304000,4.67330419921875,-0.13470423852205277,-0.009537899402342736,0.0011980141455307603
1761479842106340000,4.683340087890625,-0.13365911338329314,-0.01417591620022431,-0.0016458492445759474
1761479842116376000,4.6933759765625,-0.12887129458487034,0.00020679288478568194,0.0016535941596142946
1761479842126412000,4.703412109375,-0.1285714348554611,-0.0022779548693448305,0.0028890177060849963
1761479842136448300,4.7134482421875,-0.13725216943919658,-0.014067724851705134,0.0008638137551024556
1761479842146484200,4.723484130859375,-0.13067045296132565,-0.019113683129660785,0.002297645950503647
1761479842156519200,4.733519287109375,-0.13276654845774172,-0.014498554017022252,-0.0007601341849192976
1761479842166555100,4.74355517578125,-0.13830197075307368,-0.007789009908400476,-0.0009457016185857355
1761479842176591000,4.753591064453125,-0.13471242182850837,-0.01155908476533368,0.0029273586887866255
1761479842186627000,4.763626953125,-0.12723112616240978,-0.008117913069203496,-0.005118548590131103
1761479842196663000,4.7736630859375,-0.1345621997028589,-0.009623824120126663,0.005141271878592669
1761479842206699000,4.783698974609375,-0.14383797757029532,-0.00040341143542900677,-0.005055822084844112
1761479842216735200,4.7937353515625,-0.13441256209909916,-0.009104841747321188,0.001045435666013509
1761479842226770200,4.803770263671875,-0.13576222314238548,-0.012818309312500059,-0.0053830264789052305
1761479842236806100,4.81380615234375,-0.13621113595366477,-0.0036660116942599415,-0.004951192666590214
1761479842246842000,4.823842041015625,-0.13112404194772243,-0.002007430832274258,-0.0005702559023164212
1761479842256878000,4.833878173828125,-0.12005670448839664,-0.0022528021617792544,-0.001531958807632327
1761479842266914000,4.8439140625,-0.13636486521065233,-0.01168112197611481,-0.005213423799350857
1761479842276950000,4.853949951171875,-0.12992869468331336,-0.0063162156757898625,0.0014743103362619876
1761479842286986200,4.863986328125,-0.13246902681589126,-0.0023493944040499626,0.002853033077251166
1761479842297021200,4.874021240234375,-0.1354606098473072,-0.002118617855478078,0.0033151706962846216
1761479842307057200,4.88405712890625,-0.1391992118537426,-0.010355627259705215,-0.002941003621648997
1761479842317093000,4.894093017578125,-0.14533435360789299,-0.007855152213480323,-0.0059008580742403866
1761479842327129000,4.904129150390625,-0.13889935212433338,-0.007012746572587639,-0.0003161898097023368
1761479842337165000,4.9141650390625,-0.14443360537588595,-0.008744648399110882,-0.007085373417381197
1761479842347201000,4.924200927734375,-0.14024199890494346,-0.011312580924667418,-0.001918291244097054
1761479842357237000,4.934237060546875,-0.13395605050325393,-0.00928754137046635,-0.00624382629301399
1761479842367272200,4.944272216796875,-0.1351508132457733,-0.005577124278899282,-0.004367072635702789
1761479842377308200,4.95430810546875,-0.13275661158561705,-0.013978311268892138,-0.0024147147252224386
1761479842387342800,4.9643427734375,-0.1375473529934883,-0.003750164580065757,0.00018657208066433668
1761479842397378800,4.97437890625,-0.1339490362405777,-0.0035736207030713555,0.0002367313653230667
1761479842407415000,4.9844150390625,-0.1457692378938198,-0.010151062864623963,-0.00850640093013644
1761479842417451000,4.994450927734375,-0.13260346685051919,-0.007436488409992307,0.004315671242028475
1761479842427487000,5.004487060546875,-0.13694587996900082,-0.01136829316727817,-0.00008731295727193355
1761479842437522000,5.01452197265625,-0.13245675185620784,-0.0023075097573921084,-0.001063811572920531
1761479842447558000,5.024557861328125,-0.13799568128287792,0.007844502955302595,-0.0012013934127055109
1761479842457593900,5.03459375,-0.1288683719754219,-0.00476160664493218,0.0029035211554728447
1761479842467629800,5.0446298828125,-0.1338046593338251,-0.007003412488661706,-0.0003311499168165028
1761479842477665800,5.054665771484375,-0.13963935683667658,-0.010461827580537646,-0.008909191311057656
1761479842487702000,5.064701904296875,-0.13993863204419613,-0.0058550461711362,0.0027872195657342672
1761479842497738000,5.074738037109375,-0.12527239331007003,-0.00035213790591806174,-0.003999810225889086
1761479842507773000,5.08477294921875,-0.13903963737785816,-0.004733732257317751,-0.004362542591057717
1761479842517809000,5.094808837890625,-0.13559914153516292,-0.003387541812751442,0.0006536598694510757
1761479842527844900,5.104844970703125,-0.14966624533236025,-0.011196315867546946,-0.0004433415870182216
1761479842537880800,5.114880859375,-0.14532792386710644,-0.012852175049483775,0.0033733488906174895
1761479842547916800,5.124916748046875,-0.138898183080554,-0.00021066534230485557,-0.000623410861659795
1761479842557952800,5.134952880859375,-0.13620704430043695,-0.012586107991822063,-0.0005540354198776185
1761479842567989000,5.144989013671875,-0.1399520760476589,-0.00418967024218291,-0.0020229206623509524
1761479842578024000,5.15502392578125,-0.1381575938463211,-0.00042423502774909135,0.005206939259637147
1761479842588060000,5.165059814453125,-0.1424964998334646,-0.005343717381823807,0.007682243331987411
1761479842598096000,5.175095947265625,-0.1411509304434061,-0.012048019059747457,0.005014704623166472
1761479842608131800,5.1851318359375,-0.14369360066354273,-0.013304467127937822,0.0044258718845434485
1761479842618167800,5.195167724609375,-0.14189911846220493,-0.00016874416302889585,0.0018240005567669868
1761479842628203800,5.205203857421875,-0.1356178462356329,-0.00669668462704867,-0.0001574921166524291
1761479842638239700,5.21523974609375,-0.1356207688450813,-0.0058651109074242406,0.001566664794832468
1761479842648275000,5.22527490234375,-0.13771218816637992,-0.008522694477811454,0.003911547420546412
1761479842658311000,5.235310791015625,-0.1423527074486017,-0.005242777757998556,0.003968300842773169
1761479842668347000,5.245346923828125,-0.13471826704740522,-0.006345807096455246,-0.0007466536488384008
1761479842678382800,5.2553828125,-0.13950257871448993,-0.008057561184093356,-0.00015632307287305594
1761479842688418800,5.265418701171875,-0.1412953073501587,-0.005951748011261224,0.00146230937121436
1761479842698454800,5.275454833984375,-0.13097206625640392,-0.011610687088407576,0.0016874964292161166
1761479842708490800,5.28549072265625,-0.1359101071804762,-0.013108451365493237,-0.00009816314484924077
1761479842718526000,5.29552587890625,-0.14579261876940727,-0.010904493314120918,0.004440631062258035
1761479842728562000,5.30556201171875,-0.13846096070706843,-0.002368994153663516,0.0029907975801266727
1761479842738598000,5.315597900390625,-0.1393605398952961,-0.004806304303184151,0.0032463249774649736
1761479842748633900,5.3256337890625,-0.12514613658189772,-0.013026088577974586,-0.0035666064403951166
1761479842758669800,5.335669921875,-0.13711714488267898,-0.014110942938923834,0.006477269722707569
1761479842768705800,5.345705810546875,-0.14115852922797203,-0.00861934151900932,-0.002964695024490356
1761479842778741800,5.35574169921875,-0.14130992039740084,0.0010584778106771408,-0.0029725860700011253
1761479842788777000,5.36577685546875,-0.145354811874032,-0.0027493169744499026,0.002711743176728487
1761479842798813000,5.37581298828125,-0.13398176946640014,-0.0033352271036244927,-0.0012141615627333522
1761479842808849000,5.385848876953125,-0.14146189608871937,-0.008941467879153788,-0.003347027139272541
1761479842818884900,5.395884765625,-0.1290425594985485,-0.01391229682797566,-0.000749119600560516
1761479842828920800,5.4059208984375,-0.14056874664127825,-0.0072310472320765255,0.0068297364221885795
1761479842838956800,5.415956787109375,-0.12814999457299708,-0.014284125815052538,0.00047839463409036397
1761479842848992800,5.42599267578125,-0.1393769065082073,-0.008370481324475258,0.0017996880994178353
1761479842859028000,5.436028076171875,-0.1375789171755314,-0.00917465558052063,0.001612093105446547
1761479842869064000,5.44606396484375,-0.14266542665958404,-0.003265358471497893,0.0017721973042935132
1761479842879100000,5.456099853515625,-0.1296434480011463,-0.00753216733681038,-0.004160535479243844
1761479842889135900,5.466135986328125,-0.1467015503078699,-0.003965926222596317,-0.0005945135607384145
1761479842899171800,5.476171875,-0.1366764153778553,-0.003200987998396158,0.0039024690649472173
1761479842909207800,5.486207763671875,-0.13757190291285515,-0.007233458384871483,0.00047116117570549247
1761479842919243800,5.496243896484375,-0.14355974515080452,-0.0036136056535877284,0.002214461179077625
1761479842929279000,5.506279052734375,-0.13862345779240132,0.0040708479017950595,0.0010611081591807305
1761479842939315000,5.51631494140625,-0.13473463366031646,-0.01591901527419686,-0.005783442239649593
1761479842949351000,5.526350830078125,-0.15179273596704004,-0.018916078198328613,-0.0023767390687018633
1761479842959387000,5.536386962890625,-0.13653028490543365,-0.005103351020999253,-0.004068199286982417
1761479842969422800,5.5464228515625,-0.13308803549706935,-0.005991239771433174,0.004867058047093451
1761479842979458800,5.556458740234375,-0.14311317042708396,-0.00981693553943187,0.0014762830976396799
1761479842989494800,5.566494873046875,-0.14191314698755741,-0.009792677881009876,-0.00452701243776828
1761479842999529700,5.57652978515625,-0.137273796749115,-0.008278364327922463,0.000841748053766787
1761479843009566000,5.58656591796875,-0.13263853816390037,-0.0062816740853711955,0.006505801697447896
1761479843019602000,5.596601806640625,-0.13937398389875888,-0.00677742171306163,0.0012518997572362421
1761479843029638000,5.606637939453125,-0.13503390886783598,-0.003670651336759329,0.0015560155366547404
1761479843039673900,5.616673828125,-0.14430851769149303,-0.0025358934194780886,0.006120145114418119
1761479843049709800,5.626709716796875,-0.1398211431443691,-0.005233480206690728,-0.0015586824177764354
1761479843059745800,5.636745849609375,-0.14401099604964254,-0.0026154066627845167,0.0009073241032660007
1761479843069780700,5.64678076171875,-0.13981705149114132,-0.001837517625465989,-0.0012641016516834497
1761479843079816700,5.656816650390625,-0.13202946635484694,-0.005316409249790013,-0.010081340362969786
1761479843089853000,5.66685302734375,-0.13547171576321124,-0.00980776585228741,-0.002120901144109666
1761479843099889000,5.676888916015625,-0.14310498712062836,-0.003961724971514195,-0.0037037316224537787
1761479843109924900,5.6869248046875,-0.14265607430934904,-0.0073412296082824464,-0.006318133638240396
1761479843119960800,5.6969609375,-0.1291904435366392,0.0014243337146937847,-0.0011047098388895392
1761479843129996800,5.706996826171875,-0.1336784026056528,0.003134863959625363,0.002989117079693824
1761479843140031700,5.71703173828125,-0.1378694245547056,-0.002413929273933172,0.0012617452978156507
1761479843150067700,5.727067626953125,-0.13128536998927592,-0.006347688526287675,-0.0015055822573602198
1761479843160103700,5.737103759765625,-0.13427753754258154,-0.004792312310449779,-0.00323624197486788
1761479843170140000,5.747139892578125,-0.13487901056706905,-0.015023235478252172,0.0010079714661464095
1761479843180176000,5.75717578125,-0.13981588244736193,-0.005521740829851478,-0.003946582201309502
1761479843190211800,5.7672119140625,-0.14236089075505734,-0.00704772655442357,0.005581362062599509
1761479843200248000,5.777248046875,-0.14116495896875858,-0.008121712461486458,-0.004948927644267678
1761479843210282800,5.78728271484375,-0.13398176946640014,-0.0026323029986582694,-0.0023572306506335736
1761479843220318700,5.797318603515625,-0.14774959805607796,-0.00019150398410856722,-0.005338621081598102
1761479843230354700,5.807354736328125,-0.14610241537094115,-0.007930245009995996,0.001437722919229418
1761479843240390700,5.817390625,-0.13068798861801623,-0.011275500317290424,0.004383585379086435
1761479843250427000,5.827427001953125,-0.13398001590073108,-0.0061036141047254204,0.005780592695437371
1761479843260463000,5.837463134765625,-0.13712240557968616,-0.005472933252062648,0.002480235975794494
1761479843270497800,5.847497802734375,-0.14789572852849958,-0.013149532294552773,-0.0011091668182983993
1761479843280533800,5.85753369140625,-0.13876198948025703,-0.013106149810552596,0.0009452084282413124
1761479843290569700,5.86756982421875,-0.14295359595119952,0.0017191154101863502,-0.0007713679649867116
1761479843300605700,5.877605712890625,-0.1411596982717514,-0.00386144293481484,-0.004053659304976463
1761479843310642000,5.887641845703125,-0.1426584123969078,-0.013266126145236194,-0.0038161607546731828
1761479843320678000,5.897677978515625,-0.13397592424750326,-0.0044886531887575985,-0.003940481254085898
1761479843330714000,5.907714111328125,-0.13651800994575022,-0.009012998745404184,-0.002050155729148537
1761479843340748800,5.917748779296875,-0.14504910692572592,-0.004366944771539419,-0.0043517472024075686
1761479843350784800,5.92778466796875,-0.13562310693264007,-0.003311426102928817,-0.010148761309683322
1761479843360820700,5.93782080078125,-0.13367723356187342,-0.005043583657778799,0.009656484280712902
1761479843370857000,5.94785693359375,-0.14175240346789358,-0.0027735381002537904,0.004260470456071198
1761479843380893000,5.957892822265625,-0.13202420565783976,-0.009110431237891316,0.0023104141005314887
1761479843390928600,5.9679287109375,-0.13277122463285923,-0.004543470382224768,0.002779894775804132
1761479843400964900,5.97796484375,-0.13965513892769812,-0.004917107733897865,-0.002054557909630239
1761479843410999800,5.987999755859375,-0.14369535422921179,-0.005477865155506878,0.0033068777919746935
1761479843421035800,5.998035888671875,-0.13606325191557406,-0.006417885951977223,-0.001303063688892871
1761479843431071700,6.00807177734375,-0.13367138834297657,-0.004344532010331749,0.004198255407437682
1761479843441107700,6.018107666015625,-0.1360661745250225,-0.0012298157895915208,0.00621317542642355
1761479843451143700,6.028143798828125,-0.13906243373155594,0.002879957616794854,0.002741279798466712
1761479843461179600,6.0381796875,-0.13966624484360218,-0.004499740838352591,-0.003513488013669848
1761479843471214800,6.04821484375,-0.13308452836573123,-0.00702949677798897,0.0003390774949453771
1761479843481250800,6.058250732421875,-0.14311258590519427,-0.003919109672494233,0.003919876857474446
1761479843491286800,6.068286865234375,-0.14595453133285044,-0.01155968755353242,0.009103453507833183
1761479843501322800,6.07832275390625,-0.14520809687972067,-0.014614106688089669,-0.004030187097843736
1761479843511358700,6.088358642578125,-0.13802666094303132,-0.011080617066007107,0.00250431097112596
1761479843521394700,6.098394775390625,-0.1289028587669134,-0.0125731937113218,-0.00012475889082998035
1761479843531430700,6.1084306640625,-0.14357085106670855,-0.005710833661165088,-0.0006844751328229904
1761479843541465900,6.1184658203125,-0.14790975705385206,-0.013927786658052355,0.009907098040916025
1761479843551501800,6.128501708984375,-0.13713643410503865,-0.0010271693569608032,0.0016708010227419435
1761479843561537800,6.138537841796875,-0.14087737419903276,-0.004799326573126018,0.004691701480187475
1761479843571573800,6.14857373046875,-0.13938275172710418,-0.009288838278409093,0.001034074021782726
1761479843581609700,6.158609619140625,-0.13369652278423308,-0.010318437054473906,-0.002408284984435886
1761479843591645700,6.168645751953125,-0.14267770161926746,-0.018694672266300765,0.000902830591239035
1761479843601681700,6.178681640625,-0.1423760883241892,-0.0007734320579096674,-0.0008371449438855052
1761479843611716900,6.188716796875,-0.13773673808574677,-0.007164758796524256,-0.0010534545756876468
1761479843621752800,6.1987529296875,-0.13384732943177222,-0.009069112846814095,-0.0002886990145780146
1761479843631788800,6.208788818359375,-0.13609013992249966,-0.005870115876104682,0.009141557028517126
1761479843641824800,6.21882470703125,-0.13639116869568824,-0.014976528526004403,0.012508037786930798
1761479843651860700,6.22886083984375,-0.13324819449484349,-0.0051539486970752476,-0.0040586642736569045
1761479843661896700,6.238896728515625,-0.13594108684062958,-0.003546531766746193,0.0007582892877049744
1761479843671931600,6.248931640625,-0.1238227790236473,-0.00013571867626160382,0.007315839438699186
1761479843681967600,6.258967529296875,-0.1386357327520847,0.004528802536055445,0.004962408180348575
1761479843692003800,6.26900390625,-0.13549275855123996,-0.005591737326141447,0.0037249022746458646
1761479843702039800,6.279039794921875,-0.13339724757671356,-0.007470975201483815,0.00586874590292573
1761479843712075800,6.28907568359375,-0.1345972710162401,0.004935520173422992,0.0040598333174362775
1761479843722111700,6.29911181640625,-0.1386363172739744,-0.01049993110122159,0.0004090557249262929
1761479843732147700,6.309147705078125,-0.1417822140842676,-0.0038527481717057525,0.0021489399285055696
1761479843742182700,6.3191826171875,-0.13908756817281245,-0.010178681523911654,0.006034384793415665
1761479843752218600,6.329218505859375,-0.13744155453145504,-0.005086527750361711,0.006029745150916278
1761479843762254600,6.339254638671875,-0.13729367049336433,-0.003189936881419271,-0.00044036417864263053
1761479843772290800,6.349290771484375,-0.13923954386413095,-0.010855338676460087,0.002044621037505567
1761479843782326800,6.359326904296875,-0.12742518742978573,-0.009314612040482461,-0.00019840864893049
1761479843792362800,6.36936279296875,-0.1408943253338337,-0.010922485628537834,-0.0019329042913392184
1761479843802397700,6.379397705078125,-0.137900404214859,-0.009895681597758084,0.0021932539942674336
1761479843812433700,6.38943359375,-0.132363228353858,-0.00670883172256872,-0.004163951279036701
1761479843822469600,6.3994697265625,-0.13924480456113814,-0.005556940007396042,-0.0001756305615417659
1761479843832505600,6.409505615234375,-0.12906944750547408,-0.010018431194592267,0.002346873653400689
1761479843842541600,6.41954150390625,-0.13280921855568886,0.001532214535959065,0.006441029365547001
1761479843852577800,6.429577880859375,-0.13191139293313026,-0.004458678175602108,0.00419054702501744
1761479843862613800,6.43961376953125,-0.13804711920917034,-0.0002449329380877316,-0.0002820683443918824
1761479843872648700,6.449648681640625,-0.13445464767515658,-0.007564188176579773,0.0027642040163278576
1761479843882684700,6.4596845703125,-0.13191490006446838,-0.00814461841303855,0.0019016689028590915
1761479843892720600,6.469720703125,-0.13745382949113846,-0.0037681203618645668,0.006170213067531585
1761479843902756600,6.479756591796875,-0.12922142319679258,-0.002687759512942284,0.00215852974075824
1761479843912792600,6.48979248046875,-0.1304185240268707,-0.008488390349410473,0.0019618381248787046
1761479843922828800,6.499828857421875,-0.12862170373797416,-0.003363338953256607,-0.0018948373032733796
1761479843932864800,6.50986474609375,-0.14702771352231503,-0.01218697087271139,-0.0005379428016021847
1761479843942899700,6.519899658203125,-0.1416425133526325,-0.0013721834023483097,0.004455408506281674
1761479843952935700,6.529935791015625,-0.1365536657810211,-0.010120393731724471,0.002229914476536214
1761479843962971600,6.5399716796875,-0.14194178856015205,-0.002602309719193727,0.0012124445296823978
1761479843973007600,6.550007568359375,-0.1400000068426132,-0.007080313649773597,-0.0031117022797465324
1761479843983043600,6.560043701171875,-0.1334118606239557,-0.002149652314558625,-0.0036028102649375794
1761479843993079600,6.57007958984375,-0.13431085529029368,-0.008598371796216815,0.0016991138017736374
1761479844003114800,6.58011474609375,-0.1340133336484432,-0.007777684796787798,0.005290690286643803
1761479844013150700,6.590150634765625,-0.13087094396948815,-0.00350141398338601,0.005692019362840801
1761479844023186700,6.600186767578125,-0.13775427374243734,0.005208528428524733,0.0029451135411858557
1761479844033222700,6.61022265625,-0.14313888939023017,-0.00447414973936975,0.002033515121601522
1761479844043258600,6.620258544921875,-0.13281331020891665,-0.008957998888846486,0.004991616008523852
1761479844053294600,6.630294677734375,-0.12862696443498134,-0.012183810801245271,0.0014868592905811964
1761479844063330600,6.64033056640625,-0.13056874615252018,-0.013846939974185079,0.002975161619577557
1761479844073365800,6.65036572265625,-0.12398118445575236,-0.010884235977381466,0.003697758539393544
1761479844083401700,6.660401611328125,-0.1344581548064947,-0.013025412724539637,-0.0019734554974362253
1761479844093437700,6.670437744140625,-0.14552783035337924,-0.006017397125996649,-0.003198394182510674
1761479844103473700,6.6804736328125,-0.13954115715920926,-0.004409103412833065,-0.0006508833904750645
1761479844113509600,6.690509521484375,-0.1346019471913576,0.0018442578935064374,-0.0008401040859520435
1761479844123545600,6.700545654296875,-0.1320575234055519,0.0013124891043640673,-0.00033262948784977195
1761479844133581800,6.710581787109375,-0.13489654622375966,-0.0105242983574979,0.0017005203075706958
1761479844143616800,6.72061669921875,-0.14447043025493622,-0.008372344487998635,0.00645134983016178
1761479844153652700,6.73065283203125,-0.1338484984755516,-0.011034074510540812,-0.0036424846882000565
1761479844163688700,6.740688720703125,-0.13355273039937018,0.0031216391518712043,0.0012456892121583223
1761479844173724700,6.750724609375,-0.13565116398334504,-0.004712397208344191,0.012236874429043382
1761479844183760600,6.7607607421875,-0.1311643739581108,-0.005788410675711929,-0.0018118717275559901
1761479844193796900,6.770796875,-0.1341577105551958,-0.00740302453180775,-0.0027179537218064067
1761479844203832800,6.780832763671875,-0.12802081523537634,-0.0007712401008233428,0.006303082199580967
1761479844213867800,6.79086767578125,-0.12891747181415558,-0.005257628267258405,0.0017251798247918486
1761479844223903700,6.80090380859375,-0.13355974466204643,-0.004813574294187128,0.00039605011288076637
1761479844233939700,6.810939697265625,-0.12996785764992236,-0.0016184497809968888,0.004655972579680383
1761479844243976000,6.820975830078125,-0.1382002639442682,-0.003648969227913767,-0.0030871158277615903
1761479844254012000,6.831011962890625,-0.13386252700090406,-0.009034224196523428,-0.002224398051202297
1761479844264047900,6.8410478515625,-0.12698036627173423,-0.0014160590766929089,0.002344882625713944
1761479844274083800,6.851083740234375,-0.12997662547826766,-0.008949870381318031,-0.00043676571575924754
1761479844284118500,6.861118408203125,-0.1356611008554697,-0.010556611458212137,-0.0005422536505386233
1761479844294154800,6.87115478515625,-0.13536357921361922,-0.007193290771264582,0.00022555238418281077
1761479844304191000,6.88119091796875,-0.1256359659254551,-0.00608848960082978,0.002510156190022826
1761479844314227000,6.89122705078125,-0.1364110424399376,-0.009684669195581226,0.008222999145183712
1761479844324263000,6.901262939453125,-0.13357085057795046,-0.0078001888895407314,0.0012287380773574113
1761479844334299000,6.911298828125,-0.12893091581761837,0.004990501763671636,0.0006703004769980907
1761479844344334800,6.9213349609375,-0.1367103176474571,-0.010682320197112858,0.011904829463083296
1761479844354369800,6.931369873046875,-0.12787702285051344,-0.011526187142729759,0.003375869641266763
1761479844364405800,6.94140576171875,-0.12263853767514228,-0.0034672011865302917,0.00994898268757388
1761479844374442000,6.95144189453125,-0.13759762187600136,-0.0007468180456198752,0.00743259768616408
1761479844384478000,6.96147802734375,-0.12742343386411667,-0.0029281076074577864,-0.007541976344771683
1761479844394515200,6.97151513671875,-0.1227899288445711,-0.0073126245683059095,-0.0015284516762942074
1761479844404551200,6.98155126953125,-0.1335655898809433,-0.005551642777770757,0.005782821185141802
1761479844414586400,6.99158642578125,-0.13057751398086548,-0.004269567077979445,0.0009922989729791879
1761479844424622300,7.001622314453125,-0.1206990940451622,0.0007382146140560507,-0.0011636369518935679
1761479844434658300,7.011658203125,-0.1212958908945322,-0.0072690959538333115,0.0028699294131249186
1761479844444694300,7.0216943359375,-0.13401508721411226,-0.008778568935021758,0.00947615927774459
1761479844454730200,7.031730224609375,-0.13251637308895586,-0.008221318644750862,0.0007567366514354943
1761479844464766200,7.04176611328125,-0.12727554982602596,0.004141337588429451,0.004971358671784401
1761479844474802200,7.05180224609375,-0.12308686596453189,-0.0029122159185819324,0.002488857673667371
1761479844484838100,7.061838134765625,-0.12817688257992266,-0.01196499868510291,-0.00015851502995938062
1761479844494873300,7.071873291015625,-0.13431143981218338,-0.008382811083085834,-0.003901939341984689
1761479844504909300,7.081909423828125,-0.12847732683122157,-0.0012614530368708072,-0.0024072986037470398
1761479844514945300,7.0919453125,-0.1305722532838583,-0.007861015698686242,0.007511763869598507
1761479844524981200,7.101981201171875,-0.13161854746639728,-0.016924338125530628,0.00855661501372233
1761479844535017200,7.112017333984375,-0.12428338227272033,-0.0037287199332378803,0.0012183628138154744
1761479844545053200,7.12205322265625,-0.11964403203427791,-0.00018923896178603172,0.00020482012340798973
1761479844555089200,7.132089111328125,-0.1296691669642925,-0.006399893637560308,-0.000037318069394677874
1761479844565124400,7.142124267578125,-0.12892273251116276,-0.0051739320391789075,0.006603818711824715
1761479844575160300,7.152160400390625,-0.13072130636572837,-0.009873268836550413,0.0006785020497627556
1761479844585196300,7.1621962890625,-0.13745850566625595,-0.007319163906946778,0.002934665212407708
1761479844595232300,7.172232177734375,-0.13132394843399525,-0.0023158939932473002,0.006202544434554875
1761479844605268200,7.182268310546875,-0.13566343894302843,-0.010281557376496494,0.004724288575537502
1761479844615304200,7.19230419921875,-0.13985095376074314,-0.0019750629326328634,-0.01043404452446848
1761479844625340200,7.202340087890625,-0.130720137321949,-0.015363153223413974,0.00027841508258134124
1761479844635375400,7.212375244140625,-0.12518179241716862,-0.00699533878006041,0.005279237310867756
1761479844645411300,7.222411376953125,-0.13101941252946853,0.004020944345463067,0.0007699797254987061
1761479844655447300,7.232447265625,-0.12548632832169532,-0.01223524872753769,0.0017805632738396525
1761479844665483300,7.242483154296875,-0.13281389473080635,-0.010673735031858086,0.0032696693204343316
1761479844675519200,7.252519287109375,-0.1245855800896883,-0.008282876106258481,-0.002634257493726909
1761479844685555200,7.26255517578125,-0.13087328205704687,-0.006306333602592348,0.004226769115868956
1761479844695591200,7.272591064453125,-0.12399170584976672,0.001213229980971664,-0.0013938655111938715
1761479844705626400,7.28262646484375,-0.12683598936498164,0.0015627558046951888,0.005355754879489541
1761479844715662300,7.292662353515625,-0.1317740302890539,-0.006661869041994214,0.007296312754321843
1761479844725698300,7.3026982421875,-0.12773264594376085,-0.006289711261354387,-0.0019689254527911542
1761479844735734300,7.312734375,-0.13102350418269634,-0.009441581154707819,0.0030542730040848255
1761479844745770200,7.322770263671875,-0.13177227672338485,0.00030512042641639707,0.003515314644575119
1761479844755806200,7.33280615234375,-0.13506664209365843,-0.014251282991375774,-0.0003682487905025482
1761479844765842200,7.34284228515625,-0.12863222513198852,-0.007950977270770817,0.0033549729837104676
1761479844775878100,7.352878173828125,-0.13506255044043064,0.0013709778259508312,0.006550627219863236
1761479844785913300,7.362913330078125,-0.1283282737493515,-0.004564056512527168,0.006152312084659934
1761479844795949300,7.37294921875,-0.13625497509539128,0.0017739691362716257,-0.0026370339727029204
1761479844805985300,7.3829853515625,-0.13041560141742228,-0.005509246674459427,0.003107373164501041
1761479844816021200,7.393021240234375,-0.12053893504738807,-0.019885325089283288,-0.0019951193399727345
1761479844826057200,7.40305712890625,-0.1308627606630325,0.0003160071466118097,0.00452518580686301
1761479844836093200,7.41309326171875,-0.13400398129820823,0.0049106962594203645,0.0033179654415696857
1761479844846129200,7.423129150390625,-0.13879530722796915,-0.0026112784769386052,-0.0009474003853276371
1761479844856165000,7.4331650390625,-0.13760171352922915,-0.0022408742619678375,0.00035800139112398025
1761479844866200300,7.443200439453125,-0.13101941252946853,-0.005181092432327568,0.0008473010117188096
1761479844876236300,7.453236328125,-0.13072247540950774,-0.009597063977364451,0.0008817147379741072
1761479844886272300,7.463272216796875,-0.12907587724626063,0.0010358641200698912,0.009976436950080096
1761479844896308200,7.47330810546875,-0.13311433898210526,0.002337941428273916,0.005576448425464332
1761479844906344200,7.48334423828125,-0.1277262162029743,-0.009272088073007763,-0.0026462036598473787
1761479844916380200,7.493380126953125,-0.13071370758116244,-0.004693436779547483,0.005218465300649404
1761479844926416100,7.503416015625,-0.13325287066996097,0.00007120207268744707,0.0007813961686566472
1761479844936451000,7.513451171875,-0.13474690861999988,0.00041784181958064436,-0.001444243991561234
1761479844946487300,7.5234873046875,-0.12711655987203122,-0.004391695620305836,0.006401062681339681
1761479844956523300,7.533523193359375,-0.12173194422423839,-0.009563125175144523,0.003477594716381281
1761479844966559200,7.543559326171875,-0.1254740533620119,-0.002559347360301763,-0.0025681334549561142
1761479844976595200,7.55359521484375,-0.12218553321063517,-0.006105824328120797,0.0010329963095486163
1761479844986631200,7.563631103515625,-0.12996844217181205,-0.006157170922867953,0.0010138532176613808
1761479844996667100,7.573667236328125,-0.1266769994109869,-0.0066602433404885225,0.0022748313304968176
1761479845006703400,7.583703369140625,-0.12697919722795487,-0.00873651989158243,0.0016527356430888175
1761479845016738300,7.59373828125,-0.13191431554257868,-0.009476031413581222,0.0012014116790145634
1761479845026774300,7.603774169921875,-0.1310153208762407,-0.002754577671457082,0.0009750738435424864
1761479845036810200,7.613810302734375,-0.12847265065610408,0.00028765783496201037,0.002791384284198284
1761479845046846200,7.62384619140625,-0.1257791737884283,-0.011624258956033735,0.0030471308772452173
1761479845056882200,7.633882080078125,-0.13326163849830627,0.0028329218709841368,-0.0009100457833148539
1761479845066918400,7.64391845703125,-0.1353612411260605,-0.004737257654964923,-0.005249444960802793
1761479845076954400,7.653954345703125,-0.1248907005161047,-0.006759301534481346,0.007580006800219416
1761479845086990300,7.663990234375,-0.124293319144845,-0.004747998244687915,0.007719944993872195
1761479845097025300,7.674025390625,-0.1432984638661146,-0.005004146696534008,0.005185841672681272
1761479845107061200,7.684061279296875,-0.1277402447283268,-0.0053218160772696135,-0.002388027647696435
1761479845117097500,7.694097412109375,-0.13327800511121748,-0.0020696641472168265,-0.001236884851194918
1761479845127133400,7.704133544921875,-0.13387772457003594,-0.00808236683178693,-0.004126066954061388
1761479845137169400,7.71416943359375,-0.138819857147336,-0.014874456391017882,-0.0010115881953388453
1761479845147205400,7.724205322265625,-0.13553309056162832,-0.008289232781808823,0.00045877661816775796
1761479845157241300,7.734241455078125,-0.13059563415944575,-0.01257427142355591,-0.0010782236907631159
1761479845167277300,7.74427734375,-0.13194120354950428,-0.0052382477133534845,-0.0030768501620739696
1761479845177312300,7.754312255859375,-0.12655717242360115,-0.017287819409370422,-0.0010732735210098325
1761479845187348500,7.764348388671875,-0.13448796542286873,-0.01352216499922797,-0.0019952289378270508
1761479845197384400,7.774384521484375,-0.13957389038503168,-0.0007734685905277729,0.010433350404724479
1761479845207420400,7.78442041015625,-0.14121698141694067,-0.0026473909699358043,0.0017090506738983093
1761479845217456400,7.794456298828125,-0.1287988138705492,-0.009901563349273055,0.005443743690196424
1761479845227492400,7.804492431640625,-0.12940087141692638,-0.01627206649556756,0.0025207506492733955
1761479845237528300,7.8145283203125,-0.13389409118294715,-0.007547657166887075,0.006905943463556468
1761479845247564300,7.824564208984375,-0.1288064126551151,-0.006890015242062508,0.005341287962719798
1761479845257599200,7.83459912109375,-0.1226724399447441,-0.005450630088709295,0.003493212410621345
1761479845267635500,7.844635498046875,-0.11908406006395816,-0.0005664930426515639,-0.002307162697520107
1761479845277671400,7.85467138671875,-0.12581775223314762,-0.002235193439852446,0.007265607088804245
1761479845287707400,7.864707275390625,-0.13375146784186362,0.0014515322488732635,0.00849916747175157
1761479845297743400,7.874743408203125,-0.13330313955247403,-0.0006396678767167032,0.0025719511135481295
1761479845307779300,7.884779296875,-0.13540040409266949,-0.009655680563114583,0.0010432985078543424
1761479845317815300,7.894815185546875,-0.12432780593633651,0.0043638760316185654,0.00874483106220141
1761479845327851300,7.904851318359375,-0.12717033588588236,-0.005059731074981391,-0.0034301023128442466
1761479845337886200,7.91488623046875,-0.14168752153813838,-0.008469155925977974,0.0019277166595682502
1761479845347922400,7.92492236328125,-0.13734920007288456,-0.0074000836560502645,-0.0006053820146247744
1761479845357958400,7.93495849609375,-0.1267255147278309,-0.007635645977593958,0.002366747397650033
1761479845367994400,7.944994384765625,-0.12852233501672744,-0.0058721617027185855,-0.0036948541962541635
1761479845378030300,7.9550302734375,-0.127775316041708,-0.00973930372595787,-0.004407258515618741
1761479845388065300,7.965065185546875,-0.13196283085942268,-0.003474763438478112,-0.0018160729786381123
1761479845398101200,7.975101318359375,-0.14228665647506714,-0.0038935916387476026,0.0009172427090816199
1761479845408137200,7.98513720703125,-0.141843004360795,-0.0041414654525928195,0.003638484366517514
1761479845418173400,7.99517333984375,-0.15306348655521868,-0.005387392126768827,0.004776676349900663
1761479845428208400,8.00520849609375,-0.13450959273278712,-0.004128660769946873,0.0002788717403076589
1761479845438243300,8.015243408203125,-0.12313947293460369,0.0046478806047700345,0.00045157969240099187
1761479845448279300,8.025279296875,-0.12912614612877368,-0.00587475551860407,-0.0038192660272121427
1761479845458315300,8.035315185546875,-0.1345148534297943,0.0006620075726881622,-0.000990070483274758
1761479845468350500,8.0453505859375,-0.13706161530315875,-0.0007535217810422181,0.0013065160213038324
1761479845478386400,8.055386474609374,-0.13242518767416475,0.0017523052937351165,-0.008388364041037858
1761479845488422400,8.06542236328125,-0.13541969331502915,-0.010128010782599449,-0.000008365969546139239
1761479845498458400,8.075458251953124,-0.1420055014461279,0.0028134499855339526,0.0014956088526174426
1761479845508494300,8.085494384765624,-0.12345102310180664,0.005841857896000146,0.005072389627154917
1761479845518530300,8.0955302734375,-0.12015665773153304,0.0018171324245631693,-0.0001562500076368451
1761479845528566300,8.105566162109374,-0.1372170981258154,-0.00726719625769183,-0.007734192714933305
1761479845538602200,8.115602294921874,-0.13257833240926264,-0.013629424765985458,-0.0016763357143849134
1761479845548638500,8.125638427734375,-0.14140227485597132,-0.0039084056153893465,-0.003847761469334364
1761479845558673400,8.13567333984375,-0.12479250083863734,0.00028281726306304334,0.0008104030674323439
1761479845568709400,8.14570947265625,-0.1285334409326315,0.0026360110593959688,0.007588098775129765
1761479845578745300,8.155745361328124,-0.13302607617676257,-0.001428589764703065,0.0016557313177734613
1761479845588781300,8.16578125,-0.12883563874959944,-0.006589424860291183,0.008429262307006866
1761479845598817300,8.1758173828125,-0.13901216484904289,0.0077072316427715115,0.0021208646114915606
1761479845608853200,8.185853271484374,-0.1393126091003418,-0.004503485431708395,0.0013481632059440015
1761479845618889200,8.19588916015625,-0.1372165136039257,-0.003970858126040548,0.008862265163101256
1761479845628925400,8.205925537109374,-0.13452479030191897,-0.0004914367787539959,0.0066508361913263795
1761479845638960400,8.21596044921875,-0.1234562837988138,-0.0020828889549709857,-0.0001875949939712882
1761479845648996400,8.225996337890624,-0.1408195065319538,-0.0014984583968296647,0.006680117084737867
1761479845659032300,8.2360322265625,-0.13363690155148505,0.005188910412602127,0.009419277991354466
1761479845669068300,8.246068359375,-0.132441554287076,-0.008158738269936293,0.000561579405516386
1761479845679104300,8.256104248046874,-0.1279530106961727,-0.013728994416631758,0.005581270731054246
1761479845689140200,8.26614013671875,-0.12211948223710059,-0.0020303002512082457,-0.0006262786721810698
1761479845699176200,8.27617626953125,-0.13334230251908302,-0.0015458412025123834,-0.0005186535792425274
1761479845709212400,8.28621240234375,-0.1320002402603626,-0.00643757703313604,0.008928699729125945
1761479845719248600,8.29624853515625,-0.1315478203177452,0.0014554047063924372,0.002218991223722696
1761479845729283300,8.306283447265624,-0.13034662783443926,0.006690675011370331,0.001868314622528851
1761479845739319300,8.3163193359375,-0.11912380755245684,-0.003920059520564973,0.009180427734181285
1761479845749355300,8.326355224609374,-0.13693243596553803,-0.0002801138493232429,0.0018958602165803312
1761479845759391500,8.3363916015625,-0.13783143063187597,-0.007231211628858,-0.0008316650511696935
1761479845769427500,8.346427490234374,-0.13903086954951285,-0.011141827467642723,0.004709931256622076
1761479845779463400,8.35646337890625,-0.14786182625889777,-0.009252670986484735,0.00216649385150522
1761479845789499600,8.366499755859374,-0.13769056085646153,-0.0025709647328592835,0.0009248232273384928
1761479845799535600,8.37653564453125,-0.13065759347975253,-0.00656631797933951,0.00597750350702554
1761479845809570300,8.3865703125,-0.13215513856112956,-0.002081792976427823,-0.0021991905447095632
1761479845819606500,8.3966064453125,-0.1302104342341423,0.0004906330611556769,-0.0026510990306735037
1761479845829642500,8.406642578125,-0.1290121643602848,-0.005792447530012577,0.00013487842604517937
1761479845839678500,8.416678466796874,-0.12886720293164253,-0.0058298203983344135,0.0019163732816465198
1761479845849714400,8.42671435546875,-0.12931553122103215,0.0000484970505349338,0.002275982107967138
1761479845859750400,8.43675048828125,-0.13141162671744822,0.0006474858569912612,0.0015719620244577525
1761479845869786600,8.44678662109375,-0.13395605050325393,-0.005771404741983861,0.002644377028942108
1761479845879822600,8.456822509765624,-0.12737141141593455,0.0005860379933379591,0.0037513153575360774
1761479845889858600,8.466858642578124,-0.13769231442213056,-0.006432097140420228,-0.005722012642305344
1761479845899894500,8.47689453125,-0.14218202705681324,-0.011142996511422098,-0.003372399042546749
1761479845909929500,8.486929443359376,-0.13380407481193543,0.006103248778544366,-0.0003286656987853348
1761479845919965400,8.49696533203125,-0.12632219462394714,0.009377813469804822,0.004344769472349435
1761479845930001400,8.50700146484375,-0.1345499247431755,0.0005876819611527025,0.011236629611626267
1761479845940037400,8.517037353515626,-0.12422376103997229,0.0008574936121702193,0.0072886957034468645
1761479845950073600,8.527073486328124,-0.13065583991408347,0.0054579366123303765,0.003935238823387772
1761479845960109600,8.537109619140624,-0.13379881411492825,0.004754135724529623,-0.00029679098948836327
1761479845970145500,8.5471455078125,-0.1317003805309534,-0.0038766587702557444,0.0006861556332558393
1761479845980181500,8.557181396484374,-0.12227321149408817,-0.0038178960540331897,0.0016789477965794503
1761479845990217500,8.567217529296874,-0.12586451398432255,0.00011087649594992399,0.00790131117645651
1761479846000252400,8.57725244140625,-0.13230009998977182,-0.001462802561558783,0.0030964133790694175
1761479846010288400,8.587288330078126,-0.13454232595860957,0.007111713435035198,0.0006921287163160741
1761479846020324400,8.597324462890626,-0.12466273697912693,-0.007055581067316233,0.005102583836019039
1761479846030360600,8.607360595703126,-0.13094400920569896,0.003391268139798194,-0.0019239172672852873
1761479846040396500,8.617396484375,-0.13259002284705637,-0.0027644962772727013,0.0021267280966974795
1761479846050432500,8.6274326171875,-0.14876549710035322,0.012147369514685124,0.003306567264720797
1761479846060468500,8.637468505859376,-0.1608843894392252,-0.004433726397436112,-0.001383581579197198
1761479846070504400,8.64750439453125,-0.022471944049000738,-0.031088819616287944,0.02076769741438329
1761479846080540400,8.65754052734375,-0.20009061066806316,0.017807660298701376,-0.029402510497160254
1761479846090575400,8.667575439453126,-0.10087795676589012,0.013552505338564514,0.0066402782646939155
1761479846100611300,8.677611328125,-0.12586685207188128,-0.003020717794355005,0.02114420257657766
1761479846110647600,8.6876474609375,-0.11688976489007473,-0.03197747555170208,-0.011881211125478148
1761479846120683500,8.69768359375,-0.13738777851760386,0.015109598587453364,0.007527765156328678
1761479846130719500,8.707719482421876,-0.1366413440644741,0.01279543989356607,0.020290179563127456
