time,seconds_elapsed,z,y,x
1761479837529985800,0.10698583984375,-0.00036985334008932114,0.00217007496394217,0.0008607674390077591
1761479837540021800,0.117021728515625,-0.001407154370099306,-0.0014976304955780506,-0.0022000037133693695
1761479837550057700,0.1270576171875,0.0016150004230439663,0.0005436823703348637,-0.0004809332313016057
1761479837560093700,0.13709375,-0.0011190404184162617,0.0005584887694567442,-0.0016213147900998592
1761479837570129700,0.147129638671875,0.0005566207692027092,0.001218153745867312,0.001797385048121214
1761479837580165600,0.15716552734375,-0.0015926705673336983,-0.0026954510249197483,0.0006720255478285253
1761479837590200600,0.16720068359375,-0.0007758792489767075,-0.00020566163584589958,0.0014752348652109504
1761479837600236500,0.177236572265625,-0.0004725479520857334,-0.00023880158551037312,0.0010168827138841152
1761479837610272800,0.187272705078125,-0.0008334065787494183,0.0014294025022536516,-0.0027815839275717735
1761479837620308700,0.197308837890625,0.0006917533464729786,-0.0005970776546746492,-0.000984223559498787
1761479837630344700,0.2073447265625,-0.002017746679484844,0.0010767190251499414,0.0014978426042944193
1761479837640380700,0.217380615234375,0.0005966047756373882,0.001361564383842051,-0.0018012759974226356
1761479837650416600,0.227416748046875,0.0005449396558105946,0.001876353402622044,-0.0000129633117467165
1761479837660451600,0.23745166015625,-0.00038836244493722916,0.0024792952463030815,-0.0004811282269656658
1761479837670487600,0.247487548828125,0.0015893010422587395,-0.0006571095436811447,-0.0017975287046283484
1761479837680523500,0.2575234375,0.00023212609812617302,0.0018826160812750459,0.0001832675188779831
1761479837690559700,0.267559814453125,0.000021736137568950653,-0.00047321617603302,0.00022667704615741968
1761479837700595700,0.277595703125,0.0003853673115372658,0.0032998942770063877,0.001522575505077839
1761479837710631700,0.287631591796875,-0.0005848221480846405,-0.00042879744432866573,0.00011882325634360313
1761479837720666600,0.29766650390625,-0.0007622232660651207,-0.000948779284954071,0.0016474009025841951
1761479837730702600,0.30770263671875,-0.00042586587369441986,0.0029450287111103535,-0.0009712855098769069
1761479837740738600,0.317738525390625,0.0010203267447650433,0.0001547744031995535,-0.0031984425149858
1761479837750774500,0.3277744140625,0.00003762030974030495,0.0005505201406776905,-0.00023008324205875397
1761479837760810500,0.337810546875,-0.0020045763812959194,-0.0008660736493766308,-0.0003932223189622164
1761479837770846700,0.3478466796875,0.0033566332422196865,0.0033715483732521534,-0.001691246870905161
1761479837780881700,0.357881591796875,-0.0005444008857011795,0.002834013197571039,-0.0020055666100233793
1761479837790917600,0.367917724609375,0.002980559365823865,-0.001593225635588169,-0.001554959686473012
1761479837800953600,0.37795361328125,-0.00020237360149621964,-0.0017671289388090372,-0.0013314411044120789
1761479837810989600,0.387989501953125,-0.0012934706173837185,-0.0009186458773910999,0.0019042997155338526
1761479837821025500,0.398025634765625,-0.0002401159144937992,-0.00006115692667663097,0.002168650971725583
1761479837831061500,0.4080615234375,-0.0021892832592129707,0.0006794682703912258,-0.002984032966196537
1761479837841097500,0.418097412109375,0.0017787846736609936,0.0008234635461121798,-0.00141691614408046
1761479837851132700,0.428132568359375,-0.0008146017789840698,0.00016992399469017982,0.001031327759847045
1761479837861168600,0.438168701171875,-0.00002355361357331276,-0.0005073258653283119,-0.0014288690872490406
1761479837871204600,0.44820458984375,0.0004699300043284893,0.0010367750655859709,-0.0036667233798652887
1761479837881240600,0.458240478515625,0.0004866877570748329,0.00012244516983628273,-0.0007057536859065294
1761479837891276500,0.468276611328125,-0.00018922239542007446,0.00008382927626371384,-0.001584863057360053
1761479837901312500,0.4783125,0.0017860010266304016,-0.000018251361325383186,0.0008687666268087924
1761479837911347700,0.48834765625,0.0016182218678295612,-0.0004965551197528839,0.00048260821495205164
1761479837921383700,0.4983837890625,0.0006913910619914532,-0.0024817162193357944,-0.00002987496554851532
1761479837931419600,0.508419677734375,0.0015699677169322968,0.0015617612516507506,0.0014266078360378742
1761479837941455600,0.51845556640625,-0.002041338011622429,-0.000957148615270853,0.0008314581937156618
1761479837951491600,0.52849169921875,0.0007171640172600746,-0.00013076979666948318,0.0006815222441218793
1761479837961527600,0.538527587890625,-0.0008192723616957664,-0.00037225009873509407,0.0006949030212126672
1761479837971563500,0.5485634765625,0.0008563888259232044,0.001529779634438455,0.0000621359795331955
1761479837981598700,0.5585986328125,0.001181439496576786,0.00007322127930819988,0.0005413874750956893
1761479837991634700,0.568634765625,0.0007838299497961998,-0.002370761940255761,-0.0006349309114739299
1761479838001670700,0.578670654296875,0.001774484757333994,0.0004895124584436417,-0.0011571756331250072
1761479838011706600,0.58870654296875,-0.0016673845238983631,0.00008391286246478558,0.0017693720292299986
1761479838021742600,0.59874267578125,-0.00042635295540094376,-0.0006419280543923378,-0.00026831740979105234
1761479838031778600,0.608778564453125,-0.0006455313414335251,0.0020214992109686136,-0.0007333053508773446
1761479838041814500,0.618814453125,0.0011682468466460705,0.004341728985309601,-0.0004925833782181144
1761479838051849700,0.628849609375,-0.000896235927939415,0.0005714918952435255,0.0001814626157283783
1761479838061885700,0.6388857421875,0.0014002989046275616,-0.0006724598351866007,-0.00043081818148493767
1761479838071921700,0.648921630859375,0.0005640662275254726,-0.002898862585425377,-0.0017655945848673582
1761479838081957600,0.65895751953125,0.0009964150376617908,-0.000921514118090272,0.00006076879799365997
1761479838091993600,0.66899365234375,-0.0008150674402713776,-0.0002879481762647629,-0.00013710407074540854
1761479838102029600,0.679029541015625,-0.0008347593247890472,0.0021251423750072718,0.0000479257432743907
1761479838112065500,0.6890654296875,0.000021713320165872574,-0.00012842449359595776,-0.000026376452296972275
1761479838122100500,0.6991005859375,-0.00023053865879774094,0.0010184593265876174,-0.0008757835021242499
1761479838132136700,0.70913671875,0.0014746831730008125,0.0018253971356898546,-0.0022076303139328957
1761479838142172700,0.719172607421875,0.0012667160481214523,-0.0002338129561394453,0.001580251264385879
1761479838152208600,0.729208740234375,-0.0006691357120871544,-0.0010255705565214157,-0.0008096694946289062
1761479838162244600,0.73924462890625,-0.0006522913463413715,-0.0041389972902834415,0.0005427324213087559
1761479838172280600,0.749280517578125,-0.0014328639954328537,-0.000780484639108181,0.0030612838454544544
1761479838182316500,0.759316650390625,-0.0006693839095532894,-0.000680017052218318,0.00032936898060142994
1761479838192351500,0.7693515625,0.0005838996730744839,-0.0009676385670900345,-0.0029026432894170284
1761479838202387500,0.779387451171875,0.0005275332368910313,-0.0005942878779023886,0.0009332025074400008
1761479838212423700,0.789423583984375,0.001898262184113264,0.0002747015096247196,0.000297239632345736
1761479838222459600,0.799459716796875,-0.00017874035984277725,-0.00032293517142534256,0.00024476624093949795
1761479838232495600,0.80949560546875,0.00009636394679546356,-0.00041614589281380177,-0.00013020692858844995
1761479838242531600,0.819531494140625,-0.001515067182481289,0.000836322782561183,0.0014635114930570126
1761479838252567600,0.829567626953125,0.0022269405890256166,0.0005609518848359585,-0.0015144351636990905
1761479838262602500,0.8396025390625,-0.001228685025125742,-0.0017104013822972775,0.0011822556843981147
1761479838272638500,0.849638427734375,0.001446460373699665,0.0003287810832262039,0.001903439755551517
1761479838282674400,0.85967431640625,0.0010909787379205227,0.0009705674601718783,-0.000680604949593544
1761479838292710700,0.869710693359375,-0.0004493938758969307,-0.0001479601487517357,0.00014550774358212948
1761479838302746600,0.87974658203125,-0.0002625575289130211,0.00161994737572968,-0.0008488578023388982
1761479838312782600,0.889782470703125,-0.0015485980547964573,-0.0013950171414762735,0.0005455734208226204
1761479838322818800,0.89981884765625,-0.0004688156768679619,-0.00044649187475442886,0.0022551731672137976
1761479838332853500,0.909853515625,-0.0031761853024363518,0.0014720492763444781,-0.0007017346797510982
1761479838342889500,0.919889404296875,-0.001532427966594696,-0.0014894998166710138,0.0006117711309343576
1761479838352925400,0.929925537109375,-0.00187384570017457,-0.0010093320161104202,-0.0010047677205875516
1761479838362961400,0.93996142578125,0.0013126488775014877,-0.0004479633644223213,-0.0011432311730459332
1761479838372997600,0.94999755859375,-0.0010125571861863136,-0.0008993691299110651,0.0015135384164750576
1761479838383033000,0.960033203125,0.0005421261303126812,0.001437289291061461,-0.0023302147164940834
1761479838393069000,0.970069091796875,0.0007322756573557854,-0.00021174014545977116,-0.0006209976272657514
1761479838403104000,0.98010400390625,-0.00170973502099514,-0.00194525346159935,0.0021675946190953255
1761479838413140000,0.990139892578125,0.0013888529501855373,0.0004164378624409437,0.0008549225749447942
1761479838423176000,1.000176025390625,-0.00046274764463305473,0.0009256531484425068,0.0007947662961669266
1761479838433212200,1.010212158203125,-0.0003410414792597294,0.0007144645787775517,0.0019716171082109213
1761479838443248000,1.020248046875,0.00022210506722331047,0.000046055763959884644,-0.0023494544439017773
1761479838453284000,1.0302841796875,0.0026037702336907387,-0.00017392123118042946,-0.0012535639107227325
1761479838463320000,1.040320068359375,-0.0008538989350199699,-0.001103925984352827,-0.0001468640984967351
1761479838473356000,1.05035595703125,-0.002143668010830879,0.0011823977110907435,0.0011487638112157583
1761479838483391000,1.060390869140625,0.0006277956999838352,-0.0012874261010438204,0.0015664788661524653
1761479838493427000,1.070427001953125,0.0013806712813675404,-0.0012980785686522722,0.003041603835299611
1761479838503463000,1.080462890625,-0.0016462262719869614,0.001013993052765727,0.0008637473220005631
1761479838513499100,1.0904990234375,0.0011373097077012062,0.0009250434814020991,0.0021852077916264534
1761479838523535000,1.10053515625,0.00005284184589982033,-0.0007841968908905983,0.0008116576937027276
1761479838533571000,1.110571044921875,-0.0008441107347607613,-0.0008569012861698866,0.0010556032648310065
1761479838543607000,1.12060693359375,-0.0009534177370369434,0.00010864180512726307,0.0026921769604086876
1761479838553642000,1.13064208984375,0.0003555258736014366,0.002014932455495,-0.0005608743522316217
1761479838563678000,1.140677978515625,0.0004313252866268158,0.0014833799796178937,-0.00021970015950500965
1761479838573714000,1.1507138671875,-0.00028373347595334053,-0.0009100029710680246,0.0009707328281365335
1761479838583750000,1.16075,0.001982793677598238,-0.00168642308562994,-0.0006675070617347956
1761479838593786000,1.1707861328125,0.0018070247024297714,-0.0029559521935880184,0.001750110648572445
1761479838603822000,1.180822021484375,-0.000522153452038765,-0.001711557386443019,0.001325644669122994
1761479838613858000,1.190858154296875,-0.000279007013887167,0.0017790477722883224,-0.0012989005772396922
1761479838623894000,1.20089404296875,-0.001023637130856514,-0.0006201809737831354,0.0007887056563049555
1761479838633929000,1.210928955078125,-0.002922737505286932,-0.0017006252892315388,-0.00023288291413336992
1761479838643965000,1.22096484375,-0.0007867305539548397,-0.0008889979217201471,0.0016917844768613577
1761479838654001000,1.2310009765625,-0.0027193864807486534,-0.0012815478257834911,-0.0007929446874186397
1761479838664036900,1.241036865234375,0.0003122808411717415,-0.0027354462072253227,0.0021418915130198
1761479838674073000,1.251072998046875,-0.0002610976807773113,-0.0023484891280531883,0.0005099063273519278
1761479838684109000,1.261109130859375,-0.000918535515666008,-0.00024547730572521687,-0.0005296593299135566
1761479838694145000,1.27114501953125,0.00040265871211886406,-0.0025230126921087503,0.0008746255189180374
1761479838704181000,1.281180908203125,-0.0006990074180066586,-0.002992102177813649,0.0010456875897943974
1761479838714216000,1.2912158203125,-0.0009448169730603695,0.003781381528824568,-0.0006837691180408001
1761479838724252000,1.301251953125,0.0009550107643008232,-0.0013690986670553684,0.000888669048435986
1761479838734288000,1.311287841796875,-0.00012996094301342964,0.0019318896811455488,-0.0007960466900840402
1761479838744324000,1.321323974609375,-0.00002445187419652939,0.00032261130400002003,-0.00017194426618516445
1761479838754360000,1.331360107421875,0.0007987311109900475,-0.00013412069529294968,-0.0015975343994796276
1761479838764396000,1.34139599609375,-0.00023184902966022491,0.0009758190717548132,-0.0024049764033406973
1761479838774432000,1.351431884765625,0.0018480797298252583,-0.0019355486147105694,0.001347950310446322
1761479838784468000,1.361468017578125,-0.0006105038337409496,0.00013785343617200851,-0.00007757800631225109
1761479838794503000,1.3715029296875,0.0009999098256230354,0.0025980814825743437,-0.002903458196669817
1761479838804539000,1.381538818359375,0.0018183449283242226,0.00009976932778954506,-0.00039675773587077856
1761479838814574800,1.391574951171875,0.0008369698189198971,-0.0030374345369637012,0.0015572034753859043
1761479838824611000,1.401611083984375,-0.0018607666715979576,0.0003135979641228914,0.0010502100922167301
1761479838834647000,1.41164697265625,-0.0009720697999000549,0.0015410489868372679,0.001035030116327107
1761479838844683300,1.421683349609375,0.0006041540764272213,-0.0003324802964925766,0.0006986736552789807
1761479838854719200,1.43171923828125,-0.002041696570813656,0.0017298714956268668,-0.0005231846589595079
1761479838864754000,1.44175390625,-0.00018052058294415474,0.0020643561147153378,0.0011540018022060394
1761479838874790000,1.451789794921875,0.00031216396018862724,-0.00033035827800631523,-0.0009235301986336708
1761479838884825900,1.461825927734375,0.00253383070230484,-0.0004917681217193604,-0.0018275389447808266
1761479838894861800,1.47186181640625,-0.0007064375095069408,-0.0018068370409309864,0.003606374841183424
1761479838904898000,1.48189794921875,-0.00047418568283319473,-0.0009303458500653505,-0.0006796335801482201
1761479838914934300,1.491934326171875,-0.0009969640523195267,-0.000511963153257966,0.0011369085405021906
1761479838924970200,1.50197021484375,0.000045291613787412643,0.0009882001904770732,-0.0016801221063360572
1761479838935006200,1.512006103515625,0.0000053443945944309235,0.0006483807228505611,0.00020752660930156708
1761479838945042200,1.522042236328125,-0.0020569507032632828,-0.0024870140478014946,-0.00032282236497849226
1761479838955077000,1.5320771484375,0.0030754932668060064,-0.0002925693988800049,-0.0008288229582831264
1761479838965113000,1.542113037109375,0.00044602900743484497,-0.00036362442187964916,-0.0008061537519097328
1761479838975149000,1.552149169921875,0.0016431203112006187,0.001444928115233779,0.002727594692260027
1761479838985185000,1.56218505859375,-0.00014905305579304695,-0.0020814226008951664,-0.0006389913614839315
1761479838995221200,1.57222119140625,-0.0007527917623519897,0.00042860652320086956,0.002775980159640312
1761479839005257200,1.58225732421875,0.002493028063327074,-0.0004976284690201283,0.0020840694196522236
1761479839015293200,1.592293212890625,0.000632809940725565,-0.002894739620387554,0.00008616584818810225
1761479839025329200,1.6023291015625,0.0017152773216366768,-0.0027193992864340544,0.00064893311355263
1761479839035364000,1.612364013671875,0.0014116773381829262,-0.002338034799322486,0.0001314808614552021
1761479839045400000,1.622400146484375,-0.0003321194089949131,-0.0008600212167948484,0.0010162116959691048
1761479839055436000,1.63243603515625,0.0010455339215695858,0.0020803750958293676,-0.000004045432433485985
1761479839065472000,1.642471923828125,-0.0008343486115336418,-0.0007736156694591045,0.0004697440890595317
1761479839075508200,1.65250830078125,0.0009632850997149944,-0.0006385932210832834,-0.00018352933693677187
1761479839085544200,1.662544189453125,-0.0004021129570901394,-0.0003169008996337652,-0.0030262309592217207
1761479839095580200,1.672580078125,0.000836523249745369,-0.002897770144045353,0.0007914105080999434
1761479839105616100,1.6826162109375,0.000908547081053257,-0.0018028391059488058,0.0004510958679020405
1761479839115651000,1.692651123046875,0.000388165470212698,-0.001244640676304698,0.0019709619227796793
1761479839125687000,1.70268701171875,-0.0018928870558738708,-0.000266500748693943,-0.0005165922921150923
1761479839135723000,1.712722900390625,0.0009540319442749023,-0.0016691875644028187,0.00028262240812182426
1761479839145759200,1.72275927734375,-0.0020331363193690777,0.0022310856729745865,0.0013716380344703794
1761479839155795200,1.732795166015625,0.00011789845302700996,0.0012489117216318846,0.0016912173014134169
1761479839165831200,1.7428310546875,-0.0008254162967205048,-0.0010311270598322153,-0.0005257899174466729
1761479839175867100,1.7528671875,-0.00021741678938269615,-0.0007813223637640476,0.0010851563420146704
1761479839185902000,1.762902099609375,0.0016826414503157139,-0.0011885503772646189,-0.000739041599445045
1761479839195938000,1.77293798828125,0.0020847786217927933,0.0016130951698869467,-0.001649309997446835
1761479839205974000,1.78297412109375,0.00031784921884536743,0.00006588548421859741,-0.0006873923121020198
1761479839216010000,1.793010009765625,-0.0002810959704220295,-0.00012959050945937634,-0.0015712956665083766
1761479839226046200,1.803046142578125,0.0018232590518891811,0.0003996603190898895,-0.001975877210497856
1761479839236082200,1.813082275390625,0.00011244416236877441,0.0014984806766733527,-0.0013263322180137038
1761479839246118100,1.8231181640625,0.0004621320404112339,-0.0019684976432472467,-0.00010723236482590437
1761479839256154000,1.833154052734375,0.00032125087454915047,0.0008403385290876031,0.00013857742305845022
1761479839266190000,1.843190185546875,-0.0018122736364603043,-0.001984440954402089,0.0005518988473340869
1761479839276225000,1.85322509765625,-0.00034593744203448296,0.0015897873090580106,0.00103739311452955
1761479839286261000,1.863260986328125,-0.00030027516186237335,-0.0011335883755236864,0.001486659049987793
1761479839296297000,1.873296875,-0.0006880313158035278,0.0012707135174423456,0.0009899795986711979
1761479839306333200,1.883333251953125,0.00032190559431910515,-0.0018822606652975082,-0.0013775277184322476
1761479839316369200,1.893369140625,0.000375168863683939,0.0007060656789690256,0.001108533120714128
1761479839326405000,1.903405029296875,-0.000706919003278017,-0.0015922901220619678,0.0000168156111612916
1761479839336441000,1.913441162109375,-0.0008451370522379875,-0.001840230543166399,-0.00045696075540035963
1761479839346476000,1.92347607421875,0.001541708130389452,-0.0022789810318499804,0.0006428532069548965
1761479839356512000,1.933511962890625,-0.0007238429971039295,0.0005442360416054726,-0.0017659759614616632
1761479839366548000,1.9435478515625,-0.001177376601845026,0.0009047731291502714,0.00023824069648981094
1761479839376584000,1.953583984375,-0.0004093209281563759,-0.0001232069917023182,-0.0006003887392580509
1761479839386621000,1.963620849609375,-0.00032983068376779556,-0.0005769424606114626,-0.0004811519756913185
1761479839396657000,1.973656982421875,0.0000012004747986793518,0.00035622925497591496,0.0021828082390129566
1761479839406692900,1.98369287109375,-0.0014205393381416798,0.003430091543123126,0.0008531457860954106
1761479839416729000,1.99372900390625,0.0006482042372226715,-0.0008168513886630535,0.0008230520761571825
1761479839426765000,2.00376513671875,-0.0001617749221622944,-0.0006609882693737745,0.002110482892021537
1761479839436800000,2.013800048828125,0.0006899042055010796,-0.0017190624494105577,-0.00004987337160855532
1761479839446836000,2.0238359375,0.000461735762655735,-0.00024454714730381966,-0.0006794861983507872
1761479839456872000,2.033871826171875,-0.00010578380897641182,0.0006734444759786129,-0.00022648239973932505
1761479839466908000,2.043907958984375,-0.0007844646461308002,0.00036907498724758625,-0.000259366468526423
1761479839476944000,2.05394384765625,0.0016097170300781727,-0.0029407013207674026,-0.0006380679551512003
1761479839486979800,2.063979736328125,-0.00005902722477912903,-0.00016660615801811218,0.0002839446533471346
1761479839497016000,2.07401611328125,0.004946916829794645,-0.0016374699771404266,-0.001238318276591599
1761479839507051000,2.084051025390625,0.0015890910290181637,0.00043508829548954964,-0.0009593823924660683
1761479839517087000,2.0940869140625,-0.0005278559401631355,-0.00024854508228600025,0.0010923169320449233
1761479839527123000,2.104123046875,-0.002658745739609003,-0.0013238361570984125,0.00015870854258537292
1761479839537159000,2.114158935546875,-0.0008699009194970131,-0.0027153377886861563,0.0007272933726198971
1761479839547195000,2.12419482421875,0.0013652998022735119,0.0013639316894114017,-0.000876882579177618
1761479839557230800,2.13423095703125,-0.0006136950105428696,0.001076043932698667,-0.00027048075571656227
1761479839567266800,2.144266845703125,0.0005804090760648251,-0.0031119436025619507,0.0008136928081512451
1761479839577303000,2.154302978515625,0.0006840061396360397,0.0004060922656208277,-0.0006047066999599338
1761479839587339000,2.164339111328125,-0.00011928146705031395,0.001087125507183373,0.00006179907359182835
1761479839597374000,2.1743740234375,-0.0016620508395135403,-0.0009525895584374666,0.0007009577821008861
1761479839607410000,2.184409912109375,-0.0019167806021869183,-0.0000652591697871685,0.001279172720387578
1761479839617446000,2.19444580078125,0.0006651538424193859,-0.0025646358262747526,-0.0003698565997183323
1761479839627481900,2.20448193359375,-0.0008785473182797432,0.001771172508597374,0.0008797532645985484
1761479839637517800,2.214517822265625,0.00031428225338459015,-0.0004917155019938946,-0.00048511673230677843
1761479839647554000,2.224553955078125,-0.0009738835506141186,-0.00023490888997912407,-0.0014298545429483056
1761479839657590000,2.234590087890625,0.00074785016477108,-0.00010521314106881618,0.0006724449340254068
1761479839667625000,2.244625,-0.0015460709109902382,0.00048032961785793304,0.0013368329964578152
1761479839677661000,2.254660888671875,-0.0031173359602689743,-0.0009327437728643417,0.00034453917760401964
1761479839687697000,2.26469677734375,0.0008712313137948513,0.0008505642181262374,0.0006103741470724344
1761479839697732900,2.27473291015625,0.0004291464574635029,0.0006391091737896204,0.001710259704850614
1761479839707768800,2.284768798828125,0.0013961512595415115,-0.0026277718134224415,0.0004459482152014971
1761479839717804800,2.2948046875,0.00031171226873993874,-0.0003478394355624914,-0.0019809906370937824
1761479839727841000,2.304841064453125,-0.00047381967306137085,-0.00018457276746630669,0.0000781558919698
1761479839737877200,2.314877197265625,-0.000036528799682855606,-0.0003443625755608082,-0.0006731217727065086
1761479839747912000,2.324911865234375,-0.005396421067416668,-0.0009536794386804104,0.0017623999156057835
1761479839757948000,2.334947998046875,0.0011437702924013138,0.0009970859391614795,-0.0020094350911676884
1761479839767983900,2.34498388671875,-0.0012852335348725319,0.0008880967507138848,0.00012437393888831139
1761479839778019800,2.355019775390625,0.0008546160534024239,-0.0025226136203855276,0.000012521166354417801
1761479839788055800,2.365055908203125,0.00008034426718950272,-0.0011911133769899607,-0.0008275599684566259
1761479839798092000,2.375092041015625,-0.0020011826418340206,-0.000293361721560359,0.0010345223126932979
1761479839808128000,2.3851279296875,-0.00022311415523290634,-0.0025337396655231714,-0.0024726265110075474
1761479839818164200,2.395164306640625,-0.0028774868696928024,0.0021057529374957085,-0.001167677459307015
1761479839828199000,2.405198974609375,-0.0010523204691708088,0.0022133952006697655,-0.0016730203060433269
1761479839838235000,2.41523486328125,-0.00011515431106090546,-0.0005331228021532297,0.0010351480450481176
1761479839848270800,2.425270751953125,-0.0007590577006340027,-0.0008815769106149673,-0.000008693314157426357
1761479839858307000,2.43530712890625,-0.0008594589307904243,0.0012628004187718034,0.0011564396554604173
1761479839868343000,2.445343017578125,0.0014502191916108131,0.0001272417139261961,-0.0019094450399279594
1761479839878379000,2.45537890625,0.0005303635261952877,-0.000510052777826786,-0.0019352775998413563
1761479839888415000,2.4654150390625,0.0020435864571481943,0.001023807330057025,0.0014532168861478567
1761479839898451200,2.475451171875,0.001943717710673809,0.002817978849634528,0.0007187171140685678
1761479839908486100,2.485486083984375,-0.0016124616377055645,-0.0014773865696042776,0.0018137699225917459
1761479839918522000,2.495522216796875,0.00029809027910232544,0.0026020437944680452,0.0007815287099219859
1761479839928558000,2.50555810546875,-0.0028545898385345936,0.000936745316721499,-0.0016171555034816265
1761479839938594000,2.515593994140625,-0.0011933096684515476,-0.0019762201700359583,0.0009376148227602243
1761479839948630000,2.525630126953125,-0.0013828128576278687,-0.002116085961461067,0.001043724361807108
1761479839958666000,2.535666015625,-0.0011806790716946125,0.00003095460124313831,0.0008988483459688723
1761479839968702000,2.545701904296875,-0.00022885901853442192,-0.0009689508005976677,0.0012498191790655255
1761479839978738200,2.55573828125,-0.0008983775041997433,0.0002489127218723297,-0.0017478348454460502
1761479839988773000,2.565773193359375,0.00035630911588668823,0.0020856517367064953,-0.0016819540178403258
1761479839998809000,2.57580908203125,-0.0002948334440588951,-0.00018416042439639568,0.0004858591128140688
1761479840008845000,2.585844970703125,-0.0009805173613131046,-0.0010991054587066174,-0.0016526046674698591
1761479840018881000,2.595881103515625,-0.0002880953252315521,0.0007962661329656839,0.0009455753024667501
1761479840028917000,2.6059169921875,-0.00008576083928346634,0.0018992418190464377,0.0017657700227573514
1761479840038953000,2.615952880859375,0.0002372809685766697,-0.00021504168398678303,-0.0026859701611101627
1761479840048989200,2.6259892578125,0.0009916084818542004,-0.0005010345485061407,0.00036109238862991333
1761479840059024100,2.636024169921875,-0.0006749974563717842,-0.0012874661479145288,-0.0009510471718385816
1761479840069060000,2.64606005859375,0.0008331704884767532,-0.0019391197711229324,-0.0007430128753185272
1761479840079096000,2.656095947265625,0.0004896228201687336,0.0005197767168283463,-0.0007608560845255852
1761479840089132000,2.666132080078125,0.002487241057679057,0.0008800514042377472,-0.0006519467569887638
1761479840099168000,2.67616796875,0.001341016497462988,0.0005293132271617651,-0.0010772536043077707
1761479840109204000,2.686203857421875,-0.0017763590440154076,-0.0004431232810020447,0.0009625189122743905
1761479840119240000,2.696239990234375,0.0021243731025606394,-0.00010623340494930744,0.0010016674641519785
1761479840129276200,2.706276123046875,-0.0018430943600833416,0.0027713333256542683,-0.00025240902323275805
1761479840139311000,2.71631103515625,-0.0020313793793320656,0.000696198083460331,0.001140424283221364
1761479840149347000,2.72634716796875,-0.00023347698152065277,0.0008901030523702502,-0.0006229729624465108
1761479840159383000,2.736383056640625,0.002089065732434392,-0.0006217735353857279,0.0005560084246098995
1761479840169419000,2.7464189453125,0.00028233323246240616,-0.00011604721657931805,0.000626434397418052
1761479840179455000,2.756455078125,0.0007667620666325092,0.001961218426004052,-0.002110762521624565
1761479840189491000,2.766490966796875,-0.0011983555741608143,-0.0008385826367884874,0.001680324086919427
1761479840199527000,2.77652685546875,-0.0008060717955231667,0.001577969640493393,0.000008657923899590969
1761479840209562000,2.78656201171875,-0.002463736105710268,0.002722180914133787,0.0005029613384976983
1761479840219598000,2.79659814453125,-0.0022733197547495365,-0.0019268991891294718,0.00007605657447129488
1761479840229634000,2.806634033203125,0.0007058172486722469,0.00440075621008873,-0.001556195318698883
1761479840239670000,2.816669921875,-0.0009618541225790977,-0.00030238647013902664,0.001071279402822256
1761479840249706000,2.8267060546875,-0.003594690002501011,0.00015205075033009052,-0.0005878426600247622
1761479840259742000,2.836741943359375,0.0015555969439446926,0.0017046736320480704,-0.00037159398198127747
1761479840269778000,2.84677783203125,-0.00012044841423630714,0.00021864124573767185,0.00079240562627092
1761479840279814000,2.85681396484375,0.00010139262303709984,0.0007334302645176649,0.0011327576357871294
1761479840289849000,2.86684912109375,-0.0005854256451129913,0.00007046572864055634,0.000040523591451346874
1761479840299885000,2.876885009765625,0.0010870397090911865,-0.002061394974589348,-0.0009014364331960678
1761479840309921000,2.886921142578125,-0.0007281792350113392,0.0019997511990368366,0.00022222893312573433
1761479840319957000,2.89695703125,-0.00008156383410096169,0.0013211776968091726,-0.00043184333480894566
1761479840329993000,2.906992919921875,0.0012266864068806171,-0.0003145297523587942,-0.0008506026351824403
1761479840340029000,2.91702880859375,-0.000399706419557333,0.000971244415268302,0.0014695432037115097
1761479840350065000,2.92706494140625,0.0008057625964283943,-0.0002408791333436966,-0.0008948144968599081
1761479840360100000,2.93710009765625,-0.0002512461505830288,-0.0011594034731388092,0.0016266664024442434
1761479840370136000,2.947135986328125,0.0011939755640923977,-0.0011245687492191792,-0.0017844467656686902
1761479840380172000,2.957172119140625,-0.002532585524022579,0.0011271341936662793,0.00044781481847167015
1761479840390207500,2.96720751953125,0.0009921658784151077,-0.0007333685643970966,-0.0005752115976065397
1761479840400243500,2.977243408203125,-0.0006059971638023853,0.00046185823157429695,-0.0001078267814591527
1761479840410279400,2.987279541015625,-0.0007565189152956009,0.0003484319895505905,0.0015670048305764794
1761479840420315400,2.9973154296875,0.00044829538092017174,-0.000313363503664732,-0.000041544437408447266
1761479840430351600,3.0073515625,-0.0026744925417006016,-0.00041719526052474976,-0.0016163898399099708
1761479840440386600,3.017386474609375,-0.0006563495844602585,0.00024486659094691277,0.0005381075898185372
1761479840450422500,3.027422607421875,-0.0016069868579506874,0.0022225859574973583,-0.00012767373118549585
1761479840460458500,3.03745849609375,-0.00042614107951521873,0.0004941942170262337,-0.00018652959261089563
1761479840470494500,3.047494384765625,-0.0021252939477562904,-0.0015913995448499918,-0.00025894539430737495
1761479840480530400,3.057530517578125,-0.0016445936635136604,0.000536998501047492,-0.00018704007379710674
1761479840490566400,3.06756640625,-0.0004878053441643715,-0.00024777976796031,0.0004365943605080247
1761479840500602400,3.077602294921875,-0.001699543558061123,-0.0003135597798973322,0.0020155825186520815
1761479840510637600,3.087637451171875,0.0005182595923542976,-0.004022739361971617,0.000767795427236706
1761479840520673500,3.097673583984375,-0.001975790597498417,0.0032069438602775335,0.0000026692869141697884
1761479840530709500,3.10770947265625,-0.0013386202044785023,0.00031271553598344326,0.0003714921185746789
1761479840540745500,3.117745361328125,-0.00010104943066835403,0.0006277675274759531,0.0016157209174707532
1761479840550781400,3.127781494140625,0.0005503594875335693,0.0004791261162608862,0.00036536471452564
1761479840560817400,3.1378173828125,0.00040814653038978577,0.00009642983786761761,-0.0013001762563362718
1761479840570853400,3.147853271484375,-0.0011392687447369099,-0.00001022382639348507,-0.0029190112836658955
1761479840580889300,3.157889404296875,0.0009598350152373314,0.002948015695437789,0.00043417455162853
1761479840590924500,3.167924560546875,0.0004100324586033821,-0.0015152329578995705,0.00010202790144830942
1761479840600960500,3.17796044921875,0.00006035901606082916,-0.0014390661381185055,-0.002470852341502905
1761479840610996500,3.18799658203125,-0.0021036393009126186,-0.0020763413049280643,0.0006868524942547083
1761479840621032400,3.198032470703125,-0.0005741855129599571,0.00039560464210808277,0.0008935137884691358
1761479840631068400,3.208068359375,0.00014110887423157692,0.00009812554344534874,0.0026943604461848736
1761479840641104400,3.2181044921875,-0.003083180170506239,-0.00005633779801428318,0.0006325411377474666
1761479840651140400,3.228140380859375,-0.0007503116503357887,-0.0011036931537091732,-0.0006713392212986946
1761479840661175600,3.238175537109375,0.00014983676373958588,-0.0029705690685659647,0.0026168657932430506
1761479840671211500,3.24821142578125,-0.0006437832489609718,0.0016515501774847507,-0.000678646145388484
1761479840681247500,3.25824755859375,-0.001171621959656477,0.000012108124792575836,-0.0031005251221358776
1761479840691283500,3.268283447265625,0.00009242445230484009,0.0019786509219557047,-0.00002455932553857565
1761479840701319400,3.2783193359375,-0.0023456993512809277,0.0007820928003638983,0.0023283434566110373
1761479840711355400,3.28835546875,-0.0005914187058806419,0.0038734707050025463,0.000622126623056829
1761479840721391400,3.298391357421875,-0.00036558276042342186,0.0009810113115236163,0.0002628661459311843
1761479840731426600,3.308426513671875,-0.001952960155904293,0.0004505622200667858,-0.0020795026794075966
1761479840741462500,3.318462646484375,-0.0009817047975957394,0.00045775272883474827,0.0019847473595291376
1761479840751498500,3.32849853515625,0.00009520864114165306,-0.0018656672909855843,-0.0017952864291146398
1761479840761534500,3.338534423828125,0.0008475515060126781,-0.0006230364087969065,0.000970672641415149
1761479840771570400,3.3485703125,0.0015105456113815308,-0.0017543502617627382,-0.0016784158069640398
1761479840781606400,3.3586064453125,-0.0004799007438123226,-0.0013729853089898825,0.00018366635777056217
1761479840791642400,3.368642333984375,-0.00425281235948205,-0.002995422575622797,0.0004656881792470813
1761479840801677600,3.378677490234375,-0.0001387614756822586,0.0019836232531815767,0.0021802312694489956
1761479840811713500,3.388713623046875,0.0020313109271228313,0.002453606342896819,0.0005811096634715796
1761479840821749500,3.39874951171875,0.0012387540191411972,0.0002812659367918968,-0.0014847044367343187
1761479840831785500,3.408785400390625,0.000872886274009943,0.00007118587382137775,0.0013344674371182919
1761479840841821400,3.418821533203125,0.0018031285144388676,-0.0008073910139501095,0.00024257134646177292
1761479840851857400,3.428857421875,0.0003399457782506943,-0.001940594520419836,0.0011840732768177986
1761479840861893400,3.438893310546875,-0.0014654113911092281,0.0005542545113712549,-0.00042420963291078806
1761479840871929300,3.448929443359375,0.0007670456543564796,0.0034294247161597013,-0.00018314679618924856
1761479840881964500,3.458964599609375,-0.0003381660208106041,0.002494655316695571,-0.001925120479427278
1761479840892000500,3.46900048828125,0.0009619919583201408,0.00018587824888527393,-0.0010119808139279485
1761479840902036500,3.479036376953125,-0.00022497866302728653,0.0003278246149420738,-0.0004647012101486325
1761479840912072400,3.489072509765625,-0.002735708374530077,-0.0023613320663571358,-0.0018636106979101896
1761479840922108400,3.4991083984375,-0.0018355599604547024,0.0007159505039453506,-0.002570680109784007
1761479840932144400,3.509144287109375,0.0008073234930634499,0.0025036982260644436,0.0020327558740973473
1761479840942180400,3.519180419921875,0.0008507329039275646,0.0017750572878867388,0.0007517754565924406
1761479840952215600,3.529215576171875,0.0008570263162255287,0.00005227210931479931,-0.000484912539832294
1761479840962251500,3.53925146484375,0.0015702210366725922,0.00048583466559648514,0.0003521190956234932
1761479840972287500,3.54928759765625,0.0008864435367286205,-0.0013160223606973886,-0.002031109295785427
1761479840982323500,3.559323486328125,-0.0009141196496784687,0.0006885388866066933,0.000018991995602846146
1761479840992359400,3.569359375,-0.0001687011681497097,0.0004841990303248167,0.0017845813417807221
1761479841002395600,3.579395751953125,0.0020686201751232147,0.0006700877565890551,0.0011728532845154405
1761479841012431600,3.589431640625,0.00039233965799212456,-0.0015717577189207077,0.0005066365702077746
1761479841022466300,3.59946630859375,-0.0010526911355555058,0.0009007210610434413,-0.0017218965804204345
1761479841032502500,3.60950244140625,0.0010958570055663586,-0.0016796705313026905,0.000060975668020546436
1761479841042538500,3.61953857421875,-0.0003499728627502918,-0.0019827382639050484,0.0006276963395066559
1761479841052574500,3.629574462890625,-0.0012525757774710655,-0.0027599819004535675,-0.0011497281957417727
1761479841062610700,3.639610595703125,-0.0004171421751379967,0.00045871478505432606,0.000026057357899844646
1761479841072646700,3.649646728515625,0.0029779134783893824,0.0001809988170862198,-0.0011207787320017815
1761479841082682600,3.6596826171875,0.0006718821823596954,0.000666759442538023,-0.00013327866327017546
1761479841092717300,3.66971728515625,-0.0019245659932494164,0.0010309567442163825,0.0017018452053889632
1761479841102753300,3.679753173828125,-0.0009128311648964882,-0.0004122103564441204,-0.0009336188668385148
1761479841112789500,3.68978955078125,-0.0016126688569784164,-0.000384126091375947,0.0008397396886721253
1761479841122825700,3.69982568359375,0.001784459687769413,-0.0003154166042804718,-0.00093765405472368
1761479841132861700,3.70986181640625,-0.0015370356850326061,-0.0004603911656886339,-0.0030943024903535843
1761479841142897700,3.719897705078125,0.002230005571618676,-0.0014532178174704313,0.0018250884022563696
1761479841152933600,3.72993359375,-0.00011330703273415565,-0.00031571462750434875,0.0014116117963567376
1761479841162968300,3.73996826171875,0.00006672227755188942,-0.0000778944231569767,0.00038789259269833565
1761479841173004500,3.750004638671875,0.0005261171609163284,0.0038064206019043922,-0.0003352443454787135
1761479841183040500,3.76004052734375,-0.0013673901557922363,-0.000648248940706253,0.00021895940881222486
1761479841193076700,3.77007666015625,0.0007431483827531338,0.0002782291267067194,-0.00068940210621804
1761479841203112700,3.78011279296875,-0.00272402074187994,0.000985298422165215,0.001619292190298438
1761479841213148700,3.790148681640625,-0.0018158438615500927,-0.0003259354270994663,-0.0007299077697098255
1761479841223184600,3.8001845703125,-0.0016312873922288418,-0.00021994160488247871,-0.0031070453114807606
1761479841233219600,3.810219482421875,-0.000246535986661911,-0.0005429019220173359,0.0015949136577546597
1761479841243255600,3.820255615234375,0.0008107391186058521,0.0013029350666329265,-0.0010064620291814208
1761479841253291500,3.83029150390625,-0.0016590082086622715,-0.0006711527239531279,0.0016590977320447564
1761479841263327500,3.840327392578125,0.0019788695499300957,-0.0046112993732094765,0.0010652127675712109
1761479841273363700,3.85036376953125,-0.0007171262986958027,0.0003136610612273216,-0.0016800309531390667
1761479841283399700,3.860399658203125,0.00011191563680768013,0.0007687953766435385,0.0030337641946971416
1761479841293435600,3.870435546875,0.002032980788499117,0.0018260972574353218,0.00023550703190267086
1761479841303470600,3.880470703125,-0.000151077751070261,0.0020133175421506166,-0.0007786246715113521
1761479841313506600,3.890506591796875,0.00002457946538925171,-0.0021864385344088078,0.0009160253684967756
1761479841323542500,3.90054248046875,0.0004541473463177681,0.00017551914788782597,-0.0023186500184237957
1761479841333578500,3.91057861328125,0.0018228297121822834,-0.0027013246435672045,-0.00047432922292500734
1761479841343614500,3.920614501953125,0.00009150849655270576,0.000858789193443954,-0.0008125506574288011
1761479841353650700,3.930650634765625,0.0015461728908121586,0.003142961533740163,0.0018894971581175923
1761479841363686700,3.940686767578125,-0.003886941820383072,0.001578887109644711,-0.00018750224262475967
1761479841373721600,3.9507216796875,-0.00013225385919213295,0.0020212363451719284,-0.0018147645751014352
1761479841383757600,3.960757568359375,-0.0027072648517787457,0.0006566324736922979,0.0006124404026195407
1761479841393794000,3.9707939453125,-0.00009962264448404312,0.0015738257206976414,0.0005229061935096979
1761479841403830000,3.980830078125,-0.00063731474801898,-0.0000962426420301199,-0.001514411997050047
1761479841413866000,3.990865966796875,-0.0014325696974992752,0.0006856459658592939,-0.0007190483156591654
1761479841423902000,4.00090185546875,0.00007051834836602211,0.0000012135133147239685,-0.0010559381917119026
1761479841433938000,4.01093798828125,-0.0007774815894663334,0.0006065438501536846,0.00024227052927017212
1761479841443972000,4.02097216796875,-0.0007825414650142193,-0.0010313002858310938,0.0008414818439632654
1761479841454008000,4.031008056640625,-0.00009645335376262665,-0.00021406961604952812,-0.0015468290075659752
1761479841464044000,4.0410439453125,0.0007480350323021412,-0.0003411024808883667,-0.0014823805540800095
1761479841474080000,4.051080078125,-0.000881541520357132,-0.00036574946716427803,-0.002200346440076828
1761479841484116000,4.061115966796875,0.0002361871302127838,0.0002696807496249676,-0.0031015602871775627
1761479841494152200,4.071152099609375,-0.0012639211490750313,-0.0006269724108278751,-0.00037832034286111593
1761479841504188200,4.081188232421875,-0.00007908092811703682,0.0012998245656490326,0.0012928132200613618
1761479841514223000,4.09122314453125,-0.00021120021119713783,0.0018697576597332954,-0.0008143284358084202
1761479841524259000,4.101259033203125,-0.00027777906507253647,-0.0021058092825114727,0.0003401519497856498
1761479841534295000,4.111294921875,-0.0007594376802444458,-0.0019407726358622313,0.0013424220960587263
1761479841544331000,4.1213310546875,-0.00045557087287306786,0.0005852354224771261,-0.0037364924792200327
1761479841554367000,4.131366943359375,0.000961588229984045,0.0017898420337587595,-0.0007575571071356535
1761479841564403000,4.14140283203125,-0.0017596296966075897,-0.0005225806962698698,-0.0007309257052838802
1761479841574439200,4.151439208984375,-0.0019131298176944256,-0.00011018686927855015,0.0008053616038523614
1761479841584474000,4.16147412109375,0.001183327753096819,-0.000978643773123622,-0.0009560530306771398
1761479841594510000,4.171510009765625,-0.0007282844744622707,0.00005232985131442547,0.0008122750441543758
1761479841604546000,4.181546142578125,0.0018919999711215496,0.0003093250561505556,0.0020077680237591267
1761479841614582000,4.19158203125,0.0010371902026236057,-0.00013005058281123638,-0.0014247896615415812
1761479841624618000,4.201617919921875,0.0011450480669736862,0.0014185775071382523,0.0005739126354455948
1761479841634654000,4.211654052734375,-0.00018632598221302032,0.000051711685955524445,0.0006159630720503628
1761479841644689200,4.221689208984375,0.0016469941474497318,-0.0008673453703522682,0.0007752201054245234
1761479841654725000,4.23172509765625,0.0002864641137421131,-0.0003047422505915165,0.001548598986119032
1761479841664761000,4.241760986328125,0.0019269711337983608,-0.0017806661780923605,-0.0013585076667368412
1761479841674797000,4.251797119140625,-0.0011653769761323929,0.0005606678314507008,-0.0008102735737338662
1761479841684833000,4.2618330078125,0.0019262866117060184,-0.0030159573070704937,0.0004509995924308896
1761479841694869000,4.271868896484375,0.0010937363840639591,-0.0001616154331713915,0.0010309426579624414
1761479841704905000,4.281905029296875,-0.00264587439596653,0.00043360120616853237,0.0005923199933022261
1761479841714940200,4.291940185546875,0.0003143809735774994,-0.0018051783554255962,0.0003404015442356467
1761479841724976000,4.30197607421875,-0.00145662110298872,0.0008009913144633174,0.00025677832309156656
1761479841735012000,4.31201220703125,-0.0013796384446322918,-0.00020406232215464115,-0.00021657708566635847
1761479841745048000,4.322048095703125,-0.0002097119577229023,0.0010305792093276978,-0.00007676111999899149
1761479841755084000,4.332083984375,0.0006023296155035496,-0.0014906139113008976,-0.00028666527941823006
1761479841765120000,4.3421201171875,-0.000848294235765934,-0.0003158936742693186,-0.00032661273144185543
1761479841775156000,4.352156005859375,-0.0006078430451452732,0.00040570786222815514,-0.0018257398623973131
1761479841785191200,4.362191162109375,-0.0003399290144443512,-0.0006254680920392275,0.000551664037629962
1761479841795227100,4.37222705078125,0.0006506433710455894,-0.0003279312513768673,0.0011128697078675032
1761479841805263000,4.38226318359375,0.0010527805425226688,0.0027892987709492445,0.000600211089476943
1761479841815299000,4.392299072265625,-0.0023465449921786785,-0.0000724252313375473,-0.0003449812065809965
1761479841825335000,4.4023349609375,-0.0010418621823191643,-0.0016042753122746944,0.00022733211517333984
1761479841835371300,4.412371337890625,0.00018406938761472702,-0.0017311936244368553,-0.0009547792142257094
1761479841845407200,4.4224072265625,0.0016797007992863655,-0.00012504123151302338,-0.0006157589377835393
1761479841855442000,4.43244189453125,0.0005394928157329559,0.001204569940455258,-0.0009192966390401125
1761479841865478100,4.44247802734375,-0.0017159380950033665,-0.0004015825688838959,-0.001165106426924467
1761479841875514000,4.45251416015625,-0.0010593072511255741,0.000447180587798357,-0.0007250772323459387
1761479841885550000,4.462550048828125,-0.0019935443997383118,-0.002764591947197914,-0.0019426746293902397
1761479841895586300,4.47258642578125,-0.001654505729675293,-0.004375637508928776,-0.0006112479604780674
1761479841905622300,4.482622314453125,-0.0016177543438971043,-0.0023071602918207645,0.0003709258744493127
1761479841915658200,4.492658203125,0.0016575898043811321,0.0020696260035037994,0.0008148885681293905
1761479841925693000,4.50269287109375,-0.001541133038699627,-0.0008452036418020725,0.00023511843755841255
1761479841935729200,4.512729248046875,-0.0013945898972451687,-0.001383430091664195,0.000985382474027574
1761479841945765000,4.52276513671875,-0.00023478316143155098,-0.0028191402088850737,-0.002547833137214184
1761479841955801300,4.53280126953125,0.00040915748104453087,0.0014975916128605604,0.0020244168117642403
1761479841965837300,4.54283740234375,-0.0012188330292701721,0.0016414023702964187,-0.001817725831642747
1761479841975873300,4.552873291015625,-0.0019446378573775291,-0.0010454459115862846,0.0021745553240180016
1761479841985908000,4.562907958984375,0.00221814913675189,0.001002791221253574,-0.000194858992472291
1761479841995944000,4.57294384765625,-0.0012972145341336727,0.0007433481514453888,-0.0021755604539066553
1761479842005980200,4.582980224609375,0.002000844106078148,-0.0003874299582093954,0.0020066676661372185
1761479842016017200,4.59301708984375,0.002041967585682869,-0.001996855018660426,-0.0001191338524222374
1761479842026053000,4.60305322265625,0.0011058668605983257,0.00006283377297222614,0.0008222935721278191
1761479842036089000,4.613089111328125,-0.0008400389924645424,0.00039685494266450405,-0.0009160416666418314
1761479842046125000,4.623125,0.0001016547903418541,-0.0013965179678052664,-0.00020151562057435513
1761479842056161300,4.633161376953125,0.00021998444572091103,-0.0013310785870999098,0.0009589841356500983
1761479842066197200,4.643197265625,-0.001904419157654047,0.00018878746777772903,0.002311603631824255
1761479842076233200,4.653233154296875,0.002880397718399763,-0.0007468510884791613,0.00022322172299027443
1761479842086268200,4.66326806640625,0.0017387005500495434,0.0009405278833582997,0.0011169785866513848
1761479842096304000,4.67330419921875,-0.000170975923538208,0.0005104911979287863,-0.0018001588759943843
1761479842106340000,4.683340087890625,0.001477520912885666,0.00044311326928436756,0.0003391584614291787
1761479842116376000,4.6933759765625,-0.0018010861240327358,-0.0010142335668206215,0.0010028723627328873
1761479842126412000,4.703412109375,0.0007118722423911095,0.0002004341222345829,-0.00025520497001707554
1761479842136448300,4.7134482421875,-0.000692776869982481,-0.001038827933371067,0.0001564328558743
1761479842146484200,4.723484130859375,0.0020377621985971928,0.000949221896007657,-0.0011013781186193228
1761479842156519200,4.733519287109375,0.00002631964161992073,0.0009620744967833161,-0.0012468057684600353
1761479842166555100,4.74355517578125,-0.0017926190048456192,0.0008174648974090815,0.0003731950419023633
1761479842176591000,4.753591064453125,0.002684701234102249,-0.002098437398672104,-0.0019762965384870768
1761479842186627000,4.763626953125,-0.0013241549022495747,0.0016904417425394058,0.0007502478547394276
1761479842196663000,4.7736630859375,0.0008987560868263245,0.0013070906279608607,-0.000278485007584095
1761479842206699000,4.783698974609375,-0.000027225352823734283,-0.002051155548542738,0.0008701363694854081
1761479842216735200,4.7937353515625,0.0004952084273099899,-0.001617878908291459,-0.00047976267524063587
1761479842226770200,4.803770263671875,-0.0011221296153962612,-0.0008708622772246599,-0.0019596812780946493
1761479842236806100,4.81380615234375,0.0007894635200500488,-0.0007127760909497738,0.00010561582166701555
1761479842246842000,4.823842041015625,-0.00087314797565341,-0.0026398394256830215,0.000205484451726079
1761479842256878000,4.833878173828125,0.0010017594322562218,-0.0013730002101510763,-0.00017826445400714874
1761479842266914000,4.8439140625,-0.001995628233999014,0.0015085398918017745,-0.0003487068461254239
1761479842276950000,4.853949951171875,0.002083923202008009,0.002127582672983408,-0.0014199163997545838
1761479842286986200,4.863986328125,0.0011928295716643333,-0.0012418485712260008,-0.0028756004758179188
1761479842297021200,4.874021240234375,-0.0007280469872057438,0.00035362038761377335,-0.0009864834137260914
1761479842307057200,4.88405712890625,0.0003116512671113014,-0.002590504474937916,0.00010860839392989874
1761479842317093000,4.894093017578125,-0.0008820602670311928,0.0010879023466259241,0.0006611861754208803
1761479842327129000,4.904129150390625,0.0005019847303628922,-0.0005997428670525551,0.0005911450134590268
1761479842337165000,4.9141650390625,-0.0012291381135582924,-0.0003974006976932287,-0.0019869254902005196
1761479842347201000,4.924200927734375,-0.0006272639147937298,0.0008636061102151871,-0.0006883679889142513
1761479842357237000,4.934237060546875,0.0003918297588825226,-0.0015895024407655,0.00030934729147702456
1761479842367272200,4.944272216796875,0.001091708429157734,0.002597253071144223,-0.0018637921893969178
1761479842377308200,4.95430810546875,-0.00023387325927615166,-0.000047658802941441536,0.001720635686069727
1761479842387342800,4.9643427734375,-0.0022903666831552982,0.0016868578968569636,-0.0015912714879959822
1761479842397378800,4.97437890625,0.0018565668724477291,0.0008047977462410927,-0.0006216672481968999
1761479842407415000,4.9844150390625,-0.0030585634522140026,0.001900954870507121,0.0010465369559824467
1761479842417451000,4.994450927734375,0.0010553407482802868,-0.0030718990601599216,-0.0011025324929505587
1761479842427487000,5.004487060546875,-0.00032044854015111923,-0.0014636162668466568,-0.0017222501337528229
1761479842437522000,5.01452197265625,0.0006784000433981419,0.00041376659646630287,0.0010688628535717726
1761479842447558000,5.024557861328125,-0.0010808841325342655,-0.0015463198069483042,0.0007261139689944685
1761479842457593900,5.03459375,-0.0020170267671346664,0.0012345521245151758,-0.002846377668902278
1761479842467629800,5.0446298828125,0.0019675949588418007,0.001702203182503581,0.0009156038868241012
1761479842477665800,5.054665771484375,-0.00037248386070132256,0.0012477845884859562,0.00039828813169151545
1761479842487702000,5.064701904296875,0.002301063621416688,-0.0006081722676753998,-0.0016046753153204918
1761479842497738000,5.074738037109375,0.0019058478064835072,0.0008882107213139534,-0.0008332384750247002
1761479842507773000,5.08477294921875,-0.0003091031685471535,-0.00014136731624603271,-0.0009349712636321783
1761479842517809000,5.094808837890625,0.00011243345215916634,-0.0007654470391571522,-0.000019519589841365814
1761479842527844900,5.104844970703125,-0.0002974271774291992,-0.00005997577682137489,-0.0002184577751904726
1761479842537880800,5.114880859375,-0.0018350658938288689,-0.00243684952147305,0.0007816431461833417
1761479842547916800,5.124916748046875,0.0012233080342411995,0.002156836912035942,0.0005904281279072165
1761479842557952800,5.134952880859375,0.0010179453529417515,0.00017284019850194454,0.0004174279747530818
1761479842567989000,5.144989013671875,-0.0008273590356111526,-0.0003470086958259344,0.001768982270732522
1761479842578024000,5.15502392578125,0.001965203322470188,0.0013387028593569994,0.0009518586448393762
1761479842588060000,5.165059814453125,-0.0002904939465224743,0.0007501442451030016,0.0010562546085566282
1761479842598096000,5.175095947265625,-0.00019292719662189484,-0.001209526788443327,-0.0014101248234510422
1761479842608131800,5.1851318359375,-0.0023852414451539516,0.0017367283580824733,-0.000891340896487236
1761479842618167800,5.195167724609375,0.0013141199015080929,-0.002289182273671031,0.00045590801164507866
1761479842628203800,5.205203857421875,0.0010613859631121159,-0.0006976774893701077,0.0008732253918424249
1761479842638239700,5.21523974609375,-0.0027603749185800552,-0.0010030698031187057,0.0011663648765534163
1761479842648275000,5.22527490234375,0.0008530020713806152,0.0010683367727324367,-0.0011433947365731
1761479842658311000,5.235310791015625,-0.0005203969776630402,0.00190060306340456,0.0004365702625364065
1761479842668347000,5.245346923828125,0.0034740781411528587,0.0010651693446561694,-0.0011123241856694221
1761479842678382800,5.2553828125,0.00006743241101503372,0.0005302894860506058,-0.00038724346086382866
1761479842688418800,5.265418701171875,-0.0001639965921640396,-0.00002018595114350319,0.0006457966519519687
1761479842698454800,5.275454833984375,-0.0008279881440103054,-0.00012183049693703651,0.00010718742851167917
1761479842708490800,5.28549072265625,0.000658055767416954,0.00026992056518793106,0.0008944178698584437
1761479842718526000,5.29552587890625,0.0022370133083313704,-0.0009263064712285995,0.0007034495938569307
1761479842728562000,5.30556201171875,0.0009515052661299706,-0.0013004806824028492,0.00010876567102968693
1761479842738598000,5.315597900390625,0.00029127392917871475,-0.000023057684302330017,-0.00023100234102457762
1761479842748633900,5.3256337890625,-0.00061073899269104,-0.0014688875526189804,-0.000040053739212453365
1761479842758669800,5.335669921875,0.0005181790329515934,0.0010316204279661179,-0.0018887084443122149
1761479842768705800,5.345705810546875,0.0002199048176407814,-0.0005689393728971481,0.0010285181924700737
1761479842778741800,5.35574169921875,0.0002796412445604801,-0.0021542850881814957,-0.000503039569593966
1761479842788777000,5.36577685546875,0.0006852406077086926,-0.0014858315698802471,-0.0001770687522366643
1761479842798813000,5.37581298828125,0.0008332878351211548,-0.00048514618538320065,0.0012325746938586235
1761479842808849000,5.385848876953125,0.0020314441062510014,0.0022682962007820606,-0.00003455742262303829
1761479842818884900,5.395884765625,0.0011487486772239208,0.00021474948152899742,0.0015198404435068369
1761479842828920800,5.4059208984375,0.0006813639774918556,-0.0011445279233157635,0.0004612338962033391
1761479842838956800,5.415956787109375,0.0002340143546462059,0.00016714492812752724,0.0011670757085084915
1761479842848992800,5.42599267578125,0.0014718519523739815,-0.0015332833863794804,-0.00007422373164445162
1761479842859028000,5.436028076171875,0.0007973834872245789,-0.0001288577914237976,-0.00046051875688135624
1761479842869064000,5.44606396484375,0.0018093851394951344,0.002896226942539215,-0.00045013241469860077
1761479842879100000,5.456099853515625,0.0007957853376865387,0.00035548838786780834,-0.0007141986861824989
1761479842889135900,5.466135986328125,-0.0003078286536037922,-0.000029871007427573204,0.00040992163121700287
1761479842899171800,5.476171875,0.0019776741974055767,0.0001878533512353897,-0.0016259787371382117
1761479842909207800,5.486207763671875,0.00027165329083800316,0.0010139659279957414,0.000664606224745512
1761479842919243800,5.496243896484375,0.0006890604272484779,0.0017151993233710527,0.0004957610508427024
1761479842929279000,5.506279052734375,-0.0008968519978225231,-0.0010246606543660164,0.000589770614169538
1761479842939315000,5.51631494140625,-0.003986107185482979,-0.0004714720416814089,-0.0005008676089346409
1761479842949351000,5.526350830078125,0.0007348787039518356,0.0015914125833660364,-0.0006516026332974434
1761479842959387000,5.536386962890625,-0.0014645005576312542,0.0008545538876205683,-0.001979931490495801
1761479842969422800,5.5464228515625,0.0029760540928691626,0.0006023526657372713,0.00018548488151282072
1761479842979458800,5.556458740234375,0.0006436235271394253,0.0008387694833800197,-0.00044393527787178755
1761479842989494800,5.566494873046875,-0.0015169992111623287,-0.0013548762071877718,-0.001120111788623035
1761479842999529700,5.57652978515625,0.00029069557785987854,-0.00007395073771476746,0.0012045418843626976
1761479843009566000,5.58656591796875,0.002347721019759774,-0.00033121206797659397,0.0008322320063598454
1761479843019602000,5.596601806640625,-0.0005759387277066708,-0.00005110795609652996,0.00011978065595030785
1761479843029638000,5.606637939453125,0.0006272774189710617,-0.0007778846193104982,0.0003647914854809642
1761479843039673900,5.616673828125,0.0015851166099309921,0.0009481095476076007,-0.000017030397430062294
1761479843049709800,5.626709716796875,-0.0004079928621649742,-0.0008620410226285458,0.0005241238977760077
1761479843059745800,5.636745849609375,0.0007200282998383045,-0.0012610580306500196,-0.0007185108261182904
1761479843069780700,5.64678076171875,-0.0012291395105421543,0.0021019817795604467,-0.0018130700336769223
1761479843079816700,5.656816650390625,0.0006986786611378193,0.00014763325452804565,-0.000941899255849421
1761479843089853000,5.66685302734375,-0.002686465159058571,0.0020483313128352165,0.0009734462364576757
1761479843099889000,5.676888916015625,0.0003307880833745003,-0.002465947065502405,0.0018237638287246227
1761479843109924900,5.6869248046875,0.0017100395634770393,0.0013636787189170718,0.0011550441849976778
1761479843119960800,5.6969609375,-0.00018429942429065704,-0.0009932850953191519,-0.0016244386788457632
1761479843129996800,5.706996826171875,-0.0013840538449585438,-0.000547471921890974,0.00014629727229475975
1761479843140031700,5.71703173828125,0.0006168442778289318,-0.0019814022816717625,-0.0013855110155418515
1761479843150067700,5.727067626953125,0.0006320239044725895,-0.0006343754939734936,-0.0003732434706762433
1761479843160103700,5.737103759765625,0.0006813700310885906,-0.0006866680923849344,-0.00022559543140232563
1761479843170140000,5.747139892578125,0.004301671404391527,-0.00025710021145641804,0.0005134317325428128
1761479843180176000,5.75717578125,0.0008463454432785511,0.0010020621120929718,0.0003364250296726823
1761479843190211800,5.7672119140625,0.0008764392696321011,-0.002750864252448082,-0.0007538731442764401
1761479843200248000,5.777248046875,-0.0007441467605531216,0.00034398864954710007,0.0014331142883747816
1761479843210282800,5.78728271484375,0.002057765144854784,-0.00044297543354332447,-0.0002286981325596571
1761479843220318700,5.797318603515625,-0.0005711284466087818,-0.0003773707430809736,-0.0017056283541023731
1761479843230354700,5.807354736328125,-0.0012899157591164112,0.0002628532238304615,0.0007087933481670916
1761479843240390700,5.817390625,0.0012772590853273869,-0.001806349027901888,0.0014427462592720985
1761479843250427000,5.827427001953125,-0.0030341329984366894,0.00024561677128076553,0.0004424629732966423
1761479843260463000,5.837463134765625,-0.0015701241791248322,-0.0009578699246048927,-0.0019041605992242694
1761479843270497800,5.847497802734375,0.0010011577978730202,0.0017292595002800226,-0.0009086710633710027
1761479843280533800,5.85753369140625,0.0018614078871905804,0.0000760986004024744,-0.0007311652880162001
1761479843290569700,5.86756982421875,-0.0008156020194292068,-0.0009974215645343065,-0.0017751245759427547
1761479843300605700,5.877605712890625,-0.0004461877979338169,-0.0013508216943591833,0.0008490089676342905
1761479843310642000,5.887641845703125,-0.00047202035784721375,-0.0004243080038577318,-0.0008966930909082294
1761479843320678000,5.897677978515625,-0.0018167905509471893,0.0008730037370696664,-0.000875147758051753
1761479843330714000,5.907714111328125,0.002163037657737732,0.00008151214569807053,0.000007956521585583687
1761479843340748800,5.917748779296875,0.00015146052464842796,-0.0015747400466352701,-0.002634697128087282
1761479843350784800,5.92778466796875,-0.0004573380574584007,0.0006561898626387119,-0.0004618243547156453
1761479843360820700,5.93782080078125,-0.0019159214571118355,0.0023118327371776104,0.00015743914991617203
1761479843370857000,5.94785693359375,0.0026780315674841404,0.0012857168912887573,-0.0009118199814110994
1761479843380893000,5.957892822265625,0.0006013247184455395,-0.0002136563416570425,0.00035652017686516047
1761479843390928600,5.9679287109375,0.0009155781008303165,-0.0019274004735052586,-0.0011638785945251584
1761479843400964900,5.97796484375,-0.00019991863518953323,-0.0005799296777695417,0.0003772350028157234
1761479843410999800,5.987999755859375,0.0012573632411658764,0.0009761553956195712,-0.0004424859071150422
1761479843421035800,5.998035888671875,-0.0008809631690382957,-0.001943087438121438,-0.0006505986675620079
1761479843431071700,6.00807177734375,-0.00027935486286878586,-0.0017526715528219938,-0.000044729444198310375
1761479843441107700,6.018107666015625,-0.0000969255343079567,-0.0003761949483305216,0.0010281609138473868
1761479843451143700,6.028143798828125,-0.001626378856599331,-0.0006366521120071411,0.000010567018762230873
1761479843461179600,6.0381796875,0.0019134529866278172,-0.002975747687742114,0.0010776391718536615
1761479843471214800,6.04821484375,-0.001245854888111353,-0.0010755823459476233,-0.0004632658092305064
1761479843481250800,6.058250732421875,0.00026476336643099785,0.00029399595223367214,-0.0009016864933073521
1761479843491286800,6.068286865234375,-0.00005774572491645813,-0.0017883297987282276,-0.0017027652356773615
1761479843501322800,6.07832275390625,-0.0007843030616641045,-0.0018375646322965622,0.0004731671651825309
1761479843511358700,6.088358642578125,-0.0008817748166620731,-0.0013163839466869831,-0.0013172761537134647
1761479843521394700,6.098394775390625,-0.0019139978103339672,-0.000449588755145669,0.0006167622050270438
1761479843531430700,6.1084306640625,0.0016783401370048523,-0.0015076627023518085,0.00010117422789335251
1761479843541465900,6.1184658203125,0.0007364288903772831,-0.0013449953403323889,0.001102098380215466
1761479843551501800,6.128501708984375,-0.00026811566203832626,0.0018060568254441023,0.000751093786675483
1761479843561537800,6.138537841796875,0.00025405874475836754,-0.0020269600208848715,0.00019115896429866552
1761479843571573800,6.14857373046875,0.001219188328832388,-0.002137747360393405,0.001100362278521061
1761479843581609700,6.158609619140625,-0.0009195306338369846,-0.001819239929318428,-0.00010240962728857994
1761479843591645700,6.168645751953125,-0.0017594918608665466,-0.001131878001615405,0.0006552597042173147
1761479843601681700,6.178681640625,-0.0007149889133870602,0.0018132800469174981,-0.000480970018543303
1761479843611716900,6.188716796875,-0.0006156526505947113,-0.001165199326351285,-0.0005773765733465552
1761479843621752800,6.1987529296875,0.00006779283285140991,-0.00033267377875745296,0.0007155418279580772
1761479843631788800,6.208788818359375,0.0010206717997789383,0.000336312223225832,-0.0010767655912786722
1761479843641824800,6.21882470703125,-0.001472818199545145,-0.0005122488364577293,0.0005744843510910869
1761479843651860700,6.22886083984375,-0.0005393801257014275,-0.0007897501345723867,0.000014687888324260712
1761479843661896700,6.238896728515625,0.00003654602915048599,-0.0007693192455917597,0.0004249087069183588
1761479843671931600,6.248931640625,0.00020831963047385216,0.002381466794759035,0.0019016314763575792
1761479843681967600,6.258967529296875,-0.001682948786765337,-0.002480804454535246,0.00007344165351241827
1761479843692003800,6.26900390625,-0.000054692383855581284,-0.0012432336807250977,-0.002197435824200511
1761479843702039800,6.279039794921875,0.0009448695927858353,-0.00016094883903861046,-0.0005490893963724375
1761479843712075800,6.28907568359375,0.0005179648287594318,0.0018191112903878093,0.0009944788180291653
1761479843722111700,6.29911181640625,0.0015311390161514282,0.002317664213478565,0.0004721019649878144
1761479843732147700,6.309147705078125,-0.0019757109694182873,0.0009623816004022956,0.0015227189287543297
1761479843742182700,6.3191826171875,0.000231926329433918,0.000459346454590559,-0.0014343123184517026
1761479843752218600,6.329218505859375,-0.0009619686752557755,-0.001700477208942175,0.0011931622866541147
1761479843762254600,6.339254638671875,0.002220368944108486,-0.0012930156663060188,-0.0010336177656427026
1761479843772290800,6.349290771484375,-0.0008872738108038902,0.0011238030856475234,0.000634852796792984
1761479843782326800,6.359326904296875,-0.0009683221578598022,-0.002965589053928852,-0.00029626209288835526
1761479843792362800,6.36936279296875,0.0014500943943858147,0.0003681560046970844,0.00021905952598899603
1761479843802397700,6.379397705078125,-0.002235576044768095,0.0012850392377004027,-0.00041997688822448254
1761479843812433700,6.38943359375,-0.00018520792946219444,-0.0011315131559967995,-0.0013803127221763134
1761479843822469600,6.3994697265625,-0.00038310326635837555,0.0005358674097806215,-0.0008110916242003441
1761479843832505600,6.409505615234375,-0.0006337068043649197,0.00010283757001161575,-0.0008454462513327599
1761479843842541600,6.41954150390625,-0.0029202820733189583,0.00227951817214489,0.0010915794409811497
1761479843852577800,6.429577880859375,0.0002728481777012348,-0.00041187251918017864,0.0008183391764760017
1761479843862613800,6.43961376953125,0.0007600085809826851,0.001108749769628048,0.00199925247579813
1761479843872648700,6.449648681640625,-0.00032176729291677475,0.0014174100942909718,0.00016806286294013262
1761479843882684700,6.4596845703125,-0.0010268599726259708,0.0008168573258444667,0.0006176908500492573
1761479843892720600,6.469720703125,-0.0003746515139937401,-0.004001866094768047,-0.0006646212423220277
1761479843902756600,6.479756591796875,0.0020584857556968927,0.0008490722393617034,-0.00036745716352015734
1761479843912792600,6.48979248046875,-0.0006345026195049286,-0.0005943609867244959,0.0013380312593653798
1761479843922828800,6.499828857421875,0.00032348930835723877,0.0032069836743175983,0.0011572138173505664
1761479843932864800,6.50986474609375,-0.0010222061537206173,-0.0008258412126451731,0.0008381671505048871
1761479843942899700,6.519899658203125,-0.0006224550306797028,-0.0010801984462887049,0.000958803400862962
1761479843952935700,6.529935791015625,0.0010473467409610748,-0.0014245454221963882,-0.0007152596954256296
1761479843962971600,6.5399716796875,0.00047593237832188606,-0.002037836704403162,-0.00003066984936594963
1761479843973007600,6.550007568359375,0.0003337194211781025,0.00029163016006350517,0.0017435280606150627
1761479843983043600,6.560043701171875,-0.0003464384935796261,0.001172127784229815,-0.0007491942960768938
1761479843993079600,6.57007958984375,0.001835489645600319,-0.00031977519392967224,-0.00018300639931112528
1761479844003114800,6.58011474609375,-0.0014017405919730663,0.0005012908950448036,-0.0007946575060486794
1761479844013150700,6.590150634765625,0.0018129609525203705,-0.0019224521238356829,-0.0005640278104692698
1761479844023186700,6.600186767578125,0.0006187288090586662,0.0021356185898184776,0.0004585010465234518
1761479844033222700,6.61022265625,-0.0007237708196043968,-0.0013672371860593557,-0.0013495191233232617
1761479844043258600,6.620258544921875,0.0007392088882625103,0.0003146347589790821,0.0015093428082764149
1761479844053294600,6.630294677734375,0.0005093780346214771,-0.0009146803058683872,0.0010701875435188413
1761479844063330600,6.64033056640625,-0.001810793299227953,0.0038097654469311237,-0.0007099647773429751
1761479844073365800,6.65036572265625,-0.0018395553342998028,0.0005093098152428865,0.0010708910413086414
1761479844083401700,6.660401611328125,0.0007278583943843842,-0.0005026347935199738,-0.0003693773178383708
1761479844093437700,6.670437744140625,0.0006791222840547562,0.0021328292787075043,-0.00011930661275982857
1761479844103473700,6.6804736328125,0.0012335609644651413,0.002130113774910569,-0.00027527299243956804
1761479844113509600,6.690509521484375,-0.00009961752220988274,0.0021141348406672478,-0.001891279243864119
1761479844123545600,6.700545654296875,0.00006819888949394226,0.00022544153034687042,-0.00009849027264863253
1761479844133581800,6.710581787109375,-0.0009406064637005329,0.0020944480784237385,-0.0009736050851643085
1761479844143616800,6.72061669921875,-0.0003018006682395935,-0.0003396433312445879,-0.0006363049615174532
1761479844153652700,6.73065283203125,0.0004936857149004936,-0.0014690901152789593,-0.0016688124742358923
1761479844163688700,6.740688720703125,0.0004965988919138908,0.0004842923954129219,0.00023830810096114874
1761479844173724700,6.750724609375,-0.0012669465504586697,-0.00004114932380616665,0.0000273857731372118
1761479844183760600,6.7607607421875,-0.0013310308568179607,-0.002763199619948864,0.0008607764611952007
1761479844193796900,6.770796875,-0.00015710946172475815,0.00017187022604048252,-0.000584521098062396
1761479844203832800,6.780832763671875,-0.000027053989470005035,0.001827562227845192,-0.0003480870509520173
1761479844213867800,6.79086767578125,-0.0013586347922682762,-0.0007346649654209614,0.0008977396064437926
1761479844223903700,6.80090380859375,0.0006690067239105701,0.0008606885094195604,0.0029959576204419136
1761479844233939700,6.810939697265625,0.0007584891282021999,0.0004716005641967058,-0.0004198129754513502
1761479844243976000,6.820975830078125,0.0008009872399270535,-0.0019337635021656752,0.001891076099127531
1761479844254012000,6.831011962890625,0.0009799515828490257,0.00031500961631536484,0.00014936865773051977
1761479844264047900,6.8410478515625,-0.0023297900334000587,0.0004566584248095751,-0.0000403538579121232
1761479844274083800,6.851083740234375,-0.002011009491980076,0.0008055325597524643,-4.0652230381965637e-7
1761479844284118500,6.861118408203125,-0.0007526255212724209,-0.0020965919829905033,-0.000490550184622407
1761479844294154800,6.87115478515625,-0.0013494398444890976,-0.0009623516816645861,0.0006298418156802654
1761479844304191000,6.88119091796875,0.00032455287873744965,-0.00014331168495118618,-0.0006825907621532679
1761479844314227000,6.89122705078125,0.0019581359811127186,0.004741724580526352,0.004403513856232166
1761479844324263000,6.901262939453125,-0.0008469494059681892,-0.0015101884491741657,-0.0011073698988184333
1761479844334299000,6.911298828125,0.0005751787684857845,-0.0006068442016839981,-0.0029319017194211483
1761479844344334800,6.9213349609375,0.0008122562430799007,0.0017185325268656015,-0.0009321741526946425
1761479844354369800,6.931369873046875,0.0011299713514745235,0.0032740850001573563,-0.001735916011966765
1761479844364405800,6.94140576171875,-0.0009202267974615097,0.00026379572227597237,-0.0008526756428182125
1761479844374442000,6.95144189453125,-0.0004131612367928028,0.0008832471212372184,-0.0012420297134667635
1761479844384478000,6.96147802734375,-0.002650732174515724,-0.0029268560465425253,0.00221857032738626
1761479844394515200,6.97151513671875,-0.0007007652893662453,-0.0031649426091462374,-0.0006504531484097242
1761479844404551200,6.98155126953125,0.00008256034925580025,-0.0008544034790247679,-0.0018611166160553694
1761479844414586400,6.99158642578125,0.0008562086150050163,0.00015946198254823685,0.0018606509547680616
1761479844424622300,7.001622314453125,0.00191196845844388,0.0027064760215580463,-0.0009142017224803567
1761479844434658300,7.011658203125,0.0006967680528759956,0.000573017867282033,-0.00016904936637729406
1761479844444694300,7.0216943359375,-0.0008673244155943394,-0.0019845962524414062,-0.001619597664102912
1761479844454730200,7.031730224609375,-0.001025516539812088,-0.0013664765283465385,-0.0015857755206525326
1761479844464766200,7.04176611328125,0.00013972725719213486,0.0019018083112314343,-0.00015129405073821545
1761479844474802200,7.05180224609375,0.0008561178110539913,-0.0027366194408386946,-0.00036141742020845413
1761479844484838100,7.061838134765625,0.001536032184958458,0.0010923969093710184,0.0003091254038736224
1761479844494873300,7.071873291015625,0.0011551999486982822,-0.0014051157049834728,0.0003567959647625685
1761479844504909300,7.081909423828125,0.0017817928455770016,-0.00006790924817323685,0.000440030125901103
1761479844514945300,7.0919453125,-0.0008470136672258377,0.00018722168169915676,0.00018410035409033298
1761479844524981200,7.101981201171875,-0.0006338013336062431,0.0008486961014568806,-0.00022694910876452923
1761479844535017200,7.112017333984375,0.0008285404182970524,-0.0003092463593930006,-0.0020602690055966377
1761479844545053200,7.12205322265625,0.0005646250210702419,-0.0020133377984166145,-0.0007829224923625588
1761479844555089200,7.132089111328125,0.0008469200693070889,-0.0020048157311975956,-0.0008071573683992028
1761479844565124400,7.142124267578125,0.0008398746140301228,0.0008335402235388756,-0.0004392239497974515
1761479844575160300,7.152160400390625,0.0011293604038655758,-0.002411255380138755,0.000695548951625824
1761479844585196300,7.1621962890625,0.0008158781565725803,-0.0006844461895525455,0.000610465882346034
1761479844595232300,7.172232177734375,0.0007666097953915596,-0.0006772556807845831,-0.0014268523082137108
1761479844605268200,7.182268310546875,0.0021227949764579535,-0.001295602647587657,-0.0003795246593654156
1761479844615304200,7.19230419921875,-0.0004551447927951813,0.00043092481791973114,-0.0003765951842069626
1761479844625340200,7.202340087890625,-0.00005733361467719078,0.0009907769272103906,-0.0006156881572678685
1761479844635375400,7.212375244140625,-0.0027830787003040314,0.0002341729123145342,-0.0005339292110875249
1761479844645411300,7.222411376953125,-0.00019715307280421257,0.0006097143050283194,0.0019811822567135096
1761479844655447300,7.232447265625,0.0010758377611637115,0.0008888136362656951,0.00006663566455245018
1761479844665483300,7.242483154296875,0.0018920646980404854,0.000745909521356225,-0.0009797005914151669
1761479844675519200,7.252519287109375,-0.00037082331255078316,-0.0012978003360331059,0.00040461053140461445
1761479844685555200,7.26255517578125,-0.0009575095027685165,-0.0016533213201910257,0.0015620627673342824
1761479844695591200,7.272591064453125,0.0013581090606749058,0.0005507105961441994,0.001180431805551052
1761479844705626400,7.28262646484375,-0.00032531842589378357,0.00024388404563069344,-0.0007596324430778623
1761479844715662300,7.292662353515625,0.0024451680947095156,-0.0002320227213203907,-0.000553503748960793
1761479844725698300,7.3026982421875,-0.00039649847894907,0.0010314290411770344,-0.0003625493263825774
1761479844735734300,7.312734375,-0.0006790598854422569,0.0004636431112885475,0.0010103101376444101
1761479844745770200,7.322770263671875,0.0009799101389944553,-0.0009488724172115326,0.00012265611439943314
1761479844755806200,7.33280615234375,-0.0006829672493040562,0.0013345219194889069,0.00023051421158015728
1761479844765842200,7.34284228515625,0.00009044446051120758,0.00003680633381009102,-0.00029865268152207136
1761479844775878100,7.352878173828125,-0.0008848053403198719,0.0007582565303891897,0.00012212677393108606
1761479844785913300,7.362913330078125,0.00048321904614567757,0.0018226299434900284,-0.0003033675020560622
1761479844795949300,7.37294921875,-0.00012877536937594414,-0.0021548012737184763,-0.00180219451431185
1761479844805985300,7.3829853515625,-0.0011004838161170483,0.0005761045031249523,-0.0014889074955135584
1761479844816021200,7.393021240234375,0.001699030864983797,0.0030155598651617765,-0.00006438267882913351
1761479844826057200,7.40305712890625,-0.00025610998272895813,0.0027286962140351534,-0.0002067997120320797
1761479844836093200,7.41309326171875,0.001560698263347149,-0.0006388709880411625,0.0004187768790870905
1761479844846129200,7.423129150390625,-0.0006923424080014229,-0.0029224727768450975,-0.0005050236359238625
1761479844856165000,7.4331650390625,0.000014726538211107254,-0.000918177654966712,0.0019152570748701692
1761479844866200300,7.443200439453125,-0.0006181010976433754,0.002797057619318366,0.002144312486052513
1761479844876236300,7.453236328125,0.000292433425784111,-0.00014493661001324654,0.0012047493364661932
1761479844886272300,7.463272216796875,-0.001523332204669714,0.0007148960139602423,0.000053103663958609104
1761479844896308200,7.47330810546875,0.0006793681532144547,-0.00040949066169559956,-0.0027408187743276358
1761479844906344200,7.48334423828125,-0.0006198501214385033,0.0024532496463507414,0.00044725171755999327
1761479844916380200,7.493380126953125,-0.0008744485676288605,0.001502767438068986,-0.00006567302625626326
1761479844926416100,7.503416015625,0.0010237679816782475,0.0008718566969037056,-0.00023627758491784334
1761479844936451000,7.513451171875,-0.0008931751362979412,0.0020316634327173233,-0.00010817951988428831
1761479844946487300,7.5234873046875,-0.0015883836895227432,-0.003088562283664942,-0.00004636507946997881
1761479844956523300,7.533523193359375,-0.000613134354352951,-0.000516215106472373,0.0011496605584397912
1761479844966559200,7.543559326171875,-0.0010985974222421646,-0.000901529099792242,0.00043178535997867584
1761479844976595200,7.55359521484375,-0.0006248210556805134,-0.0002280157059431076,-0.001721113920211792
1761479844986631200,7.563631103515625,-0.0007132682949304581,0.0011085105361416936,0.0040770056657493114
1761479844996667100,7.573667236328125,-0.0008584107272326946,-0.0016843462362885475,0.00018186622764915228
1761479845006703400,7.583703369140625,-0.001566071528941393,0.0000037669669836759567,-0.0006001315778121352
1761479845016738300,7.59373828125,-0.000029161106795072556,0.0016338878776878119,0.000996965914964676
1761479845026774300,7.603774169921875,0.0010103476233780384,0.001600088900886476,-0.00014492939226329327
1761479845036810200,7.613810302734375,0.0017262049950659275,-0.003675633342936635,0.0011168763739988208
1761479845046846200,7.62384619140625,-0.0005704248324036598,-0.0001811773981899023,0.0008579011773690581
1761479845056882200,7.633882080078125,0.0004684743471443653,-0.0005351116415113211,0.0033402335830032825
1761479845066918400,7.64391845703125,-0.0002234005369246006,0.0009233433520421386,0.0010436230804771185
1761479845076954400,7.653954345703125,-0.0020870803855359554,0.0005718062166124582,0.0012188591063022614
1761479845086990300,7.663990234375,-0.0010014274157583714,-0.00034062517806887627,0.000602836487814784
1761479845097025300,7.674025390625,0.0013573342002928257,0.00019227340817451477,0.0001303916797041893
1761479845107061200,7.684061279296875,0.0008423756808042526,0.0012850830098614097,-0.0008611099328845739
1761479845117097500,7.694097412109375,-0.0014285016804933548,0.001607325510121882,0.00046194856986403465
1761479845127133400,7.704133544921875,0.0005639051087200642,-0.001717154635116458,-0.0007237079553306103
1761479845137169400,7.71416943359375,0.0008406075648963451,-0.00002258550375699997,0.004136295057833195
1761479845147205400,7.724205322265625,-0.000018003396689891815,0.0014782659709453583,-0.0002665148349478841
1761479845157241300,7.734241455078125,-0.000746644102036953,0.0008862453978508711,-0.0003538666060194373
1761479845167277300,7.74427734375,0.0001595020294189453,0.000050372909754514694,0.000980578945018351
1761479845177312300,7.754312255859375,-0.0017672949470579624,-0.0003224697429686785,-0.0002833572216331959
1761479845187348500,7.764348388671875,-0.0010325927287340164,0.0008601038716733456,0.0011635503033176064
1761479845197384400,7.774384521484375,0.001551206223666668,0.0024638595059514046,-0.0011672483524307609
1761479845207420400,7.78442041015625,0.0002167336642742157,-0.0010336150880903006,-0.000615813652984798
1761479845217456400,7.794456298828125,-0.0009193709120154381,0.0003637454938143492,0.0012004622258245945
1761479845227492400,7.804492431640625,-0.0006920606829226017,-0.0013652173802256584,0.0006495164707303047
1761479845237528300,7.8145283203125,0.00180092453956604,-0.00001712515950202942,0.00020343693904578686
1761479845247564300,7.824564208984375,-0.00019519031047821045,0.001771779963746667,0.00048530742060393095
1761479845257599200,7.83459912109375,-0.0013262350112199783,-0.0011214781552553177,0.0010261954739689827
1761479845267635500,7.844635498046875,0.0009611006826162338,0.0008001595269888639,0.00020300073083490133
1761479845277671400,7.85467138671875,0.0007182206027209759,0.00038284226320683956,0.0016232645139098167
1761479845287707400,7.864707275390625,0.001264012884348631,-0.0031974827870726585,0.0016264449805021286
1761479845297743400,7.874743408203125,-0.001427377574145794,0.0002451853360980749,-0.0005072797648608685
1761479845307779300,7.884779296875,0.0011150236241519451,0.001983730588108301,0.0007128937868401408
1761479845317815300,7.894815185546875,-0.001826438121497631,-0.0011255100835114717,0.0011589733185246587
1761479845327851300,7.904851318359375,-0.0011723455972969532,-0.00004597730003297329,0.00030156574212014675
1761479845337886200,7.91488623046875,0.00018826359882950783,-0.0006577055901288986,0.0006192808505147696
1761479845347922400,7.92492236328125,-0.00040846364572644234,0.002176907379180193,0.0005937266396358609
1761479845357958400,7.93495849609375,0.0013364395126700401,-0.0009717480279505253,0.0013340853620320559
1761479845367994400,7.944994384765625,-0.000583709217607975,0.002799638779833913,0.00016670068725943565
1761479845378030300,7.9550302734375,0.00024559907615184784,-0.0005383673124015331,-0.0002373008755967021
1761479845388065300,7.965065185546875,-0.0009600194171071053,0.0005225248169153929,0.00012907676864415407
1761479845398101200,7.975101318359375,0.0010120514780282974,0.0009590168483555317,0.0022098044864833355
1761479845408137200,7.98513720703125,0.00037587573751807213,-0.0017077112570405006,0.0004178795497864485
1761479845418173400,7.99517333984375,-0.002061715815216303,0.0022111302241683006,0.00008445186540484428
1761479845428208400,8.00520849609375,0.0010424456559121609,-0.001061760587617755,0.0007582160760648549
1761479845438243300,8.015243408203125,0.002164968056604266,0.0008157680276781321,0.0018612974090501666
1761479845448279300,8.025279296875,0.001674639992415905,0.0016620616661384702,0.0009258303325623274
1761479845458315300,8.035315185546875,-0.001513962633907795,0.0006820184644311666,0.0025061501655727625
1761479845468350500,8.0453505859375,0.000414819922298193,-0.0019631010945886374,0.0015611372655257583
1761479845478386400,8.055386474609374,-0.0002632210962474346,0.0006039198487997055,-0.0005925609730184078
1761479845488422400,8.06542236328125,-0.0003750873729586601,0.0012645394308492541,0.000988977961242199
1761479845498458400,8.075458251953124,0.0020065773278474808,0.0021313983015716076,-0.00005870952736586332
1761479845508494300,8.085494384765624,-0.000010708346962928772,0.0030190860852599144,-0.0002656669821590185
1761479845518530300,8.0955302734375,0.0031717694364488125,0.0021612821146845818,0.0015708488645032048
1761479845528566300,8.105566162109374,-0.0002711443230509758,-0.00020429748110473156,-0.000847287941724062
1761479845538602200,8.115602294921874,0.0006641577929258347,0.0011384682729840279,-0.0008488858584314585
1761479845548638500,8.125638427734375,-0.00022299308329820633,-0.0007524075917899609,-0.002131533809006214
1761479845558673400,8.13567333984375,-0.0023266240023076534,-0.0010187237057834864,0.0010456173913553357
1761479845568709400,8.14570947265625,-0.0009073899127542973,-0.0012719014193862677,-0.0013059087796136737
1761479845578745300,8.155745361328124,-0.0004956652410328388,0.0014301416231319308,0.0027242531068623066
1761479845588781300,8.16578125,-0.00031114183366298676,-0.0013878478202968836,-0.0005190002266317606
1761479845598817300,8.1758173828125,-0.0018272791057825089,-0.0018765379209071398,0.0007401424227282405
1761479845608853200,8.185853271484374,-0.0013923794031143188,0.0006091641262173653,-0.00043035356793552637
1761479845618889200,8.19588916015625,0.0006947396323084831,-0.00010935659520328045,-0.0006777612725272775
1761479845628925400,8.205925537109374,0.0024379733949899673,-0.0008097931277006865,0.0010163772385567427
1761479845638960400,8.21596044921875,0.0003053140826523304,-0.004155255854129791,0.0015181167982518673
1761479845648996400,8.225996337890624,0.002011900767683983,0.0017149708000943065,0.00009728071745485067
1761479845659032300,8.2360322265625,-0.0019029462710022926,-0.000329537782818079,-0.001800487982109189
1761479845669068300,8.246068359375,-0.0029033366590738297,-0.001577606424689293,-0.0009470555232837796
1761479845679104300,8.256104248046874,0.0008743577636778355,-0.0018947888165712357,0.0010860017500817776
1761479845689140200,8.26614013671875,0.0030112105887383223,0.0012414015363901854,-0.0008386099943891168
1761479845699176200,8.27617626953125,-0.00006846897304058075,-0.00018498743884265423,0.0017025783890858293
1761479845709212400,8.28621240234375,-0.0000852770172059536,-0.0018710475414991379,0.0025417814031243324
1761479845719248600,8.29624853515625,-0.003154570236802101,0.0029135874938219786,-0.0005376316839829087
1761479845729283300,8.306283447265624,-0.0015515564009547234,-0.0009963694028556347,0.0001331388484686613
1761479845739319300,8.3163193359375,-0.0015973630361258984,-0.0008594829123467207,0.0007890754495747387
1761479845749355300,8.326355224609374,0.00045025628060102463,0.00011460180394351482,0.0002624235348775983
1761479845759391500,8.3363916015625,-0.0027167750522494316,0.001132195582613349,0.0020408823620527983
1761479845769427500,8.346427490234374,-0.0009484668262302876,0.00005614524707198143,0.00040619412902742624
1761479845779463400,8.35646337890625,-0.0014802999794483185,-0.0008783577941358089,-0.00034854572732001543
1761479845789499600,8.366499755859374,0.0004546777345240116,0.0012375062797218561,0.001107902848161757
1761479845799535600,8.37653564453125,0.00017424672842025757,0.0003061988390982151,-0.0010093102464452386
1761479845809570300,8.3865703125,0.0009699612855911255,0.0006938630249351263,-0.0013753024395555258
1761479845819606500,8.3966064453125,0.000508435070514679,-0.00053252256475389,-0.00038460642099380493
1761479845829642500,8.406642578125,-0.00030725495889782906,-0.0008555024396628141,0.00042316666804254055
1761479845839678500,8.416678466796874,0.0016839904710650444,-0.0005849252920597792,0.00004366622306406498
1761479845849714400,8.42671435546875,-0.00061380909755826,-0.00007451954297721386,-0.0005670484388247132
1761479845859750400,8.43675048828125,0.002167329890653491,-0.00032032933086156845,-0.0006655853940173984
1761479845869786600,8.44678662109375,-0.0025913375429809093,0.002107204170897603,0.0005703814676962793
1761479845879822600,8.456822509765624,0.000509114470332861,-0.002830029930919409,-0.001837915158830583
1761479845889858600,8.466858642578124,0.0007056668400764465,0.00046067219227552414,-0.0007265638560056686
1761479845899894500,8.47689453125,0.001075579784810543,-0.0017907640431076288,0.000022317050024867058
1761479845909929500,8.486929443359376,0.0009073489345610142,0.00030744937248528004,-0.00017229246441274881
1761479845919965400,8.49696533203125,0.0005257176235318184,9.194482117891312e-7,0.0008583508897572756
1761479845930001400,8.50700146484375,-0.00002145254984498024,0.0014753425493836403,-0.0005988492630422115
1761479845940037400,8.517037353515626,-0.0011434420011937618,0.000712346751242876,0.0010829368839040399
1761479845950073600,8.527073486328124,-0.0001281481236219406,0.001337155350483954,0.00041053048335015774
1761479845960109600,8.537109619140624,0.00028197886422276497,0.000870303250849247,-0.0004962759558111429
1761479845970145500,8.5471455078125,-0.00023121386766433716,0.0011134652886539698,-0.0006105863722041249
1761479845980181500,8.557181396484374,-0.0007073874585330486,-0.0005211830139160156,-0.0011578659759834409
1761479845990217500,8.567217529296874,0.0016294564120471478,-0.0009522696491330862,0.00133422517683357
1761479846000252400,8.57725244140625,0.0004161205142736435,0.0008187324274331331,-0.0005787234986200929
1761479846010288400,8.587288330078126,0.0021067271009087563,0.00149334198795259,-0.0014416647609323263
1761479846020324400,8.597324462890626,0.0009344033896923065,-0.00045076548121869564,0.00008965283632278442
1761479846030360600,8.607360595703126,-0.0016258032992482185,0.002130911685526371,0.0010907461401075125
1761479846040396500,8.617396484375,0.0005646469071507454,-0.0001346394419670105,0.0005605107871815562
1761479846050432500,8.6274326171875,-0.002776937559247017,0.019564490765333176,0.028451314195990562
1761479846060468500,8.637468505859376,0.00018156832084059715,-0.009216822683811188,-0.02012927085161209
1761479846070504400,8.64750439453125,0.0005483967252075672,0.004462658893316984,0.007644704543054104
1761479846080540400,8.65754052734375,-0.00020953919738531113,-0.0002567288465797901,-0.002190082799643278
1761479846090575400,8.667575439453126,-0.00019080843776464462,-0.0011031690519303083,-0.0038074299227446318
1761479846100611300,8.677611328125,-0.00010984856635332108,-0.002538612810894847,-0.002175977686420083
1761479846110647600,8.6876474609375,0.002385455882176757,-0.0010749970097094774,-0.0021376803051680326
1761479846120683500,8.69768359375,-0.0017035617493093014,-0.0014835260808467865,-0.0009957170113921165
1761479846130719500,8.707719482421876,-0.0007931613363325596,-0.0027686895336955786,-0.0021090139634907246
