time,seconds_elapsed,z,y,x
1761479813495233800,0.06823388671875,-1.01385498046875,-0.0234527587890625,-0.0146484375
1761479813505269800,0.078269775390625,-1.013885498046875,-0.0208282470703125,-0.017425537109375
1761479813515305700,0.0883056640625,-1.0132904052734375,-0.0234527587890625,-0.0204315185546875
1761479813525340700,0.098340576171875,-1.013458251953125,-0.021209716796875,-0.0150604248046875
1761479813535377000,0.108376953125,-1.0133056640625,-0.023101806640625,-0.0168609619140625
1761479813545412900,0.118412841796875,-1.0142059326171875,-0.019744873046875,-0.0195159912109375
1761479813555448800,0.12844873046875,-1.0129852294921875,-0.0233612060546875,-0.0179443359375
1761479813565484800,0.13848486328125,-1.0139617919921875,-0.0224456787109375,-0.01568603515625
1761479813575520800,0.148520751953125,-1.0134735107421875,-0.022552490234375,-0.019256591796875
1761479813585556700,0.158556640625,-1.0133514404296875,-0.0206298828125,-0.01885986328125
1761479813595592700,0.1685927734375,-1.01361083984375,-0.024017333984375,-0.015411376953125
1761479813605628700,0.178628662109375,-1.014801025390625,-0.0216064453125,-0.017181396484375
1761479813615663900,0.188663818359375,-1.01348876953125,-0.021728515625,-0.020416259765625
1761479813625699800,0.198699951171875,-1.013519287109375,-0.0218353271484375,-0.0162506103515625
1761479813635735800,0.20873583984375,-1.0126800537109375,-0.0236663818359375,-0.0152587890625
1761479813645771800,0.218771728515625,-1.013641357421875,-0.0222015380859375,-0.01898193359375
1761479813655807700,0.228807861328125,-1.0141143798828125,-0.0214996337890625,-0.017852783203125
1761479813665843700,0.23884375,-1.0133819580078125,-0.0219268798828125,-0.0153350830078125
1761479813675879700,0.248879638671875,-1.013824462890625,-0.0225830078125,-0.0181884765625
1761479813685916000,0.258916015625,-1.01336669921875,-0.021881103515625,-0.0191802978515625
1761479813695952000,0.268951904296875,-1.014251708984375,-0.021453857421875,-0.0161285400390625
1761479813705986800,0.27898681640625,-1.013153076171875,-0.0224151611328125,-0.01708984375
1761479813716022800,0.289022705078125,-1.0135650634765625,-0.0215301513671875,-0.019317626953125
1761479813726058800,0.299058837890625,-1.0135955810546875,-0.0227813720703125,-0.0180206298828125
1761479813736095000,0.309094970703125,-1.01348876953125,-0.0218505859375,-0.0159759521484375
1761479813746131000,0.319130859375,-1.012786865234375,-0.0220489501953125,-0.0184326171875
1761479813756167000,0.3291669921875,-1.013275146484375,-0.021881103515625,-0.018035888671875
1761479813766203000,0.339202880859375,-1.0129852294921875,-0.0225677490234375,-0.0157012939453125
1761479813776238800,0.34923876953125,-1.0127716064453125,-0.0215606689453125,-0.017242431640625
1761479813786274800,0.35927490234375,-1.013275146484375,-0.02178955078125,-0.0194091796875
1761479813796310000,0.36931005859375,-1.0135955810546875,-0.0220184326171875,-0.0164337158203125
1761479813806346000,0.379345947265625,-1.0123138427734375,-0.02313232421875,-0.016845703125
1761479813816382000,0.3893818359375,-1.0140380859375,-0.0211944580078125,-0.018768310546875
1761479813826418000,0.39941796875,-1.013427734375,-0.022369384765625,-0.018280029296875
1761479813836454000,0.409453857421875,-1.012908935546875,-0.0231475830078125,-0.0153350830078125
1761479813846489900,0.41948974609375,-1.012939453125,-0.0223846435546875,-0.0179595947265625
1761479813856525800,0.42952587890625,-1.0132598876953125,-0.0207977294921875,-0.0182952880859375
1761479813866561800,0.439561767578125,-1.0128173828125,-0.0211334228515625,-0.0172882080078125
1761479813876597800,0.44959765625,-1.01312255859375,-0.0218505859375,-0.016326904296875
1761479813886633000,0.459633056640625,-1.0127716064453125,-0.0227203369140625,-0.01837158203125
1761479813896669000,0.4696689453125,-1.013031005859375,-0.0226898193359375,-0.0177001953125
1761479813906705000,0.479704833984375,-1.013916015625,-0.0232086181640625,-0.01690673828125
1761479813916740900,0.489740966796875,-1.0119171142578125,-0.022216796875,-0.017547607421875
1761479813926776800,0.49977685546875,-1.0131683349609375,-0.02288818359375,-0.0176849365234375
1761479813936812800,0.509812744140625,-1.012603759765625,-0.022064208984375,-0.0167236328125
1761479813946848800,0.519848876953125,-1.013031005859375,-0.02239990234375,-0.01800537109375
1761479813956884700,0.529884765625,-1.0131988525390625,-0.0223846435546875,-0.019378662109375
1761479813966921000,0.5399208984375,-1.013214111328125,-0.0216064453125,-0.0175628662109375
1761479813976957000,0.54995703125,-1.013427734375,-0.021881103515625,-0.0165557861328125
1761479813986991900,0.559991943359375,-1.01287841796875,-0.0214691162109375,-0.018341064453125
1761479813997027800,0.57002783203125,-1.0123138427734375,-0.0229034423828125,-0.0174713134765625
1761479814007063800,0.580063720703125,-1.0122222900390625,-0.0223388671875,-0.0167083740234375
1761479814017099800,0.590099853515625,-1.0133514404296875,-0.0224761962890625,-0.0186767578125
1761479814027135700,0.6001357421875,-1.0129852294921875,-0.0220489501953125,-0.01873779296875
1761479814037172000,0.610171875,-1.01190185546875,-0.022918701171875,-0.0172576904296875
1761479814047208000,0.6202080078125,-1.0121002197265625,-0.021697998046875,-0.016998291015625
1761479814057244000,0.630243896484375,-1.0125274658203125,-0.0213470458984375,-0.0183258056640625
1761479814067280000,0.64027978515625,-1.012664794921875,-0.021575927734375,-0.0174713134765625
1761479814077314800,0.650314697265625,-1.011474609375,-0.0221099853515625,-0.0164794921875
1761479814087350800,0.660350830078125,-1.0119171142578125,-0.0223388671875,-0.0181884765625
1761479814097386800,0.67038671875,-1.01300048828125,-0.0222320556640625,-0.0193023681640625
1761479814107422700,0.680422607421875,-1.0126953125,-0.0218505859375,-0.017303466796875
1761479814117459000,0.690458984375,-1.0126800537109375,-0.023193359375,-0.0175628662109375
1761479814127495000,0.700494873046875,-1.0138702392578125,-0.021881103515625,-0.0178680419921875
1761479814137531000,0.71053076171875,-1.0127410888671875,-0.0226898193359375,-0.01702880859375
1761479814147566800,0.72056689453125,-1.0137939453125,-0.021575927734375,-0.0173187255859375
1761479814157602800,0.730602783203125,-1.0129547119140625,-0.02197265625,-0.0186767578125
1761479814167638800,0.740638671875,-1.0130615234375,-0.0215606689453125,-0.0179901123046875
1761479814177673700,0.750673828125,-1.012542724609375,-0.0212554931640625,-0.017303466796875
1761479814187709700,0.760709716796875,-1.012664794921875,-0.02178955078125,-0.0179290771484375
1761479814197746000,0.770745849609375,-1.01123046875,-0.022369384765625,-0.0178985595703125
1761479814207782000,0.780781982421875,-1.0130615234375,-0.0230712890625,-0.01702880859375
1761479814217817900,0.79081787109375,-1.0125732421875,-0.022796630859375,-0.01739501953125
1761479814227853800,0.800853759765625,-1.01251220703125,-0.021392822265625,-0.01812744140625
1761479814237889800,0.810889892578125,-1.0140228271484375,-0.0227813720703125,-0.016326904296875
1761479814247925800,0.82092578125,-1.013885498046875,-0.022552490234375,-0.016754150390625
1761479814257961700,0.830961669921875,-1.01318359375,-0.02142333984375,-0.018280029296875
1761479814267996700,0.84099658203125,-1.0131683349609375,-0.0221710205078125,-0.017791748046875
1761479814278033000,0.851032958984375,-1.0122833251953125,-0.0224609375,-0.0171051025390625
1761479814288068900,0.86106884765625,-1.012725830078125,-0.02215576171875,-0.01702880859375
1761479814298104800,0.871104736328125,-1.01275634765625,-0.0224609375,-0.0181427001953125
1761479814308140800,0.881140869140625,-1.0126800537109375,-0.021820068359375,-0.0179595947265625
1761479814318176800,0.8911767578125,-1.0129852294921875,-0.02239990234375,-0.01702880859375
1761479814328212700,0.901212646484375,-1.012298583984375,-0.0233917236328125,-0.0177001953125
1761479814338248700,0.911248779296875,-1.0124664306640625,-0.02227783203125,-0.01763916015625
1761479814348284700,0.92128466796875,-1.014068603515625,-0.0220489501953125,-0.017181396484375
1761479814358320600,0.931320556640625,-1.0118255615234375,-0.02227783203125,-0.01800537109375
1761479814368355600,0.94135546875,-1.0117950439453125,-0.0220184326171875,-0.0176849365234375
1761479814378391800,0.951391845703125,-1.013275146484375,-0.0220184326171875,-0.0167083740234375
1761479814388427800,0.961427734375,-1.0125732421875,-0.0220184326171875,-0.0165252685546875
1761479814398463700,0.971463623046875,-1.0135345458984375,-0.021636962890625,-0.017913818359375
1761479814408499700,0.981499755859375,-1.01361083984375,-0.02197265625,-0.017364501953125
1761479814418535700,0.99153564453125,-1.0122833251953125,-0.022491455078125,-0.0178680419921875
1761479814428571600,1.001571533203125,-1.013031005859375,-0.0216827392578125,-0.0177459716796875
1761479814438607600,1.011607666015625,-1.01226806640625,-0.0218048095703125,-0.017578125
1761479814448643600,1.0216435546875,-1.0139923095703125,-0.022613525390625,-0.0166015625
1761479814458679600,1.031679443359375,-1.0137786865234375,-0.0226287841796875,-0.017913818359375
1761479814468715800,1.0417158203125,-1.0128936767578125,-0.0218353271484375,-0.01763916015625
1761479814478750700,1.051750732421875,-1.0143280029296875,-0.0222625732421875,-0.0180816650390625
1761479814488786700,1.06178662109375,-1.0130615234375,-0.022308349609375,-0.0168609619140625
1761479814498822700,1.07182275390625,-1.0130462646484375,-0.0231475830078125,-0.0182037353515625
1761479814508858600,1.081858642578125,-1.01287841796875,-0.0217742919921875,-0.018463134765625
1761479814518894600,1.09189453125,-1.0126495361328125,-0.0225372314453125,-0.0174560546875
1761479814528930600,1.1019306640625,-1.0128021240234375,-0.0224609375,-0.0176239013671875
1761479814538966500,1.111966552734375,-1.0137939453125,-0.0224456787109375,-0.018035888671875
1761479814549002800,1.122002685546875,-1.0128021240234375,-0.0223236083984375,-0.0175628662109375
1761479814559038700,1.132038818359375,-1.0123443603515625,-0.02239990234375,-0.0180511474609375
1761479814569074700,1.14207470703125,-1.0132598876953125,-0.0228424072265625,-0.0177764892578125
1761479814579110700,1.152110595703125,-1.013946533203125,-0.0217132568359375,-0.017242431640625
1761479814589145600,1.1621455078125,-1.012969970703125,-0.021148681640625,-0.017425537109375
1761479814599181600,1.172181640625,-1.0125579833984375,-0.022003173828125,-0.0179290771484375
1761479814609217500,1.182217529296875,-1.0121307373046875,-0.0222320556640625,-0.0175628662109375
1761479814619253800,1.192253662109375,-1.0135955810546875,-0.0216064453125,-0.017059326171875
1761479814629289700,1.202289794921875,-1.012939453125,-0.022247314453125,-0.0172271728515625
1761479814639325700,1.21232568359375,-1.01251220703125,-0.0225677490234375,-0.0177001953125
1761479814649361700,1.222361572265625,-1.012237548828125,-0.0218658447265625,-0.017303466796875
1761479814659397600,1.232397705078125,-1.01318359375,-0.021148681640625,-0.0180816650390625
1761479814669433600,1.24243359375,-1.013336181640625,-0.0221099853515625,-0.018035888671875
1761479814679469600,1.252469482421875,-1.0142059326171875,-0.0227508544921875,-0.0170440673828125
1761479814689504500,1.26250439453125,-1.0130615234375,-0.0223388671875,-0.017425537109375
1761479814699540700,1.272540771484375,-1.0130462646484375,-0.0217132568359375,-0.017303466796875
1761479814709576700,1.28257666015625,-1.01409912109375,-0.021759033203125,-0.0171661376953125
1761479814719612700,1.29261279296875,-1.0139312744140625,-0.022247314453125,-0.0167083740234375
1761479814729648600,1.302648681640625,-1.0125732421875,-0.02166748046875,-0.0173797607421875
1761479814739684600,1.3126845703125,-1.0124969482421875,-0.022064208984375,-0.01800537109375
1761479814749720600,1.322720458984375,-1.01324462890625,-0.0226898193359375,-0.0177154541015625
1761479814759756500,1.332756591796875,-1.013031005859375,-0.0223388671875,-0.017547607421875
1761479814769792500,1.34279248046875,-1.013214111328125,-0.022613525390625,-0.0173492431640625
1761479814779828500,1.352828369140625,-1.0135498046875,-0.021942138671875,-0.017852783203125
1761479814789864400,1.362864501953125,-1.0138702392578125,-0.0219573974609375,-0.0179290771484375
1761479814799899600,1.372899658203125,-1.013519287109375,-0.0224609375,-0.017547607421875
1761479814809935600,1.382935546875,-1.0139312744140625,-0.0227203369140625,-0.01812744140625
1761479814819971600,1.3929716796875,-1.01287841796875,-0.022552490234375,-0.01806640625
1761479814830007600,1.403007568359375,-1.0125732421875,-0.0219268798828125,-0.0174560546875
1761479814840043500,1.41304345703125,-1.0125274658203125,-0.02142333984375,-0.0174102783203125
1761479814850079500,1.42307958984375,-1.0135345458984375,-0.0221099853515625,-0.01715087890625
1761479814860115500,1.433115478515625,-1.0137481689453125,-0.0217742919921875,-0.0179443359375
1761479814870151400,1.4431513671875,-1.0131072998046875,-0.0219879150390625,-0.01885986328125
1761479814880187400,1.4531875,-1.013702392578125,-0.022064208984375,-0.0175018310546875
1761479814890223600,1.4632236328125,-1.0124053955078125,-0.022613525390625,-0.0167236328125
1761479814900259800,1.473259765625,-1.013031005859375,-0.0221405029296875,-0.0173492431640625
1761479814910294500,1.48329443359375,-1.013214111328125,-0.0223388671875,-0.0178985595703125
1761479814920330500,1.49333056640625,-1.0133514404296875,-0.021697998046875,-0.017242431640625
1761479814930366500,1.503366455078125,-1.014190673828125,-0.022308349609375,-0.0170135498046875
1761479814940402400,1.51340234375,-1.0136871337890625,-0.0220947265625,-0.017791748046875
1761479814950438700,1.523438720703125,-1.012969970703125,-0.0215911865234375,-0.0177001953125
1761479814960474600,1.533474609375,-1.0130462646484375,-0.0221099853515625,-0.0166168212890625
1761479814970510800,1.5435107421875,-1.01318359375,-0.021942138671875,-0.017578125
1761479814980546800,1.553546875,-1.0126953125,-0.0218963623046875,-0.017852783203125
1761479814990582800,1.563582763671875,-1.013885498046875,-0.022552490234375,-0.017242431640625
1761479815000618800,1.57361865234375,-1.013214111328125,-0.0225677490234375,-0.0172119140625
1761479815010654700,1.58365478515625,-1.013885498046875,-0.0231781005859375,-0.0177459716796875
1761479815020689700,1.593689697265625,-1.011932373046875,-0.0223388671875,-0.0177764892578125
1761479815030725600,1.6037255859375,-1.0131988525390625,-0.021484375,-0.0179901123046875
1761479815040761600,1.61376171875,-1.0130157470703125,-0.0223846435546875,-0.01739501953125
1761479815050797800,1.6237978515625,-1.013824462890625,-0.022247314453125,-0.017333984375
1761479815060833800,1.633833740234375,-1.0132293701171875,-0.0221099853515625,-0.0166015625
1761479815070869800,1.643869873046875,-1.0138397216796875,-0.022003173828125,-0.0172119140625
1761479815080905700,1.65390576171875,-1.0137786865234375,-0.022918701171875,-0.017913818359375
1761479815090941700,1.663941650390625,-1.01458740234375,-0.02252197265625,-0.0179443359375
1761479815100977700,1.673977783203125,-1.0139923095703125,-0.0219268798828125,-0.01776123046875
1761479815111013600,1.684013671875,-1.0136566162109375,-0.021453857421875,-0.01788330078125
1761479815121049600,1.694049560546875,-1.0139312744140625,-0.0220489501953125,-0.017822265625
1761479815131085600,1.70408544921875,-1.01318359375,-0.022552490234375,-0.017547607421875
1761479815141120800,1.714120849609375,-1.0139923095703125,-0.0230560302734375,-0.017547607421875
1761479815151156700,1.72415673828125,-1.014129638671875,-0.0222625732421875,-0.0179443359375
1761479815161192700,1.734192626953125,-1.0138397216796875,-0.0221710205078125,-0.01751708984375
1761479815171228700,1.744228759765625,-1.0133514404296875,-0.0218658447265625,-0.0172882080078125
1761479815181264600,1.7542646484375,-1.0138397216796875,-0.021026611328125,-0.0183868408203125
1761479815191300600,1.764300537109375,-1.014373779296875,-0.020904541015625,-0.01708984375
1761479815201336600,1.774336669921875,-1.013702392578125,-0.02178955078125,-0.0171661376953125
1761479815211372500,1.78437255859375,-1.01470947265625,-0.0216064453125,-0.0177154541015625
1761479815221408500,1.794408447265625,-1.0142059326171875,-0.022705078125,-0.0169219970703125
1761479815231444500,1.804444580078125,-1.0141754150390625,-0.022186279296875,-0.017669677734375
1761479815241480700,1.814480712890625,-1.01373291015625,-0.0225372314453125,-0.017822265625
1761479815251515600,1.824515625,-1.0142822265625,-0.02215576171875,-0.0182342529296875
1761479815261551600,1.834551513671875,-1.0135498046875,-0.0224456787109375,-0.0177154541015625
1761479815271587600,1.844587646484375,-1.013580322265625,-0.020843505859375,-0.017425537109375
1761479815281623600,1.85462353515625,-1.013580322265625,-0.0215606689453125,-0.017242431640625
1761479815291659500,1.864659423828125,-1.01318359375,-0.0221099853515625,-0.01763916015625
1761479815301695500,1.874695556640625,-1.013031005859375,-0.022369384765625,-0.0177459716796875
1761479815311731500,1.8847314453125,-1.013214111328125,-0.0217437744140625,-0.0175323486328125
1761479815321767700,1.894767578125,-1.0126190185546875,-0.02252197265625,-0.0175933837890625
1761479815331803600,1.9048037109375,-1.0125732421875,-0.0216217041015625,-0.017333984375
1761479815341839600,1.914839599609375,-1.0133209228515625,-0.0212249755859375,-0.0178680419921875
1761479815351874600,1.92487451171875,-1.013885498046875,-0.0213165283203125,-0.0172882080078125
1761479815361909500,1.934909423828125,-1.0134124755859375,-0.02215576171875,-0.0176849365234375
1761479815371945700,1.94494580078125,-1.013671875,-0.022613525390625,-0.0177154541015625
1761479815381981700,1.954981689453125,-1.014251708984375,-0.02227783203125,-0.0168914794921875
1761479815392017700,1.965017578125,-1.013824462890625,-0.022308349609375,-0.017578125
1761479815402053600,1.9750537109375,-1.0134429931640625,-0.02130126953125,-0.0172576904296875
1761479815412089900,1.98508984375,-1.0136566162109375,-0.02239990234375,-0.0178375244140625
1761479815422125800,1.995125732421875,-1.0129852294921875,-0.0218353271484375,-0.01715087890625
1761479815432161800,2.005161865234375,-1.014190673828125,-0.0208587646484375,-0.0172119140625
1761479815442197800,2.01519775390625,-1.0140380859375,-0.022308349609375,-0.017059326171875
1761479815452233700,2.025233642578125,-1.0124969482421875,-0.022064208984375,-0.017608642578125
1761479815462269700,2.035269775390625,-1.013671875,-0.0219573974609375,-0.0172882080078125
1761479815472305000,2.045304931640625,-1.014617919921875,-0.0215911865234375,-0.0169525146484375
1761479815482340900,2.0553408203125,-1.0143280029296875,-0.0232696533203125,-0.01800537109375
1761479815492376800,2.065376953125,-1.0131988525390625,-0.02252197265625,-0.0175323486328125
1761479815502412800,2.075412841796875,-1.014007568359375,-0.02294921875,-0.0170135498046875
1761479815512448800,2.08544873046875,-1.0141143798828125,-0.021392822265625,-0.017425537109375
1761479815522484700,2.095484619140625,-1.0141754150390625,-0.0221710205078125,-0.0185546875
1761479815532520700,2.105520751953125,-1.0133514404296875,-0.02239990234375,-0.0175628662109375
1761479815542556700,2.115556640625,-1.01324462890625,-0.0217132568359375,-0.0175933837890625
1761479815552592600,2.125592529296875,-1.0132598876953125,-0.0218505859375,-0.016998291015625
1761479815562628900,2.13562890625,-1.01416015625,-0.0216522216796875,-0.0177154541015625
1761479815572664800,2.145664794921875,-1.0143280029296875,-0.0223846435546875,-0.0180206298828125
1761479815582699800,2.15569970703125,-1.014068603515625,-0.022247314453125,-0.0174102783203125
1761479815592735700,2.16573583984375,-1.0140838623046875,-0.0220947265625,-0.018096923828125
1761479815602771700,2.175771728515625,-1.013580322265625,-0.02252197265625,-0.017822265625
1761479815612807700,2.1858076171875,-1.0128173828125,-0.0219268798828125,-0.0174407958984375
1761479815622843600,2.19584375,-1.0143280029296875,-0.0219879150390625,-0.0174713134765625
1761479815632879600,2.205879638671875,-1.0142822265625,-0.02239990234375,-0.0180816650390625
1761479815642915800,2.215915771484375,-1.013092041015625,-0.0223846435546875,-0.018341064453125
1761479815652951800,2.225951904296875,-1.0142669677734375,-0.0219268798828125,-0.0176544189453125
1761479815662987800,2.23598779296875,-1.0131072998046875,-0.0217132568359375,-0.017608642578125
1761479815673023700,2.246023681640625,-1.0130462646484375,-0.021759033203125,-0.0176849365234375
1761479815683059700,2.256059814453125,-1.013336181640625,-0.0225067138671875,-0.017547607421875
1761479815693094700,2.2660947265625,-1.01409912109375,-0.02215576171875,-0.01776123046875
1761479815703130600,2.276130615234375,-1.013763427734375,-0.022491455078125,-0.0178375244140625
1761479815713166600,2.28616650390625,-1.0139617919921875,-0.02239990234375,-0.0174560546875
1761479815723202800,2.296202880859375,-1.01300048828125,-0.0226593017578125,-0.01727294921875
1761479815733238800,2.30623876953125,-1.0143585205078125,-0.0216064453125,-0.0182342529296875
1761479815743274800,2.316274658203125,-1.013214111328125,-0.0218048095703125,-0.017822265625
1761479815753310700,2.326310791015625,-1.013397216796875,-0.0217132568359375,-0.017852783203125
1761479815763346700,2.3363466796875,-1.0134429931640625,-0.0222015380859375,-0.0171356201171875
1761479815773382700,2.346382568359375,-1.013946533203125,-0.02239990234375,-0.0176239013671875
1761479815783418600,2.356418701171875,-1.0141143798828125,-0.02264404296875,-0.0178680419921875
1761479815793453600,2.36645361328125,-1.013214111328125,-0.0220184326171875,-0.0176849365234375
1761479815803489800,2.37648974609375,-1.013153076171875,-0.0227508544921875,-0.0173797607421875
1761479815813525800,2.38652587890625,-1.01397705078125,-0.022216796875,-0.017730712890625
1761479815823561700,2.396561767578125,-1.013427734375,-0.0211944580078125,-0.01776123046875
1761479815833597700,2.40659765625,-1.014007568359375,-0.0221405029296875,-0.01806640625
1761479815843633700,2.416633544921875,-1.0138702392578125,-0.023101806640625,-0.017303466796875
1761479815853669600,2.426669677734375,-1.0129547119140625,-0.021392822265625,-0.0175628662109375
1761479815863705600,2.43670556640625,-1.0147705078125,-0.021697998046875,-0.01715087890625
1761479815873741600,2.446741455078125,-1.013336181640625,-0.0218963623046875,-0.01776123046875
1761479815883777500,2.456777587890625,-1.0141143798828125,-0.0224761962890625,-0.018585205078125
1761479815893813500,2.4668134765625,-1.01361083984375,-0.02215576171875,-0.01708984375
1761479815903848700,2.4768486328125,-1.0142059326171875,-0.0223541259765625,-0.0179595947265625
1761479815913884700,2.486884765625,-1.013885498046875,-0.021697998046875,-0.017791748046875
1761479815923920600,2.496920654296875,-1.0140533447265625,-0.021453857421875,-0.0174560546875
1761479815933956600,2.50695654296875,-1.012939453125,-0.0223388671875,-0.017730712890625
1761479815943992600,2.51699267578125,-1.0137481689453125,-0.0227508544921875,-0.0176239013671875
1761479815954028500,2.527028564453125,-1.0146331787109375,-0.022735595703125,-0.0174560546875
1761479815964064500,2.537064453125,-1.0137481689453125,-0.022247314453125,-0.0178375244140625
1761479815974100700,2.547100830078125,-1.013580322265625,-0.0214080810546875,-0.017181396484375
1761479815984136700,2.55713671875,-1.013885498046875,-0.022003173828125,-0.0170440673828125
1761479815994173000,2.5671728515625,-1.0139007568359375,-0.021453857421875,-0.017364501953125
1761479816004207600,2.57720751953125,-1.0133819580078125,-0.022308349609375,-0.017547607421875
1761479816014243600,2.58724365234375,-1.01312255859375,-0.0218505859375,-0.0172271728515625
1761479816024279600,2.597279541015625,-1.0131683349609375,-0.0218353271484375,-0.017425537109375
1761479816034315800,2.607315673828125,-1.0141754150390625,-0.0232696533203125,-0.0180206298828125
1761479816044351700,2.617351806640625,-1.014495849609375,-0.02203369140625,-0.0175323486328125
1761479816054387700,2.6273876953125,-1.0145263671875,-0.0217437744140625,-0.018402099609375
1761479816064423700,2.637423583984375,-1.01385498046875,-0.021759033203125,-0.017730712890625
1761479816074460000,2.6474599609375,-1.013336181640625,-0.0222930908203125,-0.01776123046875
1761479816084496000,2.657495849609375,-1.0135955810546875,-0.022003173828125,-0.0176544189453125
1761479816094531800,2.66753173828125,-1.0141143798828125,-0.0223541259765625,-0.0175628662109375
1761479816104567800,2.67756787109375,-1.014678955078125,-0.023040771484375,-0.0178680419921875
1761479816114602800,2.687602783203125,-1.013336181640625,-0.022369384765625,-0.0177154541015625
1761479816124638700,2.697638671875,-1.013092041015625,-0.0228729248046875,-0.0175628662109375
1761479816134674700,2.7076748046875,-1.014404296875,-0.02142333984375,-0.0171966552734375
1761479816144710700,2.717710693359375,-1.013916015625,-0.0221710205078125,-0.017608642578125
1761479816154747000,2.727746826171875,-1.0141448974609375,-0.022491455078125,-0.0174407958984375
1761479816164782800,2.737782958984375,-1.0142822265625,-0.0229034423828125,-0.0175018310546875
1761479816174818800,2.74781884765625,-1.0145111083984375,-0.021697998046875,-0.0170440673828125
1761479816184854800,2.757854736328125,-1.013824462890625,-0.021636962890625,-0.017669677734375
1761479816194890800,2.767890869140625,-1.013916015625,-0.0230865478515625,-0.017913818359375
1761479816204926700,2.7779267578125,-1.0144500732421875,-0.0220184326171875,-0.01751708984375
1761479816214961700,2.787961669921875,-1.01361083984375,-0.022979736328125,-0.017059326171875
1761479816224997600,2.79799755859375,-1.013153076171875,-0.0223541259765625,-0.016387939453125
1761479816235033900,2.808033935546875,-1.01397705078125,-0.0229034423828125,-0.01788330078125
1761479816245069800,2.81806982421875,-1.0143585205078125,-0.0230560302734375,-0.0175628662109375
1761479816255105800,2.828105712890625,-1.014739990234375,-0.02117919921875,-0.0171966552734375
1761479816265141800,2.838141845703125,-1.014556884765625,-0.021270751953125,-0.017547607421875
1761479816275177700,2.848177734375,-1.014404296875,-0.0222015380859375,-0.016693115234375
1761479816285213700,2.858213623046875,-1.0140228271484375,-0.0223846435546875,-0.0170135498046875
1761479816295249700,2.868249755859375,-1.0142059326171875,-0.0220184326171875,-0.0177154541015625
1761479816305285600,2.87828564453125,-1.0146942138671875,-0.021759033203125,-0.01800537109375
1761479816315320800,2.88832080078125,-1.0128173828125,-0.022216796875,-0.0177459716796875
1761479816325356800,2.898356689453125,-1.013031005859375,-0.0219573974609375,-0.01739501953125
1761479816335392800,2.908392822265625,-1.01361083984375,-0.0222015380859375,-0.01763916015625
1761479816345428700,2.9184287109375,-1.014404296875,-0.0215911865234375,-0.0178070068359375
1761479816355464700,2.928464599609375,-1.013824462890625,-0.021575927734375,-0.0173797607421875
1761479816365500700,2.938500732421875,-1.0147552490234375,-0.0222015380859375,-0.0174560546875
1761479816375536600,2.94853662109375,-1.013702392578125,-0.022369384765625,-0.017852783203125
1761479816385572600,2.958572509765625,-1.0129547119140625,-0.02215576171875,-0.0173492431640625
1761479816395608600,2.968608642578125,-1.0138397216796875,-0.02288818359375,-0.01776123046875
1761479816405644500,2.97864453125,-1.0135955810546875,-0.022613525390625,-0.0174713134765625
1761479816415680800,2.9886806640625,-1.01446533203125,-0.022186279296875,-0.017578125
1761479816425715700,2.9987158203125,-1.0131683349609375,-0.02154541015625,-0.0174560546875
1761479816435751700,3.008751708984375,-1.0139617919921875,-0.0225677490234375,-0.0172119140625
1761479816445787600,3.01878759765625,-1.0135040283203125,-0.02191162109375,-0.0179595947265625
1761479816455823600,3.02882373046875,-1.0141754150390625,-0.022308349609375,-0.0183258056640625
1761479816465859600,3.038859619140625,-1.013519287109375,-0.022003173828125,-0.0182037353515625
1761479816475895600,3.0488955078125,-1.0131683349609375,-0.0216522216796875,-0.0181121826171875
1761479816485931500,3.058931640625,-1.014129638671875,-0.0213470458984375,-0.0170745849609375
1761479816495967700,3.0689677734375,-1.0147705078125,-0.021697998046875,-0.01708984375
1761479816506003700,3.079003662109375,-1.0136566162109375,-0.022552490234375,-0.017242431640625
1761479816516039700,3.089039794921875,-1.01397705078125,-0.021881103515625,-0.0171966552734375
1761479816526074600,3.09907470703125,-1.014190673828125,-0.021881103515625,-0.017913818359375
1761479816536110600,3.109110595703125,-1.0142364501953125,-0.0220794677734375,-0.01837158203125
1761479816546146600,3.119146484375,-1.0139007568359375,-0.021392822265625,-0.01776123046875
1761479816556182500,3.1291826171875,-1.0137176513671875,-0.0225067138671875,-0.017425537109375
1761479816566218500,3.139218505859375,-1.0137939453125,-0.0223541259765625,-0.0177764892578125
1761479816576254700,3.149254638671875,-1.0135650634765625,-0.022125244140625,-0.01727294921875
1761479816586290700,3.159290771484375,-1.013519287109375,-0.0224151611328125,-0.0171966552734375
1761479816596327000,3.169326904296875,-1.013519287109375,-0.022064208984375,-0.0171356201171875
1761479816606363000,3.17936279296875,-1.0136871337890625,-0.0225067138671875,-0.0178375244140625
1761479816616397600,3.1893974609375,-1.0142822265625,-0.02264404296875,-0.0171661376953125
1761479816626433500,3.19943359375,-1.0144195556640625,-0.021636962890625,-0.0170135498046875
1761479816636469500,3.209469482421875,-1.0138397216796875,-0.02166748046875,-0.0177154541015625
1761479816646505500,3.21950537109375,-1.0139312744140625,-0.022064208984375,-0.017059326171875
1761479816656542000,3.2295419921875,-1.0138092041015625,-0.0217132568359375,-0.0168304443359375
1761479816666578000,3.239577880859375,-1.013153076171875,-0.0227813720703125,-0.0168914794921875
1761479816676614000,3.24961376953125,-1.013671875,-0.0225067138671875,-0.0172576904296875
1761479816686649900,3.25964990234375,-1.0136871337890625,-0.0220184326171875,-0.016876220703125
1761479816696685800,3.269685791015625,-1.0138092041015625,-0.0222320556640625,-0.0173797607421875
1761479816706721800,3.2797216796875,-1.013580322265625,-0.021392822265625,-0.0174560546875
1761479816716756700,3.2897568359375,-1.0126953125,-0.022186279296875,-0.0170135498046875
1761479816726792700,3.299792724609375,-1.0141448974609375,-0.0219879150390625,-0.017578125
1761479816736829000,3.309828857421875,-1.013946533203125,-0.0224456787109375,-0.017730712890625
1761479816746865000,3.319864990234375,-1.0135650634765625,-0.021636962890625,-0.017791748046875
1761479816756900900,3.32990087890625,-1.0141143798828125,-0.0220794677734375,-0.016632080078125
1761479816766936800,3.339936767578125,-1.01361083984375,-0.0227813720703125,-0.017547607421875
1761479816776972800,3.349972900390625,-1.013458251953125,-0.022308349609375,-0.017059326171875
1761479816787008800,3.3600087890625,-1.0138397216796875,-0.02203369140625,-0.0174560546875
1761479816797044700,3.370044677734375,-1.013427734375,-0.0219573974609375,-0.018157958984375
1761479816807080700,3.380080810546875,-1.014190673828125,-0.0218963623046875,-0.0172882080078125
1761479816817116000,3.390115966796875,-1.01300048828125,-0.02191162109375,-0.0171966552734375
1761479816827152000,3.40015185546875,-1.0139312744140625,-0.022705078125,-0.0169677734375
1761479816837187800,3.410187744140625,-1.013916015625,-0.0216064453125,-0.0170440673828125
1761479816847223800,3.420223876953125,-1.014129638671875,-0.0218658447265625,-0.0176849365234375
1761479816857259800,3.430259765625,-1.012359619140625,-0.021728515625,-0.0175933837890625
1761479816867295700,3.440295654296875,-1.0131378173828125,-0.02191162109375,-0.0175323486328125
1761479816877331700,3.450331787109375,-1.0134735107421875,-0.0218658447265625,-0.017364501953125
1761479816887367700,3.46036767578125,-1.0137176513671875,-0.0218048095703125,-0.016876220703125
1761479816897403600,3.470403564453125,-1.01348876953125,-0.022186279296875,-0.01751708984375
1761479816907438800,3.48043896484375,-1.01416015625,-0.021240234375,-0.0177154541015625
1761479816917474800,3.490474853515625,-1.0142669677734375,-0.0230865478515625,-0.0183258056640625
1761479816927510800,3.5005107421875,-1.0140228271484375,-0.0227203369140625,-0.0173492431640625
1761479816937546800,3.510546630859375,-1.01483154296875,-0.0224151611328125,-0.0174407958984375
1761479816947582700,3.520582763671875,-1.0133514404296875,-0.021942138671875,-0.0180816650390625
1761479816957618700,3.53061865234375,-1.0130615234375,-0.02215576171875,-0.0170440673828125
1761479816967654700,3.540654541015625,-1.01397705078125,-0.0220489501953125,-0.0174407958984375
1761479816977690600,3.550690673828125,-1.0124969482421875,-0.0218658447265625,-0.0171356201171875
1761479816987726600,3.5607265625,-1.013427734375,-0.022552490234375,-0.017608642578125
1761479816997762600,3.570762451171875,-1.0141754150390625,-0.0218048095703125,-0.0171966552734375
1761479817007797800,3.5807978515625,-1.014434814453125,-0.0214996337890625,-0.0175018310546875
1761479817017833700,3.590833740234375,-1.0135498046875,-0.0212554931640625,-0.0178985595703125
1761479817027869700,3.60086962890625,-1.01373291015625,-0.0224761962890625,-0.0173797607421875
1761479817037905700,3.61090576171875,-1.01312255859375,-0.0222320556640625,-0.016937255859375
1761479817047941600,3.620941650390625,-1.01361083984375,-0.021331787109375,-0.017547607421875
1761479817057977600,3.6309775390625,-1.015533447265625,-0.0214080810546875,-0.0166015625
1761479817068013600,3.641013671875,-1.0145263671875,-0.022796630859375,-0.01708984375
1761479817078049500,3.651049560546875,-1.0128326416015625,-0.0225067138671875,-0.0184173583984375
1761479817088085800,3.661085693359375,-1.0131072998046875,-0.0226287841796875,-0.0182037353515625
1761479817098120700,3.67112060546875,-1.013885498046875,-0.0225830078125,-0.01702880859375
1761479817108156700,3.68115673828125,-1.014007568359375,-0.0221099853515625,-0.0181121826171875
1761479817118192600,3.691192626953125,-1.013671875,-0.021392822265625,-0.0174407958984375
1761479817128228600,3.701228515625,-1.013427734375,-0.022674560546875,-0.01763916015625
1761479817138264600,3.7112646484375,-1.0136566162109375,-0.0219573974609375,-0.0171356201171875
1761479817148300500,3.721300537109375,-1.0135650634765625,-0.021881103515625,-0.0177764892578125
1761479817158336500,3.73133642578125,-1.0145263671875,-0.0220489501953125,-0.0175933837890625
1761479817168372700,3.741372802734375,-1.0141143798828125,-0.02239990234375,-0.01812744140625
1761479817178408700,3.75140869140625,-1.0129852294921875,-0.021697998046875,-0.017181396484375
1761479817188443600,3.761443603515625,-1.01446533203125,-0.0214080810546875,-0.0177459716796875
1761479817198479600,3.771479736328125,-1.01336669921875,-0.022705078125,-0.01788330078125
1761479817208515600,3.781515625,-1.01385498046875,-0.022552490234375,-0.0179290771484375
1761479817218551600,3.791551513671875,-1.01409912109375,-0.021820068359375,-0.01739501953125
1761479817228587500,3.80158740234375,-1.0134124755859375,-0.0217437744140625,-0.016571044921875
1761479817238623700,3.811623779296875,-1.0135040283203125,-0.022216796875,-0.0174560546875
1761479817248659700,3.82165966796875,-1.0141448974609375,-0.0225830078125,-0.017303466796875
1761479817258695700,3.83169580078125,-1.014739990234375,-0.0231781005859375,-0.0175933837890625
1761479817268731600,3.841731689453125,-1.0133056640625,-0.0223236083984375,-0.01800537109375
1761479817278767900,3.851767822265625,-1.013641357421875,-0.0217132568359375,-0.01788330078125
1761479817288802600,3.861802490234375,-1.0137176513671875,-0.0215606689453125,-0.017852783203125
1761479817298838500,3.871838623046875,-1.0137481689453125,-0.02191162109375,-0.0181427001953125
1761479817308874500,3.88187451171875,-1.014495849609375,-0.022186279296875,-0.017242431640625
1761479817318910700,3.89191064453125,-1.0139007568359375,-0.022247314453125,-0.01849365234375
1761479817328947000,3.901947021484375,-1.0144805908203125,-0.0221099853515625,-0.0173187255859375
1761479817338983000,3.91198291015625,-1.0142364501953125,-0.0223236083984375,-0.0174713134765625
1761479817349019000,3.922018798828125,-1.01483154296875,-0.0221099853515625,-0.017333984375
1761479817359054800,3.932054931640625,-1.0142364501953125,-0.0220489501953125,-0.017364501953125
1761479817369090600,3.942090576171875,-1.0140380859375,-0.02325439453125,-0.0177764892578125
1761479817379126500,3.95212646484375,-1.0143585205078125,-0.022430419921875,-0.017547607421875
1761479817389162500,3.96216259765625,-1.0141754150390625,-0.0227203369140625,-0.0169219970703125
1761479817399198500,3.972198486328125,-1.01397705078125,-0.0217437744140625,-0.017852783203125
1761479817409234400,3.982234375,-1.0136566162109375,-0.0225677490234375,-0.017425537109375
1761479817419270400,3.9922705078125,-1.013458251953125,-0.02154541015625,-0.0168609619140625
1761479817429306600,4.002306640625,-1.0140228271484375,-0.021881103515625,-0.0170745849609375
1761479817439340500,4.012340576171875,-1.0129241943359375,-0.0225067138671875,-0.01727294921875
1761479817449376500,4.02237646484375,-1.01422119140625,-0.022003173828125,-0.0175628662109375
1761479817459412500,4.03241259765625,-1.0129547119140625,-0.0210723876953125,-0.0167694091796875
1761479817469448400,4.042448486328125,-1.0140533447265625,-0.0222320556640625,-0.017608642578125
1761479817479484700,4.052484619140625,-1.0137176513671875,-0.0224609375,-0.0179901123046875
1761479817489520600,4.062520751953125,-1.013580322265625,-0.0223846435546875,-0.0178070068359375
1761479817499556600,4.072556640625,-1.01318359375,-0.0226287841796875,-0.0181427001953125
1761479817509592600,4.082592529296875,-1.012847900390625,-0.021148681640625,-0.018402099609375
1761479817519627500,4.09262744140625,-1.013153076171875,-0.0214996337890625,-0.0171966552734375
1761479817529663500,4.10266357421875,-1.0137786865234375,-0.0221405029296875,-0.0166473388671875
1761479817539699500,4.112699462890625,-1.0146484375,-0.0220794677734375,-0.017822265625
1761479817549735400,4.1227353515625,-1.01416015625,-0.022125244140625,-0.01800537109375
1761479817559771600,4.132771728515625,-1.013946533203125,-0.02239990234375,-0.0171051025390625
1761479817569807600,4.1428076171875,-1.01287841796875,-0.0224456787109375,-0.0175933837890625
1761479817579843600,4.152843505859375,-1.01397705078125,-0.023040771484375,-0.0179290771484375
1761479817589879600,4.162879638671875,-1.0140380859375,-0.0224609375,-0.017730712890625
1761479817599914500,4.17291455078125,-1.0140380859375,-0.0218048095703125,-0.01708984375
1761479817609950500,4.182950439453125,-1.014129638671875,-0.0223388671875,-0.017791748046875
1761479817619986400,4.192986328125,-1.0142822265625,-0.0224609375,-0.017822265625
1761479817630022400,4.2030224609375,-1.01434326171875,-0.0217742919921875,-0.0171051025390625
1761479817640058600,4.21305859375,-1.0142364501953125,-0.0218048095703125,-0.0178680419921875
1761479817650094600,4.223094482421875,-1.01373291015625,-0.021820068359375,-0.017242431640625
1761479817660130600,4.233130615234375,-1.01336669921875,-0.022552490234375,-0.0174407958984375
1761479817670166500,4.24316650390625,-1.0130767822265625,-0.0224609375,-0.017242431640625
1761479817680202500,4.253202392578125,-1.014373779296875,-0.021942138671875,-0.0174713134765625
1761479817690237400,4.263237548828125,-1.014404296875,-0.022430419921875,-0.0177154541015625
1761479817700273400,4.2732734375,-1.0145263671875,-0.022247314453125,-0.0177001953125
1761479817710309600,4.2833095703125,-1.0137786865234375,-0.02191162109375,-0.017120361328125
1761479817720345600,4.293345703125,-1.0140838623046875,-0.02264404296875,-0.0172882080078125
1761479817730381600,4.303381591796875,-1.013763427734375,-0.0225982666015625,-0.017822265625
1761479817740417500,4.31341748046875,-1.0131683349609375,-0.023040771484375,-0.0182342529296875
1761479817750453500,4.32345361328125,-1.0135650634765625,-0.0228424072265625,-0.0172271728515625
1761479817760489700,4.33348974609375,-1.014251708984375,-0.0220489501953125,-0.017791748046875
1761479817770525700,4.343525634765625,-1.0143585205078125,-0.021636962890625,-0.017486572265625
1761479817780560400,4.353560302734375,-1.0143585205078125,-0.021728515625,-0.0174713134765625
1761479817790596600,4.3635966796875,-1.0140533447265625,-0.0226287841796875,-0.0174407958984375
1761479817800632600,4.373632568359375,-1.01348876953125,-0.0227813720703125,-0.01739501953125
1761479817810668500,4.38366845703125,-1.0136871337890625,-0.0216217041015625,-0.016754150390625
1761479817820704800,4.393704833984375,-1.0133819580078125,-0.0220947265625,-0.018035888671875
1761479817830740700,4.40374072265625,-1.0142364501953125,-0.02197265625,-0.01788330078125
1761479817840776700,4.413776611328125,-1.0138092041015625,-0.02154541015625,-0.0167694091796875
1761479817850812700,4.423812744140625,-1.0127410888671875,-0.02191162109375,-0.01776123046875
1761479817860848600,4.4338486328125,-1.013671875,-0.0225372314453125,-0.0175323486328125
1761479817870883600,4.443883544921875,-1.0131683349609375,-0.021331787109375,-0.016571044921875
1761479817880919800,4.453919921875,-1.01263427734375,-0.0221710205078125,-0.0172271728515625
1761479817890955800,4.463955810546875,-1.0132293701171875,-0.0230560302734375,-0.01708984375
1761479817900991700,4.47399169921875,-1.0130615234375,-0.02276611328125,-0.01739501953125
1761479817911027700,4.48402783203125,-1.013336181640625,-0.0224456787109375,-0.0179290771484375
1761479817921063700,4.494063720703125,-1.0143280029296875,-0.022491455078125,-0.017608642578125
1761479817931099600,4.504099609375,-1.0132598876953125,-0.022491455078125,-0.017486572265625
1761479817941135600,4.514135498046875,-1.013580322265625,-0.02215576171875,-0.0172119140625
1761479817951170600,4.524170654296875,-1.0131072998046875,-0.0217437744140625,-0.017059326171875
1761479817961206800,4.534206787109375,-1.0135955810546875,-0.0225830078125,-0.016998291015625
1761479817971242800,4.54424267578125,-1.0133209228515625,-0.0218048095703125,-0.01776123046875
1761479817981278700,4.55427880859375,-1.0135040283203125,-0.0217742919921875,-0.018310546875
1761479817991314700,4.564314697265625,-1.0130157470703125,-0.0224456787109375,-0.01763916015625
1761479818001350700,4.5743505859375,-1.014251708984375,-0.0224609375,-0.01812744140625
1761479818011387600,4.5843876953125,-1.0133819580078125,-0.022857666015625,-0.0170745849609375
1761479818021423600,4.594423583984375,-1.013671875,-0.0220489501953125,-0.01727294921875
1761479818031459600,4.60445947265625,-1.014801025390625,-0.0225982666015625,-0.0171661376953125
1761479818041495600,4.61449560546875,-1.0130157470703125,-0.0218658447265625,-0.0177459716796875
1761479818051531500,4.624531494140625,-1.013763427734375,-0.02203369140625,-0.017120361328125
1761479818061567500,4.6345673828125,-1.0143280029296875,-0.0217437744140625,-0.0167694091796875
1761479818071603500,4.644603515625,-1.0129241943359375,-0.022064208984375,-0.016998291015625
1761479818081638700,4.654638671875,-1.012725830078125,-0.021942138671875,-0.0179290771484375
1761479818091674600,4.664674560546875,-1.013824462890625,-0.02197265625,-0.0176544189453125
1761479818101710600,4.674710693359375,-1.014251708984375,-0.022613525390625,-0.01776123046875
1761479818111746600,4.68474658203125,-1.0121917724609375,-0.0226898193359375,-0.0178985595703125
1761479818121782500,4.694782470703125,-1.0136871337890625,-0.0220184326171875,-0.0177154541015625
1761479818131818500,4.704818603515625,-1.01385498046875,-0.021942138671875,-0.0178680419921875
1761479818141854500,4.7148544921875,-1.0145721435546875,-0.0225830078125,-0.0178680419921875
1761479818151890400,4.724890380859375,-1.0134124755859375,-0.0225982666015625,-0.0177154541015625
1761479818161926400,4.734926513671875,-1.0131988525390625,-0.0230255126953125,-0.0179443359375
1761479818171961600,4.744961669921875,-1.01361083984375,-0.0221710205078125,-0.01776123046875
1761479818181997600,4.75499755859375,-1.01336669921875,-0.02252197265625,-0.01715087890625
1761479818192033500,4.765033447265625,-1.013427734375,-0.0219879150390625,-0.0172119140625
1761479818202069500,4.775069580078125,-1.012939453125,-0.021697998046875,-0.017974853515625
1761479818212105500,4.78510546875,-1.0144195556640625,-0.0213165283203125,-0.017822265625
1761479818222141400,4.795141357421875,-1.0135345458984375,-0.022186279296875,-0.01806640625
1761479818232177400,4.805177490234375,-1.01287841796875,-0.02239990234375,-0.01776123046875
1761479818242213400,4.81521337890625,-1.013580322265625,-0.0233306884765625,-0.018280029296875
1761479818252249600,4.82524951171875,-1.0137786865234375,-0.0227508544921875,-0.017913818359375
1761479818262284500,4.835284423828125,-1.013458251953125,-0.0214385986328125,-0.01690673828125
1761479818272320500,4.845320556640625,-1.0127105712890625,-0.0221099853515625,-0.0177459716796875
1761479818282356500,4.8553564453125,-1.0132598876953125,-0.021881103515625,-0.017578125
1761479818292392400,4.865392333984375,-1.0137481689453125,-0.022247314453125,-0.0171661376953125
1761479818302428400,4.875428466796875,-1.0126953125,-0.0226287841796875,-0.0178070068359375
1761479818312464400,4.88546435546875,-1.013153076171875,-0.021636962890625,-0.018096923828125
1761479818322500400,4.895500244140625,-1.013092041015625,-0.0222930908203125,-0.017852783203125
1761479818332536600,4.90553662109375,-1.01458740234375,-0.0216217041015625,-0.017730712890625
1761479818342572800,4.91557275390625,-1.013214111328125,-0.022369384765625,-0.0179595947265625
1761479818352607500,4.925607421875,-1.013946533203125,-0.022064208984375,-0.017547607421875
1761479818362642400,4.935642333984375,-1.014007568359375,-0.0223236083984375,-0.017120361328125
1761479818372678400,4.945678466796875,-1.0134124755859375,-0.0221710205078125,-0.01776123046875
1761479818382714600,4.955714599609375,-1.0133819580078125,-0.02203369140625,-0.0177459716796875
1761479818392750800,4.965750732421875,-1.01373291015625,-0.022186279296875,-0.017425537109375
1761479818402786800,4.975786865234375,-1.0130615234375,-0.02239990234375,-0.0173187255859375
1761479818412822800,4.98582275390625,-1.014129638671875,-0.0218505859375,-0.017059326171875
1761479818422858800,4.995858642578125,-1.0145416259765625,-0.021636962890625,-0.016632080078125
1761479818432894700,5.005894775390625,-1.0138702392578125,-0.0223236083984375,-0.0175323486328125
1761479818442929700,5.0159296875,-1.01556396484375,-0.022613525390625,-0.017181396484375
1761479818452965600,5.025965576171875,-1.0135040283203125,-0.022430419921875,-0.0179595947265625
1761479818463001900,5.036001953125,-1.0140838623046875,-0.022186279296875,-0.017486572265625
1761479818473037800,5.046037841796875,-1.013580322265625,-0.0216827392578125,-0.01776123046875
1761479818483073800,5.05607373046875,-1.0133514404296875,-0.021942138671875,-0.0176849365234375
1761479818493109800,5.06610986328125,-1.0133819580078125,-0.0221099853515625,-0.0172119140625
1761479818503145700,5.076145751953125,-1.0147552490234375,-0.0222625732421875,-0.017974853515625
1761479818513181700,5.086181640625,-1.014434814453125,-0.0213623046875,-0.0169219970703125
1761479818523217700,5.0962177734375,-1.0137786865234375,-0.02227783203125,-0.0171661376953125
1761479818533252600,5.106252685546875,-1.01409912109375,-0.022613525390625,-0.0169830322265625
1761479818543288800,5.116288818359375,-1.0138702392578125,-0.0226898193359375,-0.0171661376953125
1761479818553324800,5.12632470703125,-1.0150909423828125,-0.0226898193359375,-0.0171356201171875
1761479818563360800,5.13636083984375,-1.0140533447265625,-0.022186279296875,-0.0177001953125
1761479818573396700,5.146396728515625,-1.0143585205078125,-0.0223236083984375,-0.0174560546875
1761479818583432700,5.1564326171875,-1.0128936767578125,-0.0220794677734375,-0.017425537109375
1761479818593468700,5.16646875,-1.013580322265625,-0.0220794677734375,-0.0174560546875
1761479818603504600,5.176504638671875,-1.0138702392578125,-0.023101806640625,-0.017486572265625
1761479818613540600,5.18654052734375,-1.0138702392578125,-0.0224456787109375,-0.0169677734375
1761479818623575800,5.196575927734375,-1.013580322265625,-0.0218963623046875,-0.017486572265625
1761479818633611800,5.20661181640625,-1.0137786865234375,-0.022430419921875,-0.017120361328125
1761479818643647700,5.216647705078125,-1.0141448974609375,-0.0224609375,-0.01702880859375
1761479818653683700,5.22668359375,-1.0136566162109375,-0.0220947265625,-0.017242431640625
1761479818663719700,5.2367197265625,-1.0138092041015625,-0.02264404296875,-0.018035888671875
1761479818673755600,5.246755615234375,-1.0135955810546875,-0.0213775634765625,-0.0179443359375
1761479818683791600,5.25679150390625,-1.0128631591796875,-0.02178955078125,-0.017303466796875
1761479818693827600,5.26682763671875,-1.01300048828125,-0.0223541259765625,-0.018280029296875
1761479818703863600,5.276863525390625,-1.014190673828125,-0.022705078125,-0.017333984375
1761479818713898800,5.286898681640625,-1.0135650634765625,-0.0218505859375,-0.0178680419921875
1761479818723934700,5.296934814453125,-1.0135345458984375,-0.0213623046875,-0.017669677734375
1761479818733970700,5.306970703125,-1.0132904052734375,-0.02264404296875,-0.0171966552734375
1761479818744006700,5.317006591796875,-1.0140228271484375,-0.022186279296875,-0.01678466796875
1761479818754042600,5.327042724609375,-1.0133056640625,-0.0221710205078125,-0.017913818359375
1761479818764078600,5.33707861328125,-1.014801025390625,-0.0219573974609375,-0.017730712890625
1761479818774114600,5.347114501953125,-1.013214111328125,-0.0218048095703125,-0.0171356201171875
1761479818784150500,5.357150634765625,-1.014190673828125,-0.0229339599609375,-0.0173187255859375
1761479818794186500,5.3671865234375,-1.014373779296875,-0.022613525390625,-0.017333984375
1761479818804221700,5.3772216796875,-1.0131072998046875,-0.02239990234375,-0.01806640625
1761479818814257700,5.387257568359375,-1.013519287109375,-0.02227783203125,-0.017822265625
1761479818824293600,5.397293701171875,-1.014068603515625,-0.0224609375,-0.0177154541015625
1761479818834329600,5.40732958984375,-1.01348876953125,-0.02288818359375,-0.017425537109375
1761479818844365600,5.417365478515625,-1.0142669677734375,-0.02252197265625,-0.0172882080078125
1761479818854401500,5.427401611328125,-1.013916015625,-0.021820068359375,-0.0175323486328125
1761479818864437500,5.4374375,-1.0134429931640625,-0.0215301513671875,-0.0177154541015625
1761479818874473500,5.447473388671875,-1.0139007568359375,-0.022552490234375,-0.0173492431640625
1761479818884508700,5.4575087890625,-1.01416015625,-0.0223388671875,-0.017669677734375
1761479818894544600,5.467544677734375,-1.0135345458984375,-0.022186279296875,-0.01763916015625
1761479818904580600,5.47758056640625,-1.0134429931640625,-0.0226287841796875,-0.0177154541015625
1761479818914616600,5.487616455078125,-1.014617919921875,-0.021820068359375,-0.01739501953125
1761479818924652500,5.497652587890625,-1.0130462646484375,-0.02191162109375,-0.0167694091796875
1761479818934688500,5.5076884765625,-1.013702392578125,-0.0219879150390625,-0.01751708984375
1761479818944724500,5.517724365234375,-1.013641357421875,-0.0224609375,-0.0176849365234375
1761479818954760400,5.527760498046875,-1.013092041015625,-0.022125244140625,-0.017822265625
1761479818964796400,5.53779638671875,-1.0130462646484375,-0.021881103515625,-0.0171966552734375
1761479818974831600,5.54783154296875,-1.0136566162109375,-0.0216217041015625,-0.017059326171875
1761479818984867600,5.55786767578125,-1.013580322265625,-0.0216827392578125,-0.0177154541015625
1761479818994903600,5.567903564453125,-1.01416015625,-0.02197265625,-0.018218994140625
1761479819004939500,5.577939453125,-1.013458251953125,-0.023284912109375,-0.0181427001953125
1761479819014975500,5.5879755859375,-1.014312744140625,-0.0219268798828125,-0.018707275390625
1761479819025011500,5.598011474609375,-1.0135040283203125,-0.0222320556640625,-0.0166778564453125
1761479819035047400,5.60804736328125,-1.0139007568359375,-0.0222625732421875,-0.017059326171875
1761479819045083600,5.618083740234375,-1.0130462646484375,-0.02178955078125,-0.0177001953125
1761479819055119600,5.62811962890625,-1.012939453125,-0.0222930908203125,-0.0166473388671875
1761479819065154600,5.638154541015625,-1.013946533203125,-0.0221710205078125,-0.0170135498046875
1761479819075190500,5.6481904296875,-1.01483154296875,-0.0228271484375,-0.0167236328125
1761479819085226500,5.6582265625,-1.0155181884765625,-0.0218353271484375,-0.0176544189453125
1761479819095262500,5.668262451171875,-1.014556884765625,-0.0220489501953125,-0.01812744140625
1761479819105298400,5.67829833984375,-1.0133056640625,-0.0224761962890625,-0.017730712890625
1761479819115334400,5.68833447265625,-1.01513671875,-0.021575927734375,-0.0179595947265625
1761479819125370600,5.69837060546875,-1.0140228271484375,-0.022735595703125,-0.0175018310546875
1761479819135406800,5.70840673828125,-1.013946533203125,-0.0217742919921875,-0.0178680419921875
1761479819145442800,5.71844287109375,-1.01336669921875,-0.0219879150390625,-0.0177764892578125
1761479819155477500,5.7284775390625,-1.013092041015625,-0.0223541259765625,-0.0179595947265625
1761479819165513500,5.738513427734375,-1.0131378173828125,-0.022735595703125,-0.0174102783203125
1761479819175549700,5.7485498046875,-1.0139007568359375,-0.022186279296875,-0.0173492431640625
1761479819185585700,5.758585693359375,-1.01385498046875,-0.022674560546875,-0.017303466796875
1761479819195621600,5.76862158203125,-1.0142364501953125,-0.0225677490234375,-0.0176544189453125
1761479819205657600,5.77865771484375,-1.0141143798828125,-0.0218963623046875,-0.017425537109375
1761479819215693800,5.78869384765625,-1.013427734375,-0.0219879150390625,-0.01727294921875
1761479819225729800,5.798729736328125,-1.0134429931640625,-0.0210418701171875,-0.0163421630859375
1761479819235764700,5.8087646484375,-1.01324462890625,-0.0228118896484375,-0.0178070068359375
1761479819245800700,5.81880078125,-1.014495849609375,-0.02239990234375,-0.0172576904296875
1761479819255836700,5.828836669921875,-1.0147247314453125,-0.021728515625,-0.0176239013671875
1761479819265872600,5.83887255859375,-1.014068603515625,-0.022369384765625,-0.01763916015625
1761479819275908600,5.84890869140625,-1.0141448974609375,-0.02191162109375,-0.017364501953125
1761479819285944600,5.858944580078125,-1.0137176513671875,-0.02178955078125,-0.016845703125
1761479819295980800,5.868980712890625,-1.014190673828125,-0.0218048095703125,-0.017669677734375
1761479819306016800,5.879016845703125,-1.0139923095703125,-0.0227203369140625,-0.0171051025390625
1761479819316052700,5.889052734375,-1.012847900390625,-0.02154541015625,-0.0174713134765625
1761479819326087700,5.899087646484375,-1.01324462890625,-0.020904541015625,-0.01727294921875
1761479819336123600,5.90912353515625,-1.01470947265625,-0.0216064453125,-0.0166015625
1761479819346159600,5.91915966796875,-1.0136871337890625,-0.0219268798828125,-0.01788330078125
1761479819356195600,5.929195556640625,-1.012420654296875,-0.02197265625,-0.0181732177734375
1761479819366231600,5.9392314453125,-1.0129547119140625,-0.02191162109375,-0.01806640625
1761479819376267500,5.949267578125,-1.0137786865234375,-0.0218048095703125,-0.0165252685546875
1761479819386303500,5.959303466796875,-1.01409912109375,-0.0216217041015625,-0.016998291015625
1761479819396339500,5.96933935546875,-1.013824462890625,-0.0219879150390625,-0.016937255859375
1761479819406374400,5.97937451171875,-1.0130615234375,-0.02166748046875,-0.0177764892578125
1761479819416410400,5.989410400390625,-1.01434326171875,-0.0213165283203125,-0.0175933837890625
1761479819426446300,5.9994462890625,-1.0136871337890625,-0.022491455078125,-0.0175323486328125
1761479819436482300,6.009482421875,-1.0144500732421875,-0.0225067138671875,-0.017578125
1761479819446518500,6.0195185546875,-1.0140380859375,-0.02252197265625,-0.0176239013671875
1761479819456554500,6.029554443359375,-1.014129638671875,-0.0224151611328125,-0.017578125
1761479819466590500,6.039590576171875,-1.01373291015625,-0.022979736328125,-0.0175628662109375
1761479819476626400,6.04962646484375,-1.0141448974609375,-0.022552490234375,-0.01727294921875
1761479819486662400,6.059662353515625,-1.013671875,-0.0220947265625,-0.0175323486328125
1761479819496697300,6.069697265625,-1.0138092041015625,-0.0219879150390625,-0.0172882080078125
1761479819506733300,6.0797333984375,-1.0131988525390625,-0.0223388671875,-0.017822265625
1761479819516769500,6.08976953125,-1.0139617919921875,-0.0214385986328125,-0.01824951171875
1761479819526805500,6.099805419921875,-1.013885498046875,-0.0223388671875,-0.01763916015625
1761479819536841500,6.109841552734375,-1.0131988525390625,-0.0221710205078125,-0.017608642578125
1761479819546877400,6.11987744140625,-1.0139312744140625,-0.02191162109375,-0.0175323486328125
1761479819556913700,6.12991357421875,-1.0145721435546875,-0.0224609375,-0.017242431640625
1761479819566949600,6.13994970703125,-1.013641357421875,-0.021820068359375,-0.01666259765625
1761479819576984300,6.149984375,-1.0143585205078125,-0.0218963623046875,-0.0175323486328125
1761479819587020300,6.160020263671875,-1.0133056640625,-0.022369384765625,-0.0176849365234375
1761479819597056500,6.170056396484375,-1.0136260986328125,-0.0222930908203125,-0.017486572265625
1761479819607092700,6.1800927734375,-1.0133209228515625,-0.021759033203125,-0.017333984375
1761479819617128700,6.190128662109375,-1.0137786865234375,-0.0222930908203125,-0.0177154541015625
1761479819627164700,6.20016455078125,-1.01422119140625,-0.0218658447265625,-0.0182952880859375
1761479819637200600,6.21020068359375,-1.01409912109375,-0.022125244140625,-0.0179443359375
1761479819647236600,6.220236572265625,-1.01416015625,-0.0216217041015625,-0.0174560546875
1761479819657271300,6.230271240234375,-1.0146942138671875,-0.02191162109375,-0.0180816650390625
1761479819667307500,6.2403076171875,-1.013336181640625,-0.0219573974609375,-0.017578125
1761479819677343500,6.250343505859375,-1.0124969482421875,-0.022125244140625,-0.01678466796875
1761479819687379700,6.260379638671875,-1.014251708984375,-0.02197265625,-0.0179901123046875
1761479819697415700,6.270415771484375,-1.0146636962890625,-0.021392822265625,-0.0169830322265625
1761479819707451600,6.28045166015625,-1.0132598876953125,-0.0220184326171875,-0.017974853515625
1761479819717487600,6.290487548828125,-1.0142974853515625,-0.022003173828125,-0.0174102783203125
1761479819727523600,6.300523681640625,-1.0147857666015625,-0.0224761962890625,-0.017425537109375
1761479819737558500,6.31055859375,-1.0140838623046875,-0.0227203369140625,-0.017333984375
1761479819747594500,6.320594482421875,-1.0146484375,-0.0222320556640625,-0.016937255859375
1761479819757630500,6.33063037109375,-1.0141754150390625,-0.0217437744140625,-0.0177764892578125
1761479819767666700,6.340666748046875,-1.0130462646484375,-0.022613525390625,-0.0179595947265625
1761479819777702700,6.35070263671875,-1.0139617919921875,-0.0230865478515625,-0.0174102783203125
1761479819787738600,6.360738525390625,-1.0139923095703125,-0.0215606689453125,-0.0172119140625
1761479819797774600,6.370774658203125,-1.0146484375,-0.02252197265625,-0.017852783203125
1761479819807810600,6.380810546875,-1.014617919921875,-0.0218963623046875,-0.0173187255859375
1761479819817845500,6.390845458984375,-1.014556884765625,-0.0221405029296875,-0.01800537109375
1761479819827881500,6.400881591796875,-1.0137176513671875,-0.021728515625,-0.0173187255859375
1761479819837917400,6.41091748046875,-1.014068603515625,-0.022430419921875,-0.0180206298828125
1761479819847953700,6.42095361328125,-1.0135345458984375,-0.021697998046875,-0.017669677734375
1761479819857989600,6.43098974609375,-1.0137481689453125,-0.022003173828125,-0.0177154541015625
1761479819868025600,6.441025634765625,-1.0138702392578125,-0.0228271484375,-0.018218994140625
1761479819878061600,6.4510615234375,-1.0134429931640625,-0.021026611328125,-0.0179595947265625
1761479819888097500,6.46109765625,-1.014923095703125,-0.0220489501953125,-0.0176544189453125
1761479819898132500,6.471132568359375,-1.0141448974609375,-0.0226593017578125,-0.0175628662109375
1761479819908168400,6.48116845703125,-1.013031005859375,-0.0222015380859375,-0.01708984375
1761479819918204700,6.49120458984375,-1.0131988525390625,-0.020721435546875,-0.017822265625
1761479819928240600,6.50124072265625,-1.014373779296875,-0.02093505859375,-0.017333984375
1761479819938276600,6.511276611328125,-1.0146484375,-0.0225067138671875,-0.0174407958984375
1761479819948312600,6.5213125,-1.0140533447265625,-0.0222930908203125,-0.017669677734375
1761479819958348500,6.5313486328125,-1.0138397216796875,-0.0215606689453125,-0.017425537109375
1761479819968384500,6.541384521484375,-1.01312255859375,-0.0217132568359375,-0.0175933837890625
1761479819978419500,6.55141943359375,-1.014495849609375,-0.020843505859375,-0.0177459716796875
1761479819988455400,6.561455322265625,-1.012908935546875,-0.02191162109375,-0.017791748046875
1761479819998491600,6.57149169921875,-1.013427734375,-0.0215911865234375,-0.017425537109375
1761479820008527600,6.581527587890625,-1.013885498046875,-0.0215606689453125,-0.018218994140625
1761479820018563600,6.5915634765625,-1.0138397216796875,-0.02197265625,-0.0175323486328125
1761479820028599600,6.601599609375,-1.013214111328125,-0.0220947265625,-0.0172576904296875
1761479820038635500,6.611635498046875,-1.013702392578125,-0.0225982666015625,-0.017486572265625
1761479820048671500,6.62167138671875,-1.01507568359375,-0.0226898193359375,-0.0179443359375
1761479820058706400,6.63170654296875,-1.0135498046875,-0.0222320556640625,-0.017547607421875
1761479820068742400,6.641742431640625,-1.0132598876953125,-0.0223388671875,-0.017547607421875
1761479820078778600,6.651778564453125,-1.0143890380859375,-0.0220794677734375,-0.0182037353515625
1761479820088814600,6.661814697265625,-1.0141143798828125,-0.02215576171875,-0.017791748046875
1761479820098850600,6.6718505859375,-1.0144805908203125,-0.022491455078125,-0.0174713134765625
1761479820108886500,6.681886474609375,-1.013580322265625,-0.0226287841796875,-0.017547607421875
1761479820118922500,6.691922607421875,-1.0131072998046875,-0.021514892578125,-0.0171356201171875
1761479820128958500,6.70195849609375,-1.0145263671875,-0.0212249755859375,-0.0173492431640625
1761479820138993400,6.711993408203125,-1.014068603515625,-0.022125244140625,-0.017486572265625
1761479820149029400,6.722029296875,-1.013031005859375,-0.022186279296875,-0.0177154541015625
1761479820159065600,6.732065673828125,-1.0148162841796875,-0.0221099853515625,-0.0175933837890625
1761479820169101600,6.7421015625,-1.01373291015625,-0.022125244140625,-0.0176849365234375
1761479820179137500,6.752137451171875,-1.01397705078125,-0.022979736328125,-0.018096923828125
1761479820189173500,6.762173583984375,-1.0145111083984375,-0.022796630859375,-0.0182647705078125
1761479820199209500,6.77220947265625,-1.0147705078125,-0.021484375,-0.0171356201171875
1761479820209245400,6.782245361328125,-1.0139007568359375,-0.0228271484375,-0.0181121826171875
1761479820219280400,6.7922802734375,-1.0146026611328125,-0.02349853515625,-0.0171051025390625
1761479820229316400,6.80231640625,-1.01507568359375,-0.0219268798828125,-0.0174407958984375
1761479820239352600,6.8123525390625,-1.014617919921875,-0.0219573974609375,-0.0181121826171875
1761479820249388500,6.822388427734375,-1.0146942138671875,-0.021820068359375,-0.0177154541015625
1761479820259424500,6.832424560546875,-1.0143585205078125,-0.021728515625,-0.0178680419921875
1761479820269460500,6.84246044921875,-1.013916015625,-0.0220947265625,-0.018768310546875
1761479820279496400,6.852496337890625,-1.0137176513671875,-0.0214385986328125,-0.0180816650390625
1761479820289531400,6.862531494140625,-1.01470947265625,-0.022216796875,-0.0179290771484375
1761479820299567400,6.8725673828125,-1.0142059326171875,-0.0219879150390625,-0.0177001953125
1761479820309603300,6.882603271484375,-1.01470947265625,-0.02227783203125,-0.0174102783203125
1761479820319639600,6.8926396484375,-1.0135955810546875,-0.021942138671875,-0.0176239013671875
1761479820329675500,6.902675537109375,-1.0129852294921875,-0.0215301513671875,-0.0170745849609375
1761479820339711500,6.91271142578125,-1.0144195556640625,-0.0221710205078125,-0.0173797607421875
1761479820349747500,6.92274755859375,-1.014801025390625,-0.022613525390625,-0.0169830322265625
1761479820359783400,6.932783447265625,-1.01422119140625,-0.021392822265625,-0.0172576904296875
1761479820369818000,6.942818115234375,-1.0144195556640625,-0.02166748046875,-0.0176544189453125
1761479820379854000,6.95285400390625,-1.01397705078125,-0.022430419921875,-0.0179595947265625
1761479820389890300,6.962890380859375,-1.014739990234375,-0.02105712890625,-0.0181427001953125
1761479820399926300,6.97292626953125,-1.0142059326171875,-0.0216064453125,-0.0182952880859375
1761479820409962200,6.982962158203125,-1.014007568359375,-0.0218658447265625,-0.0176849365234375
1761479820419998200,6.992998291015625,-1.0139617919921875,-0.02142333984375,-0.0178680419921875
1761479820430034200,7.0030341796875,-1.0141143798828125,-0.0220947265625,-0.017425537109375
1761479820440069000,7.013069091796875,-1.014312744140625,-0.021484375,-0.0178985595703125
1761479820450105000,7.02310498046875,-1.01385498046875,-0.0230712890625,-0.0186004638671875
1761479820460141000,7.03314111328125,-1.013427734375,-0.022491455078125,-0.0179901123046875
1761479820470177300,7.04317724609375,-1.013275146484375,-0.021942138671875,-0.0179595947265625
1761479820480213200,7.053213134765625,-1.014434814453125,-0.0220489501953125,-0.018096923828125
1761479820490249200,7.063249267578125,-1.0145111083984375,-0.0220184326171875,-0.0177001953125
1761479820500285200,7.07328515625,-1.014434814453125,-0.021697998046875,-0.0167083740234375
1761479820510321200,7.083321044921875,-1.014129638671875,-0.0225067138671875,-0.01776123046875
1761479820520356000,7.093356201171875,-1.0138092041015625,-0.0220947265625,-0.0174102783203125
1761479820530392000,7.10339208984375,-1.0131683349609375,-0.021820068359375,-0.0168609619140625
1761479820540428300,7.11342822265625,-1.014312744140625,-0.02227783203125,-0.0169219970703125
1761479820550464300,7.12346435546875,-1.0146331787109375,-0.021759033203125,-0.0170135498046875
1761479820560500200,7.133500244140625,-1.0143280029296875,-0.02227783203125,-0.0176239013671875
1761479820570536200,7.1435361328125,-1.0147552490234375,-0.0223236083984375,-0.01763916015625
1761479820580572200,7.153572265625,-1.013458251953125,-0.0219879150390625,-0.017242431640625
1761479820590608100,7.163608154296875,-1.0140838623046875,-0.0225067138671875,-0.0165863037109375
1761479820600643000,7.17364306640625,-1.0140380859375,-0.022186279296875,-0.01727294921875
1761479820610679000,7.183678955078125,-1.014434814453125,-0.021575927734375,-0.01690673828125
1761479820620715300,7.19371533203125,-1.0132904052734375,-0.0217132568359375,-0.017608642578125
1761479820630751200,7.203751220703125,-1.012847900390625,-0.0216217041015625,-0.0177001953125
1761479820640787200,7.213787109375,-1.0138092041015625,-0.0217742919921875,-0.01739501953125
1761479820650823200,7.2238232421875,-1.0136260986328125,-0.021728515625,-0.0179595947265625
1761479820660859100,7.233859130859375,-1.0143280029296875,-0.022064208984375,-0.0178070068359375
1761479820670894000,7.24389404296875,-1.0139617919921875,-0.0215606689453125,-0.0176849365234375
1761479820680930000,7.253929931640625,-1.0138702392578125,-0.02197265625,-0.0176239013671875
1761479820690966000,7.263966064453125,-1.0133209228515625,-0.0224761962890625,-0.0177764892578125
1761479820701002200,7.274002197265625,-1.0141143798828125,-0.0231475830078125,-0.017547607421875
1761479820711038200,7.2840380859375,-1.0137786865234375,-0.0217742919921875,-0.0175628662109375
1761479820721074200,7.29407421875,-1.0135955810546875,-0.022064208984375,-0.0181121826171875
1761479820731110100,7.304110107421875,-1.01409912109375,-0.02239990234375,-0.0174407958984375
1761479820741145000,7.31414501953125,-1.0135650634765625,-0.021697998046875,-0.0174407958984375
1761479820751181000,7.32418115234375,-1.0135040283203125,-0.023040771484375,-0.017913818359375
1761479820761217000,7.334217041015625,-1.014007568359375,-0.022796630859375,-0.018157958984375
1761479820771253000,7.3442529296875,-1.0146484375,-0.02301025390625,-0.01739501953125
1761479820781289200,7.354289306640625,-1.0139007568359375,-0.022125244140625,-0.017608642578125
1761479820791325200,7.3643251953125,-1.0136871337890625,-0.0218048095703125,-0.017730712890625
1761479820801361400,7.374361328125,-1.01434326171875,-0.0223236083984375,-0.017547607421875
1761479820811396000,7.38439599609375,-1.0135040283203125,-0.022491455078125,-0.017059326171875
1761479820821432000,7.39443212890625,-1.014495849609375,-0.0221405029296875,-0.0178375244140625
1761479820831468000,7.404468017578125,-1.01373291015625,-0.02203369140625,-0.0180206298828125
1761479820841504000,7.41450390625,-1.01483154296875,-0.02239990234375,-0.0169219970703125
1761479820851540200,7.424540283203125,-1.015106201171875,-0.0216217041015625,-0.018096923828125
1761479820861576200,7.434576171875,-1.0145263671875,-0.0214691162109375,-0.017425537109375
1761479820871612400,7.4446123046875,-1.0145263671875,-0.022247314453125,-0.0172271728515625
1761479820881648400,7.4546484375,-1.01324462890625,-0.0211944580078125,-0.0173187255859375
1761479820891683000,7.46468310546875,-1.0137939453125,-0.021240234375,-0.01751708984375
1761479820901719000,7.474718994140625,-1.01318359375,-0.021881103515625,-0.0172882080078125
1761479820911755300,7.48475537109375,-1.014556884765625,-0.022979736328125,-0.0170745849609375
1761479820921791200,7.494791259765625,-1.0138397216796875,-0.0216217041015625,-0.01727294921875
1761479820931827200,7.5048271484375,-1.01470947265625,-0.0215606689453125,-0.0177764892578125
1761479820941863400,7.514863525390625,-1.0149688720703125,-0.0221710205078125,-0.0179595947265625
1761479820951899400,7.5248994140625,-1.0139923095703125,-0.022064208984375,-0.0178375244140625
1761479820961934300,7.534934326171875,-1.01361083984375,-0.0225982666015625,-0.0183258056640625
1761479820971970300,7.54497021484375,-1.0141143798828125,-0.0224456787109375,-0.016632080078125
1761479820982006300,7.55500634765625,-1.013763427734375,-0.022369384765625,-0.0173492431640625
1761479820992042200,7.565042236328125,-1.0142364501953125,-0.0218505859375,-0.017364501953125
1761479821002078200,7.575078125,-1.0146026611328125,-0.0223236083984375,-0.01806640625
1761479821012114200,7.5851142578125,-1.0151824951171875,-0.0220794677734375,-0.01849365234375
1761479821022150400,7.595150390625,-1.0141143798828125,-0.0218963623046875,-0.01812744140625
1761479821032185300,7.605185302734375,-1.014129638671875,-0.0218505859375,-0.017791748046875
1761479821042221300,7.61522119140625,-1.0142822265625,-0.0219879150390625,-0.0179290771484375
1761479821052257300,7.62525732421875,-1.0141143798828125,-0.0222320556640625,-0.01824951171875
1761479821062293200,7.635293212890625,-1.014190673828125,-0.0226898193359375,-0.0179595947265625
1761479821072329200,7.6453291015625,-1.0128173828125,-0.022430419921875,-0.0173187255859375
1761479821082365200,7.655365234375,-1.0128631591796875,-0.022705078125,-0.0178680419921875
1761479821092401200,7.665401123046875,-1.0142059326171875,-0.0217437744140625,-0.018280029296875
1761479821102437400,7.675437255859375,-1.0130462646484375,-0.023040771484375,-0.0179290771484375
1761479821112472300,7.685472412109375,-1.01275634765625,-0.0220184326171875,-0.018310546875
1761479821122508300,7.69550830078125,-1.013702392578125,-0.02154541015625,-0.017059326171875
1761479821132544300,7.705544189453125,-1.0133514404296875,-0.0223388671875,-0.017822265625
1761479821142580200,7.715580322265625,-1.014495849609375,-0.021820068359375,-0.0174713134765625
1761479821152616200,7.7256162109375,-1.01373291015625,-0.0218048095703125,-0.017333984375
1761479821162652200,7.735652099609375,-1.0142364501953125,-0.0226593017578125,-0.016937255859375
1761479821172688100,7.745688232421875,-1.0136566162109375,-0.0223388671875,-0.017913818359375
1761479821182723300,7.755723388671875,-1.01300048828125,-0.02191162109375,-0.017547607421875
1761479821192759300,7.76575927734375,-1.0145721435546875,-0.0222625732421875,-0.01715087890625
1761479821202795300,7.775795166015625,-1.0140533447265625,-0.0223541259765625,-0.01708984375
1761479821212831200,7.785831298828125,-1.0142974853515625,-0.022491455078125,-0.01739501953125
1761479821222867200,7.7958671875,-1.0135650634765625,-0.0218963623046875,-0.017822265625
1761479821232903200,7.805903076171875,-1.014495849609375,-0.021697998046875,-0.0173492431640625
1761479821242939100,7.815939208984375,-1.0132598876953125,-0.0222320556640625,-0.0170440673828125
1761479821252974300,7.825974365234375,-1.014495849609375,-0.0225067138671875,-0.017425537109375
1761479821263010300,7.83601025390625,-1.014190673828125,-0.02215576171875,-0.0177154541015625
1761479821273046300,7.84604638671875,-1.0137786865234375,-0.0220947265625,-0.0175018310546875
1761479821283082200,7.856082275390625,-1.0127716064453125,-0.0224761962890625,-0.01708984375
1761479821293118200,7.8661181640625,-1.0133514404296875,-0.0222015380859375,-0.017059326171875
1761479821303154200,7.876154296875,-1.0138092041015625,-0.0223846435546875,-0.0174102783203125
1761479821313190100,7.886190185546875,-1.0133514404296875,-0.0228271484375,-0.0175933837890625
1761479821323225300,7.896225341796875,-1.013641357421875,-0.02191162109375,-0.0177154541015625
1761479821333261300,7.90626123046875,-1.0140380859375,-0.0220184326171875,-0.0175018310546875
1761479821343297300,7.91629736328125,-1.0145263671875,-0.0227508544921875,-0.0174713134765625
1761479821353333200,7.926333251953125,-1.01336669921875,-0.0224761962890625,-0.0180816650390625
1761479821363369200,7.936369140625,-1.0138702392578125,-0.022064208984375,-0.0173797607421875
1761479821373406000,7.946406005859375,-1.0148773193359375,-0.0220184326171875,-0.017791748046875
1761479821383442000,7.95644189453125,-1.0150299072265625,-0.0215911865234375,-0.018280029296875
1761479821393476600,7.9664765625,-1.014373779296875,-0.022430419921875,-0.017303466796875
1761479821403512800,7.976512939453125,-1.014190673828125,-0.0218963623046875,-0.017852783203125
1761479821413549000,7.986549072265625,-1.0136566162109375,-0.02276611328125,-0.0179595947265625
1761479821423585000,7.9965849609375,-1.014129638671875,-0.0220489501953125,-0.0177459716796875
1761479821433618700,8.00661865234375,-1.0138702392578125,-0.0224456787109375,-0.018096923828125
1761479821443654700,8.016654541015624,-1.0133209228515625,-0.021331787109375,-0.0182952880859375
1761479821453691000,8.02669091796875,-1.0135040283203125,-0.0220489501953125,-0.0183868408203125
1761479821463726800,8.036726806640624,-1.014129638671875,-0.0226287841796875,-0.0175933837890625
1761479821473762800,8.0467626953125,-1.0131988525390625,-0.0224151611328125,-0.01898193359375
1761479821483798800,8.056798828125,-1.0137176513671875,-0.022369384765625,-0.0181121826171875
1761479821493834800,8.066834716796874,-1.013916015625,-0.0221405029296875,-0.017364501953125
1761479821503869700,8.07686962890625,-1.0135040283203125,-0.0221405029296875,-0.0178680419921875
1761479821513905700,8.08690576171875,-1.01385498046875,-0.0211639404296875,-0.0177459716796875
1761479821523941600,8.096941650390624,-1.0136566162109375,-0.0225372314453125,-0.0182037353515625
1761479821533977900,8.106977783203124,-1.014129638671875,-0.021820068359375,-0.0180816650390625
1761479821544013800,8.117013916015624,-1.014923095703125,-0.0216522216796875,-0.01715087890625
1761479821554049800,8.1270498046875,-1.013671875,-0.0228424072265625,-0.0179290771484375
1761479821564085800,8.137085693359374,-1.0137481689453125,-0.023681640625,-0.0173797607421875
1761479821574120700,8.14712060546875,-1.013885498046875,-0.0222930908203125,-0.017822265625
1761479821584156700,8.15715673828125,-1.0146636962890625,-0.022369384765625,-0.0172882080078125
1761479821594192600,8.167192626953126,-1.014007568359375,-0.022216796875,-0.017242431640625
1761479821604228600,8.177228515625,-1.01385498046875,-0.0221405029296875,-0.0178070068359375
1761479821614264800,8.187264892578124,-1.0143280029296875,-0.0218048095703125,-0.017608642578125
1761479821624300800,8.19730078125,-1.0137481689453125,-0.0220794677734375,-0.0175628662109375
1761479821634337000,8.2073369140625,-1.0148468017578125,-0.022613525390625,-0.01837158203125
1761479821644371700,8.217371826171876,-1.01422119140625,-0.0229339599609375,-0.01763916015625
1761479821654407700,8.22740771484375,-1.0135955810546875,-0.02191162109375,-0.017669677734375
1761479821664443600,8.237443603515626,-1.0140838623046875,-0.0221405029296875,-0.0178680419921875
1761479821674479600,8.247479736328126,-1.0142059326171875,-0.02239990234375,-0.018218994140625
1761479821684515800,8.257515869140626,-1.0140533447265625,-0.0219268798828125,-0.0178680419921875
1761479821694552000,8.267552001953124,-1.014862060546875,-0.0224761962890625,-0.01751708984375
1761479821704588000,8.277588134765624,-1.013458251953125,-0.0218353271484375,-0.0174407958984375
1761479821714622700,8.287622802734376,-1.014007568359375,-0.02252197265625,-0.0171051025390625
1761479821724658700,8.29765869140625,-1.0132904052734375,-0.022552490234375,-0.0179290771484375
1761479821734694700,8.307694580078126,-1.013946533203125,-0.0222320556640625,-0.017242431640625
1761479821744731000,8.31773095703125,-1.0125274658203125,-0.0208587646484375,-0.01763916015625
1761479821754766800,8.327766845703126,-1.01409912109375,-0.022003173828125,-0.0184783935546875
1761479821764802800,8.337802734375,-1.012969970703125,-0.0224761962890625,-0.01788330078125
1761479821774839000,8.347839111328126,-1.0140228271484375,-0.021820068359375,-0.0176849365234375
1761479821784873700,8.357873779296876,-1.0135955810546875,-0.02154541015625,-0.0174560546875
1761479821794909700,8.36790966796875,-1.0136566162109375,-0.0232086181640625,-0.0167694091796875
1761479821804946000,8.37794580078125,-1.0137786865234375,-0.0220794677734375,-0.017578125
1761479821814982000,8.38798193359375,-1.01416015625,-0.021270751953125,-0.0169677734375
1761479821825017900,8.398017822265626,-1.0142669677734375,-0.0212860107421875,-0.01812744140625
1761479821835053800,8.4080537109375,-1.0137176513671875,-0.0211029052734375,-0.017578125
1761479821845088800,8.4180888671875,-1.013885498046875,-0.022247314453125,-0.0176239013671875
1761479821855125000,8.428125,-1.0135040283203125,-0.0222015380859375,-0.0167999267578125
1761479821865161000,8.438160888671876,-1.0139923095703125,-0.02203369140625,-0.0175018310546875
1761479821875197000,8.448197021484376,-1.014068603515625,-0.022796630859375,-0.01776123046875
1761479821885233000,8.45823291015625,-1.013946533203125,-0.0225372314453125,-0.0186309814453125
1761479821895268900,8.468268798828126,-1.01275634765625,-0.022735595703125,-0.018035888671875
1761479821905304800,8.478304931640626,-1.013671875,-0.0219573974609375,-0.0182342529296875
1761479821915340800,8.4883408203125,-1.0134124755859375,-0.0220794677734375,-0.0175018310546875
1761479821925376000,8.4983759765625,-1.016143798828125,-0.021240234375,-0.017852783203125
1761479821935412000,8.508411865234375,-1.01226806640625,-0.02337646484375,-0.0162200927734375
1761479821945448000,8.518447998046875,-1.0121002197265625,-0.0230560302734375,-0.016204833984375
1761479821955484000,8.52848388671875,-1.0144500732421875,-0.0221710205078125,-0.018096923828125
1761479821965520000,8.538519775390625,-1.011871337890625,-0.0212554931640625,-0.0167694091796875
1761479821975555800,8.548555908203125,-1.013916015625,-0.022552490234375,-0.016998291015625
1761479821985591800,8.558591796875,-1.01654052734375,-0.021942138671875,-0.0186004638671875
