time,seconds_elapsed,z,y,x
1761479813510288000,0.083287841796875,-0.13658230735361576,-0.00974511241223663,-0.028947533271275458
1761479813520323800,0.09332373046875,-0.13568506625294685,0.009412482924386859,0.02254499101890251
1761479813530358800,0.10335888671875,-0.13583411933481693,-0.007826875967066734,0.016722586742043494
1761479813540394800,0.113394775390625,-0.14376023615896702,0.022692527997121213,-0.016254494306258856
1761479813550430700,0.1234306640625,-0.13014379873871804,-0.006535246987640857,-0.004951996384188533
1761479813560466700,0.133466796875,-0.1392722770899534,-0.0031183329499326643,0.019368863467127084
1761479813570502700,0.143502685546875,-0.1353857910454273,-0.0011222089629620313,-0.00864606512915343
1761479813580538600,0.15353857421875,-0.13658113830983637,0.01572992244288325,-0.013757416793517767
1761479813590574800,0.163574951171875,-0.1379261231780052,-0.01197276186645031,0.022536588516738263
1761479813600610800,0.17361083984375,-0.14794950454235076,0.0023710034476593137,0.011063410202879457
1761479813610646800,0.183646728515625,-0.14031214153170585,0.009277348770014942,-0.02458173927720636
1761479813620681700,0.193681640625,-0.136119366016984,0.0030777452112175523,0.008114515535719692
1761479813630717700,0.2037177734375,-0.1295347269296646,-0.010994034761097282,0.028439620281755923
1761479813640753700,0.213753662109375,-0.13686404690444468,-0.002890953934844583,-0.010510160234291107
1761479813650789600,0.22378955078125,-0.14180325687229633,0.010613090885803103,-0.005864398521371186
1761479813660825900,0.233825927734375,-0.13626374292373655,0.000600687573198229,0.023882431901432574
1761479813670861800,0.24386181640625,-0.1385059688925743,-0.0005105798706412315,-0.0005990801380015909
1761479813680898000,0.25389794921875,-0.1343143624216318,0.001412387548573315,-0.015787534381635486
1761479813690934000,0.26393408203125,-0.14479074825048446,0.012557082826737313,0.012810199071280658
1761479813700970000,0.273969970703125,-0.13236965809464454,-0.003227638543304056,0.007732731410209089
1761479813711004700,0.284004638671875,-0.13535948756039143,0.010355572460778057,-0.013927476130798458
1761479813721040600,0.29404052734375,-0.1353606566041708,-0.004766063624341041,-0.0062192581073381
1761479813731076600,0.30407666015625,-0.13745850566625595,0.005294087820127606,0.015901424818579108
1761479813741112800,0.31411279296875,-0.130123340472579,0.002629416921827942,-0.005097907660901546
1761479813751149000,0.324149169921875,-0.13416472481787203,0.007991765938885509,-0.006484923306200653
1761479813761185000,0.33418505859375,-0.1305710842400789,-0.004806194705329835,0.01861713178437203
1761479813771221000,0.344220947265625,-0.12952011388242243,0.008190612979233264,0.007975892516318708
1761479813781257000,0.354257080078125,-0.13416004864275455,0.0032545996154658492,-0.016958806650713084
1761479813791293000,0.36429296875,-0.13805179538428783,0.003855378520209342,0.007780570873618125
1761479813801327900,0.374327880859375,-0.12608370969295501,-0.009399860904831438,0.01145619064643979
1761479813811363800,0.38436376953125,-0.13850363080501554,0.009653853932209312,-0.007733023671153932
1761479813821399800,0.39439990234375,-0.13580840037167072,0.002781264748983085,-0.00965761679187417
1761479813831436000,0.40443603515625,-0.13117138822078703,-0.009241857331525534,0.021329203754663465
1761479813841472000,0.414471923828125,-0.1305722532838583,-0.0008456022449769079,0.003757836429867893
1761479813851508000,0.424508056640625,-0.1338613579571247,0.01309990273285657,-0.007793978344462812
1761479813861544000,0.4345439453125,-0.1280231533229351,0.013205427200254052,0.0024489275220781564
1761479813871580000,0.444579833984375,-0.1329594406813383,0.006309055282641202,0.013683401709236204
1761479813881616000,0.454615966796875,-0.13026537929177284,-0.003354881652165204,-0.007349193719029426
1761479813891650800,0.46465087890625,-0.13265724286437033,-0.003623633857257664,-0.001962495712004602
1761479813901686800,0.474686767578125,-0.13939210407733915,-0.00857106366418302,0.009175970754772424
1761479813911723000,0.484722900390625,-0.12427987514138221,-0.001016812359727919,0.0019874657564796505
1761479813921759000,0.494759033203125,-0.13101415183246135,-0.00520142283430323,-0.0024892960650846362
1761479813931795000,0.504794921875,-0.1304109252423048,0.0012582746990956366,0.009991817182302474
1761479813941831000,0.514830810546875,-0.13055822475850581,-0.0012072020989842712,-0.00007925751497969031
1761479813951867000,0.524866943359375,-0.13475100027322767,-0.0005957556697539985,-0.016696173659153282
1761479813961902800,0.53490283203125,-0.133400170186162,0.005353635987639427,-0.002334507362172007
1761479813971938800,0.544938720703125,-0.13549275855123996,0.0015858626856468617,0.009410857222881168
1761479813981973800,0.554973876953125,-0.13055179501771927,0.008792944520246237,-0.004813190701697022
1761479813992010000,0.565010009765625,-0.12756021198630332,-0.004949987090192735,-0.0032873145749792456
1761479814002046000,0.5750458984375,-0.12112521050274372,-0.0025295550102367994,0.01011613768171519
1761479814012082000,0.58508203125,-0.1327986971616745,-0.0037668234539218245,-0.0056473947698250405
1761479814022118000,0.595117919921875,-0.13219839318096638,0.0032720804732292888,-0.012775675747171044
1761479814032153900,0.60515380859375,-0.12321896791160106,-0.0067540225711651145,0.000932074952032417
1761479814042189800,0.61518994140625,-0.12202420516908168,0.002557794724032283,0.007707341240625828
1761479814052225800,0.625225830078125,-0.12681670014262197,0.008030435715150087,-0.005212620081752538
1761479814062261800,0.63526171875,-0.12980711413025856,0.008186174266133456,-0.002795585535280406
1761479814072297000,0.645296875,-0.11573708772361278,0.001830631226953119,0.00947162923309952
1761479814082333000,0.6553330078125,-0.12156827809512614,-0.0006617701106704771,-0.0020226649340242147
1761479814092369000,0.665368896484375,-0.13039514315128325,-0.0020160890627652405,-0.016749036357551813
1761479814102404900,0.67540478515625,-0.1291951197117567,0.00477645715419203,0.0008691109847277402
1761479814112440800,0.68544091796875,-0.1294920568317175,-0.009858838452398776,0.0028114041589200494
1761479814122476800,0.695476806640625,-0.13862053518295286,0.005081102656573057,-0.0038526203075423832
1761479814132512800,0.7055126953125,-0.13173778993189333,-0.0028809805301018058,0.004754281855002046
1761479814142548700,0.715548828125,-0.13727788840234278,0.004521934403851628,0.005478139150142669
1761479814152584700,0.725584716796875,-0.1306944183588028,0.003950947849173099,-0.013083316924236714
1761479814162620700,0.73562060546875,-0.1303928050637245,0.006257526024803519,-0.004577792776934802
1761479814172655900,0.74565576171875,-0.12740122203230858,0.009724325352534651,0.0014378325170837341
1761479814182691800,0.75569189453125,-0.1285971538186073,0.007515928588062525,-0.0009158910022117197
1761479814192727800,0.765727783203125,-0.11393559125959872,-0.0007218845337629318,-0.0034857232239097354
1761479814202763800,0.775763671875,-0.13189327275454998,-0.005449881170038134,0.006528433654364198
1761479814212799700,0.7857998046875,-0.1284539459556341,-0.006393573494628072,0.004306428489647805
1761479814222835700,0.795835693359375,-0.12591361382305621,0.008735971902310848,-0.005112228447198867
1761479814232871700,0.80587158203125,-0.13818506637513636,-0.00261792741343379,0.012155826815776526
1761479814242907600,0.81590771484375,-0.1423749192804098,-0.0036951099245809017,0.009029000032134353
1761479814252944000,0.82594384765625,-0.1333949094891548,0.008082622560113668,-0.006120967098325491
1761479814262979800,0.835979736328125,-0.1335398709177971,0.0030703473560512065,-0.002340882304031402
1761479814273014800,0.846014892578125,-0.12650924162864685,-0.00122528574494645,0.0031164515201002356
1761479814283050800,0.85605078125,-0.12800678671002388,0.00171020145136863,0.006832987825199961
1761479814293086700,0.866086669921875,-0.1269645841807127,-0.0020700842723250386,-0.004210183307249099
1761479814303122700,0.876122802734375,-0.12771277219951152,0.004351875066570937,-0.0039016836136579513
1761479814313158700,0.88615869140625,-0.12906243324279784,0.0006361790116876364,0.007759802080225199
1761479814323194600,0.896194580078125,-0.1260708502113819,-0.009360022084787487,-0.000748188018798828
1761479814333230800,0.90623095703125,-0.12666589349508284,-0.0030891433880664405,0.0018081454005092381
1761479814343266800,0.916266845703125,-0.14147709365785122,0.0033694399004802105,0.005085102978255599
1761479814353302800,0.926302734375,-0.12277239318788051,-0.0012601561289280652,-0.002417180676944554
1761479814363338800,0.9363388671875,-0.11963000350892543,0.002131221608724445,-0.0008387889117002486
1761479814373373400,0.94637353515625,-0.13234861530661582,0.001191566138435155,0.008597988203726708
1761479814383409700,0.95640966796875,-0.12770809602439404,0.0038579358034767208,0.013619323497079313
1761479814393445600,0.966445556640625,-0.1354910049855709,0.005725757235661148,-0.001293072017841041
1761479814403481600,0.976481689453125,-0.13938508981466294,0.0025312355106696487,0.0019151494389399884
1761479814413517800,0.986517822265625,-0.12711597535014152,-0.0017806363390758632,-0.00043948739580810067
1761479814423553800,0.9965537109375,-0.13115619065165518,0.00419675757009536,-0.0007350180099718272
1761479814433589800,1.00658984375,-0.12532441575825215,0.00544763441402465,0.0013876732324250042
1761479814443625700,1.016625732421875,-0.13834405632913113,-0.0021830248611979185,0.008490070849843323
1761479814453661700,1.02666162109375,-0.1417874747812748,-0.00397816464966163,0.00034884997028857467
1761479814463697700,1.03669775390625,-0.12996551956236363,0.0039068895117379725,-0.0003879764042794704
1761479814473732600,1.046732666015625,-0.1446276666432619,0.0019102358018048106,-0.0032928492666222152
1761479814483768600,1.0567685546875,-0.13460370075702666,-0.001579085884988308,0.008959222731553017
1761479814493804800,1.0668046875,-0.1304103407204151,-0.007783913608174771,-0.002094013137184083
1761479814503840800,1.0768408203125,-0.12935995488464833,0.003829933551698923,-0.008457136694621295
1761479814513876700,1.086876708984375,-0.1266688161045313,-0.0036127654033713042,0.001645812711957842
1761479814523912700,1.09691259765625,-0.12861293590962886,-0.0027679303433746096,0.0010595555229112505
1761479814533948700,1.10694873046875,-0.14043547565042971,-0.002039232476335019,-0.004561864555440843
1761479814543984600,1.116984619140625,-0.13025544241964818,-0.0010958506789989768,0.0010139993481338024
1761479814554020600,1.1270205078125,-0.12636428020000456,-0.001911697106529027,-0.0028390958834439515
1761479814564056600,1.137056640625,-0.13399287538230417,-0.0036226657428778705,-0.001733655392192304
1761479814574092500,1.147092529296875,-0.1392325296014547,0.004771963642165065,0.0034709640461951493
1761479814584127700,1.157127685546875,-0.13294716572165488,0.009524930322915315,0.003344889981113374
1761479814594163700,1.167163818359375,-0.12696283061504363,0.004033675962872803,-0.0006881649272516369
1761479814604199700,1.17719970703125,-0.1230734219610691,-0.0015060571813955903,-0.00016870763041079045
1761479814614235600,1.187235595703125,-0.1354910049855709,0.006192644095048308,0.0069866074843332165
1761479814624271600,1.197271728515625,-0.1318961953639984,0.001374028299562633,0.003983589743450284
1761479814634307600,1.2073076171875,-0.125613754093647,-0.0044058520098216826,0.0005955182077363134
1761479814644343600,1.217343505859375,-0.12426935374736785,0.0037311858849599956,0.0060369055440649385
1761479814654379500,1.227379638671875,-0.13174714228212833,0.009187661192566155,-0.0006511391188018024
1761479814664415500,1.23741552734375,-0.134741063401103,0.0013399798994883894,-0.005049118349421769
1761479814674451700,1.24745166015625,-0.14402385553121566,-0.005299713843315839,0.005159136328846216
1761479814684487700,1.25748779296875,-0.13354980778992176,-0.00035127938939258455,0.004287595925014466
1761479814694522600,1.267522705078125,-0.13055705571472645,0.004094064380601049,0.0017895502978935837
1761479814704558600,1.27755859375,-0.14207973572611807,0.006956486340705305,0.007176394435390829
1761479814714594600,1.287594482421875,-0.14088146585226058,-0.0023510931707918644,0.01136714238980785
1761479814724630500,1.297630615234375,-0.12845979117453096,0.006732376994937658,0.006516889347042888
1761479814734666500,1.30766650390625,-0.12696516870260238,0.0013241978084668517,-0.001897120591904968
1761479814744702500,1.317702392578125,-0.13355156135559082,-0.0036501200053840875,0.0018827815392985939
1761479814754738700,1.32773876953125,-0.13310557115375996,-0.0020096227893605825,0.0006974990111775696
1761479814764774700,1.337774658203125,-0.13176233985126018,-0.003304046514071524,0.004285038641747087
1761479814774810600,1.347810546875,-0.13610241488218305,0.002884688590839505,0.0000672200173139572
1761479814784846600,1.3578466796875,-0.14193828142881393,0.002617635152488947,-0.001777859860099852
1761479814794882600,1.367882568359375,-0.13430851720273493,-0.001506568638049066,0.0021476612868718803
1761479814804917500,1.37791748046875,-0.1414864460080862,-0.00408752504196018,-0.0020957849691621957
1761479814814953500,1.387953369140625,-0.13130875086486338,-0.004038005078118294,-0.0016406068138778208
1761479814824989400,1.397989501953125,-0.12636895637512205,0.004085296552255749,0.0002833469860255718
1761479814835025700,1.408025634765625,-0.12651450232565403,0.008067461523599922,0.004188026274368166
1761479814845061600,1.4180615234375,-0.13594108684062958,0.002136975496076047,0.00526913604196161
1761479814855097600,1.42809765625,-0.1365402217775583,0.005446593234408647,0.0001891841628588736
1761479814865133600,1.438133544921875,-0.1342968267649412,0.004132935086265206,-0.011442490914650261
1761479814875169500,1.44816943359375,-0.13863865536153316,-0.00003636822132393717,0.00017247049007564782
1761479814885205500,1.45820556640625,-0.12786474789083002,-0.0024837979060597717,0.009361264193803072
1761479814895241700,1.46824169921875,-0.1304109252423048,0.0019701127628795802,0.005459288319200277
1761479814905277700,1.478277587890625,-0.1351993285626173,-0.0027720402629114686,-0.002167242770176381
1761479814915312600,1.488312744140625,-0.13414952724874019,0.005837766242772341,0.004945018654130399
1761479814925348600,1.4983486328125,-0.1416302383929491,0.0004027538483031094,0.007655592787079513
1761479814935384600,1.508384521484375,-0.1372948395371437,0.00018960428796708581,0.001941379858739674
1761479814945420800,1.5184208984375,-0.13430091841816902,0.006265800662804395,0.0002991290770471096
1761479814955456800,1.528456787109375,-0.12846388282775878,0.001139488891325891,0.009849595700018107
1761479814965492700,1.53849267578125,-0.13474690861999988,0.0018181188052520155,0.0024989041436463593
1761479814975528700,1.54852880859375,-0.12981062126159668,0.004828662265464663,-0.00024325243765488267
1761479814985564700,1.558564697265625,-0.13849427845478057,-0.0026913031768985092,0.004641359532438218
1761479814995600600,1.5686005859375,-0.1347545074045658,-0.0034442587023600932,0.00638796573774889
1761479815005636600,1.57863671875,-0.14059212751686573,-0.007975709853228182,0.0015992701564915477
1761479815015672600,1.588672607421875,-0.12188742704689502,-0.0030186902340501543,-0.00037603023815900084
1761479815025707800,1.598707763671875,-0.13145955751240251,0.006736304251383989,-0.002002206667885184
1761479815035743700,1.60874365234375,-0.13355039231181143,-0.0026573826409876343,0.003596818915568292
1761479815045779700,1.61877978515625,-0.13803776685893535,-0.0006269545256160199,0.002844630575086921
1761479815055815700,1.628815673828125,-0.13638999965190887,-0.0005315861260518431,0.012085464993305504
1761479815065851600,1.6388515625,-0.13758359335064888,0.0024052162445150314,0.0053826063537970184
1761479815075887600,1.6488876953125,-0.13878186322450636,-0.007143825606349855,0.000906556918285787
1761479815085923600,1.658923583984375,-0.14461480716168879,-0.004614453259203582,-0.001919094961695373
1761479815095959600,1.66895947265625,-0.14342121346294878,0.0018877682416699826,-0.0019670622892677785
1761479815105995800,1.678995849609375,-0.13743804740011692,0.006550371491536497,0.0005452675915323198
1761479815116031700,1.68903173828125,-0.14012977070212362,0.0024344971379265186,-0.000315367825794965
1761479815126067700,1.699067626953125,-0.1344412036716938,-0.003829677823372185,0.002538542034290731
1761479815136102700,1.7091025390625,-0.13788111499249933,-0.007705605941265821,0.003629113749973476
1761479815146138600,1.719138671875,-0.14416706339418886,-0.001930949796270579,0.00015316300140693782
1761479815156174600,1.729174560546875,-0.13923194507956504,-0.00047653147056698797,0.0015171082983724772
1761479815166210600,1.73921044921875,-0.1350420921742916,0.00401542792012915,0.005853402203321457
1761479815176246500,1.74924658203125,-0.13953297385275362,0.00855425865985453,-0.005498159024864435
1761479815186282800,1.75928271484375,-0.1455126327842474,0.012359459629096091,0.004365355602651834
1761479815196318700,1.769318603515625,-0.1383276897162199,0.003719495447166264,0.007805157325603067
1761479815206354700,1.779354736328125,-0.14655483531355856,0.004339453976415097,0.0009288418153300881
1761479815216390700,1.789390625,-0.14595920750796795,-0.00563307398352772,0.011040960909053682
1761479815226426600,1.799426513671875,-0.1419219148159027,-0.002899959225207567,0.0014447737145237623
1761479815236462600,1.809462646484375,-0.1393780755519867,-0.002542122230865061,0.0007475486979819834
1761479815246497500,1.81949755859375,-0.14326806872785092,-0.0001451258254237473,-0.004360405432898551
1761479815256533500,1.829533447265625,-0.13997662596702576,-0.002824263640493154,0.0008972228343598544
1761479815266569700,1.83956982421875,-0.1357879421055317,0.011387765052728354,0.0035099260834045706
1761479815276605700,1.849605712890625,-0.1380313371181488,0.006343195014260709,0.007405782744474709
1761479815286641700,1.8596416015625,-0.13084990118145942,-0.00040169440237805245,0.00027806802270933986
1761479815296677600,1.869677734375,-0.13234861530661582,-0.002612831113208085,-0.00024235738851130007
1761479815306713600,1.879713623046875,-0.13369067756533623,0.004027081825304776,0.0006697524877265095
1761479815316749600,1.88974951171875,-0.13099486261010168,-0.002980440582893789,0.002759600906446576
1761479815326785500,1.89978564453125,-0.12485855181217193,0.004262516282685101,0.003095408732071519
1761479815336821500,1.909821533203125,-0.13398586111962796,0.007409271609503775,-0.0011428864248096942
1761479815346857500,1.919857421875,-0.14012275643944738,0.008170794033911079,0.0040540246311575176
1761479815356893000,1.929892822265625,-0.13428747441470623,0.0006492942215874791,0.0023261961915530265
1761479815366927600,1.939927734375,-0.14087269802391528,-0.0035332156274467705,0.00030442630667239424
1761479815376963600,1.949963623046875,-0.14206862981021404,-0.0025283859664574264,0.007921586779505014
1761479815386999600,1.95999951171875,-0.14102233562767505,-0.0010159903758205472,0.0025655944379977882
1761479815397035500,1.970035400390625,-0.13683598985373974,0.005901533927675336,0.007362710787728428
1761479815407071700,1.98007177734375,-0.13653613012433052,0.0002155059142038226,0.0007317118080332874
1761479815417107700,1.990107666015625,-0.13174538871645927,0.0016067045442759989,0.005523183868266642
1761479815427144000,2.00014404296875,-0.13892740917503832,0.00978898808658123,0.005557542795594781
1761479815437180000,2.010179931640625,-0.14236848953962325,0.0006397592082619666,0.008092997823655605
1761479815447215900,2.0202158203125,-0.1262099664211273,-0.0029117592608556148,0.0017523052937351165
1761479815457251800,2.030251953125,-0.1372819800555706,0.0014582542506046592,0.005713445743359625
1761479815467286800,2.040286865234375,-0.1476087282806635,0.006111066758818924,0.00819949040543288
1761479815477322800,2.05032275390625,-0.145960961073637,-0.010927143537346274,0.0007828209407627582
1761479815487358700,2.060358642578125,-0.13129706042706965,-0.00537296174261719,0.0006446363127790391
1761479815497394700,2.070394775390625,-0.14281564878523348,-0.008438523325696588,0.007571439901273697
1761479815507431000,2.080430908203125,-0.14101824397444723,0.0037536534450948234,0.005316171787772327
1761479815517467000,2.090466796875,-0.14355974515080452,0.0011845336094498634,-0.008406447687000036
1761479815527502800,2.1005029296875,-0.1342792911082506,-0.0025437113997526465,0.0019259265612810849
1761479815537538800,2.110538818359375,-0.13607318878769875,0.0035199177544564006,0.0020663031463511285
1761479815547574800,2.12057470703125,-0.13382570212185382,0.0004373137050308287,0.00919558877069503
1761479815557610800,2.13061083984375,-0.13980945270657538,0.005361234772205352,0.0021056305097416042
1761479815567646700,2.140646728515625,-0.14370470657944678,-0.004315013654902577,-0.0014273293893784283
1761479815577682700,2.1506826171875,-0.14266308857202528,-0.00047605654653161763,0.002971106498967856
1761479815587718000,2.1607177734375,-0.14386486557722092,-0.000678538582380861,-0.00032154183825477956
1761479815597753900,2.17075390625,-0.13653379203677177,-0.00582797550112009,-0.0009285495543852448
1761479815607789800,2.180789794921875,-0.1287584818601608,0.0013782295506447552,0.00516017750846222
1761479815617825800,2.19082568359375,-0.1419260064691305,0.00014649579860270023,0.0036716011848300692
1761479815627861800,2.20086181640625,-0.14566636204123495,-0.0021537987667135895,-0.0007628010660409927
1761479815637897700,2.210897705078125,-0.13294775024354458,-0.00471610526908189,-0.002213292135298252
1761479815647933700,2.22093359375,-0.14371931962668894,0.001290715663973242,0.0012320077466778457
1761479815657969700,2.2309697265625,-0.13354220900535582,0.0008406703415326773,0.000838770645391196
1761479815668005600,2.241005615234375,-0.13294482763409612,0.004125592030026018,0.0020819573732092974
1761479815678041600,2.25104150390625,-0.132794020986557,-0.004182820376288146,0.0034776312489993868
1761479815688076800,2.261076904296875,-0.1401274326145649,-0.0015280132848769425,0.0010230411711148917
1761479815698112800,2.27111279296875,-0.13938041363954543,-0.0043462125107645985,0.0016432736949995158
1761479815708148700,2.281148681640625,-0.14192133029401302,-0.0032074177391827104,0.003950673854537308
1761479815718184700,2.291184814453125,-0.13100012330710886,-0.00644007951747626,0.008196202469803392
1761479815728220700,2.301220703125,-0.14416764791607856,0.004160005756281316,-0.00361996232913807
1761479815738256600,2.311256591796875,-0.13429448867738247,0.004861231094505637,0.0007387260707095265
1761479815748292600,2.321292724609375,-0.13413900585472582,0.0037572153753601015,-0.00012474062452092765
1761479815758328600,2.33132861328125,-0.13563129023909568,-0.0012443740379065274,0.00632997020650655
1761479815768364500,2.341364501953125,-0.14086919089257716,-0.00468923552846536,0.0027624321843497455
1761479815778400800,2.35140087890625,-0.14371347440779209,-0.006895951792504638,0.0018844255071133373
1761479815788436700,2.361436767578125,-0.1320399877488613,-0.0005325359741225838,0.0008019275000318884
1761479815798471700,2.3714716796875,-0.13398235398828984,-0.0040233920308761295,0.0036832185573875903
1761479815808507600,2.381507568359375,-0.13862345779240132,-0.0032469825645908713,0.003323207872267812
1761479815818543600,2.391543701171875,-0.13802782998681068,0.010617383468430488,0.002775054203905165
1761479815828579600,2.40157958984375,-0.13817629854679106,-0.0006527282876893877,-0.003069616703689098
1761479815838615600,2.411615478515625,-0.1408715289801359,-0.009103197779506444,0.005460566960833966
1761479815848651500,2.421651611328125,-0.13054828788638115,0.004781991845835,0.0016567724973894655
1761479815858687700,2.431687744140625,-0.14715806190371514,0.003912497268617153,0.007172741173580289
1761479815868723700,2.4417236328125,-0.13727555031478403,0.002561137458588928,0.0006904664821922779
1761479815878759700,2.451759765625,-0.14161328725814817,-0.0031439605815336107,-0.0059678588958457105
1761479815888795600,2.461795654296875,-0.137421096265316,-0.0010184563275426625,0.00716289563300088
1761479815898831600,2.47183154296875,-0.14265490526556968,-0.0036256431512534616,0.0010740772386081516
1761479815908866600,2.481866455078125,-0.14220774601995945,0.003381020740419626,-0.0019797025751322507
1761479815918902500,2.491902587890625,-0.1401139886111021,0.006546005843672901,0.005250942798145115
1761479815928938800,2.501938720703125,-0.13352934952378273,-0.003095700993016362,-0.0011514350574463605
1761479815938974700,2.511974609375,-0.13667290824651718,-0.005438848319370299,0.0005122786373831332
1761479815949010700,2.5220107421875,-0.14565291803777217,-0.00489007359649986,0.003792122291959822
1761479815959046700,2.532046630859375,-0.14250994383692742,-0.002505260819196701,-0.0014599895499646663
1761479815969082600,2.54208251953125,-0.13637187947332857,0.007242207946907728,0.004664813473261893
1761479815979118800,2.552118896484375,-0.13846446783840655,-0.0009103745768778025,0.006579652384947985
1761479815989154800,2.56215478515625,-0.14235563005805016,0.007087711504939943,0.0017390987522900104
1761479815999190800,2.572190673828125,-0.13517244055569172,-0.001258932286221534,0.0028754093058407306
1761479816009225700,2.582225830078125,-0.1333732821792364,0.001345404993277043,0.004863130790647119
1761479816019261700,2.59226171875,-0.13217676587104796,0.0028752997079864143,0.005028842746373266
1761479816029298000,2.6022978515625,-0.14026128812730312,-0.010766217354591935,-0.0017931487607769666
1761479816039334000,2.612333984375,-0.1457955413788557,-0.0011091485519893467,0.002061133780889213
1761479816049369900,2.622369873046875,-0.14579320329129694,0.004795216653589159,-0.003980429671984166
1761479816059405800,2.63240576171875,-0.1389104580402374,0.002117065219208598,-0.0007926299487240612
1761479816069441800,2.64244189453125,-0.13472235870063304,-0.0030399704840965566,-0.000039893618971109386
1761479816079477800,2.652477783203125,-0.13547054671943187,-0.00024557225890457627,-0.00026153701301664115
1761479816089513700,2.662513671875,-0.1407107854604721,0.0005747494143433869,0.003837952461373061
1761479816099549700,2.6725498046875,-0.14953472790718078,-0.010571242771763354,-0.0021715170864947137
1761479816109585700,2.682585693359375,-0.13501929582059383,-0.004336458301730454,-0.00008603431563824415
1761479816119620900,2.692620849609375,-0.1311252109915018,-0.007694079900253564,0.00010707710366696118
1761479816129656800,2.70265673828125,-0.14399404491484163,0.006462766273319721,0.005273045032098889
1761479816139692800,2.71269287109375,-0.14130232161283493,-0.0005383446604013442,0.0026302023731172085
1761479816149728800,2.722728759765625,-0.14235153840482234,-0.003145531484112143,0.002332863394357264
1761479816159764700,2.7327646484375,-0.14399872108995915,-0.008553856801055372,0.001966642164159566
1761479816169800700,2.74280078125,-0.14639116918444633,0.0019825155867263674,0.006441486023273319
1761479816179836700,2.752836669921875,-0.14279986669421196,0.0057474576108157635,0.0013310111417435108
1761479816189872600,2.76287255859375,-0.13801146337389944,-0.0076875770942308,-0.0024731851805001497
1761479816199908600,2.77290869140625,-0.14534370595812796,0.0011503208125941454,0.0009714753806591034
1761479816209944800,2.78294482421875,-0.1389104580402374,-0.006506349686719477,0.004657580014877021
1761479816219979800,2.792979736328125,-0.1302326460659504,-0.0022835443599149583,0.013225081748794764
1761479816230015700,2.803015625,-0.1398047765314579,-0.007860650372505187,-0.0005649221400730311
1761479816240051700,2.8130517578125,-0.14324936402738092,-0.011450107965525239,0.00075657225465402
1761479816250087700,2.823087646484375,-0.1469891350775957,0.00745007854392752,0.006157901575230062
1761479816260123600,2.83312353515625,-0.14699147316515446,0.009451298831123858,-0.000370185019262135
1761479816270159600,2.84315966796875,-0.14519465287625788,0.00195546318301931,0.007524988677352667
1761479816280195800,2.85319580078125,-0.1432505330711603,-0.004381758748181164,0.009250314632616937
1761479816290231800,2.863231689453125,-0.14160627299547193,-0.0003042071109637618,-0.0013299699621275066
1761479816300267800,2.873267822265625,-0.14804068995714187,0.0037567039187066257,-0.0001501490604132414
1761479816310303700,2.8833037109375,-0.13292670745551585,0.0004570778514258563,-0.0027126199595630166
1761479816320338700,2.893338623046875,-0.13023381510972976,0.0024334559583105144,0.003267038971930742
1761479816330374700,2.903374755859375,-0.1369680918008089,-0.001896061145979911,0.0007292823889292776
1761479816340410600,2.91341064453125,-0.14504443075060844,0.003948299234360456,0.0009980893929488956
1761479816350446600,2.923446533203125,-0.13950900845527647,0.005935618860367685,0.0020671068639494476
1761479816360482800,2.93348291015625,-0.14534429048001765,-0.00215144241284579,0.0035281741261482236
1761479816370518800,2.943518798828125,-0.14160218134224414,-0.002141395942866802,-0.0004608041784726083
1761479816380554800,2.9535546875,-0.129927525639534,-0.0019767799656838178,0.0027953298069536684
1761479816390590700,2.9635908203125,-0.14084697906076907,-0.007687047371268272,-0.0012698007401078938
1761479816400626700,2.973626708984375,-0.13575988505482672,-0.003425298273563385,0.0028370500568300483
1761479816410662700,2.98366259765625,-0.1468371593862772,-0.0018142098151147363,0.002347987898252904
1761479816420697600,2.993697509765625,-0.1329196931928396,0.005637823223881423,0.002602912507392466
1761479816430733600,3.003733642578125,-0.13934884945750237,-0.0026240466269664463,0.00717559071779251
1761479816440769800,3.013769775390625,-0.13785481150746345,0.0020026085266843436,-0.0019394618962891399
1761479816450805800,3.0238056640625,-0.14174538920521734,-0.0036592166272923347,-0.005133490430936217
1761479816460841700,3.033841796875,-0.13950024062693117,0.0016445888692513107,-0.005997194588184356
1761479816470877700,3.043877685546875,-0.1320183604389429,0.0045603849844075735,-0.005743475555442273
1761479816480913700,3.05391357421875,-0.14219488653838633,0.00927895620521158,0.006085895784944295
1761479816490949600,3.06394970703125,-0.1457873580724001,0.004542392669990659,0.005181530823744833
1761479816500985600,3.073985595703125,-0.13770575842559338,-0.003077672145981341,0.005108538652770221
1761479816511021600,3.084021484375,-0.13979893131256102,-0.0008494929688051343,0.005187357776332647
1761479816521056800,3.094056884765625,-0.1439870306521654,0.0031021672664210197,0.00038644203431904313
1761479816531092700,3.1040927734375,-0.14219021036326884,0.0003904788886196911,-0.006660535601433366
1761479816541128700,3.114128662109375,-0.14024199890494346,0.007212470395769923,-0.0034622510167770086
1761479816551164700,3.12416455078125,-0.13874503834545612,-0.0021031828243285415,0.0019388591080904006
1761479816561200600,3.13420068359375,-0.1394984870612621,-0.002249167166277766,0.0009726078918203711
1761479816571236600,3.144236572265625,-0.13740589869618414,0.0007781630319543182,0.0043681686142459505
1761479816581272600,3.1542724609375,-0.13546119436919687,-0.0025412819806486368,0.004845302873011678
1761479816591308500,3.16430859375,-0.13650807307362556,-0.00038269744096323846,0.006112126204743981
1761479816601344800,3.1743447265625,-0.1386018304824829,-0.0040355573927052316,-0.0021058497054502368
1761479816611380700,3.184380615234375,-0.14384148470163344,-0.006028247313573956,0.004032689582183957
1761479816621415700,3.194415771484375,-0.14488894792795182,0.004129464487545192,0.005567023009993136
1761479816631451600,3.20445166015625,-0.1393523565888405,0.005678593625687062,0.0007077829431742429
1761479816641487600,3.214487548828125,-0.13980068487823008,0.0006604549364186823,0.0018231237739324568
1761479816651523800,3.22452392578125,-0.14249299270212648,0.00482709136288613,0.007325520582497119
1761479816661559800,3.234559814453125,-0.13381751881539822,-0.005692329890094697,0.010366349583119154
1761479816671595800,3.244595703125,-0.13576163862049578,-0.004468779444508254,0.0027975034977309405
1761479816681631700,3.2546318359375,-0.14159692064523696,0.0016553294589743018,0.007714044976048171
1761479816691667700,3.264667724609375,-0.13680968636870383,-0.0002620850022882223,0.004457454332895577
1761479816701703700,3.27470361328125,-0.1393523565888405,0.007305007517430931,0.0019277166595682502
1761479816711740000,3.284739990234375,-0.12977262733876704,-0.0018408786263316868,0.005081869841553271
1761479816721774800,3.29477490234375,-0.1408458100169897,-0.000452566073089838,0.00129252402856946
1761479816731810800,3.304810791015625,-0.14234043248891828,-0.0014602087456732987,-0.00047777357958257195
1761479816741846800,3.3148466796875,-0.13710077826976774,0.0034073059591464695,-0.0008062018163502216
1761479816751882800,3.3248828125,-0.14248480939567087,0.0016642616841010748,0.009909874519892036
1761479816761918700,3.334918701171875,-0.13829495649039744,-0.007339183781668543,0.0020094035936519504
1761479816771954700,3.34495458984375,-0.13425415666699408,-0.0027517646598629653,0.005168707874789834
1761479816781990700,3.35499072265625,-0.13993863204419613,-0.00037561011305078864,0.0019637012884020804
1761479816792027000,3.36502685546875,-0.1355950498819351,0.0023397132602520285,-0.004268215371109545
1761479816802062800,3.375062744140625,-0.1450204653531313,0.0035139629377052184,0.0007473112359642982
1761479816812098800,3.385098876953125,-0.13050970944166182,0.0010760682662948966,0.004425104699563235
1761479816822133800,3.3951337890625,-0.13754267681837082,-0.006036302755866199,0.0058804363407194615
1761479816832169700,3.405169677734375,-0.14038579128980636,0.0013444368788972495,0.009097389093227683
1761479816842205700,3.415205810546875,-0.14053075271844864,0.0030636436206288634,-0.0007752404225058853
1761479816852241700,3.42524169921875,-0.12691080816686154,0.001112363422382623,-0.0000475472024641931
1761479816862277600,3.435277587890625,-0.13020751162469385,0.0036178069046698506,0.0012346928941085935
1761479816872313900,3.44531396484375,-0.13574702557325363,-0.0000760791772045195,0.0017901348197832702
1761479816882349800,3.455349853515625,-0.13768939181268214,0.004978482532314956,0.006758022892847657
1761479816892385800,3.4653857421875,-0.13529402110874653,-0.00012004618309438228,0.0008596490366384387
1761479816902421800,3.475421875,-0.14157529333531857,0.007639080043695867,0.0005542180829681456
1761479816912456700,3.485456787109375,-0.1459165374100208,-0.006550535888317972,-0.005690832052752375
1761479816922492700,3.49549267578125,-0.14187223045527933,-0.007543145388551056,0.0004910897188819944
1761479816932528600,3.505528564453125,-0.14875497570633886,-0.0015440511042252181,0.0010412344149313866
1761479816942564600,3.515564697265625,-0.13753273994624615,-0.0010939144502393901,-0.003258271143585443
1761479816952600800,3.525600830078125,-0.13109656941890716,0.001633903078455478,0.0029233401007950303
1761479816962636800,3.53563671875,-0.14201894544959068,-0.0011709252092055975,0.002642696528509259
1761479816972672800,3.5456728515625,-0.12705460055172443,0.002971161297895014,0.0046090646980330345
1761479816982708700,3.555708740234375,-0.13543605992794036,-0.003681245796009898,-0.00000478577297180891
1761479816992744700,3.56574462890625,-0.14186813880205154,0.0025731384236365555,0.0006433211385272443
1761479817002780700,3.57578076171875,-0.14605506909787655,0.004028123004920781,0.002455978317372501
1761479817012815600,3.585815673828125,-0.1381271987080574,0.008055752819497138,-0.0011367854775860904
1761479817022851600,3.5958515625,-0.13677578409910202,-0.002318195548187941,-0.00044918680591508745
1761479817032887800,3.6058876953125,-0.1364753398478031,-0.0013456059226766228,0.004485584448836744
1761479817042923800,3.615923828125,-0.13468085764646529,0.00648976387809962,-0.00043652825374156237
1761479817052959700,3.625959716796875,-0.15518179388344286,0.009518610179983079,0.008956135725323111
1761479817062995700,3.63599560546875,-0.14829963315427303,-0.006521163663361221,0.002790635365527123
1761479817073031700,3.64603173828125,-0.1309428401619196,-0.0028806334702298044,-0.005240531001985072
1761479817083067600,3.656067626953125,-0.13183832769691944,-0.004093388527166098,-0.00668689388539642
1761479817093103600,3.666103515625,-0.13692659074664115,-0.00461403313409537,0.004627970327902585
1761479817103138600,3.676138671875,-0.14261340421140192,-0.0019741313508711755,-0.005191723424196243
1761479817113174800,3.6861748046875,-0.13752338759601115,0.007867609836254268,0.002198094566166401
1761479817123210800,3.696210693359375,-0.1367728614896536,-0.00465480353590101,0.0005705664295703172
1761479817133246700,3.706246826171875,-0.13901801006793976,0.0018990568206645546,0.003161898097023368
1761479817143282700,3.71628271484375,-0.1363233641564846,0.0018979791084304451,-0.0009171696438454091
1761479817153318700,3.726318603515625,-0.14455518592894076,0.0010752097497694194,0.0008581146666780114
1761479817163354600,3.736354736328125,-0.1429103413313627,-0.0032944567018188533,-0.008014361363183706
1761479817173390600,3.746390625,-0.13258651571571825,0.004557517173886299,0.002938464604690671
1761479817183426600,3.756426513671875,-0.14530688107907772,0.005806896180473268,-0.0008053250335156917
1761479817193461800,3.766461669921875,-0.13572715182900427,-0.0031427732714451847,-0.0032534123053774237
1761479817203497700,3.776497802734375,-0.14081366131305695,-0.006649521017074584,-0.003396474037878215
1761479817213533700,3.78653369140625,-0.14306056345701218,0.004247227382007986,-0.00040463527813553807
1761479817223569700,3.796569580078125,-0.1363274558097124,0.004120039072073996,0.009928725350834429
1761479817233605600,3.806605712890625,-0.13781974019408225,0.0007837707888334989,0.0006149900931864976
1761479817243641600,3.8166416015625,-0.14050912540853022,-0.00294790828647092,0.0018548340864479541
1761479817253677600,3.826677490234375,-0.15008885465860367,-0.010183668226283043,-0.0009378653720021247
1761479817263713500,3.836713623046875,-0.1331768828243017,-0.0024745551536791027,-0.003845934838429093
1761479817273749800,3.846749755859375,-0.13691723839640615,0.002100625541061163,-0.004253090867213905
1761479817283784700,3.85678466796875,-0.13781857115030288,0.005638590408861637,-0.0019422931741923093
1761479817293820700,3.866820556640625,-0.1367716924458742,0.0036547596478834748,-0.00707742757294327
1761479817303856600,3.876856689453125,-0.14709902519285678,-0.0007845014411956071,0.002850914185401052
1761479817313892600,3.886892578125,-0.14066402370929718,-0.002205528953950852,-0.00651488005304709
1761479817323928600,3.896928466796875,-0.14514906016886234,-0.001379617790132761,-0.0012618548956699668
1761479817333964800,3.90696484375,-0.14350012391805647,-0.002971106498967856,-0.0007684453555382788
1761479817344000800,3.917000732421875,-0.14754033921957016,-0.0029487850693054496,0.0032509280873462554
1761479817354036700,3.92703662109375,-0.14424538932740688,0.0032084771851077676,0.0007051525946706533
1761479817364073500,3.937073486328125,-0.13945815505087375,-0.010700148114748299,-0.00270359640289098
1761479817374108700,3.947108642578125,-0.14439619597494602,-0.002023322521150112,-0.0025482962433248757
1761479817384144600,3.95714453125,-0.14395079029500485,-0.006861538066249341,0.00365547203393653
1761479817394180600,3.9671806640625,-0.14230945282876492,0.00271999954842031,-0.0015314838835969566
1761479817404216600,3.977216552734375,-0.13826748396158217,-0.003111574415583163,-0.0002811184963211417
1761479817414252500,3.98725244140625,-0.13512567880451679,0.0026124292544089257,0.003887180164270103
1761479817424288500,3.99728857421875,-0.14230945282876492,0.004115728223137557,0.004099708670098334
1761479817434322700,4.00732275390625,-0.1423053611755371,0.004114230385795235,0.003871580736339092
1761479817444358700,4.017358642578125,-0.13003449314534662,-0.004087671172432601,0.0015581892274320124
1761479817454394600,4.02739453125,-0.1424579213887453,0.0011492796329781413,-0.0014254662258550523
1761479817464430600,4.0374306640625,-0.131835405087471,0.010721647560503334,0.006031754444912075
1761479817474466600,4.047466552734375,-0.14006371972858905,-0.001041709338966757,0.00004793079495429992
1761479817484502500,4.05750244140625,-0.14006371972858905,-0.003307644976954907,-0.0051629357211291785
1761479817494538500,4.06753857421875,-0.13916589410603045,-0.001430891319643706,-0.004468742911890149
1761479817504574500,4.077574462890625,-0.13198036651611328,-0.006523611348774284,-0.004441800106037408
1761479817514609700,4.087609619140625,-0.13212649698853493,0.007322671038284897,-0.010406937321834266
1761479817524645600,4.097645751953125,-0.13287293144166468,0.007220251843426376,-0.00048475130964070555
1761479817534681600,4.107681640625,-0.13915771079957484,-0.000954177185986191,0.010389401665143669
1761479817544717600,4.117717529296875,-0.1466413445532322,0.0010616744147613644,-0.003059077043365687
1761479817554753500,4.12775341796875,-0.14229834691286086,0.0013165807575918733,-0.0056034460302442305
1761479817564789500,4.13778955078125,-0.14019932880699634,-0.0023253924739547074,0.0027745427472516894
1761479817574825500,4.147825439453125,-0.12867840236127376,-0.0038479441324248908,-0.0016299392893910406
1761479817584861400,4.157861328125,-0.14124796107709406,-0.009706424369663,-0.003406045583821833
1761479817594897400,4.1678974609375,-0.14364625439047812,-0.006054751728009432,-0.003075169661641121
1761479817604932600,4.1779326171875,-0.13975450764894484,0.002070814924687147,0.0017571458656340836
1761479817614968600,4.187968505859375,-0.14289748184978962,-0.0016102116756141185,-0.001558024830650538
1761479817625004500,4.198004638671875,-0.14334522561728955,-0.0036732634189538655,-0.005696366744395345
1761479817635040500,4.20804052734375,-0.14364274725914,0.00044549701148644086,0.004157046614214777
1761479817645076500,4.218076416015625,-0.1442401286303997,0.002252473368216306,-0.0029443098235875367
1761479817655112400,4.228112548828125,-0.14169687388837338,0.001742094426974654,0.0024910496307536958
1761479817665148400,4.2381484375,-0.13480769889652727,-0.0034739779871888455,0.0015911416489630937
1761479817675184400,4.248184326171875,-0.13315584003627298,-0.005074545051623135,0.000642097295820713
1761479817685220400,4.258220458984375,-0.14348025017380714,0.0000042377837002277376,-0.0014752419180236755
1761479817695255600,4.268255615234375,-0.14572364518642425,-0.0029019685192033648,-0.003572342061437666
1761479817705291500,4.27829150390625,-0.14587094470262527,-0.001516505510173738,-0.0043199455583468075
1761479817715327500,4.288327392578125,-0.14048223740160465,0.002149908042885363,0.0006275573138147592
1761479817725363500,4.298363525390625,-0.1404804838359356,-0.005851502507179975,0.001645757913030684
1761479817735399400,4.3083994140625,-0.1380880357414484,-0.004018350529577583,-0.0033665172910317775
1761479817745435400,4.318435302734375,-0.13494739962816238,-0.010487601342611013,-0.010276680271979421
1761479817755471400,4.328471435546875,-0.136296476149559,-0.00868818723782897,0.0021153664524666965
1761479817765507600,4.338507568359375,-0.1446755974382162,-0.0004730608718469739,-0.003562058129440993
1761479817775542500,4.34854248046875,-0.144523037225008,0.0025283129012212157,-0.0007289718616753816
1761479817785578500,4.35857861328125,-0.1422796422123909,0.004798011398874223,0.0009618307694792747
1761479817795614500,4.368614501953125,-0.14168050727546214,-0.005807206707727164,-0.00013487842604517937
1761479817805650400,4.378650390625,-0.13823767334520817,-0.008915292258281261,-0.0008394099662080407
1761479817815686700,4.388686767578125,-0.13674538896083832,0.004580203929729759,0.006039718555659056
1761479817825722600,4.39872265625,-0.1336041683256626,-0.0009542137186042964,-0.004848572542332112
1761479817835758600,4.408758544921875,-0.1419832896143198,-0.0010039894107729196,-0.004686294652707874
1761479817845794600,4.418794677734375,-0.1419827050924301,0.004826305911596864,0.0032262320375069974
1761479817855830800,4.428830810546875,-0.1283674367159605,0.00265654239077121,-0.001055354271829128
1761479817865865500,4.438865478515625,-0.13674538896083832,-0.005738634983543306,-0.001136566281877458
1761479817875901700,4.448901611328125,-0.13450257847011088,0.005842880809307098,0.007551657488569617
1761479817885937700,4.458937744140625,-0.1300140348792076,-0.00019292875621467829,0.0007560790643095969
1761479817895973600,4.4689736328125,-0.1328542267411947,-0.011102043446525931,0.0033194632789120076
1761479817906009600,4.479009521484375,-0.1336035838037729,-0.007803549890406429,0.000992481636069715
1761479817916045600,4.489045654296875,-0.13255728962123392,-0.003719349316693842,-0.003942015624046325
1761479817926081500,4.49908154296875,-0.14483108026087282,-0.0038964411829598244,-0.0034560222053900357
1761479817936117800,4.50911767578125,-0.1325584586650133,-0.004575929613411426,-0.0009378288393840194
1761479817946153700,4.51915380859375,-0.13599778546392916,-0.0018020992522127925,0.0029062793681398033
1761479817956188700,4.529188720703125,-0.13285130413174628,0.0018836948547512292,0.004987359958514571
1761479817966224600,4.539224609375,-0.13674305087327956,-0.005554400990437716,0.004100128795206546
1761479817976260600,4.549260498046875,-0.13764496814906596,0.0011500285516493022,-0.001659348046965897
1761479817986296600,4.559296630859375,-0.13569500312507152,0.003309964798204601,-0.008849149953201412
1761479817996332500,4.56933251953125,-0.13225275371670722,-0.005897588404919952,-0.003858465526439249
1761479818006369500,4.57936962890625,-0.1394347741752863,-0.010066161060146987,0.0031458785439841446
1761479818016405500,4.589405517578125,-0.13524609031379223,0.0007036912899464369,0.0022957279880531133
1761479818026441500,4.59944140625,-0.14811433971524238,-0.006201923380047082,0.00333743732701987
1761479818036477400,4.6094775390625,-0.13733984772264957,0.0013016206504777074,-0.004037785882409662
1761479818046513700,4.619513671875,-0.13389526022672651,-0.00044927813746035094,0.0016134448123164473
1761479818056549600,4.629549560546875,-0.14676409415006636,0.001573916519526392,0.005735182651132345
1761479818066585600,4.639585693359375,-0.13314590316414832,-0.00004807692542672157,0.003704407475888729
1761479818076620500,4.64962060546875,-0.12775427325367927,0.0011505034756846726,-0.0029560002613812685
1761479818086656500,4.659656494140625,-0.13628186310231685,-0.0008353365792892873,-0.003017923049069941
1761479818096692500,4.6696923828125,-0.14481003747284413,-0.004713219192251563,-0.0032462701785378155
1761479818106728400,4.679728515625,-0.1232651451408863,-0.007469769625086337,-0.0072341525046154855
1761479818116764700,4.6897646484375,-0.13553659769296644,-0.0024235190861858426,-0.002055599089246243
1761479818126800600,4.699800537109375,-0.13838205025196074,0.00030442630667239424,-0.0042152430748566986
1761479818136836600,4.709836669921875,-0.14676175606250763,-0.0040359409851953385,-0.006167728849500417
1761479818146872600,4.71987255859375,-0.13763152414560317,-0.005902721237763762,-0.002008234549872577
1761479818156908500,4.729908447265625,-0.1311953536182642,-0.009677253074105828,-0.005386387479770928
1761479818166943500,4.739943603515625,-0.13643500783741475,-0.0006766571525484323,-0.006450673976726829
1761479818176979500,4.7499794921875,-0.13569032694995403,-0.007104224248323589,0.0035656748586334287
1761479818187015400,4.760015380859375,-0.13524082961678505,-0.001626139897108078,0.0015013810062780976
1761479818197051600,4.7700517578125,-0.13029928156137466,0.002407353402674198,-0.004218640608340501
1761479818207087600,4.780087646484375,-0.14406652562916278,0.00621587884016335,-0.0048655602097511285
1761479818217123600,4.79012353515625,-0.1382318281263113,-0.0027706154908053574,-0.005893551550619304
1761479818227159600,4.80015966796875,-0.13120295240283011,-0.002226772671379149,-0.00306753434445709
1761479818237195500,4.810195556640625,-0.13509645271003246,-0.012101027888618408,-0.009088803927972912
1761479818247231500,4.8202314453125,-0.14108312590420247,-0.007633234824799001,-0.004661854331195354
1761479818257266400,4.830266357421875,-0.13629004640877246,0.005247892324533313,0.0058815688518807285
1761479818267302400,4.840302490234375,-0.12866145122647285,-0.00047101504523307084,-0.002742631505336612
1761479818277338600,4.850338623046875,-0.13345394620001316,0.0009613923780620098,-0.0006558700928464532
1761479818287374600,4.86037451171875,-0.1419827050924301,-0.0025341946527361867,0.0014613047242164612
1761479818297410600,4.87041064453125,-0.1276139880001545,-0.007463193753827362,-0.0028803046766668556
1761479818307446500,4.880446533203125,-0.13449497968554497,0.003568560935463756,-0.006108619073405861
1761479818317482500,4.890482421875,-0.13120236788094042,-0.0019185104398056865,-0.006365114585123956
1761479818327518700,4.900518798828125,-0.14795885689258576,0.003387870606314391,-0.0040441973568871616
1761479818337554700,4.9105546875,-0.133146487686038,-0.0034692104805260893,-0.005777980613242834
1761479818347589400,4.92058935546875,-0.1409282276034355,-0.00008285597786307334,-0.0020563114752992985
1761479818357625600,4.93062548828125,-0.14017594793140886,-0.00551878168778494,0.0025691198356449603
1761479818367660500,4.94066064453125,-0.13568565077483652,-0.003201298525650054,-0.0018694106010720133
1761479818377696500,4.950696533203125,-0.13583236576914787,0.001265124564990401,-0.002585650845337659
1761479818387732700,4.960732666015625,-0.13852642715871333,-0.002337338640075177,-0.001642031585983932
1761479818397768700,4.970768798828125,-0.1322404787570238,-0.0014429653499275445,-0.0007837890551425516
1761479818407804700,4.9808046875,-0.139426006346941,-0.0009324950771406293,0.0026851839633658526
1761479818417840600,4.990840576171875,-0.14630875159800052,0.005489172000810504,0.007463723476789892
1761479818427876600,5.000876708984375,-0.1365793847441673,-0.0037136867608875035,-0.0018733926564455032
1761479818437911600,5.01091162109375,-0.15767887139618394,-0.006145060359966009,0.0013516886035911738
1761479818447947800,5.02094775390625,-0.13598083432912825,-0.005400215075723826,-0.006754040837474167
1761479818457983700,5.030983642578125,-0.13972352798879145,-0.0032999365945346653,-0.0012718100341036914
1761479818468019700,5.041019775390625,-0.13852525811493396,0.0034113428134471178,-0.001165317452326417
1761479818478055700,5.0510556640625,-0.1343313135564327,-0.0006004318448714911,-0.002311747541092336
1761479818488091600,5.061091552734375,-0.13597557363212107,-0.0023843743858858943,0.0020705957289785144
1761479818498127600,5.071127685546875,-0.14764672220349312,-0.004654821802210062,-0.004057002039533108
1761479818508163600,5.08116357421875,-0.14599895499646662,0.004418035637959838,0.0026345314883626995
1761479818518199800,5.09119970703125,-0.1398608906328678,-0.0023927768880501387,0.0028532888055779037
1761479818528234800,5.10123486328125,-0.14269699084162712,-0.005295037668198347,0.0037627318006940185
1761479818538270700,5.111270751953125,-0.13970482328832148,-0.0071784402620047325,0.0007358582601882517
1761479818548306700,5.121306640625,-0.15048106884658335,-0.0078610704976134,0.003011456775665283
1761479818558342700,5.1313427734375,-0.1431499953061342,-0.005686484671197831,-0.002105338248796761
1761479818568378600,5.141378662109375,-0.14688976635634898,-0.0033365422778762876,-0.002550999657064676
1761479818578414600,5.15141455078125,-0.1301268476039171,-0.00305471139550209,-0.0006313749724067748
1761479818588450600,5.161450439453125,-0.13670797955989836,-0.00013928060652688143,-0.0002436725627630949
1761479818598486800,5.17148681640625,-0.13850129271745681,-0.010530271440558134,-0.0016674948208034038
1761479818608522800,5.181522705078125,-0.14104104032814502,-0.005956424186378717,0.003268609874509275
1761479818618557700,5.1915576171875,-0.13684884933531283,-0.0010791735388338566,-0.0008305325400084257
1761479818628593700,5.20159375,-0.13834288728535174,-0.003124196435138583,0.0008147869816049933
1761479818638629600,5.211629638671875,-0.14118424819111824,-0.005353161063604056,0.000832870627567172
1761479818648665600,5.22166552734375,-0.13983809427917002,-0.0018993856142275035,0.0023200404454022643
1761479818658701600,5.23170166015625,-0.1377402452170849,-0.0084571732272394,-0.008971753419563173
1761479818668737500,5.241737548828125,-0.13788871377706527,0.0033489451017230747,-0.0067469535095617175
1761479818678773800,5.251773681640625,-0.13040508002340792,-0.0003732720254920423,0.00015245061535388232
1761479818688809700,5.261809814453125,-0.13130115208029747,-0.00444174530711025,-0.00993906408175826
1761479818698845700,5.271845703125,-0.14401801031231878,-0.007115202300064265,-0.0017151698874309658
1761479818708880600,5.281880615234375,-0.13443886558413504,-0.0008176182595081627,-0.004558649685047567
1761479818718916600,5.29191650390625,-0.13757950169742106,0.006565313332341611,-0.006629135816171765
1761479818728952600,5.30195263671875,-0.1326414607733488,-0.006047627867478877,-0.002002462396211922
1761479818738988500,5.311988525390625,-0.14266834926903246,-0.005858279307838529,0.004624773723818362
1761479818749024500,5.3220244140625,-0.13278817576766014,-0.002612958977371454,-0.007228818742372095
1761479818759060700,5.332060791015625,-0.14879939936995507,-0.0010706431725062428,-0.007012801371514797
1761479818769096700,5.3420966796875,-0.13413783681094646,0.0017007212369702755,-0.0005089907017536462
1761479818779132700,5.352132568359375,-0.14087094445824622,-0.009831895646546036,-0.002320515369437635
1761479818789168600,5.362168701171875,-0.14535714996159077,-0.008715093511063605,-0.0005743292892351746
1761479818799203600,5.37220361328125,-0.13173720541000367,-0.0048220681278966365,-0.008505213620048016
1761479818809239600,5.382239501953125,-0.13697744415104388,-0.002945259671658277,-0.0076774392927065485
1761479818819275500,5.392275634765625,-0.13937047676742076,-0.0035515915343537923,-0.0064059215195477
1761479818829311500,5.4023115234375,-0.13787117812037467,-0.009744363493565469,-0.0014094284065067767
1761479818839347700,5.41234765625,-0.14250819027125836,-0.0060243748560547825,-0.001185611321683973
1761479818849383700,5.4223837890625,-0.14250819027125836,-4.7492403537034985e-7,-0.0019680486699566245
1761479818859419600,5.432419677734375,-0.13398001590073108,0.003829988350626081,-0.005619429050665348
1761479818869455600,5.44245556640625,-0.14011515765488147,-0.006004811639059335,-0.002967252307757735
1761479818879491600,5.45249169921875,-0.14205752389430998,-0.004888831487484276,-0.004848901335895061
1761479818889526500,5.462526611328125,-0.13756547317206858,-0.00281808962803334,-0.005412343904934823
1761479818899562500,5.4725625,-0.13442016088366507,-0.005624415753036737,-0.006961966233421117
1761479818909598500,5.482598388671875,-0.14908639961779116,-0.00009014423517510294,-0.004350523359701037
1761479818919634700,5.492634765625,-0.13068038983345032,0.000011416443157941103,0.0020722031641751525
1761479818929670700,5.502670654296875,-0.13756021247506142,0.0003274235897697508,-0.005169182798825204
1761479818939706600,5.51270654296875,-0.13785948768258094,-0.003409936307650059,-0.006369352368824184
1761479818949742600,5.52274267578125,-0.13067454461455344,-0.0010069850854575633,-0.008899071775842458
1761479818959778600,5.532778564453125,-0.1315735392808914,-0.0008186046401970088,-0.0033456206334754822
1761479818969814500,5.542814453125,-0.13680851732492447,0.0019881781425327063,0.0013516886035911738
1761479818979849500,5.552849365234375,-0.13800444911122323,0.0030348741838708516,-0.006339267757814377
1761479818989885700,5.5628857421875,-0.1418956113308668,0.00207286075130105,-0.012997593135852366
1761479818999921700,5.572921630859375,-0.13516250368356703,-0.010524152227025478,-0.009095653793867677
1761479819009957600,5.58295751953125,-0.14488894792795182,-0.0021658910633064804,-0.017140885219350456
1761479819019993600,5.59299365234375,-0.13695815492868424,-0.0004478716316632926,0.001298844171501696
1761479819030029600,5.603029541015625,-0.1386024150043726,-0.003440203581750393,0.0016421229175291954
1761479819040065500,5.6130654296875,-0.13350947577953337,0.0041543797330930825,-0.007679777380265295
1761479819050101500,5.6231015625,-0.13081482986807821,-0.004347655549179762,0.0016393281722441315
1761479819060136400,5.633136474609375,-0.13844868574738503,-0.0025242943132296205,-0.00020668328693136572
1761479819070172700,5.643172607421875,-0.14787293217480182,-0.009745167211163789,0.002512530810199678
1761479819080208600,5.653208740234375,-0.15355799207389353,-0.00020646409122273326,-0.005871010925248265
1761479819090244600,5.66324462890625,-0.1511637904137373,-0.0003845058055594563,-0.01183315246636048
1761479819100280600,5.673280517578125,-0.13380115220248698,-0.006638561231642961,-0.00851597247608006
1761479819110316500,5.683316650390625,-0.15399989062249658,0.00276084301546216,-0.00908102248031646
1761479819120352800,5.693352783203125,-0.1436690507441759,-0.007551840151660144,-0.00713757852865383
1761479819130388700,5.703388671875,-0.1390332076370716,0.0016584347315132617,-0.006925652811024338
1761479819140424700,5.7134248046875,-0.1372387254357338,-0.0014268544653430581,-0.006942768342606723
1761479819150459600,5.723459716796875,-0.13259645258784294,-0.001955773710273206,-0.010031911730673164
1761479819160495600,5.73349560546875,-0.13184709552526475,-0.008593786952644586,-0.004030735087115317
1761479819170531600,5.743531494140625,-0.1382797589212656,-0.001916245417483151,-0.003923657983448356
1761479819180567800,5.75356787109375,-0.14261632682085038,-0.008410046149883419,-0.004157448473013937
1761479819190603800,5.763603759765625,-0.14156594098508357,-0.007728018702473491,-0.006799450881779193
1761479819200639700,5.7736396484375,-0.14411153381466865,-0.0002462481123395264,-0.004460559605434537
1761479819210675700,5.78367578125,-0.13483634046912193,-0.0012397161290980876,-0.004542593599390238
1761479819220711700,5.793711669921875,-0.13603344129920006,0.007037278225645423,0.004701547020766884
1761479819230747600,5.80374755859375,-0.13364099320471287,-0.005753759487438947,-0.008038600755296646
1761479819240782800,5.813782958984375,-0.1442652630716562,-0.005409366496559232,-0.006141735891718417
1761479819250818800,5.82381884765625,-0.14995383010208607,-0.00008539499482139944,-0.006558938390482216
1761479819260854800,5.833854736328125,-0.14127484908401966,-0.0038147359825670716,-0.009282463336549699
1761479819270890800,5.843890869140625,-0.143368606492877,-0.0015553944821469485,-0.005457644351385534
1761479819280926700,5.8539267578125,-0.13843348817825316,0.003355082581564784,0.0015724552148021758
1761479819290962700,5.863962646484375,-0.14008067086338996,0.0007333009769208729,-0.007859152535162865
1761479819300998700,5.87399853515625,-0.14217735088169575,-0.007395498812478035,-0.0030849421369843182
1761479819311034600,5.88403466796875,-0.12960779216587542,0.0044282099721021945,-0.0035354441171512006
1761479819321070600,5.894070556640625,-0.13050269517898558,0.009203406750969588,-0.004569317209534347
1761479819331105800,5.904105712890625,-0.14740589918494224,0.0037269663675688204,0.00358553033657372
1761479819341141800,5.914141845703125,-0.13647943150103092,0.001538224151637405,-0.008590937408432364
1761479819351177700,5.924177734375,-0.12809972569048403,-0.002005458070896566,-0.009957823581155389
1761479819361213400,5.93421337890625,-0.12899813583493233,-0.00003600289514288306,-0.012363660880178212
1761479819371249400,5.94424951171875,-0.13962474378943443,-0.00024411095418035983,0.0020298618597909806
1761479819381285400,5.954285400390625,-0.14157529333531857,0.0023971608022227884,-0.001068341617565602
1761479819391321300,5.9643212890625,-0.1420265442341566,-0.0010277904114685953,0.00023282237518578767
1761479819401357300,5.974357421875,-0.13334931678175926,0.0024129063606262205,-0.006539959695376456
1761479819411392500,5.984392578125,-0.14262626369297504,0.005842807744070888,-0.0074593212963081895
1761479819421428500,5.994428466796875,-0.13813830462396143,-0.004037676284555346,-0.006328070510365069
1761479819431464400,6.00446435546875,-0.14217851992547512,-0.006907532632444054,-0.007214680619165301
1761479819441500400,6.01450048828125,-0.14292670794427395,-0.0061134231126867234,-0.006945617886818945
1761479819451536400,6.024536376953125,-0.14412147068679332,-0.003675711104366928,-0.006356072762142866
1761479819461572400,6.034572265625,-0.13828268153071402,-0.01140089852893725,-0.005795918128732591
1761479819471608300,6.0446083984375,-0.142175012794137,-0.0061216794843785465,-0.005155190806090832
1761479819481644300,6.054644287109375,-0.13573825774490833,-0.0021215769975446164,-0.005690667655970901
1761479819491679500,6.064679443359375,-0.13947627522945402,-0.002268529453873634,-0.004679682248830795
1761479819501715500,6.074715576171875,-0.1333428870409727,-0.003495550498180091,-0.008315536266844718
1761479819511751400,6.08475146484375,-0.13843348817825316,0.005134440279006958,-0.013519699047505855
1761479819521787400,6.094787353515625,-0.14037819250524045,-0.004457582197058945,-0.008146865169052034
1761479819531823400,6.1048232421875,-0.13424421979486942,-0.003688570585940033,-0.007337083156127482
1761479819541859300,6.114859375,-0.13753683159947394,0.0025964827666059135,-0.005669953661505133
1761479819551895600,6.1248955078125,-0.14785948817133904,-0.004906695937737822,-0.005472531393263489
1761479819561931500,6.134931640625,-0.13813070583939552,-0.00003371960651129484,0.003272902457136661
1761479819571966500,6.144966552734375,-0.14321955341100692,-0.0015920184317976236,-0.005678429228905588
1761479819582002400,6.15500244140625,-0.13753566255569458,-0.0029508491622284054,-0.007919814947526901
1761479819592038400,6.165038330078125,-0.1367886435806751,-0.004375310741085559,-0.004031283076386899
1761479819602074400,6.175074462890625,-0.13424188170731066,0.0013318148593418299,-0.005058361101802438
1761479819612110600,6.185110595703125,-0.13918226071894169,-0.0038985600748099383,-0.007183901888411491
1761479819622146600,6.195146484375,-0.1418745685428381,-0.0010088847815990446,-0.011604074684530495
1761479819632182500,6.2051826171875,-0.14396891047358512,-0.0005782565456815064,-0.009966025153920054
1761479819642218500,6.215218505859375,-0.1438175193041563,0.002015979464910924,-0.005153199778404087
1761479819652254500,6.22525439453125,-0.14860475358068942,-0.0012803951993584633,-0.008338643147796391
1761479819662289700,6.23528955078125,-0.136031687733531,-0.00003167377989739179,-0.009147201318014412
1761479819672325600,6.24532568359375,-0.12600830636918545,-0.003365074252616614,0.003111300420947373
1761479819682361600,6.255361572265625,-0.14082476722896098,0.0009844627263955771,-0.009832699364144354
1761479819692397600,6.2653974609375,-0.14650982712805272,0.0027801687704399228,-0.0006161956695839762
1761479819702433500,6.27543359375,-0.1321446171671152,-0.00004471592456102371,-0.00813650817181915
1761479819712469500,6.285469482421875,-0.1414244866877794,-0.002331255959160626,-0.006612476942315698
1761479819722505500,6.29550537109375,-0.1495043327689171,-0.005210409858357161,-0.005103022227436304
1761479819732541400,6.30554150390625,-0.14441723876297474,-0.008013155786786227,-0.005824906761199236
1761479819742576600,6.31557666015625,-0.14845570049881934,-0.004319196639675647,0.0007132993685081601
1761479819752612600,6.325612548828125,-0.14441373163163662,0.00007690116111189127,-0.005553706870693713
1761479819762648600,6.335648681640625,-0.13244447689652442,-0.005746526029054075,-0.009517240206804126
1761479819772684500,6.3456845703125,-0.13798048371374605,-0.015386735028401016,-0.006032813890837133
1761479819782720500,6.355720458984375,-0.1406762986689806,0.005278159598633646,-0.0009684614396654068
1761479819792756500,6.365756591796875,-0.1457604700654745,-0.007128354042582214,-0.008471201752591877
1761479819802792400,6.37579248046875,-0.14830314028561115,-0.0028595176169648765,-0.001883457392733544
1761479819812828400,6.385828369140625,-0.14605799170732497,-0.003511222991347313,-0.010663670295570044
1761479819822863600,6.395863525390625,-0.14081833748817443,-0.0013547390772029758,-0.004264543842989951
1761479819832899600,6.405899658203125,-0.14126666577756403,-0.004476670490019023,-0.009268306947033851
1761479819842935600,6.415935546875,-0.1385720198661089,-0.0005943126313388348,-0.006770224787294864
1761479819852971500,6.425971435546875,-0.13797230040729044,0.00006648936495184898,-0.007621014664042741
1761479819863007500,6.436007568359375,-0.14186229358315466,-0.009769844994693994,-0.013364380621630697
1761479819873043500,6.44604345703125,-0.13557692970335483,0.004226093262434005,-0.0067394643228501075
1761479819883079400,6.456079345703125,-0.1499433087080717,-0.0014697072263807058,-0.007873436788842081
1761479819893115600,6.46611572265625,-0.14559797298014163,-0.008493468383327126,-0.006391253673378378
1761479819903150600,6.476150634765625,-0.13258125501871107,-0.004366469847504049,-0.002530577923543751
1761479819913186600,6.4861865234375,-0.1322837333768606,0.008951313419733197,-0.006593260785192251
1761479819923222500,6.496222412109375,-0.14245675234496594,0.011121898924466222,-0.004687810756359249
1761479819933258500,6.506258544921875,-0.14873802457153795,-0.005116557562444359,-0.0027178075913339853
1761479819943294500,6.51629443359375,-0.1429021580249071,-0.0060616381265223025,-0.006687825467158109
1761479819953330400,6.526330322265625,-0.14110826034545898,-0.0006601809417828917,-0.0037524113360792397
1761479819963366400,6.536366455078125,-0.13108370993733406,0.0024349537956528363,-0.005298763995245099
1761479819973401600,6.546401611328125,-0.14320318679809568,0.008464772011805325,-0.006549933100119232
1761479819983437600,6.5564375,-0.1318301443904638,0.001352291391789913,-0.008605988847091793
1761479819993473500,6.5664736328125,-0.134976041200757,0.000657861120533198,-0.005325688534788787
1761479820003509500,6.576509521484375,-0.13991466664671898,0.002741170200612396,-0.009742171536479145
1761479820013545500,6.58654541015625,-0.13991466664671898,-0.002248801840096712,-0.007450754397362471
1761479820023581400,6.59658154296875,-0.1336304718106985,-0.0012176686940714716,-0.0027505773497745393
1761479820033617400,6.606617431640625,-0.13737024286091326,-0.007925879362132399,-0.005678721489850431
1761479820043653400,6.6166533203125,-0.1500917772680521,-0.007429638544097543,-0.007118928627111018
1761479820053688600,6.6266884765625,-0.13886837246418,-0.006692282446566969,-0.005788502007257193
1761479820063724500,6.636724609375,-0.1343763217419386,-0.003985471173282713,-0.0035426593092270195
1761479820073760500,6.646760498046875,-0.14440262571573256,-0.003888586670067161,-0.011103212490305304
1761479820083796500,6.65679638671875,-0.14425181906819343,-0.002069116157945245,-0.008374938303884118
1761479820093832400,6.66683251953125,-0.1458954946219921,-0.006203183755371719,-0.006573587970342487
1761479820103868400,6.676868408203125,-0.13841536799967288,-0.009917856896948069,-0.005795370139461011
1761479820113904400,6.686904296875,-0.13273147714436054,0.0003926891120150685,-0.002550816993974149
1761479820123940400,6.6969404296875,-0.14440379475951193,0.0048208990841172635,-0.0029174218166619537
1761479820133975600,6.7069755859375,-0.14380582886636256,-0.0025867285575717686,-0.006568838729988783
1761479820144011500,6.717011474609375,-0.1310866325467825,-0.0035815117485821246,-0.006061510262358933
1761479820154047500,6.727047607421875,-0.14800211151242254,-0.0039064876529388125,-0.005981814355961978
1761479820164083500,6.73708349609375,-0.139621821179986,-0.003145184424240142,-0.006338829366397112
1761479820174119400,6.747119384765625,-0.1403705937206745,-0.011566683549899608,-0.010882190150767563
1761479820184155400,6.7571552734375,-0.14381167408525944,-0.008649700124654918,-0.014907682807184755
1761479820194191400,6.76719140625,-0.1499474003612995,0.0038033926046453412,-0.0008425335050560533
1761479820204227300,6.777227294921875,-0.13977087426185608,-0.00787672472447157,-0.011240849129017442
1761479820214262500,6.787262451171875,-0.14695523280799389,-0.017042375014629213,-0.0024376937420107422
1761479820224298500,6.797298583984375,-0.15249182414710521,-0.0016324417737312615,-0.003173241474945098
1761479820234334500,6.80733447265625,-0.14635434430539607,-0.0013423362533561884,-0.010909790543746203
1761479820244370400,6.817370361328125,-0.1487456233561039,-0.002319802983384579,-0.006787431650422513
1761479820254406400,6.827406494140625,-0.1447059925764799,0.0011313969164155422,-0.005846296609099954
1761479820264442400,6.8374423828125,-0.14036767111122608,-0.0033954328582622107,-0.01607597766788676
1761479820274478300,6.847478271484375,-0.1378214937597513,0.002029222538974136,-0.012616229135449976
1761479820284514300,6.857514404296875,-0.1491898599922657,-0.00262744416045025,-0.008900660944730044
1761479820294549500,6.867549560546875,-0.14185644836425781,-0.0027111403885297478,-0.0075354187398217615
1761479820304585500,6.87758544921875,-0.1481400586783886,-0.007635225852485746,-0.002372519551310688
1761479820314621400,6.887621337890625,-0.1367640936613083,0.00003415799792855978,-0.0054351402586326
1761479820324657400,6.897657470703125,-0.1301847152709961,0.001239807460643351,-0.0016042385925538838
1761479820334693400,6.907693359375,-0.1433516553580761,-0.002827697706595063,-0.003150755648501217
1761479820344729300,6.917729248046875,-0.14918343025147915,-0.009183660870883613,-0.002382419890817255
1761479820354765300,6.927765380859375,-0.14364450082480906,0.0018226488498970866,0.00010895853349938988
1761479820364800300,6.93780029296875,-0.14424305123984812,0.00242329989047721,-0.0065018013757653535
1761479820374836200,6.947836181640625,-0.1413993522465229,-0.0067400853773579,-0.00891509132888168
1761479820384872200,6.9578720703125,-0.1491805076420307,0.00603785539213568,-0.010948442053701728
1761479820394908200,6.967908203125,-0.1439390998572111,0.003382536844071001,-0.015234357478283344
1761479820404944100,6.977944091796875,-0.13944821817874908,-0.0017761976259760557,-0.00851772604174912
1761479820414980000,6.98797998046875,-0.14034721284508705,0.004704615760687738,-0.008359466740116476
1761479820425016000,6.99801611328125,-0.14154080654382706,-0.00479711634973064,-0.003831687117367983
1761479820435052000,7.008052001953125,-0.14378361703455447,0.0020588139596395194,-0.008531736300792545
1761479820445087200,7.018087158203125,-0.14004618407189845,-0.00944105143174529,-0.017618877994641662
1761479820455123200,7.028123291015625,-0.13630407493412494,-0.009678513449430465,-0.010099917199276387
1761479820465159200,7.0381591796875,-0.13286182552576065,-0.0008678871420212089,-0.010110840452089905
1761479820475195100,7.048195068359375,-0.1427402454614639,-0.0026614194952882825,-0.009824132465198636
1761479820485231000,7.058231201171875,-0.14558277541100978,-0.004198675532545894,-0.009517715130839497
1761479820495267000,7.06826708984375,-0.14692834480106828,0.0019953933346085247,0.000688840780686587
1761479820505303000,7.078302978515625,-0.14019056097865104,-0.005939034660160541,-0.006843600550759583
1761479820515338200,7.088338134765625,-0.14018939193487168,-0.005626297182869166,-0.005266341296676546
1761479820525374200,7.098374267578125,-0.1333043085962534,-0.0019683409309014677,-0.001793806347902864
1761479820535410200,7.10841015625,-0.14078385069668292,-0.005627027835231274,0.0014242058505304156
1761479820545446100,7.118446044921875,-0.147516373822093,-0.0008758877853862941,-0.0020177878295071423
1761479820555482000,7.128482177734375,-0.1427279705017805,-0.005955072479508817,-0.006372037516254932
1761479820565518000,7.13851806640625,-0.14826631540656088,-0.006009378216322511,-0.005050378724746406
1761479820575554000,7.148553955078125,-0.1371907946407795,-0.004928085785638541,-0.00673705317005515
1761479820585590000,7.158590087890625,-0.13883330115079878,-0.004808569325506687,0.004341298873629421
1761479820595625200,7.168625244140625,-0.14302315405607222,-0.005403557810280472,-0.005672693607863038
1761479820605661200,7.1786611328125,-0.14451660748422146,0.0033317565049044784,-0.000018704700469970702
1761479820615697200,7.188697265625,-0.13568915790617464,-0.0016746369476430118,-0.006638835226278752
1761479820625733000,7.198733154296875,-0.13030220417082308,0.000320025734603405,-0.007758760900609195
1761479820635769000,7.20876904296875,-0.13793196839690208,-0.0025542145274579523,-0.004229563861154019
1761479820645805000,7.21880517578125,-0.13778057722747325,0.000050725540239363905,-0.010062452999409287
1761479820655841000,7.228841064453125,-0.14226795177459717,-0.003852090584579855,-0.0098455040467903
1761479820665876200,7.238876220703125,-0.14406360301971435,-0.0008143303238786757,-0.008556852475740015
1761479820675912200,7.248912109375,-0.13822832099497318,-0.0016709471532143651,-0.007676197183690964
1761479820685948200,7.2589482421875,-0.13478607158660888,-0.007889657271280884,-0.008065927153639496
1761479820695984000,7.268984130859375,-0.14122107307016848,-0.012478263703174888,-0.005698284706845879
1761479820706020000,7.27902001953125,-0.13882511784434318,-0.0034885179691947995,-0.004315378981083631
1761479820716056000,7.28905615234375,-0.13822773647308348,-0.00046664939736947416,-0.011751301135495305
1761479820726092000,7.299092041015625,-0.1418172853976488,-0.0062487399301491674,-0.006265106543060392
1761479820736128000,7.3091279296875,-0.1368774909079075,0.0006230820680968463,-0.005726086029224097
1761479820746163200,7.3191630859375,-0.13597791171967982,-0.011339651594683527,-0.009586232056096195
1761479820756199200,7.32919921875,-0.14046528626680374,-0.0136010206554085,-0.014030059722438454
1761479820766235100,7.339235107421875,-0.14420271922945976,-0.011619509715680033,-0.005703801132179796
1761479820776271000,7.34927099609375,-0.14285539627373217,-0.00578936052378267,-0.006189575355127454
1761479820786307000,7.35930712890625,-0.1371679982870817,-0.000861055542435497,-0.009990702937450259
1761479820796343300,7.36934326171875,-0.14435060326755045,-0.003366827818285674,-0.006420899892970919
1761479820806379300,7.379379150390625,-0.1362713417083025,-0.008125493587460368,-0.002959598724264651
1761479820816414200,7.389414306640625,-0.14854104069471358,-0.006184168527647853,-0.008975698942318559
1761479820826450200,7.3994501953125,-0.13626783457696437,-0.0014385083705186843,-0.012988112921454012
1761479820836486100,7.409486083984375,-0.14763912341892718,-0.007848466744367033,-0.0005308554736897349
1761479820846522000,7.419522216796875,-0.15347966614067554,0.000557542551215738,-0.010475308116618544
1761479820856558300,7.429558349609375,-0.14734393986463545,0.0013665208465419708,-0.008027805366646499
1761479820866594300,7.43959423828125,-0.14554770409762857,-0.0026444318278692662,-0.002700180603098124
1761479820876630300,7.44963037109375,-0.13492168066501617,0.0033746457985602317,-0.005066909734439105
1761479820886665200,7.459665283203125,-0.1383621765077114,0.004426693868450821,-0.0075252261393703515
1761479820896701200,7.469701171875,-0.13237725687921045,-0.0011765877650119364,-0.004741002248320728
1761479820906737400,7.4797373046875,-0.14554068983495236,-0.009951229443587362,-0.003990859734453261
1761479820916773400,7.4897734375,-0.14060674056410788,0.00012161708567291498,-0.005328209285438061
1761479820926809300,7.499809326171875,-0.1458440566956997,0.0031589024223387238,-0.008074439253658056
1761479820936845300,7.50984521484375,-0.150479899802804,-0.005199504871852696,-0.013198833062686025
1761479820946881300,7.51988134765625,-0.14180325687229633,-0.00247696630647406,-0.008325144345406443
1761479820956916000,7.529916015625,-0.13701309998631478,-0.009080437958426772,-0.016917835319507867
1761479820966952400,7.539952392578125,-0.1432990483880043,-0.0080582005049102,-0.0004225362610071897
1761479820976988400,7.549988525390625,-0.1377647951364517,-0.0068964267165400085,-0.0054763855844736095
1761479820987024400,7.5600244140625,-0.14195581708550453,-0.001393207924067974,-0.0061098977150395506
1761479820997060400,7.570060302734375,-0.1446533856064081,-0.004906221013702452,-0.009703629624377935
1761479821007096300,7.580096435546875,-0.15303484498262404,-0.004692559996712952,-0.015358769309241323
1761479821017132300,7.59013232421875,-0.14360709142386913,-0.0029292401186190543,-0.015068061000667512
1761479821027168300,7.600168212890625,-0.14181027113497258,-0.0019134872048161922,-0.009094338619615882
1761479821037203200,7.610203125,-0.14465280108451842,-0.0022817177290096876,-0.011042276083305477
1761479821047239400,7.620239501953125,-0.14240356085300446,-0.005947619825415313,-0.01466718858219683
1761479821057275400,7.630275390625,-0.14569383457005022,-0.011328984070196746,-0.012662662093061954
1761479821067311400,7.640311279296875,-0.13057868302464484,-0.007059964981488883,-0.006711736065708101
1761479821077347300,7.650347412109375,-0.13147709316909312,-0.011419438832625747,-0.010670008704811334
1761479821087383300,7.66038330078125,-0.13910861096084118,-0.0000316920462064445,-0.016387125976290554
1761479821097419300,7.670419189453125,-0.1344675071567297,-0.01302272757710889,-0.01205687821963802
1761479821107454200,7.6804541015625,-0.12803075210750103,-0.0040206155519001184,-0.016385208013840018
1761479821117490200,7.690490234375,-0.13865502197444438,0.0015098748399876058,-0.00501921640150249
1761479821127526400,7.7005263671875,-0.13282207803726195,-0.006123780109919607,-0.010261628833319991
1761479821137562400,7.710562255859375,-0.14599427882134913,-0.001162449641805142,-0.009009345483593643
1761479821147598300,7.720598388671875,-0.13746727349460125,-0.00348588762069121,-0.006413812565058469
1761479821157634300,7.73063427734375,-0.14360124620497225,-0.008125676250550896,-0.00031385172214359045
1761479821167670300,7.740670166015625,-0.1394119778215885,-0.005690905117988586,-0.012708601860329507
1761479821177705200,7.750705322265625,-0.13222878831923007,-0.0019899682408198714,-0.008489869920443743
1761479821187741200,7.7607412109375,-0.14434709613621233,-0.0048004773505963385,-0.0035463125710375604
1761479821197777200,7.770777099609375,-0.14135609762668608,-0.005553743403311819,-0.0029780842290259898
1761479821207813400,7.7808134765625,-0.1439005214124918,-0.008028335089609026,-0.005723492213338613
1761479821217849300,7.790849365234375,-0.13626841909885407,-0.0029274317540228367,-0.00803308432996273
1761479821227885300,7.80088525390625,-0.14524258367121218,-0.003167597185447812,-0.006067647742200643
1761479821237921300,7.81092138671875,-0.13551847751438617,-0.004708342087734491,-0.0029004341492429374
1761479821247957200,7.820957275390625,-0.14569617265760898,-0.009310520387254655,-0.003705777449067682
1761479821257992200,7.8309921875,-0.1452507669776678,-0.004419204681739211,-0.009323215472046285
1761479821268028200,7.841028076171875,-0.1380705000847578,-0.003246124048065394,-0.005166004461050033
1761479821278064000,7.851064208984375,-0.12894085268974304,-0.008441372869908809,-0.0030838826910592615
1761479821288100400,7.861100341796875,-0.13223580258190631,-0.003362407371494919,-0.003993818876519799
1761479821298136300,7.87113623046875,-0.1385235045492649,-0.007326123370695859,-0.007934939451422542
1761479821308172300,7.88117236328125,-0.137773562964797,-0.008396364684402942,-0.007551054700370877
1761479821318208300,7.891208251953125,-0.1356780519902706,-0.0018463219864293932,-0.010111242310889064
1761479821328243200,7.9012431640625,-0.1415162566244602,-0.002662369343359023,-0.00797090581394732
1761479821338279200,7.911279052734375,-0.1440606804102659,-0.009538757918868213,-0.005869184294342994
1761479821348315100,7.921315185546875,-0.13612988741099832,-0.007736603867728262,-0.009768566353060304
1761479821358351000,7.93135107421875,-0.13927578422129153,-0.00391638799244538,-0.007113905392121523
1761479821368387800,7.941387939453125,-0.14765490550994873,-0.003289214271120727,-0.006247095962334424
1761479821378423800,7.951423828125,-0.15109890848398208,0.0012319529477506875,-0.014825100823957472
1761479821388458800,7.961458740234375,-0.1445148539185524,-0.006545403055474162,-0.0064327547275461255
1761479821398494700,7.97149462890625,-0.14107494259774683,-0.0021694347272627054,-0.009513568678684532
1761479821408531000,7.981531005859375,-0.14062895239591597,-0.009578286211658269,-0.012437949959095567
1761479821418567000,7.99156689453125,-0.14108312590420247,-0.0027994762591086325,-0.007589761009253561
1761479821428603000,8.001602783203126,-0.13973755651414393,-0.00871944089261815,-0.011045472687389701
1761479821438636800,8.01163671875,-0.13973638747036457,-0.008693502733763308,-0.01115335350865498
1761479821448672800,8.0216728515625,-0.13314999481737613,0.0030895269805565474,-0.013920114808250218
1761479821458708700,8.031708740234375,-0.13509703723192215,-0.0021311850761063394,-0.01683476014593616
1761479821468744700,8.04174462890625,-0.1431762987911701,-0.010273118341714143,-0.007553045728057622
1761479821478780700,8.05178076171875,-0.1334521926343441,-0.004324128543119877,-0.020081925373617558
1761479821488816600,8.061816650390625,-0.13614859211146832,-0.00805394445490092,-0.012580500234942883
1761479821498852600,8.0718525390625,-0.1407896959155798,-0.0017141835067421196,-0.005332721063774078
1761479821508887800,8.0818876953125,-0.13436053965091704,-0.005056771932914853,-0.007258227499946952
1761479821518923800,8.091923828125,-0.1384013394743204,0.005474284958932548,-0.009850180221907794
1761479821528959700,8.101959716796875,-0.13929799605309962,-0.005286671698652208,-0.011720778133068233
1761479821538995700,8.11199560546875,-0.1405015266239643,-0.0014665654212236404,-0.01224240912068635
1761479821549031700,8.12203173828125,-0.150675714635849,0.002281224538665265,-0.001539356662798673
1761479821559067600,8.132067626953125,-0.13720599220991134,-0.008677099588233978,-0.010621456855349242
1761479821569102800,8.142102783203125,-0.1367582484424114,-0.018915018752403555,-0.005511621294636279
1761479821579138800,8.152138916015625,-0.14199322648644447,-0.006928447556309401,-0.008664623699150978
1761479821589174800,8.1621748046875,-0.14678630598187445,-0.004899005821626633,-0.005962890459783375
1761479821599210800,8.172210693359375,-0.1406535023152828,-0.0026045016762800514,-0.003651818772125989
1761479821609246700,8.182246826171875,-0.13765841215252875,-0.004026460770796984,-0.008759042250644415
1761479821619282700,8.19228271484375,-0.14499065473675726,-0.0004840206572785973,-0.005715765564609319
1761479821629319000,8.20231884765625,-0.13735270720422268,-0.002487798227742314,-0.006736486914474517
1761479821639355000,8.21235498046875,-0.14917349337935445,-0.006001012246776372,-0.014289021185878664
1761479821649389800,8.222389892578125,-0.1424409702539444,-0.013514383551571517,-0.00834220507806167
1761479821659425800,8.23242578125,-0.13779869740605352,-0.0033619141811504958,-0.006875749254692346
1761479821669461800,8.242461669921875,-0.14229133265018462,-0.0044297626083716745,-0.007903229138907045
1761479821679497700,8.252497802734375,-0.14393793081343173,-0.005835190693195909,-0.011985000293515622
1761479821689534000,8.262533935546875,-0.1422878255188465,-0.00041696503674611444,-0.012065974841546267
1761479821699570000,8.27256982421875,-0.14887304912805557,-0.005674830766022205,-0.006721289345342665
1761479821709604900,8.28260498046875,-0.13660510370731352,-0.0018870923882350324,-0.006951426573097706
1761479821719640800,8.292640869140625,-0.14124562298953533,-0.008086312354542314,0.0006627016924321651
1761479821729676800,8.3026767578125,-0.134515437951684,-0.007433273539599031,-0.010421915695257484
1761479821739713000,8.312713134765625,-0.1399012226432562,-0.006335705827549099,-0.005551916772406548
1761479821749749000,8.3227490234375,-0.1268809975504875,0.008098788243625312,-0.004502188523765653
1761479821759785000,8.332784912109375,-0.14004969120323657,-0.0009160736653022468,-0.01522007322460413
1761479821769821000,8.342821044921875,-0.1316688163489103,-0.007566142671648413,-0.00890334609216079
1761479821779855600,8.352855712890625,-0.13960019387006758,-0.002153451706841588,-0.005467088033165783
1761479821789891800,8.362891845703125,-0.13720131603479385,0.0029062611018307507,-0.005199103013053536
1761479821799928000,8.372927978515625,-0.13869886111617089,-0.014428046064078806,-0.0011491335025057196
1761479821809964000,8.382964111328125,-0.13765315145552157,-0.0059533737127669155,-0.005046542799845338
1761479821820000000,8.393,-0.14289046758711338,0.004842891720216721,-0.0017952676526270805
1761479821830036000,8.403035888671875,-0.14618074130415915,0.004586122213862836,-0.010719492136035114
1761479821840072000,8.413072021484375,-0.14034312119185924,0.006757986360229552,-0.007002882765699178
1761479821850106600,8.423106689453125,-0.139895961946249,-0.003994786990899593,-0.006451861286815255
1761479821860142800,8.433142822265625,-0.1376519824117422,-0.004799052578490227,0.0002358363161794841
1761479821870178800,8.4431787109375,-0.14094459421634672,-0.003588124152459204,-0.0036442747864872216
1761479821880215000,8.453215087890625,-0.14034604380130766,-0.008584325004555285,-0.007066851380001753
1761479821890251000,8.4632509765625,-0.14408815293908117,-0.006985730701498687,-0.015603135991748422
1761479821900287000,8.473286865234375,-0.1294260058581829,-0.009232139655109495,-0.009648958561383187
1761479821910323000,8.483322998046875,-0.13645663514733314,-0.0019477548005990683,-0.01329816525131464
1761479821920358000,8.49335791015625,-0.13765607406497002,-0.0022893165135756135,-0.006318864290602505
1761479821930393900,8.503393798828125,-0.15472060611248015,0.0053355158090591425,-0.009886457111686467
1761479821940429800,8.513429931640625,-0.1321224053353071,-0.0094124281254597,0.0028935294844210147
1761479821950465800,8.5234658203125,-0.11655951002240181,-0.016787012014072386,0.008595814512949437
1761479821960502000,8.533501953125,-0.1488765562593937,-0.004011098804883658,-0.012897712957952171
1761479821970538000,8.5435380859375,-0.11999591421186924,0.005634864081814885,-0.0006926219066604971
1761479821980574000,8.553573974609375,-0.13496142815351486,-0.004285203038528561,-0.00012212854232639074
1761479821990609000,8.56360888671875,-0.17132044325768947,-0.0032652854062616824,-0.015970599330961704
