time,seconds_elapsed,z,y,x
1761479813510288000,0.083287841796875,-0.001510594505816698,0.001765671418979764,-0.0011342617217451334
1761479813520323800,0.09332373046875,0.0003535929135978222,-0.000031280796974897385,-0.0009986234363168478
1761479813530358800,0.10335888671875,0.0008393535390496254,-0.0008616542909294367,0.0010759790893644094
1761479813540394800,0.113394775390625,0.00022970698773860931,-0.00018988852389156818,-0.00021405692677944899
1761479813550430700,0.1234306640625,0.00006352551281452179,-0.0012740613892674446,-0.0018100893357768655
1761479813560466700,0.133466796875,-0.0010140184313058853,-0.0017493427731096745,0.0008026346913538873
1761479813570502700,0.143502685546875,0.000753521453589201,0.0013356632553040981,-0.0009960642782971263
1761479813580538600,0.15353857421875,0.0004428057000041008,0.0009978554444387555,-0.0005018584197387099
1761479813590574800,0.163574951171875,0.0014012772589921951,0.002073772484436631,-0.00028134870808571577
1761479813600610800,0.17361083984375,-0.00007410068064928055,-0.0005072085186839104,0.0018381297122687101
1761479813610646800,0.183646728515625,-0.0020445738919079304,0.0007583256810903549,-0.0011765685630962253
1761479813620681700,0.193681640625,0.00012655137106776237,0.0014882780378684402,-0.0000173511216416955
1761479813630717700,0.2037177734375,-0.0015581641346216202,0.0015495307743549347,0.0006657497142441571
1761479813640753700,0.213753662109375,0.0008276710286736488,0.0002419471275061369,-0.0009120447793975472
1761479813650789600,0.22378955078125,-0.0010392051190137863,-0.0002981419675052166,0.0023362128995358944
1761479813660825900,0.233825927734375,-0.0009710383601486683,0.0009335350478067994,0.0017791477730497718
1761479813670861800,0.24386181640625,-0.0017255116254091263,0.00208295532502234,0.0006267979624681175
1761479813680898000,0.25389794921875,-0.0016951346769928932,-0.000685311621055007,0.0007925175013951957
1761479813690934000,0.26393408203125,-0.0016218977980315685,0.0004862130153924227,0.0016761543229222298
1761479813700970000,0.273969970703125,0.00031086523085832596,-0.0005681947804987431,-0.0021946951746940613
1761479813711004700,0.284004638671875,0.0009734597988426685,0.0009173164144158363,0.000876728561706841
1761479813721040600,0.29404052734375,0.001884987112134695,-0.0022837461438030005,0.00027393235359340906
1761479813731076600,0.30407666015625,0.0011574113741517067,0.0003804799634963274,0.0006446443148888648
1761479813741112800,0.31411279296875,-0.001795038115233183,0.00039306748658418655,-0.0008785526733845472
1761479813751149000,0.324149169921875,-0.0013936995528638363,-0.0008455687202513218,-0.0006551134865731001
1761479813761185000,0.33418505859375,-0.0020967251621186733,0.0005186146590858698,-0.000662704580463469
1761479813771221000,0.344220947265625,-0.00035395193845033646,0.0012336733052507043,0.00029789761174470186
1761479813781257000,0.354257080078125,-0.0007887831889092922,-0.0020558566320687532,-0.0002379526849836111
1761479813791293000,0.36429296875,0.0010466673411428928,-0.001259571174159646,0.0015785894356667995
1761479813801327900,0.374327880859375,0.00037278421223163605,-0.00017480296082794666,0.0006841853028163314
1761479813811363800,0.38436376953125,0.002008764073252678,0.0007506455294787884,0.00031027744989842176
1761479813821399800,0.39439990234375,0.00193049106746912,-0.00017417804338037968,0.0008876350475475192
1761479813831436000,0.40443603515625,-0.0005390578880906105,-0.000004001893103122711,-0.0010788430226966739
1761479813841472000,0.414471923828125,-0.0006037773564457893,0.0007419937755912542,0.0007990917656570673
1761479813851508000,0.424508056640625,0.0005847914144396782,0.00013186363503336906,-0.0002501936396583915
1761479813861544000,0.4345439453125,0.00002819206565618515,0.0028071540873497725,0.0012226697290316224
1761479813871580000,0.444579833984375,0.001916905865073204,0.0007064526434987783,0.001212283386848867
1761479813881616000,0.454615966796875,-0.0007804469205439091,0.0011596534168347716,0.001729945302940905
1761479813891650800,0.46465087890625,0.0007950789295136929,0.0006746917497366667,-0.0012056571431457996
1761479813901686800,0.474686767578125,0.0010752985253930092,-0.0013843935448676348,0.0018909918144345284
1761479813911723000,0.484722900390625,0.0009370804764330387,-0.00011379946954548359,0.0005072132917121053
1761479813921759000,0.494759033203125,0.002149283653125167,0.0022240180987864733,0.00003396114334464073
1761479813931795000,0.504794921875,0.0002592382952570915,0.002675690222531557,-0.0015237218467518687
1761479813941831000,0.514830810546875,-0.00199618237093091,-0.0020216326229274273,-0.0017789880512282252
1761479813951867000,0.524866943359375,0.0015801764093339443,0.00012274482287466526,0.0008311760611832142
1761479813961902800,0.53490283203125,0.0005479478277266026,0.0007913853041827679,-0.0008504850557073951
1761479813971938800,0.544938720703125,-0.0016462309285998344,0.0012632975121960044,-0.00032158137764781713
1761479813981973800,0.554973876953125,-0.0004338719882071018,-0.00044078822247684,-0.0006832611979916692
1761479813992010000,0.565010009765625,-0.0010802210308611393,0.0009597681928426027,-0.0006976422155275941
1761479814002046000,0.5750458984375,0.0015626573003828526,-0.0016054569277912378,0.00016326759941875935
1761479814012082000,0.58508203125,-0.00044430093839764595,0.0022220381069928408,-0.0014428849099203944
1761479814022118000,0.595117919921875,-0.0005915430374443531,0.0012481454759836197,-0.00043628679122775793
1761479814032153900,0.60515380859375,0.000748826190829277,0.002006880007684231,0.0019738739356398582
1761479814042189800,0.61518994140625,-0.0015874514356255531,-0.00027157156728208065,0.0014753189170733094
1761479814052225800,0.625225830078125,-0.0003988826647400856,0.0006932916585355997,0.00041538081131875515
1761479814062261800,0.63526171875,0.0007939995266497135,0.0016028361860662699,-0.0021649966947734356
1761479814072297000,0.645296875,-0.0006691413000226021,0.0015335939824581146,0.001231599017046392
1761479814082333000,0.6553330078125,-0.003147826064378023,-0.0006255987100303173,-0.000564730609767139
1761479814092369000,0.665368896484375,0.0020570557098835707,-0.0006413112860172987,-0.00043370306957513094
1761479814102404900,0.67540478515625,0.0006209597922861576,0.0019051386043429375,-0.0010505055543035269
1761479814112440800,0.68544091796875,0.00014079175889492035,-0.0014144917950034142,-0.001666761003434658
1761479814122476800,0.695476806640625,-0.0019940733909606934,-0.0009451680816709995,0.0006508460501208901
1761479814132512800,0.7055126953125,-0.00036794785410165787,-0.002445060294121504,-0.000028792652301490307
1761479814142548700,0.715548828125,-0.00019002147018909454,-0.000006024260073900223,0.002601172076538205
1761479814152584700,0.725584716796875,-0.0007745851762592793,0.0008267461089417338,0.0005888875457458198
1761479814162620700,0.73562060546875,-0.00031542452052235603,-0.00041833450086414814,-0.0016923843650147319
1761479814172655900,0.74565576171875,-0.002974590752273798,-0.000331781804561615,0.0023423046804964542
1761479814182691800,0.75569189453125,0.0009528608061373234,0.0005863856058567762,-0.00014131469652056694
1761479814192727800,0.765727783203125,-0.0014210809022188187,0.00004949234426021576,0.0006443177699111402
1761479814202763800,0.775763671875,-0.0008162795566022396,-0.0005110593046993017,0.0019872921984642744
1761479814212799700,0.7857998046875,-0.00043491506949067116,0.0010143992258235812,-0.0014151623472571373
1761479814222835700,0.795835693359375,0.0025052339769899845,-0.00021282327361404896,0.0011590486392378807
1761479814232871700,0.80587158203125,-0.0020338576287031174,0.002119306940585375,-0.00006707082502543926
1761479814242907600,0.81590771484375,-0.0008926233276724815,0.000641189981251955,0.00019356119446456432
1761479814252944000,0.82594384765625,0.0002227085642516613,0.0008638303261250257,-0.0019292444922029972
1761479814262979800,0.835979736328125,-0.0011334535665810108,0.0013494918821379542,0.00009556568693369627
1761479814273014800,0.846014892578125,-0.0012596873566508293,-0.0009267118293792009,0.00026787223760038614
1761479814283050800,0.85605078125,-0.000801953487098217,-0.003029423765838146,0.0009059154544956982
1761479814293086700,0.866086669921875,0.00048754923045635223,0.0006489341612905264,0.0010870103724300861
1761479814303122700,0.876122802734375,-0.001315731555223465,-0.0014635110273957253,0.001377817359752953
1761479814313158700,0.88615869140625,0.0003346293233335018,-0.0007023797370493412,-0.0015029239002615213
1761479814323194600,0.896194580078125,0.0018264376558363438,-0.0009199520573019981,-0.0009012848604470491
1761479814333230800,0.90623095703125,0.0010565179400146008,0.0012390727642923594,-0.003007312770932913
1761479814343266800,0.916266845703125,0.00169266015291214,0.00035738199949264526,-0.0008974299998953938
1761479814353302800,0.926302734375,-0.0008218968287110329,-0.003325769677758217,0.0008389509748667479
1761479814363338800,0.9363388671875,-0.0005390928126871586,-0.0012763931881636381,-0.0006777307717129588
1761479814373373400,0.94637353515625,-0.0005825022235512733,-0.0007237871177494526,0.0007483919616788626
1761479814383409700,0.95640966796875,-0.000962910708039999,-0.0005938911344856024,-0.0028267186135053635
1761479814393445600,0.966445556640625,-0.0005517187528312206,-0.0019094927702099085,0.0009722807444632053
1761479814403481600,0.976481689453125,-0.0008098087273538113,-0.00006668339483439922,-0.0004046461544930935
1761479814413517800,0.986517822265625,0.0008980762213468552,-0.0021830976475030184,0.0001357091823592782
1761479814423553800,0.9965537109375,0.0009584221988916397,0.0008771995780989528,0.00010187621228396893
1761479814433589800,1.00658984375,0.0008569555357098579,-0.00018247216939926147,-0.0017048123991116881
1761479814443625700,1.016625732421875,0.0008622887544333935,-0.0009462442249059677,-0.00008146732579916716
1761479814453661700,1.02666162109375,0.00041381269693374634,0.0000700182281434536,0.0003180068451911211
1761479814463697700,1.03669775390625,-0.0020678602159023285,-0.0008271797560155392,-0.0015574522549286485
1761479814473732600,1.046732666015625,-0.0015927525237202644,0.0001363519113510847,0.002011450007557869
1761479814483768600,1.0567685546875,-0.0008072406053543091,0.0029628335032612085,-0.0005869519663974643
1761479814493804800,1.0668046875,0.0020655111875385046,0.0010227205930277705,-0.0002495294902473688
1761479814503840800,1.0768408203125,-0.001734181772917509,0.0005317004397511482,-0.000099027412943542
1761479814513876700,1.086876708984375,-0.002106491941958666,-0.0015434345696121454,0.0007433304563164711
1761479814523912700,1.09691259765625,0.0015740389935672283,0.0023674191907048225,0.00087013840675354
1761479814533948700,1.10694873046875,0.0008912044577300549,0.0009301111567765474,-0.0016984804533421993
1761479814543984600,1.116984619140625,0.0010587847791612148,0.0026158613618463278,-0.0004315577680245042
1761479814554020600,1.1270205078125,-0.0017623016610741615,-0.00027579907327890396,-0.00013594678603112698
1761479814564056600,1.137056640625,-0.0001414143480360508,-0.0001548111904412508,-0.0016064136289060116
1761479814574092500,1.147092529296875,0.0019595534540712833,-0.001339918002486229,-0.0021478342823684216
1761479814584127700,1.157127685546875,0.0006249579600989819,0.0018118085572496057,0.000031998613849282265
1761479814594163700,1.167163818359375,-0.0016914592124521732,-0.0013488312251865864,0.0011191009543836117
1761479814604199700,1.17719970703125,-0.0003706924617290497,-0.00145825557410717,-0.0011292863637208939
1761479814614235600,1.187235595703125,-0.0006186324171721935,0.0013164922129362822,-0.00011249154340475798
1761479814624271600,1.197271728515625,-0.0016765138134360313,0.0014096370432525873,0.0011131480569019914
1761479814634307600,1.2073076171875,-0.00009432993829250336,0.0002524936571717262,-0.0021825137082487345
1761479814644343600,1.217343505859375,-0.0013554282486438751,0.000036200275644659996,0.001009441097266972
1761479814654379500,1.227379638671875,-0.0018222802318632603,0.00014698784798383713,-0.0008803381351754069
1761479814664415500,1.23741552734375,0.0007990109734237194,-0.0015573629643768072,0.0016059194458648562
1761479814674451700,1.24745166015625,-0.001268134918063879,-0.001807699678465724,0.002375839278101921
1761479814684487700,1.25748779296875,0.0003614393062889576,0.0014074656646698713,-0.00230672350153327
1761479814694522600,1.267522705078125,-0.0015025073662400246,-0.001707900082692504,-0.0010177536169067025
1761479814704558600,1.27755859375,-0.0005361679941415787,-0.0018963171169161797,0.0006003681919537485
1761479814714594600,1.287594482421875,-0.0017146170139312744,0.0003154382575303316,0.00198814133182168
1761479814724630500,1.297630615234375,0.0008156741969287395,-0.000423989724367857,0.0005434962804429233
1761479814734666500,1.30766650390625,-0.00042136432603001595,-0.002439470263198018,0.00020474218763411045
1761479814744702500,1.317702392578125,-0.00008816272020339966,-0.0028605053666979074,-0.00006166764069348574
1761479814754738700,1.32773876953125,-0.00015767104923725128,-0.00044022477231919765,0.0013237087987363338
1761479814764774700,1.337774658203125,-0.002065603621304035,-0.0041704848408699036,0.0007633612840436399
1761479814774810600,1.347810546875,0.001082519069314003,0.0015214894665405154,0.0008922582492232323
1761479814784846600,1.3578466796875,0.00015960261225700378,0.0005687684752047062,0.0007477821200154722
1761479814794882600,1.367882568359375,0.0008147400803864002,-0.0006331161130219698,-0.001115631777793169
1761479814804917500,1.37791748046875,-0.0005369377322494984,0.0000507973600178957,-0.00009368488099426031
1761479814814953500,1.387953369140625,-0.00203683041036129,0.000033753225579857826,0.00004080473445355892
1761479814824989400,1.397989501953125,0.0012255641631782055,0.00009679445065557957,0.0014158351114019752
1761479814835025700,1.408025634765625,-0.002006713766604662,0.002034244127571583,0.00015083362814038992
1761479814845061600,1.4180615234375,0.0013090264983475208,0.0003955191932618618,0.0005849914159625769
1761479814855097600,1.42809765625,0.0031202423851937056,-0.0016623055562376976,0.0011051067849621177
1761479814865133600,1.438133544921875,0.0016278945840895176,-0.000899206381291151,-0.00015443703159689903
1761479814875169500,1.44816943359375,-0.0013628355227410793,0.0003937582951039076,-0.00001728429924696684
1761479814885205500,1.45820556640625,-0.00038898177444934845,0.0005690618418157101,0.0006180806667543948
1761479814895241700,1.46824169921875,0.00003765663132071495,-0.002688250271603465,0.0004918468184769154
1761479814905277700,1.478277587890625,-0.0018070954829454422,0.0013419288443401456,-0.0004122016252949834
1761479814915312600,1.488312744140625,-0.0016845902428030968,-0.0009694288019090891,-0.001535256626084447
1761479814925348600,1.4983486328125,0.0003970703110098839,0.0008479777025058866,0.0029524515848606825
1761479814935384600,1.508384521484375,0.0015632682479918003,-0.00158748310059309,-0.0008058012463152409
1761479814945420800,1.5184208984375,-0.00005261925980448723,0.004935604520142078,-0.0016671494813635945
1761479814955456800,1.528456787109375,0.0013838899321854115,-0.0011156299151480198,-0.0009235948091372848
1761479814965492700,1.53849267578125,-0.0008249389939010143,-0.00008308258838951588,0.0015746308490633965
1761479814975528700,1.54852880859375,0.002732511842623353,-0.0008162509184330702,-0.0008331331191584468
1761479814985564700,1.558564697265625,0.00004025222733616829,-0.00195943471044302,-0.000275313388556242
1761479814995600600,1.5686005859375,-0.00048545561730861664,-0.0031243013218045235,0.00043495174031704664
1761479815005636600,1.57863671875,-0.0005019078962504864,-0.0007967737037688494,0.0009188257390633225
1761479815015672600,1.588672607421875,-0.0014220303855836391,-0.0002779900096356869,-0.0020210377406328917
1761479815025707800,1.598707763671875,-0.0006722640246152878,0.0038702362217009068,0.0006962550687603652
1761479815035743700,1.60874365234375,-0.000354815274477005,0.002247572410851717,-0.002115776762366295
1761479815045779700,1.61877978515625,0.0006409646011888981,-0.0012675481848418713,0.0006588146788999438
1761479815055815700,1.628815673828125,-0.0002426723949611187,-0.0004110757727175951,-0.0002900696126744151
1761479815065851600,1.6388515625,0.0014710845425724983,0.002677314216271043,-0.000291596632450819
1761479815075887600,1.6488876953125,0.0008833245374262333,-0.0017049172893166542,0.0007496994221583009
1761479815085923600,1.658923583984375,-0.0017064171843230724,0.002965791616588831,-0.0007205902365967631
1761479815095959600,1.66895947265625,-0.0013522165827453136,-0.0014049883466213942,0.00015585613436996937
1761479815105995800,1.678995849609375,0.0005880827084183693,-0.002702809637412429,-0.0019084709929302335
1761479815116031700,1.68903173828125,0.0034464537166059017,-0.0020521993283182383,-0.002050151117146015
1761479815126067700,1.699067626953125,0.002125798724591732,0.0014671864919364452,0.0003033021930605173
1761479815136102700,1.7091025390625,0.0035202298313379288,0.00005118362605571747,-0.0022573270834982395
1761479815146138600,1.719138671875,0.0007447274401783943,0.000411041546612978,0.0029037247877568007
1761479815156174600,1.729174560546875,-0.0004611522890627384,-0.00037112878635525703,0.0006155367591418326
1761479815166210600,1.73921044921875,0.0003503314219415188,-0.001201706938445568,-0.001218773890286684
1761479815176246500,1.74924658203125,-0.0015101530589163303,-0.001063755014911294,0.0020563816651701927
1761479815186282800,1.75928271484375,0.0004895739257335663,0.0017353931907564402,-0.0016673303907737136
1761479815196318700,1.769318603515625,-0.0019773123785853386,0.0011124798329547048,-0.0008838282665237784
1761479815206354700,1.779354736328125,0.0007009683176875114,-0.001274398760870099,-0.00109975622035563
1761479815216390700,1.789390625,0.0008391863666474819,-0.00024215737357735634,0.0018081493908539414
1761479815226426600,1.799426513671875,-0.0016593723557889462,-0.0018509835936129093,0.0017734923167154193
1761479815236462600,1.809462646484375,0.0009108441881835461,0.0006814163643866777,0.0008432501927018166
1761479815246497500,1.81949755859375,-0.0007412969134747982,0.000462882686406374,0.0014923812123015523
1761479815256533500,1.829533447265625,0.0004635173827409744,-0.0019147875718772411,0.0008108782931230962
1761479815266569700,1.83956982421875,-0.0013461187481880188,0.00040517724119126797,-0.0009459195425733924
1761479815276605700,1.849605712890625,0.00017348071560263634,0.0010222317650914192,0.0020048627629876137
1761479815286641700,1.8596416015625,0.0002622888423502445,-0.0001341800671070814,0.0017936206422746181
1761479815296677600,1.869677734375,0.0011488553136587143,-0.00004096934571862221,-0.0010636848164722323
1761479815306713600,1.879713623046875,0.00001914938911795616,0.00045300740748643875,0.00024506624322384596
1761479815316749600,1.88974951171875,0.00028386758640408516,0.0017435752088204026,-0.0000670562731102109
1761479815326785500,1.89978564453125,0.00044647231698036194,0.0009236501064151525,-0.00144727632869035
1761479815336821500,1.909821533203125,-0.0015365174040198326,-0.0017275270074605942,0.00042545865289866924
1761479815346857500,1.919857421875,0.0017473623156547546,0.0004180388059467077,-0.0018289538566023111
1761479815356893000,1.929892822265625,0.0010099331848323345,-0.00005946611054241657,0.0017157135298475623
1761479815366927600,1.939927734375,-0.0002865898422896862,-0.0008358811028301716,-0.0011070334585383534
1761479815376963600,1.949963623046875,-0.001893807202577591,0.0017825388349592686,0.001193671370856464
1761479815386999600,1.95999951171875,-0.0014015240594744682,-0.00007866928353905678,-0.002291380427777767
1761479815397035500,1.970035400390625,0.0025503404904156923,-0.00023659481666982174,0.001861819182522595
1761479815407071700,1.98007177734375,0.0008185193873941898,-0.00035788584500551224,0.000027509056963026524
1761479815417107700,1.990107666015625,-0.0017844545654952526,-0.00008624349720776081,-0.002528859069570899
1761479815427144000,2.00014404296875,0.00274679041467607,-0.0008887075819075108,-0.00027499301359057426
1761479815437180000,2.010179931640625,-0.00014620134606957436,-0.00026313099078834057,-0.0009168148972094059
1761479815447215900,2.0202158203125,-0.0002285027876496315,-0.0011487279552966356,0.0008847814169712365
1761479815457251800,2.030251953125,0.0004221075214445591,-0.0011857456993311644,-0.0003179021878167987
1761479815467286800,2.040286865234375,-0.0008341432549059391,-0.002766270888969302,-0.002429068088531494
1761479815477322800,2.05032275390625,-0.0008791503496468067,0.0007528301794081926,-0.0012820448027923703
1761479815487358700,2.060358642578125,-0.00021218834444880486,-0.0009150747209787369,-0.0007835420547053218
1761479815497394700,2.070394775390625,0.0008520111441612244,0.0007126491982489824,-0.0010890065459534526
1761479815507431000,2.080430908203125,0.0002963496372103691,0.0026350747793912888,-0.00013600499369204044
1761479815517467000,2.090466796875,-0.0010799719020724297,-0.0006091881077736616,-0.0011067271698266268
1761479815527502800,2.1005029296875,-0.0005576731637120247,-0.0009014795068651438,-0.001431313925422728
1761479815537538800,2.110538818359375,-0.000529976561665535,0.0007084014359861612,-0.001026779762469232
1761479815547574800,2.12057470703125,-0.0010141804814338684,0.0004678077530115843,-0.0012229271233081818
1761479815557610800,2.13061083984375,-0.0025763907469809055,-0.0010414058342576027,-0.0005811052396893501
1761479815567646700,2.140646728515625,0.002321013482287526,-0.001624880824238062,0.0009468528442084789
1761479815577682700,2.1506826171875,0.00015373295173048973,-0.0030526015907526016,0.00022673408966511488
1761479815587718000,2.1607177734375,-0.00005690800026059151,-0.002635330194607377,-0.001656220410950482
1761479815597753900,2.17075390625,0.00015934091061353683,-0.0030891329515725374,0.0010205227881669998
1761479815607789800,2.180789794921875,0.00032460037618875504,-0.00037044729106128216,0.0003656424814835191
1761479815617825800,2.19082568359375,-0.00033612968400120735,-0.00007909745909273624,-0.0005659312009811401
1761479815627861800,2.20086181640625,-0.0005477541126310825,-0.0008426492568105459,-0.0020471210591495037
1761479815637897700,2.210897705078125,0.0021617459133267403,-0.0007771353702992201,0.002522863447666168
1761479815647933700,2.22093359375,-0.000013893470168113708,0.00024855672381818295,-0.000017142854630947113
1761479815657969700,2.2309697265625,0.0030127891805022955,-0.0008705034852027893,0.000023070955649018288
1761479815668005600,2.241005615234375,-0.0008034356869757175,0.0016097011975944042,-0.0015597017481923103
1761479815678041600,2.25104150390625,0.0007909988053143024,-0.00037115789018571377,-0.00029656453989446163
1761479815688076800,2.261076904296875,0.0006994255818426609,0.0007814846467226744,-0.00044341839384287596
1761479815698112800,2.27111279296875,-0.00007395632565021515,-0.0006140116602182388,0.00023249187506735325
1761479815708148700,2.281148681640625,0.0006875223480165005,-0.00044129742309451103,-0.0005583381280303001
1761479815718184700,2.291184814453125,0.0007136217318475246,-0.002314831130206585,-0.0007042791694402695
1761479815728220700,2.301220703125,0.00031808391213417053,-0.00079714460298419,0.0003243348328396678
1761479815738256600,2.311256591796875,-0.0005807331763207912,0.0016947753028944135,-0.00006129080429673195
1761479815748292600,2.321292724609375,0.0016201124526560307,0.003042492549866438,-0.0007978829089552164
1761479815758328600,2.33132861328125,0.0010864152573049068,0.0016480614431202412,-0.0006367617752403021
1761479815768364500,2.341364501953125,-0.0005800961516797543,-0.0015646375250071287,0.0017616285476833582
1761479815778400800,2.35140087890625,0.0031600473448634148,0.0013645734870806336,-0.0005348151316866279
1761479815788436700,2.361436767578125,-0.001754426397383213,0.0008541692513972521,-0.0003363728756085038
1761479815798471700,2.3714716796875,-0.00029714498668909073,-0.0007567768916487694,0.00006736244540661573
1761479815808507600,2.381507568359375,-0.0008630505762994289,-0.0009195513557642698,-0.000015157274901866913
1761479815818543600,2.391543701171875,-0.0013706493191421032,0.0005494481883943081,0.0014687561197206378
1761479815828579600,2.40157958984375,-0.0005904794670641422,-0.000609284033998847,-0.0010331680532544851
1761479815838615600,2.411615478515625,-0.0006027296185493469,0.000352649949491024,0.000746622565202415
1761479815848651500,2.421651611328125,0.0010552904568612576,0.0008116068784147501,0.0009035245748236775
1761479815858687700,2.431687744140625,-0.0013820342719554901,-0.002143170451745391,0.00026702904142439365
1761479815868723700,2.4417236328125,-0.0007779421284794807,0.0030147277284413576,-0.0010550986044108868
1761479815878759700,2.451759765625,-0.002365985419601202,-0.00019624573178589344,-0.00003803730942308903
1761479815888795600,2.461795654296875,0.0006246226839721203,0.0032430398277938366,0.000011199736036360264
1761479815898831600,2.47183154296875,-0.0000797836109995842,0.0007125043775886297,-0.0004971978487446904
1761479815908866600,2.481866455078125,-0.0010984046384692192,0.0015473018866032362,0.0010403168853372335
1761479815918902500,2.491902587890625,0.0007615471258759499,-0.0014828427229076624,0.00002511986531317234
1761479815928938800,2.501938720703125,-0.0008658594451844692,-0.0000013005919754505157,-0.0005231773247942328
1761479815938974700,2.511974609375,0.001004745252430439,-0.002598149236291647,-0.0007479483028873801
1761479815949010700,2.5220107421875,-0.0010365359485149384,-0.002959935460239649,0.0010136162163689733
1761479815959046700,2.532046630859375,0.00022926460951566696,0.00041242525912821293,-0.00034432963002473116
1761479815969082600,2.54208251953125,-0.001612592488527298,-0.00020244810730218887,-0.0014213898684829473
1761479815979118800,2.552118896484375,0.0004316498525440693,-0.001263185404241085,-0.0007318973075598478
1761479815989154800,2.56215478515625,0.0004461226053535938,0.0008269883692264557,0.0012428999179974198
1761479815999190800,2.572190673828125,0.0013087205588817596,0.0016717431135475636,0.001383248483762145
1761479816009225700,2.582225830078125,0.0006157071329653263,0.0007577352225780487,-0.001492349780164659
1761479816019261700,2.59226171875,-0.0008405093103647232,-0.0007227158639580011,0.0013497757026925683
1761479816029298000,2.6022978515625,0.0004810742102563381,0.003225810592994094,0.00028209504671394825
1761479816039334000,2.612333984375,-0.000624670647084713,-0.00022404827177524567,-0.0008729180553928018
1761479816049369900,2.622369873046875,0.0027897744439542294,0.0008877208456397057,0.0014809943968430161
1761479816059405800,2.63240576171875,0.0009236973710358143,-0.001123765017837286,-0.0009225084213539958
1761479816069441800,2.64244189453125,0.0020084185525774956,-0.001761679071933031,0.0005685281939804554
1761479816079477800,2.652477783203125,0.00044540921226143837,-0.0018612812273204327,0.0007917010807432234
1761479816089513700,2.662513671875,0.0009456165134906769,0.0006656423211097717,-0.0017161538125947118
1761479816099549700,2.6725498046875,-0.0007843729108572006,0.00029466417618095875,0.0008681777981109917
1761479816109585700,2.682585693359375,-0.0013719596900045872,0.0033020805567502975,0.0009863225277513266
1761479816119620900,2.692620849609375,0.002077633049339056,-0.0009605749510228634,0.00032452703453600407
1761479816129656800,2.70265673828125,0.000695026945322752,-0.00042715552262961864,0.001797886099666357
1761479816139692800,2.71269287109375,0.0011325841769576073,0.0009544924832880497,0.001646352233365178
1761479816149728800,2.722728759765625,-0.0001226295717060566,-0.0013141066301614046,-0.0007539172656834126
1761479816159764700,2.7327646484375,-0.0017024166882038116,-0.00029331701807677746,-0.00019438716117292643
1761479816169800700,2.74280078125,-0.0002653878182172775,0.0020414695609360933,0.0020461161620914936
1761479816179836700,2.752836669921875,-0.00041425880044698715,0.002115505514666438,-0.0016218555392697453
1761479816189872600,2.76287255859375,0.004206353798508644,-0.0014084745198488235,-0.0016468369867652655
1761479816199908600,2.77290869140625,-0.0005955919623374939,-0.0005826281849294901,0.0009915566770359874
1761479816209944800,2.78294482421875,-0.000986861065030098,-0.0011672007385641336,-0.00036149437073618174
1761479816219979800,2.792979736328125,-0.0016854079440236092,-0.00010806159116327763,-0.002201472409069538
1761479816230015700,2.803015625,-0.0016703368164598942,0.0019519374473020434,-0.0016479229088872671
1761479816240051700,2.8130517578125,0.000735296867787838,-0.0012198872864246368,0.002946828957647085
1761479816250087700,2.823087646484375,-0.0018811728805303574,0.00034711742773652077,0.000143866753205657
1761479816260123600,2.83312353515625,-0.0016880938783288002,-0.0007120217196643353,-0.00029528839513659477
1761479816270159600,2.84315966796875,-0.002622149419039488,-0.001008382998406887,0.0005062165437266231
1761479816280195800,2.85319580078125,-0.0009512826800346375,0.0004917755722999573,0.00038770586252212524
1761479816290231800,2.863231689453125,-0.000583164393901825,-0.0009251900482922792,0.000923172221519053
1761479816300267800,2.873267822265625,0.000017911195755004883,0.0026279992889612913,0.000515708583407104
1761479816310303700,2.8833037109375,0.0008225296624004841,-0.000930452486500144,-0.00032642215956002474
1761479816320338700,2.893338623046875,0.003207656554877758,-0.002602385124191642,0.0013878546888008714
1761479816330374700,2.903374755859375,-0.0013616345822811127,-0.001634011510759592,-0.0009561493061482906
1761479816340410600,2.91341064453125,-0.00023351935669779778,-0.0020020604133605957,-0.0004719868302345276
1761479816350446600,2.923446533203125,-0.0010893233120441437,0.001862380071543157,-0.0009356491500511765
1761479816360482800,2.93348291015625,0.00007847277447581291,-0.0000044959597289562225,0.0013322987360879779
1761479816370518800,2.943518798828125,0.0009070951491594315,-0.0008617897983640432,0.0013430031249299645
1761479816380554800,2.9535546875,0.0005837874487042427,0.0034317586105316877,0.0004676220705732703
1761479816390590700,2.9635908203125,0.0006021754816174507,0.002268079202622175,0.0002913264324888587
1761479816400626700,2.973626708984375,0.0006794072687625885,-0.0016307884361594915,0.0020753780845552683
1761479816410662700,2.98366259765625,-0.0002202601172029972,-0.0015621394850313663,0.000999101554043591
1761479816420697600,2.993697509765625,-0.0002804473042488098,0.0007039441261440516,0.00008510460611432791
1761479816430733600,3.003733642578125,0.0005531120114028454,-0.000402489909902215,0.0006173627334646881
1761479816440769800,3.013769775390625,0.0016082567162811756,-0.0032217123080044985,0.00016435899306088686
1761479816450805800,3.0238056640625,-0.0009634541347622871,0.0007154322229325771,0.002148042432963848
1761479816460841700,3.033841796875,-0.00275469571352005,0.0011215641861781478,-0.0011739846086129546
1761479816470877700,3.043877685546875,-0.00043293507769703865,-0.0021320937667042017,-0.00017662742175161839
1761479816480913700,3.05391357421875,0.0017226273193955421,-0.001784551190212369,0.0002606636844575405
1761479816490949600,3.06394970703125,-0.00048466119915246964,0.0015643062070012093,0.0004291754448786378
1761479816500985600,3.073985595703125,0.0010682279244065285,-0.0007105660624802113,-0.0001231642672792077
1761479816511021600,3.084021484375,-0.0020412825979292393,0.000884561100974679,-0.0007852880517020822
1761479816521056800,3.094056884765625,-0.0010844087228178978,0.0007463430520147085,-0.000984492595307529
1761479816531092700,3.1040927734375,0.0015506432391703129,0.0005933870561420918,0.0003440332366153598
1761479816541128700,3.114128662109375,-0.001381496898829937,-0.0012841413263231516,-0.00041470129508525133
1761479816551164700,3.12416455078125,-0.00013311253860592842,0.0017803142545744777,0.000372876413166523
1761479816561200600,3.13420068359375,-0.0019784169271588326,-0.0004657958634197712,0.0003121563931927085
1761479816571236600,3.144236572265625,-0.000279176514595747,-0.000704954145476222,0.00015529000665992498
1761479816581272600,3.1542724609375,0.0017541470006108284,-0.00020747561939060688,-0.0007336731068789959
1761479816591308500,3.16430859375,0.0009251567535102367,0.0006550455000251532,-0.00011725036893039942
1761479816601344800,3.1743447265625,0.00039678579196333885,-0.0006941119208931923,0.0013975555775687099
1761479816611380700,3.184380615234375,0.0009012110531330109,-0.0015904034953564405,-0.0004613677738234401
1761479816621415700,3.194415771484375,-0.0005459506064653397,0.00023705745115876198,0.00175837695132941
1761479816631451600,3.20445166015625,-0.00022647343575954437,-0.000648129265755415,0.0008861519163474441
1761479816641487600,3.214487548828125,0.0010646269656717777,0.0010192759800702333,-0.0013397180009633303
1761479816651523800,3.22452392578125,-0.00012363865971565247,-0.001659661065787077,0.0011742570204660296
1761479816661559800,3.234559814453125,-0.00042084744200110435,-0.00047988095320761204,-0.0006585305090993643
1761479816671595800,3.244595703125,0.0030939909629523754,-0.0012710338924080133,0.0018260544165968895
1761479816681631700,3.2546318359375,-0.0017859851941466331,0.000047230860218405724,-0.0012347165029495955
1761479816691667700,3.264667724609375,0.002079261001199484,-0.0012536554131656885,-0.0011245340574532747
1761479816701703700,3.27470361328125,-0.0007817726582288742,0.0005133519880473614,0.0006232985761016607
1761479816711740000,3.284739990234375,0.002823592396453023,0.0010514308232814074,0.0005893716588616371
1761479816721774800,3.29477490234375,-0.0006723394617438316,-0.000698532210662961,0.00037685141433030367
1761479816731810800,3.304810791015625,-0.0004279967397451401,0.0009589586406946182,-0.0012179097393527627
1761479816741846800,3.3148466796875,0.0026737868320196867,0.0004100813530385494,0.00008863711263984442
1761479816751882800,3.3248828125,0.00045416923239827156,0.0004110264126211405,-0.0011243042536079884
1761479816761918700,3.334918701171875,-0.000682733952999115,-0.0029054079204797745,-0.0006140426266938448
1761479816771954700,3.34495458984375,-0.001745886169373989,-0.0002886459697037935,-0.000022727763280272484
1761479816781990700,3.35499072265625,0.00035028764978051186,0.0008189626969397068,-0.001955650048330426
1761479816792027000,3.36502685546875,-0.0003438056446611881,-0.00028073531575500965,0.0008507305756211281
1761479816802062800,3.375062744140625,0.00203839223831892,-0.0009009854402393103,0.00029146671295166016
1761479816812098800,3.385098876953125,-0.0013561537489295006,-0.0006267819553613663,0.0002591559896245599
1761479816822133800,3.3951337890625,0.0012042094022035599,-0.0004462196957319975,0.0009102988406084478
1761479816832169700,3.405169677734375,0.0016771270893514156,0.0017470552120357752,-0.00001896556932479143
1761479816842205700,3.415205810546875,-0.0012219902127981186,-0.0007461961358785629,-0.0018658677581697702
1761479816852241700,3.42524169921875,0.0010601608082652092,0.0021731406450271606,0.001065226853825152
1761479816862277600,3.435277587890625,0.0007696100510656834,-0.00032570352777838707,0.0027446162421256304
1761479816872313900,3.44531396484375,0.00012690480798482895,-0.003302850527688861,-0.001019121496938169
1761479816882349800,3.455349853515625,0.0017921794205904007,0.001103615970350802,0.00010606402065604925
1761479816892385800,3.4653857421875,0.00021168403327465057,0.0009832994546741247,0.00011635234113782644
1761479816902421800,3.475421875,-0.000222677830606699,0.0010261761490255594,0.0002742777578532696
1761479816912456700,3.485456787109375,-0.0005551320500671864,-0.0015928007196635008,-0.0028781122528016567
1761479816922492700,3.49549267578125,0.000714130699634552,0.0007955222390592098,-0.0003704798873513937
1761479816932528600,3.505528564453125,0.000532995443791151,0.0027297046035528183,0.0015323907136917114
1761479816942564600,3.515564697265625,0.0015814821235835552,0.000657765194773674,0.0004556747153401375
1761479816952600800,3.525600830078125,-0.0011973031796514988,0.000784723088145256,-0.0002810937585309148
1761479816962636800,3.53563671875,0.0032198159024119377,-0.0007063806988298893,0.0008632665267214179
1761479816972672800,3.5456728515625,-0.0004044128581881523,-0.00046750507317483425,0.0013392880791798234
1761479816982708700,3.555708740234375,0.00021503819152712822,0.0001969535369426012,0.0014428850263357162
1761479816992744700,3.56574462890625,-0.001716718077659607,0.0020315812435001135,0.00006607372779399157
1761479817002780700,3.57578076171875,0.0006654798053205013,-0.000620394479483366,0.0005845911800861359
1761479817012815600,3.585815673828125,-0.0002621244639158249,0.0032967880833894014,-0.000467924983240664
1761479817022851600,3.5958515625,-0.0013963649980723858,0.0015090079978108406,0.000611986848525703
1761479817032887800,3.6058876953125,-0.0003967480733990669,-0.0013113089371472597,0.0005255640717223287
1761479817042923800,3.615923828125,0.0005113896913826466,0.0007491789292544127,-0.0006627384573221207
1761479817052959700,3.625959716796875,-0.00010359333828091621,0.00010468787513673306,0.0008084832807071507
1761479817062995700,3.63599560546875,-0.00012649642303586006,-0.00134993065148592,-0.0011417496716603637
1761479817073031700,3.64603173828125,-0.0005919956602156162,-0.002202823292464018,-0.001501871389336884
1761479817083067600,3.656067626953125,0.001801387406885624,-0.001364992931485176,-0.0002765508834272623
1761479817093103600,3.666103515625,0.0005723345093429089,-0.0015159712638705969,0.0026363451033830643
1761479817103138600,3.676138671875,0.0014607650227844715,0.001096057239919901,-0.0018012801883742213
1761479817113174800,3.6861748046875,-0.0017505395226180553,0.0005884754937142134,-0.0020657884888350964
1761479817123210800,3.696210693359375,0.0002814522013068199,-0.0012064948678016663,0.0005544957239180803
1761479817133246700,3.706246826171875,-0.0001300419680774212,0.0007164301350712776,-0.0009433432715013623
1761479817143282700,3.71628271484375,0.0007589212618768215,-0.0005576261319220066,0.0007693355437368155
1761479817153318700,3.726318603515625,0.0015324167907238007,-0.0016945991665124893,0.0002602905733510852
1761479817163354600,3.736354736328125,0.0010929955169558525,-0.0016977949999272823,-0.0011330752167850733
1761479817173390600,3.746390625,-0.0009992290288209915,0.0009357817471027374,-0.001001905300654471
1761479817183426600,3.756426513671875,0.000189339742064476,0.00047665275633335114,0.00037095427978783846
1761479817193461800,3.766461669921875,0.0012078117579221725,0.0014886916615068913,0.0008210715604946017
1761479817203497700,3.776497802734375,0.0007809069938957691,-0.0024128390941768885,0.0007323882891796529
1761479817213533700,3.78653369140625,-0.0006145262159407139,0.00017585488967597485,0.002936409320682287
1761479817223569700,3.796569580078125,-0.0004901564680039883,-0.0015123228076845407,0.0004141293466091156
1761479817233605600,3.806605712890625,-0.0026661581359803677,0.0018206494860351086,-0.001107318908907473
1761479817243641600,3.8166416015625,0.0002915486693382263,0.0001974527258425951,-0.00035044841933995485
1761479817253677600,3.826677490234375,-0.002859995700418949,-0.002364522311836481,0.0012591956183314323
1761479817263713500,3.836713623046875,-0.0007667508907616138,-0.000020674197003245354,-0.0018559038871899247
1761479817273749800,3.846749755859375,-0.0009162444621324539,-0.001526187639683485,0.000741182710044086
1761479817283784700,3.85678466796875,0.000924265943467617,-0.0011861021630465984,-0.000249246833845973
1761479817293820700,3.866820556640625,-0.0003242306411266327,-0.001894637942314148,-0.00004860199987888336
1761479817303856600,3.876856689453125,-0.000983628910034895,0.001267333049327135,-0.0008099996484816074
1761479817313892600,3.886892578125,0.0009971805848181248,0.0011119537521153688,-0.0005151438526809216
1761479817323928600,3.896928466796875,0.0004110187292098999,0.002816110383719206,0.00032348569948226213
1761479817333964800,3.90696484375,-0.0006296494975686073,0.0023797028698027134,0.0005993533413857222
1761479817344000800,3.917000732421875,0.0009751711040735245,-0.000158822163939476,-0.001474716467782855
1761479817354036700,3.92703662109375,0.0011792094446718693,0.0001399314496666193,-0.00030536320991814137
1761479817364073500,3.937073486328125,-0.0003643585368990898,0.0035082974936813116,0.004263023380190134
1761479817374108700,3.947108642578125,-0.0009542158804833889,-0.0017320308834314346,0.0004910338902845979
1761479817384144600,3.95714453125,-0.00008123181760311127,-0.0013410788960754871,0.0008004932315088809
1761479817394180600,3.9671806640625,-0.0006654621101915836,-0.000884493812918663,0.000945047358982265
1761479817404216600,3.977216552734375,0.0013867695815861225,0.0022766783367842436,-0.0007492557633668184
1761479817414252500,3.98725244140625,-0.0003299517557024956,-0.0003584653604775667,0.000072652124799788
1761479817424288500,3.99728857421875,-0.0019464907236397266,-0.0011896376963704824,-0.0006647772388532758
1761479817434322700,4.00732275390625,-0.0005997405387461185,0.002207788173109293,0.001268876250833273
1761479817444358700,4.017358642578125,0.0021084281615912914,0.0023595886304974556,0.000036897952668368816
1761479817454394600,4.02739453125,-0.0013060253113508224,-0.0015539415180683136,0.0007952693267725408
1761479817464430600,4.0374306640625,-0.0012535606510937214,-0.0004697684198617935,-0.0005557523109018803
1761479817474466600,4.047466552734375,-0.0001199822872877121,0.0006053342949599028,0.0008820515358820558
1761479817484502500,4.05750244140625,-0.0019181487150490284,-0.001579789211973548,-0.001518521923571825
1761479817494538500,4.06753857421875,-0.001779001671820879,-0.001166568137705326,-0.001082823146134615
1761479817504574500,4.077574462890625,-0.0019901907071471214,0.0016510563436895609,-0.0026809859555214643
1761479817514609700,4.087609619140625,-0.0005957181565463543,0.0006657715421169996,-0.00036847207229584455
1761479817524645600,4.097645751953125,-0.0021850927732884884,-0.001019743038341403,0.00022141810040920973
1761479817534681600,4.107681640625,0.000804463867098093,-0.0017770943231880665,0.0019346754997968674
1761479817544717600,4.117717529296875,0.0009109899401664734,0.004085056018084288,-0.0006786845624446869
1761479817554753500,4.12775341796875,-0.0015263976529240608,0.0006349636241793633,0.0004873991711065173
1761479817564789500,4.13778955078125,0.0008502071723341942,-0.0016620128881186247,-0.0009600288467481732
1761479817574825500,4.147825439453125,0.0008471133187413216,0.0007759283762425184,0.0007146911229938269
1761479817584861400,4.157861328125,0.0010468503460288048,-0.0005953332874923944,-0.00012606882955878973
1761479817594897400,4.1678974609375,-0.001686939038336277,0.0005239914171397686,-0.0024920725263655186
1761479817604932600,4.1779326171875,0.0013360152952373028,0.0006491600070148706,0.0003141004126518965
1761479817614968600,4.187968505859375,-0.000680713914334774,0.0006639808416366577,0.0014471830800175667
1761479817625004500,4.198004638671875,-0.001213612500578165,0.002179053146392107,-0.00015737151261419058
1761479817635040500,4.20804052734375,-0.001978355459868908,-0.0015275476034730673,-0.0010442823404446244
1761479817645076500,4.218076416015625,0.0009721610695123672,0.0011433364124968648,0.002833812963217497
1761479817655112400,4.228112548828125,0.0008670776151120663,0.0006293286569416523,-0.0007563445251435041
1761479817665148400,4.2381484375,-0.000681284349411726,-0.0010857470333576202,-0.0035398807376623154
1761479817675184400,4.248184326171875,0.000968515407294035,0.0008105281740427017,0.0007131273159757257
1761479817685220400,4.258220458984375,-0.001395039726048708,-0.0005942892748862505,-0.0001816947478801012
1761479817695255600,4.268255615234375,0.0016043651849031448,0.0021170913241803646,-0.0019040420884266496
1761479817705291500,4.27829150390625,0.00041526416316628456,0.0002230512909591198,-0.0004960288060829043
1761479817715327500,4.288327392578125,-0.0008162469603121281,0.00017228233627974987,-0.0030717095360159874
1761479817725363500,4.298363525390625,0.0017632907256484032,0.0013752322411164641,0.00038294331170618534
1761479817735399400,4.3083994140625,-0.0001774979755282402,-0.0006334469653666019,-0.0003345098812133074
1761479817745435400,4.318435302734375,0.00047071557492017746,-0.0013703436125069857,-0.0008032261393964291
1761479817755471400,4.328471435546875,0.0005238042213022709,-0.0030978629365563393,0.0006014176178723574
1761479817765507600,4.338507568359375,-0.000017616432160139084,0.0021200687624514103,-0.000024158856831490993
1761479817775542500,4.34854248046875,0.00013640103861689568,-0.00034556537866592407,-0.0005018830997869372
1761479817785578500,4.35857861328125,-0.0005155405960977077,-0.0009796640370041132,0.0011910883476957679
1761479817795614500,4.368614501953125,-0.0020578503608703613,0.002471077721565962,0.0004168610321357846
1761479817805650400,4.378650390625,-0.000323333777487278,0.00041059008799493313,0.0007806488429196179
1761479817815686700,4.388686767578125,0.0002468591555953026,0.00020419573411345482,0.0005842313985340297
1761479817825722600,4.39872265625,0.00024153245612978935,0.0001474705059081316,-0.0007199186366051435
1761479817835758600,4.408758544921875,0.0003779665566980839,0.0011309986002743244,0.002626103116199374
1761479817845794600,4.418794677734375,-0.000491822138428688,-0.0012778304517269135,-0.002096746815368533
1761479817855830800,4.428830810546875,0.0015104045160114765,0.00010561756789684296,0.00034653476905077696
1761479817865865500,4.438865478515625,0.001168721355497837,0.002694476628676057,-0.0005224546184763312
1761479817875901700,4.448901611328125,-0.0005241148173809052,-0.0011413383763283491,-0.0004949107533320785
1761479817885937700,4.458937744140625,0.0008745775558054447,-0.0020081971306353807,-0.0025130538269877434
1761479817895973600,4.4689736328125,0.0017704106867313385,-0.000434735557064414,0.0010185705032199621
1761479817906009600,4.479009521484375,0.00043590087443590164,-0.00019877939485013485,-0.00009596243035048246
1761479817916045600,4.489045654296875,-0.0013131527230143547,0.0021626665256917477,0.0018219538033008575
1761479817926081500,4.49908154296875,0.0003385399468243122,-0.0026762974448502064,-0.00025824131444096565
1761479817936117800,4.50911767578125,0.0016471701674163342,-0.000028196023777127266,-0.0019158372888341546
1761479817946153700,4.51915380859375,0.0011941664852201939,0.0029313748236745596,-0.002091605681926012
1761479817956188700,4.529188720703125,-0.0008725081570446491,0.00229186424985528,0.0011309694964438677
1761479817966224600,4.539224609375,0.0014247349463403225,-0.002327654743567109,0.002459354232996702
1761479817976260600,4.549260498046875,-0.0020138807594776154,0.0012384549481794238,0.00019723072182387114
1761479817986296600,4.559296630859375,-0.001499357633292675,0.002277620369568467,-0.0021905596368014812
1761479817996332500,4.56933251953125,0.00006146775558590889,0.00018116622231900692,0.0005546543980017304
1761479818006369500,4.57936962890625,-0.002546831965446472,-0.001427116570994258,0.0003597110044211149
1761479818016405500,4.589405517578125,-0.000845310278236866,0.0003928286023437977,-0.0007401324110105634
1761479818026441500,4.59944140625,-0.0006913798861205578,-0.0003733627963811159,0.00027559720911085606
1761479818036477400,4.6094775390625,-0.0031275744549930096,-0.0014131637290120125,-0.00011445302516222
1761479818046513700,4.619513671875,-0.002813322003930807,0.0001027076505124569,-0.0008715896401554346
1761479818056549600,4.629549560546875,-0.002785860560834408,0.0005353905726224184,0.0005178081337362528
1761479818066585600,4.639585693359375,-0.00014373846352100372,0.0012395302765071392,-0.0002648949157446623
1761479818076620500,4.64962060546875,-0.0015968959778547287,0.002229198580607772,-0.0021480945870280266
1761479818086656500,4.659656494140625,0.0001533334143459797,-0.00009840424172580242,0.0012825893936678767
1761479818096692500,4.6696923828125,0.000773510430008173,0.0022624689154326916,0.0013426290825009346
1761479818106728400,4.679728515625,0.000022765249013900757,-0.00014263205230236053,0.002025729976594448
1761479818116764700,4.6897646484375,-0.00030946917831897736,0.0002341072540730238,0.000649243185762316
1761479818126800600,4.699800537109375,-0.001952106598764658,-0.00022315746173262596,0.0012516502756625414
1761479818136836600,4.709836669921875,-0.0005967142060399055,0.002215116750448942,0.0001966168638318777
1761479818146872600,4.71987255859375,0.0007431218400597572,-0.0006251446902751923,-0.001400480978190899
1761479818156908500,4.729908447265625,-0.00010208925232291222,0.0014944953145459294,-0.0006027547642588615
1761479818166943500,4.739943603515625,0.0014017978683114052,-0.005083246156573296,0.001814596471376717
1761479818176979500,4.7499794921875,0.00015455763787031174,-0.00037055090069770813,-0.0002327626571059227
1761479818187015400,4.760015380859375,-0.0016776970587670803,0.0007431830745190382,0.0008836344350129366
1761479818197051600,4.7700517578125,0.0016200803220272064,0.0013562451349571347,0.00031137606129050255
1761479818207087600,4.780087646484375,0.0009644096717238426,0.003093957668170333,-0.0008979652775451541
1761479818217123600,4.79012353515625,0.0007688971236348152,0.0005033651832491159,0.0023284403141587973
1761479818227159600,4.80015966796875,-0.0008769365958869457,0.0019009921234101057,0.0005864666309207678
1761479818237195500,4.810195556640625,-0.0010238401591777802,0.0007738326676189899,0.0014934464124962687
1761479818247231500,4.8202314453125,0.0005855080671608448,-0.0006640080828219652,0.0005536168464459479
1761479818257266400,4.830266357421875,-0.0010953736491501331,-0.00047038705088198185,-0.0016014486318454146
1761479818267302400,4.840302490234375,-0.0005723284557461739,-0.002838469808921218,0.0008635733393020928
1761479818277338600,4.850338623046875,0.0012171571142971516,-0.0016767529305070639,-0.00001907732803374529
1761479818287374600,4.86037451171875,0.003121583489701152,0.0007600393146276474,0.000004624831490218639
1761479818297410600,4.87041064453125,0.00022264989092946053,-0.0008441747631877661,-0.0014851472806185484
1761479818307446500,4.880446533203125,-0.0001605791039764881,0.0019899611361324787,-0.0008220202289521694
1761479818317482500,4.890482421875,-0.0017556510865688324,-0.0007394594140350819,-0.0013366476632654667
1761479818327518700,4.900518798828125,-0.00017399992793798447,-0.0005860612727701664,0.0008159855497069657
1761479818337554700,4.9105546875,0.00034755654633045197,-0.0007754731923341751,0.0016440406907349825
1761479818347589400,4.92058935546875,-0.0010636523365974426,-0.0017672344110906124,-0.00009500340092927217
1761479818357625600,4.93062548828125,0.001561309676617384,-0.00036607543006539345,0.00008834968321025372
1761479818367660500,4.94066064453125,-0.0007178233936429024,-0.000627065310254693,-0.0020978394895792007
1761479818377696500,4.950696533203125,-0.0009341002441942692,0.0003390321508049965,-0.0013008344685658813
1761479818387732700,4.960732666015625,0.0004323679022490978,0.001193640404380858,-0.0003143996000289917
1761479818397768700,4.970768798828125,-0.0005434057675302029,-0.00022623385302722454,-0.0009254630422219634
1761479818407804700,4.9808046875,0.00027418462559580803,-0.00041478569619357586,0.0010420802282169461
1761479818417840600,4.990840576171875,-0.0005223662592470646,0.0011501320404931903,0.00021460431162267923
1761479818427876600,5.000876708984375,0.0008086813613772392,0.0007863442879170179,-0.0028988970443606377
1761479818437911600,5.01091162109375,0.0018634800799190998,0.0007314491085708141,-0.0010540237417444587
1761479818447947800,5.02094775390625,-0.002141115255653858,-0.00003820424899458885,0.0010426829103380442
1761479818457983700,5.030983642578125,0.0007796287536621094,-0.0002941656857728958,-0.00047499488573521376
1761479818468019700,5.041019775390625,-0.000727454200387001,0.0005101088900119066,-0.0009770005708560348
1761479818478055700,5.0510556640625,0.0006594299338757992,-0.0005588792264461517,-0.0009488292271271348
1761479818488091600,5.061091552734375,-0.0012708292342722416,0.0005210326053202152,0.0026506991125643253
1761479818498127600,5.071127685546875,-0.00005890335887670517,0.0016856375150382519,-0.0008895596256479621
1761479818508163600,5.08116357421875,0.00017838412895798683,0.00005338597111403942,-0.0006560004549100995
1761479818518199800,5.09119970703125,0.000548382755368948,0.003381930524483323,-0.0004794524284079671
1761479818528234800,5.10123486328125,-0.0010657589882612228,0.0029038931243121624,-0.002406249288469553
1761479818538270700,5.111270751953125,0.00037800706923007965,-0.0001650524791330099,0.0015033890958875418
1761479818548306700,5.121306640625,-0.0007405206561088562,-0.001726463669911027,-0.000593051197938621
1761479818558342700,5.1313427734375,0.0007244604639708996,-0.0012099940795451403,-0.0012467405758798122
1761479818568378600,5.141378662109375,-0.001955744344741106,-0.0013245099689811468,-0.0005865429993718863
1761479818578414600,5.15141455078125,0.0018676184117794037,0.0021790508180856705,-0.00032416300382465124
1761479818588450600,5.161450439453125,0.001766684465110302,0.0014362952206283808,-0.0021012902725487947
1761479818598486800,5.17148681640625,-0.000036086421459913254,0.0007867054082453251,0.0002726869424805045
1761479818608522800,5.181522705078125,0.0008523440919816494,0.002184065990149975,-0.0010881884954869747
1761479818618557700,5.1915576171875,-0.001267970073968172,-0.0018574243877083063,0.001302089891396463
1761479818628593700,5.20159375,0.0012891972437500954,0.0003506024368107319,-0.0016974284080788493
1761479818638629600,5.211629638671875,-0.001851824577897787,0.003244380932301283,0.0028761206194758415
1761479818648665600,5.22166552734375,0.0029429306741803885,0.0020856396295130253,0.002072378760203719
1761479818658701600,5.23170166015625,0.0017427373677492142,0.004143235739320517,-0.0011534447548910975
1761479818668737500,5.241737548828125,-0.0042033023200929165,0.0023996641393750906,0.001746205030940473
1761479818678773800,5.251773681640625,0.0030834393110126257,0.0008891590405255556,-0.00017806736286729574
1761479818688809700,5.261809814453125,-0.0012969281524419785,-0.0004354973789304495,-0.00019457901362329721
1761479818698845700,5.271845703125,0.00023348582908511162,0.0005287823732942343,-0.0009608451509848237
1761479818708880600,5.281880615234375,0.0001743636094033718,-0.0006254317704588175,-0.001024494762532413
1761479818718916600,5.29191650390625,0.0009015509858727455,-0.0004682815633714199,-0.000242724665440619
1761479818728952600,5.30195263671875,0.00007170997560024261,-0.00011994014494121075,0.001620156574063003
1761479818738988500,5.311988525390625,-0.0008942531421780586,0.0011696673464030027,-0.0009889894863590598
1761479818749024500,5.3220244140625,-0.00011048465967178345,0.0009326459839940071,-0.0006369195180013776
1761479818759060700,5.332060791015625,-0.003037623595446348,0.0009284191764891148,0.00027724052779376507
1761479818769096700,5.3420966796875,0.0017190482467412949,-0.00003830809146165848,0.00180349824950099
1761479818779132700,5.352132568359375,0.00024054059758782387,0.0008146355394273996,-0.000812203623354435
1761479818789168600,5.362168701171875,0.0006474717520177364,-0.0019316163379698992,-0.0015512309037148952
1761479818799203600,5.37220361328125,0.000362517312169075,0.00003929901868104935,-0.0019086834508925676
1761479818809239600,5.382239501953125,-0.0009440295398235321,-0.0010515318717807531,0.0019656834192574024
1761479818819275500,5.392275634765625,0.0003465423360466957,0.002152691362425685,-0.0005435964558273554
1761479818829311500,5.4023115234375,0.0006240434013307095,-0.0017869225703179836,-0.0016099261119961739
1761479818839347700,5.41234765625,0.000851812306791544,0.0003961834590882063,-0.0005245385691523552
1761479818849383700,5.4223837890625,-0.001045956276357174,0.0015549247618764639,-0.0004627532325685024
1761479818859419600,5.432419677734375,0.0009487844072282314,-0.00032874569296836853,0.00007779127918183804
1761479818869455600,5.44245556640625,-0.002893890719860792,0.0031248414888978004,0.00044530746527016163
1761479818879491600,5.45249169921875,0.0000636042095720768,0.0009391105268150568,-0.0008191644446924329
1761479818889526500,5.462526611328125,-0.00015956908464431763,0.002611842006444931,-0.000182668911293149
1761479818899562500,5.4725625,-0.00023976247757673264,0.0010372416581958532,0.0008941302075982094
1761479818909598500,5.482598388671875,-0.0007516220211982727,0.00037091877311468124,0.003367674071341753
1761479818919634700,5.492634765625,-0.0014840168878436089,0.001874475390650332,0.0012677466729655862
1761479818929670700,5.502670654296875,0.0010435893200337887,-0.0006432770751416683,0.0003566793166100979
1761479818939706600,5.51270654296875,-0.0027519664727151394,0.0035650189965963364,-0.0003718032967299223
1761479818949742600,5.52274267578125,0.000684044323861599,0.000883748522028327,-0.00062134163454175
1761479818959778600,5.532778564453125,0.00013909302651882172,0.002043181797489524,0.0011365734972059727
1761479818969814500,5.542814453125,0.0019463137723505497,-0.0009858973789960146,-0.0016488266410306096
1761479818979849500,5.552849365234375,-0.0008720341138541698,0.00074031762778759,0.001011496875435114
1761479818989885700,5.5628857421875,-0.0006078486330807209,-0.00007088133133947849,0.0028251097537577152
1761479818999921700,5.572921630859375,0.0009758453816175461,0.0015212955186143517,-0.000043707434087991714
1761479819009957600,5.58295751953125,-0.0006340355612337589,-0.00009098206646740437,0.00006281898822635412
1761479819019993600,5.59299365234375,-0.0020257411524653435,0.0012776943622156978,0.0010343663161620498
1761479819030029600,5.603029541015625,-0.0002499455586075783,0.0034753349609673023,-0.0013084163656458259
1761479819040065500,5.6130654296875,-0.002821718342602253,0.0007366333156824112,0.00046935025602579117
1761479819050101500,5.6231015625,0.000720019917935133,-0.0008133263327181339,-0.00023558852262794971
1761479819060136400,5.633136474609375,-0.0016598999500274658,0.0003847242332994938,0.0002731666900217533
1761479819070172700,5.643172607421875,0.00028340891003608704,-0.0013026543892920017,0.0008537358371540904
1761479819080208600,5.653208740234375,-0.0024181725457310677,-0.0007633506320416927,-0.0008674259297549725
1761479819090244600,5.66324462890625,-0.00025621894747018814,-0.00017346045933663845,-0.0011055124923586845
1761479819100280600,5.673280517578125,-0.001307557336986065,0.00021723168902099133,-0.0015791024779900908
1761479819110316500,5.683316650390625,0.0011537359096109867,0.0018902295269072056,0.0004992284812033176
1761479819120352800,5.693352783203125,-0.0016824007034301758,0.0019671893678605556,-0.0009309399174526334
1761479819130388700,5.703388671875,-0.0004890379495918751,-0.001405171351507306,0.001485878718085587
1761479819140424700,5.7134248046875,0.0006549716927111149,0.0011755963787436485,0.000562810804694891
1761479819150459600,5.723459716796875,0.0010802787728607655,0.00335725792683661,-0.00041350407991558313
1761479819160495600,5.73349560546875,0.0006897542625665665,-0.0011405239347368479,-0.0007501518120989203
1761479819170531600,5.743531494140625,-0.0012365104630589485,-0.0008076289668679237,-0.0001392225967720151
1761479819180567800,5.75356787109375,0.0007614362984895706,-0.0002658448647707701,-0.0008967951871454716
1761479819190603800,5.763603759765625,-0.002053791657090187,0.0006430919747799635,-0.00029385543894022703
1761479819200639700,5.7736396484375,0.0018008858896791935,0.00072522833943367,0.00011544569861143827
1761479819210675700,5.78367578125,-0.0003453553654253483,-0.0025603133253753185,0.0018142760964110494
1761479819220711700,5.793711669921875,0.0007800254970788956,0.0002498889807611704,-0.0015453402884304523
1761479819230747600,5.80374755859375,0.0012724441476166248,0.0008174085523933172,0.00048425467684865
1761479819240782800,5.813782958984375,0.0021394751965999603,-0.0004083155654370785,0.0011653274996206164
1761479819250818800,5.82381884765625,0.00029869843274354935,-0.001685567433014512,0.001592232147231698
1761479819260854800,5.833854736328125,-0.0009644557721912861,0.002184959128499031,0.0007279176497831941
1761479819270890800,5.843890869140625,-0.0009279702790081501,-0.0011056428775191307,0.0000618611229583621
1761479819280926700,5.8539267578125,-0.0010114600881934166,0.0014684750931337476,0.0020553648937493563
1761479819290962700,5.863962646484375,0.0023715535644441843,0.0023699551820755005,-0.001004873658530414
1761479819300998700,5.87399853515625,-0.0012187827378511429,-0.00046524801291525364,-0.00020724826026707888
1761479819311034600,5.88403466796875,-0.0011197132989764214,0.0015646133106201887,0.0010638785315677524
1761479819321070600,5.894070556640625,-0.0003177374601364136,0.004681752063333988,-0.0007835592841729522
1761479819331105800,5.904105712890625,-0.000775268767029047,0.002816207706928253,-0.0017833098536357284
1761479819341141800,5.914141845703125,0.001324506476521492,-0.00024049170315265656,0.0003498508594930172
1761479819351177700,5.924177734375,-0.003052931744605303,0.00032782694324851036,-0.0013913237489759922
1761479819361213400,5.93421337890625,0.00033362582325935364,-0.00012141326442360878,0.0005759064224548638
1761479819371249400,5.94424951171875,-0.0020815948955714703,-0.0009712278842926025,0.0021074903197586536
1761479819381285400,5.954285400390625,-0.001984361093491316,-0.0016947663389146328,0.0031432518735527992
1761479819391321300,5.9643212890625,-0.0011710315011441708,0.0017955723451450467,0.0007836913573555648
1761479819401357300,5.974357421875,-0.0018969145603477955,-0.00026236195117235184,-0.0007304481696337461
1761479819411392500,5.984392578125,-0.0015017013065516949,-0.0016543962992727757,0.000367839471437037
1761479819421428500,5.994428466796875,-0.0006238999776542187,0.0006416842807084322,-0.0004448923282325268
1761479819431464400,6.00446435546875,0.0009550885297358036,-0.000027035363018512726,0.0007828250527381897
1761479819441500400,6.01450048828125,0.0017091883346438408,0.0003232292365282774,0.0004224865697324276
1761479819451536400,6.024536376953125,0.00009717699140310287,-0.0005697286687791348,-0.0006731378380209208
1761479819461572400,6.034572265625,-0.0013756626285612583,0.0019194040214642882,-0.00015057518612593412
1761479819471608300,6.0446083984375,-0.0005138637498021126,-0.0005935546942055225,0.00009683251846581697
1761479819481644300,6.054644287109375,0.00021708989515900612,0.00011259503662586212,-0.001354892272502184
1761479819491679500,6.064679443359375,-0.0012322026304900646,0.0031507292296737432,0.0016859050374478102
1761479819501715500,6.074715576171875,0.0007355986163020134,-0.001963475253432989,0.001151226693764329
1761479819511751400,6.08475146484375,0.0010652979835867882,-0.0007693138904869556,0.0009853116935119033
1761479819521787400,6.094787353515625,-0.0019976808689534664,0.0006485129706561565,0.00039436668157577515
1761479819531823400,6.1048232421875,0.0010883905924856663,-0.001638343557715416,-0.002116461517289281
1761479819541859300,6.114859375,-0.0007422971539199352,0.0011762965004891157,0.0002515120431780815
1761479819551895600,6.1248955078125,-0.0005859700031578541,-0.001151306089013815,0.0018898886628448963
1761479819561931500,6.134931640625,-0.0005103494040668011,-0.0006076404824852943,-0.00014484021812677383
1761479819571966500,6.144966552734375,-0.0017804112285375595,-0.001328291604295373,-0.000957370619289577
1761479819582002400,6.15500244140625,-0.0008978038094937801,-0.00221520964987576,-0.0014440232189372182
1761479819592038400,6.165038330078125,0.0007778569124639034,0.00004368368536233902,-0.0006975390715524554
1761479819602074400,6.175074462890625,-0.0013795020058751106,-0.0004053523298352957,-0.0017845070688053966
1761479819612110600,6.185110595703125,-0.000990414060652256,-0.0033457486424595118,0.0005545471794903278
1761479819622146600,6.195146484375,-0.001075685489922762,-0.0008647637441754341,-0.0015372912166640162
1761479819632182500,6.2051826171875,0.00037200888618826866,-0.0006967182271182537,-0.0010744339087978005
1761479819642218500,6.215218505859375,-0.0017558708786964417,0.00015861960127949715,-0.000952099566347897
1761479819652254500,6.22525439453125,-0.0005382737144827843,0.000297370133921504,-0.0019619702361524105
1761479819662289700,6.23528955078125,0.00012256670743227005,0.0011302289785817266,-0.0007983624236658216
1761479819672325600,6.24532568359375,0.0008320328779518604,0.0006399410776793957,0.0018733208999037743
1761479819682361600,6.255361572265625,0.0017757383175194263,0.0003686619456857443,0.001304274657741189
1761479819692397600,6.2653974609375,-0.0006293621845543385,0.0006568159442394972,-0.00004834483843296766
1761479819702433500,6.27543359375,0.0021472121588885784,0.00014181039296090603,-0.0004976628115400672
1761479819712469500,6.285469482421875,0.0002513076178729534,-0.0011042824480682611,0.0019268791656941175
1761479819722505500,6.29550537109375,0.0014176699332892895,-0.0020516812801361084,-0.0012105378555133939
1761479819732541400,6.30554150390625,-0.00007822783663868904,-0.0006473965477198362,0.00035886303521692753
1761479819742576600,6.31557666015625,-0.001423087902367115,0.0015660389326512814,0.0004942344967275858
1761479819752612600,6.325612548828125,0.0007188920862972736,-0.001135471509769559,-0.001650142832659185
1761479819762648600,6.335648681640625,-0.00014730170369148254,-0.0012295879423618317,0.0005563719314523041
1761479819772684500,6.3456845703125,-0.0008940519765019417,-0.0006327738519757986,-0.0004423134960234165
1761479819782720500,6.355720458984375,-0.00014910893514752388,-0.00046923919580876827,-0.00027494668029248714
1761479819792756500,6.365756591796875,0.0013244180008769035,0.0019995111506432295,-0.00025470671243965626
1761479819802792400,6.37579248046875,0.00038931751623749733,-0.0003914257977157831,-0.0013378766598179936
1761479819812828400,6.385828369140625,-0.0002482431009411812,-0.0013656099326908588,-0.0004901924403384328
1761479819822863600,6.395863525390625,-0.002068240661174059,0.000428246334195137,-0.0016032728599384427
1761479819832899600,6.405899658203125,0.0018777651712298393,-0.0006849549245089293,0.00047346006613224745
1761479819842935600,6.415935546875,-0.00024292105808854103,-0.0019257159437984228,-0.0005589104257524014
1761479819852971500,6.425971435546875,0.001860976219177246,-0.0007549901492893696,-0.0023498861119151115
1761479819863007500,6.436007568359375,-0.0000741216354072094,-0.00005440693348646164,0.0007814334239810705
1761479819873043500,6.44604345703125,-0.0008312584832310677,0.0036444575525820255,0.00002589460927993059
1761479819883079400,6.456079345703125,0.0026307995431125164,0.00013090786524116993,0.0020948967430740595
1761479819893115600,6.46611572265625,-0.00026858411729335785,-0.0003055841661989689,0.0007348203216679394
1761479819903150600,6.476150634765625,-0.000512230210006237,-0.0018181479535996914,-0.00029868551064282656
1761479819913186600,6.4861865234375,0.000784196425229311,0.00011504068970680237,-0.0012845877790823579
1761479819923222500,6.496222412109375,0.00009849993512034416,-0.0004329474177211523,-0.0020978846587240696
1761479819933258500,6.506258544921875,-0.0016575884073972702,0.0002091405913233757,-0.0017937517259269953
1761479819943294500,6.51629443359375,-0.0024933847598731518,-0.0003052132669836283,0.0005155904218554497
1761479819953330400,6.526330322265625,0.00005046650767326355,-0.00033610593527555466,-0.00045140343718230724
1761479819963366400,6.536366455078125,0.0010468349792063236,-0.002505943877622485,-0.0018238385673612356
1761479819973401600,6.546401611328125,0.00019062869250774384,0.00007066433317959309,-0.0008086415473371744
1761479819983437600,6.5564375,-0.0017271144315600395,0.0002418395597487688,-0.0006714604096487164
1761479819993473500,6.5664736328125,-0.0020323125645518303,-0.0008207617793232203,0.00020099116954952478
1761479820003509500,6.576509521484375,0.00121620437130332,0.0005213748663663864,0.002604130655527115
1761479820013545500,6.58654541015625,-0.0031151603907346725,-0.0012975640129297972,0.00008877506479620934
1761479820023581400,6.59658154296875,0.0004046936519443989,-0.00018523423932492733,-0.0016249131876975298
1761479820033617400,6.606617431640625,0.0018566488288342953,-0.0004294461105018854,0.0023293483536690474
1761479820043653400,6.6166533203125,-0.000060552265495061874,-0.00016749254427850246,-0.0006946589564904571
1761479820053688600,6.6266884765625,-0.0007846658118069172,0.0003739281091839075,-0.0006826749304309487
1761479820063724500,6.636724609375,0.0014040111564099789,0.00044125434942543507,0.0007485254318453372
1761479820073760500,6.646760498046875,0.0006972081027925014,0.0005182197783142328,-0.00033378321677446365
1761479820083796500,6.65679638671875,-0.0018681143410503864,-0.0008655996061861515,0.00006093713454902172
1761479820093832400,6.66683251953125,-0.0018191118724644184,0.0016407013172283769,-0.0001228210749104619
1761479820103868400,6.676868408203125,0.002181895077228546,-0.0006256799679249525,0.0014086647424846888
1761479820113904400,6.686904296875,-0.0007707513868808746,0.0018350807949900627,0.00009039998985826969
1761479820123940400,6.6969404296875,-0.00038877595216035843,0.0008429987356066704,-0.00004856858868151903
1761479820133975600,6.7069755859375,0.0026972952764481306,0.0005287458188831806,0.0016867471858859062
1761479820144011500,6.717011474609375,-0.000013772863894701004,0.00034351483918726444,0.0005329951527528465
1761479820154047500,6.727047607421875,0.0008592111989855766,-0.0014021871611475945,0.0004400508478283882
1761479820164083500,6.73708349609375,0.0009251255542039871,-0.0003099327441304922,-0.0016100084176287055
1761479820174119400,6.747119384765625,0.00047318683937191963,0.001553481095470488,-0.0007077293703332543
1761479820184155400,6.7571552734375,-0.0003042616881430149,0.0012354018399491906,0.0019887248054146767
1761479820194191400,6.76719140625,-0.0006592613644897938,0.0009594983421266079,-0.0011684526689350605
1761479820204227300,6.777227294921875,0.0017032204195857048,-0.0006800543051213026,0.0013281726278364658
1761479820214262500,6.787262451171875,0.0016670012846589088,-0.00045128888450562954,0.002077586017549038
1761479820224298500,6.797298583984375,-0.000699897762387991,0.0009400027338415384,-0.001636682078242302
1761479820234334500,6.80733447265625,-0.0009134835563600063,0.0016111193690449,-0.002101670019328594
1761479820244370400,6.817370361328125,0.000983191654086113,-0.0008974464144557714,-0.00034552812576293945
1761479820254406400,6.827406494140625,0.0011115558445453644,0.0012051193043589592,-0.0014749746769666672
1761479820264442400,6.8374423828125,0.0022080810740590096,0.00015073572285473347,0.0007514685858041048
1761479820274478300,6.847478271484375,0.0011907536536455154,-0.0001568594016134739,-0.003984164446592331
1761479820284514300,6.857514404296875,0.001399313099682331,-0.0002730172127485275,-0.00003083166666328907
1761479820294549500,6.867549560546875,0.0014634951949119568,0.001278540352359414,0.00037583301309496164
1761479820304585500,6.87758544921875,-0.0005402886308729649,-0.00032440596260130405,-0.0012227522674947977
1761479820314621400,6.887621337890625,-0.0002609230577945709,-0.0013696965761482716,0.0014116466045379639
1761479820324657400,6.897657470703125,0.000038811471313238144,0.0015318403020501137,0.001431955024600029
1761479820334693400,6.907693359375,0.002678537042811513,0.0014151938958093524,-0.0011513112112879753
1761479820344729300,6.917729248046875,0.00032441271468997,0.00005274219438433647,-0.001826355466619134
1761479820354765300,6.927765380859375,0.0005513140931725502,0.001051427680067718,-0.0010644251015037298
1761479820364800300,6.93780029296875,-0.0008281944319605827,0.0010620795655995607,0.0015053845709189773
1761479820374836200,6.947836181640625,-0.0011440450325608253,0.0013406462967395782,0.002284359186887741
1761479820384872200,6.9578720703125,0.0016903686337172985,0.00004587811417877674,-0.0007944231620058417
1761479820394908200,6.967908203125,-0.0013656090013682842,-0.0006904858164489269,-0.0002130551729351282
1761479820404944100,6.977944091796875,-0.0005210754461586475,-0.001307044643908739,0.001782532432116568
1761479820414980000,6.98797998046875,-0.0007096268236637115,0.000912433722987771,-0.0008468065643683076
1761479820425016000,6.99801611328125,-0.0006075883284211159,0.002287550363689661,-0.0007955050095915794
1761479820435052000,7.008052001953125,-0.000030481256544589996,-0.0013572522439062595,0.000537939602509141
1761479820445087200,7.018087158203125,-0.001363418996334076,-0.0013601859100162983,-0.001789429341442883
1761479820455123200,7.028123291015625,0.0002954639494419098,0.0005184079054743052,-0.000602724845521152
1761479820465159200,7.0381591796875,-0.002022240310907364,0.0014809869462624192,0.0010441580088809133
1761479820475195100,7.048195068359375,-0.0008286111988127232,-0.00047617009840905666,-0.0008536106906831264
1761479820485231000,7.058231201171875,-0.0021319366060197353,0.0015357080847024918,0.0002751497086137533
1761479820495267000,7.06826708984375,-0.0022115646861493587,0.0020939065143465996,-0.0020740246400237083
1761479820505303000,7.078302978515625,-0.0017125019803643227,0.0005890382453799248,-0.0029909340664744377
1761479820515338200,7.088338134765625,-0.0007175449281930923,-0.0027292605955153704,-0.0011413688771426678
1761479820525374200,7.098374267578125,-0.0005931835621595383,0.0006861207075417042,-0.0011213744292035699
1761479820535410200,7.10841015625,0.0009197578765451908,0.0011234116973355412,0.0003593431320041418
1761479820545446100,7.118446044921875,-0.000799303874373436,-0.002130140084773302,-0.0008046877337619662
1761479820555482000,7.128482177734375,0.000039591919630765915,0.000782292801886797,0.0018656639149412513
1761479820565518000,7.13851806640625,0.0006046174094080925,-0.0007119681686162949,0.00029641902074217796
1761479820575554000,7.148553955078125,0.00023310678079724312,0.001971432939171791,-0.0005611188244074583
1761479820585590000,7.158590087890625,0.0030162085313349962,-0.00040984037332236767,-0.0009185289964079857
1761479820595625200,7.168625244140625,-0.0011540353298187256,-0.0015262372326105833,-0.0019960440695285797
1761479820605661200,7.1786611328125,-0.0009664380922913551,-0.0014162403531372547,0.00004420336335897446
1761479820615697200,7.188697265625,0.0008559632115066051,0.002319908235222101,0.00045086804311722517
1761479820625733000,7.198733154296875,-0.0015821452252566814,0.0009225369431078434,-0.00038642995059490204
1761479820635769000,7.20876904296875,0.0010091103613376617,-0.0004724268801510334,-0.0009318453958258033
1761479820645805000,7.21880517578125,-0.0006697243079543114,-0.001554763875901699,-0.0017642248421907425
1761479820655841000,7.228841064453125,0.00041285064071416855,0.00041331187821924686,0.0008483360288664699
1761479820665876200,7.238876220703125,-0.0009283451363444328,0.0020372867584228516,0.0009175533778034151
1761479820675912200,7.248912109375,-0.0018055900000035763,-0.0023675814736634493,-0.00136717245914042
1761479820685948200,7.2589482421875,-0.00017500761896371841,0.000802159309387207,-0.0007743699243292212
1761479820695984000,7.268984130859375,-0.00193003099411726,0.0009105498902499676,0.0001883629010990262
1761479820706020000,7.27902001953125,0.0011262884363532066,-0.00048013031482696533,-0.001241617021150887
1761479820716056000,7.28905615234375,-0.0006694812327623367,0.0001353262923657894,0.0010305920150130987
1761479820726092000,7.299092041015625,-0.0007626586593687534,0.0007681585848331451,0.0016673310892656446
1761479820736128000,7.3091279296875,-0.00024334201589226723,-0.0007703495211899281,0.0006891519878990948
1761479820746163200,7.3191630859375,0.002162957563996315,0.0019692585337907076,-0.0011653065448626876
1761479820756199200,7.32919921875,-6.193295121192932e-8,0.003320812713354826,0.0004965059924870729
1761479820766235100,7.339235107421875,0.0005347146652638912,0.0006484652403742075,-0.0017175120301544666
1761479820776271000,7.34927099609375,0.0007467023096978664,-0.0013763359747827053,0.0008654878474771976
1761479820786307000,7.35930712890625,0.0008888058364391327,-0.0005569423083215952,0.0011856406927108765
1761479820796343300,7.36934326171875,0.00033966219052672386,0.0006366865709424019,-0.00013821665197610855
1761479820806379300,7.379379150390625,0.00008536456152796745,-0.00040649413131177425,0.0011744467774406075
1761479820816414200,7.389414306640625,-0.00040545593947172165,-0.000379862729460001,0.00034593732561916113
1761479820826450200,7.3994501953125,-0.0008688801899552345,0.0006051543168723583,0.0006871111108921468
1761479820836486100,7.409486083984375,-0.00030109426006674767,0.00045335409231483936,-0.00029772589914500713
1761479820846522000,7.419522216796875,-0.0009078029543161392,-0.0010415012948215008,0.0009066017810255289
1761479820856558300,7.429558349609375,0.0008019465021789074,-0.0006729199085384607,-0.0009120709728449583
1761479820866594300,7.43959423828125,0.0010051471181213856,-0.00026940670795738697,0.00040025764610618353
1761479820876630300,7.44963037109375,0.00018729036673903465,0.0016467375680804253,0.0009161119814962149
1761479820886665200,7.459665283203125,0.0025352309457957745,0.0015359519748017192,-0.0007693729130551219
1761479820896701200,7.469701171875,-0.0014206282794475555,0.0007631026674062014,0.0007334489491768181
1761479820906737400,7.4797373046875,-0.00012126332148909569,0.0022492369171231985,-0.0005205600755289197
1761479820916773400,7.4897734375,0.00013866135850548744,-0.00028848927468061447,0.0004645432345569134
1761479820926809300,7.499809326171875,0.002000323962420225,0.004221075680106878,-0.00017475965432822704
1761479820936845300,7.50984521484375,-0.0005520493723452091,0.00041062477976083755,-0.00021870178170502186
1761479820946881300,7.51988134765625,-0.0013481262139976025,0.0000726326834410429,-0.0012723023537546396
1761479820956916000,7.529916015625,0.00017946260049939156,0.001340297283604741,0.001567958970554173
1761479820966952400,7.539952392578125,0.00004252605140209198,-0.0014725802466273308,-0.0007311992812901735
1761479820976988400,7.549988525390625,0.00036716554313898087,-0.0009388825856149197,-0.0008358615450561047
1761479820987024400,7.5600244140625,0.002007455099374056,-0.0010540364310145378,-0.0008453722111880779
1761479820997060400,7.570060302734375,-0.0015614470466971397,-0.0002225975040346384,0.0005120410351082683
1761479821007096300,7.580096435546875,-0.0007373513653874397,-0.0005187974311411381,0.0008181456360034645
1761479821017132300,7.59013232421875,-0.0008361544460058212,0.0008801610674709082,-0.0006753552006557584
1761479821027168300,7.600168212890625,-0.000859623309224844,0.0010283872252330184,0.0014651746023446321
1761479821037203200,7.610203125,0.0010171066969633102,0.0010576819768175483,-0.0015647036489099264
1761479821047239400,7.620239501953125,0.00010283896699547768,0.0030883571598678827,-0.0020004655234515667
1761479821057275400,7.630275390625,-0.00016214558854699135,-0.0015593916177749634,0.0014794869348406792
1761479821067311400,7.640311279296875,0.0000702827237546444,0.0022657227236777544,-0.0005631539970636368
1761479821077347300,7.650347412109375,0.0005786800757050514,-0.0032800440676510334,0.0010094426106661558
1761479821087383300,7.66038330078125,0.0008444548584520817,0.0017867721617221832,-0.001855884911492467
1761479821097419300,7.670419189453125,-0.0001521003432571888,-0.0014636158011853695,-0.0005528002511709929
1761479821107454200,7.6804541015625,0.0009590135887265205,0.0020765166264027357,-0.0010812170803546906
1761479821117490200,7.690490234375,-0.0002958681434392929,0.0020426944829523563,0.0009260073420591652
1761479821127526400,7.7005263671875,-0.0026063011027872562,-0.0019802688620984554,0.0009025380713865161
1761479821137562400,7.710562255859375,0.001342367846518755,-0.0002846340648829937,-0.0007797807920724154
1761479821147598300,7.720598388671875,0.001737177837640047,0.0017374170711264014,0.0002982125151902437
1761479821157634300,7.73063427734375,0.0008591334335505962,-0.001275417162105441,-0.0010075353784486651
1761479821167670300,7.740670166015625,-0.00002892361953854561,-0.0017918131779879332,-0.000017574988305568695
1761479821177705200,7.750705322265625,0.0002296692691743374,-0.00022321147844195366,-0.00063462951220572
1761479821187741200,7.7607412109375,0.00057966448366642,0.0014874049229547381,0.00010779302101582289
1761479821197777200,7.770777099609375,0.001872628927230835,-0.0025968190748244524,0.0007360326708294451
1761479821207813400,7.7808134765625,0.00025629764422774315,0.003230439964681864,0.0008317660540342331
1761479821217849300,7.790849365234375,0.0004003746435046196,0.00049936817958951,-0.001637783250771463
1761479821227885300,7.80088525390625,-0.0007978258654475212,-0.001793106086552143,-0.000877637299709022
1761479821237921300,7.81092138671875,-0.00022764317691326141,-0.0008008123841136694,-0.0010129258735105395
1761479821247957200,7.820957275390625,0.0017358181066811085,-0.0010528236161917448,0.0009480323642492294
1761479821257992200,7.8309921875,-0.0013105720281600952,0.0005501329433172941,0.002113698050379753
1761479821268028200,7.841028076171875,-0.0006463057361543179,-0.0006963014602661133,0.0002083280123770237
1761479821278064000,7.851064208984375,-0.0017507188022136688,0.002883786102756858,0.0028909300453960896
1761479821288100400,7.861100341796875,-0.0018282965756952763,-0.001692165620625019,-0.000026301713660359383
1761479821298136300,7.87113623046875,0.0017414046451449394,0.0013680726988241076,0.002123668324202299
1761479821308172300,7.88117236328125,0.000638613011687994,0.0016700343694537878,-0.0028241260442882776
1761479821318208300,7.891208251953125,-0.0003278478980064392,-0.0011867384891957045,0.0007200087420642376
1761479821328243200,7.9012431640625,-0.0019593085162341595,-0.0006762947887182236,0.000818829343188554
1761479821338279200,7.911279052734375,0.0009808209724724293,0.001384192961268127,-0.00020196032710373402
1761479821348315100,7.921315185546875,-0.0016572140157222748,-0.0011207512579858303,0.001553740119561553
1761479821358351000,7.93135107421875,0.001563346479088068,-0.002486153971403837,0.00019153323955833912
1761479821368387800,7.941387939453125,-0.0007597142830491066,-0.002166747348383069,-0.0018610174302011728
1761479821378423800,7.951423828125,-0.0013280324637889862,-0.0010069406125694513,0.0014538192190229893
1761479821388458800,7.961458740234375,0.00011709844693541527,-0.0028626401908695698,0.000629139132797718
1761479821398494700,7.97149462890625,-0.0016429843381047249,0.0009432835504412651,-0.00046834966633468866
1761479821408531000,7.981531005859375,-0.000007368624210357666,0.00023106392472982407,0.002124131191521883
1761479821418567000,7.99156689453125,-0.0009117783047258854,-0.0008515110239386559,0.0013403629418462515
1761479821428603000,8.001602783203126,-0.003919222857803106,0.001276027294807136,0.0003436761908233166
1761479821438636800,8.01163671875,0.0005405070260167122,0.0010501912329345942,0.002019337145611644
1761479821448672800,8.0216728515625,-0.0002798391506075859,-0.000046523986384272575,-0.002182991011068225
1761479821458708700,8.031708740234375,-0.001824206206947565,0.0006243262905627489,0.0009922960307449102
1761479821468744700,8.04174462890625,0.0004901695065200329,-0.0010875347070395947,-0.001400474226102233
1761479821478780700,8.05178076171875,-0.0009316923096776009,-0.0028004799969494343,0.00004429055843502283
1761479821488816600,8.061816650390625,0.00114422757178545,0.0008316158782690763,-0.0007884331280365586
1761479821498852600,8.0718525390625,0.002479802817106247,-0.00130503810942173,0.002418012823909521
1761479821508887800,8.0818876953125,-0.0004659397527575493,0.0004959646612405777,0.0004935677861794829
1761479821518923800,8.091923828125,-0.0014515756629407406,-0.0011224383488297462,0.0008408440044149756
1761479821528959700,8.101959716796875,0.0007425891235470772,-0.0014649974182248116,0.0017879374790936708
1761479821538995700,8.11199560546875,-0.00045902887359261513,0.0005973544903099537,0.0019956640899181366
1761479821549031700,8.12203173828125,-0.001688145101070404,0.0017503210110589862,-0.0016026519006118178
1761479821559067600,8.132067626953125,-0.000637528020888567,0.0003604171797633171,-0.0007728111231699586
1761479821569102800,8.142102783203125,0.002230082405731082,0.002915426855906844,0.0003183427033945918
1761479821579138800,8.152138916015625,0.0003403034061193466,0.0003180457279086113,0.0012288774596527219
1761479821589174800,8.1621748046875,0.000802154652774334,-0.0021400940604507923,-0.0006632215809077024
1761479821599210800,8.172210693359375,0.0006335764192044735,0.0009201441425830126,0.0025051410775631666
1761479821609246700,8.182246826171875,0.001040180679410696,0.0006021205335855484,-0.0015097938012331724
1761479821619282700,8.19228271484375,0.0004929010756313801,0.0004777507856488228,-0.0014322958886623383
1761479821629319000,8.20231884765625,-0.0036675818264484406,-0.001785404747352004,-0.0011636553099378943
1761479821639355000,8.21235498046875,0.0008358233608305454,-0.0007987034041434526,-0.0020238561555743217
1761479821649389800,8.222389892578125,-0.0018028863705694675,-0.00015718769282102585,0.0003287093713879585
1761479821659425800,8.23242578125,-0.0002870154567062855,0.0031400721054524183,0.0006224560202099383
1761479821669461800,8.242461669921875,-0.0009070057421922684,-0.0008054561913013458,-0.0003610092680901289
1761479821679497700,8.252497802734375,0.0006775748915970325,-0.002802028087899089,-0.0006896433187648654
1761479821689534000,8.262533935546875,-0.00035200826823711395,0.0005304103251546621,-0.0018499259604141116
1761479821699570000,8.27256982421875,-0.0023632273077964783,-0.002022762084379792,0.0010907364776358008
1761479821709604900,8.28260498046875,-0.00028236908838152885,-0.0003522715996950865,-0.00009001849684864283
1761479821719640800,8.292640869140625,-0.0017921151593327522,-0.0007474848534911871,0.0017403720412403345
1761479821729676800,8.3026767578125,0.00014708004891872406,-0.0026173999067395926,-0.0010187424486503005
1761479821739713000,8.312713134765625,0.0008815797045826912,-0.0017500084359198809,-0.000491170329041779
1761479821749749000,8.3227490234375,0.004266247618943453,-0.000554010970517993,-0.0021729650907218456
1761479821759785000,8.332784912109375,0.0005503389984369278,-0.0004679909907281399,-0.0005644155899062753
1761479821769821000,8.342821044921875,-0.0006831693463027477,0.001005582045763731,0.001638032146729529
1761479821779855600,8.352855712890625,0.0013283160515129566,0.0015696395421400666,-0.0019356636330485344
1761479821789891800,8.362891845703125,-0.0013576066121459007,-0.0012266323901712894,-0.0006944563938304782
1761479821799928000,8.372927978515625,0.0005308408290147781,-0.00042555341497063637,0.0009905255865305662
1761479821809964000,8.382964111328125,0.0007481649518013,-0.00034284801222383976,-0.0011481218971312046
1761479821820000000,8.393,0.002209974220022559,-0.0007519095670431852,-0.0008434562478214502
1761479821830036000,8.403035888671875,0.0009265444241464138,0.000933136441744864,-0.0001602198462933302
1761479821840072000,8.413072021484375,0.0017489288002252579,-0.003097557695582509,0.00036628718953579664
1761479821850106600,8.423106689453125,-0.0006267577409744263,-0.000514499144628644,-0.0006005243631079793
1761479821860142800,8.433142822265625,0.001148771494626999,-0.0014223705511540174,0.000102017424069345
1761479821870178800,8.4431787109375,-0.0012567592784762383,0.0021345806308090687,0.0007902413490228355
1761479821880215000,8.453215087890625,0.00017602136358618736,-0.0011107474565505981,0.0006107442895881832
1761479821890251000,8.4632509765625,-0.0005029388703405857,-0.0010979713406413794,-0.0017993025248870254
1761479821900287000,8.473286865234375,-0.0010329079814255238,-0.00017438712529838085,-0.0019841259345412254
1761479821910323000,8.483322998046875,-0.0006754416972398758,0.001236736192367971,0.0009734535706229508
1761479821920358000,8.49335791015625,-0.0005409521982073784,0.0013275499222800136,0.006992730312049389
1761479821930393900,8.503393798828125,0.0020470167510211468,0.004319228231906891,0.004501952789723873
1761479821940429800,8.513429931640625,-0.000665146391838789,0.002204145770519972,-0.0011274368735030293
1761479821950465800,8.5234658203125,0.00021587731316685677,0.0007502830121666193,0.000884594745002687
1761479821960502000,8.533501953125,-0.00020916294306516647,-0.0018953012768179178,-0.004299780819565058
1761479821970538000,8.5435380859375,-0.00013554655015468597,-0.0030490413773804903,-0.0017328433459624648
1761479821980574000,8.553573974609375,0.00003436300903558731,0.001143306610174477,0.000998228439129889
1761479821990609000,8.56360888671875,-0.002392163500189781,0.0010501875076442957,0.0002041428815573454
