time,seconds_elapsed,z,y,x
1761505101079013600,0.108013671875,0.02535539053082466,-0.06257445653043688,0.10005743416324257
1761505101089050600,0.118050537109375,0.2709720730990171,-0.057647530655423176,0.0839331055752933
1761505101099085600,0.12808544921875,0.18296470382213592,-0.09558014261871575,0.10557312884479761
1761505101109121500,0.13812158203125,0.19463643691539764,-0.1581503613654524,0.152686177675426
1761505101119156500,0.148156494140625,0.03138239573538303,-0.16421689486280083,0.10559154128432273
1761505101129192700,0.158192626953125,-0.2681751358568668,-0.1038286963302642,-0.02489814828261733
1761505101139227600,0.1682275390625,-0.33521570495069025,-0.02654401579350233,-0.10147650718092918
1761505101149263600,0.178263671875,-0.24606033468246458,0.04788417933359742,-0.11128653805553912
1761505101159298600,0.188298583984375,-0.07967208712995053,0.06400616983398795,-0.13770137451142073
1761505101169334500,0.19833447265625,0.10963526371717452,-0.014374343115463852,-0.12226122879534959
1761505101179369700,0.20836962890625,0.23251462441086768,-0.11238258966393769,-0.02571662505865097
1761505101189405700,0.21840576171875,0.16741759060025213,-0.13611512823328376,0.03796352769136429
1761505101199440600,0.228440673828125,-0.03374503321349621,-0.10783077157847583,0.01574658131673932
1761505101209476600,0.2384765625,-0.18861527692973612,-0.0235329243440181,0.0032784371487796305
1761505101219511600,0.248511474609375,-0.3802899414300918,0.04586531379185617,0.04035714482963085
1761505101229547500,0.258547607421875,-0.5978998421758412,0.014544142157840542,0.015671470253914594
1761505101239582500,0.26858251953125,-0.5908434939235448,-0.03913848975487053,-0.02398833996132016
1761505101249618400,0.278618408203125,-0.4810357962489128,0.0001993219643831253,-0.012403554499149321
1761505101259653600,0.288653564453125,-0.36276071448028085,0.015401708835246972,0.10633110760524868
1761505101269689600,0.298689697265625,-0.27335399979948993,-0.08685900295935571,0.30108780989944933
1761505101279724500,0.308724609375,-0.23533026635348794,-0.2340917375344783,0.4572556922107935
1761505101289760500,0.318760498046875,-0.08065233033895491,-0.3046999359820038,0.5891014725618064
1761505101299795700,0.328795654296875,-0.3745966982245445,-0.10742752453982829,0.57514908118546
1761505101309831700,0.338831787109375,-0.555973256072402,0.03390533834174275,0.46279549842029805
1761505101319866600,0.34886669921875,-0.5685398921787739,0.0020881291023804806,0.3895701032117009
1761505101329902600,0.358902587890625,-0.3847328923135996,-0.10494717896617949,0.41804713289439677
1761505101339937800,0.368937744140625,-0.371460738286376,-0.06285027779713273,0.4667920207105577
1761505101349973800,0.378973876953125,-0.2721048765212297,0.06899506416246294,0.42605581343546506
1761505101360009700,0.389009765625,-0.11690613150298594,0.2128622678272426,0.38696737336739895
1761505101370044700,0.399044677734375,-0.10036416202485561,0.290063946255669,0.3525863803379237
1761505101380080600,0.40908056640625,-0.11389993542432784,0.22888671623729168,0.34552082586586474
1761505101390115600,0.419115478515625,-0.15004267742931843,0.0909966142207384,0.2372640108950436
1761505101400150500,0.429150634765625,-0.18349778778553008,-0.037315512111410494,0.0005120411753654479
1761505101410186500,0.4391865234375,-0.1639250723093748,-0.10517331587225198,-0.24596228113546967
1761505101420222500,0.449222412109375,-0.07400748549699783,-0.08097644772678614,-0.43444896324947474
1761505101430257700,0.459257568359375,0.005728899040818214,-0.058655529521033166,-0.5081777779355645
1761505101440293600,0.469293701171875,-0.09408639692962169,-0.06992620753273368,-0.5005426068820059
1761505101450328600,0.47932861328125,-0.05378653524518013,-0.0932635362394154,-0.4136760782033205
1761505101460364500,0.489364501953125,-0.008056465205550194,-0.1286241057576146,-0.2961743188947439
1761505101470399700,0.499399658203125,0.024724106889963147,-0.0962129606295377,-0.16748364157378673
1761505101480434700,0.5094345703125,0.015042086309194564,-0.03974953432530164,-0.055714872959256166
1761505101490470700,0.519470703125,-0.04516775998175144,-0.01884571637585759,-0.013449556420743464
1761505101500506600,0.529506591796875,-0.06519990966320037,-0.02027822426385246,0.018083207570761442
1761505101510541600,0.53954150390625,-0.15876082141399384,-0.041771833933144806,0.05812865610271692
1761505101520576800,0.54957666015625,-0.2672387317895889,-0.09116926737390459,0.13484335473179818
1761505101530612700,0.55961279296875,-0.22990122704207896,-0.1574198551338166,0.19430822787433863
1761505101540648700,0.569648681640625,-0.29259119971096514,-0.1715448265980929,0.19883944156318903
1761505101550683400,0.579683349609375,-0.4781406593292951,-0.18619374887123702,0.13179185820668934
1761505101560718600,0.589718505859375,-0.5566331812858581,-0.24406536147296426,-0.12277049349173903
1761505101570754600,0.599754638671875,-0.602960048174858,-0.3057924804590642,-0.1839097295872867
1761505101580790500,0.60979052734375,-0.6312456469386816,-0.33120683463551104,-0.07837254883870481
1761505101590825500,0.619825439453125,-0.6910732159137726,-0.32044732101634144,0.022118162175267932
1761505101600861400,0.629861328125,-0.801098355731368,-0.31808760614767667,0.032373014207929374
1761505101610896600,0.639896728515625,-0.7837596829175949,-0.401129681167379,-0.09890577991008757
1761505101620931600,0.649931640625,-0.756608641141653,-0.5199889194995164,-0.2440086628496647
1761505101630967600,0.659967529296875,-0.6824924345731734,-0.5961978605635464,-0.30058292911723256
1761505101641003500,0.67000341796875,-0.5340308888554572,-0.6739541772000491,-0.35351387044638394
1761505101651038700,0.680038818359375,-0.32083705098628995,-0.6959486399304121,-0.44828488863930105
1761505101661073700,0.69007373046875,-0.11528232969343662,-0.7081834867991507,-0.5242750723861157
1761505101671109600,0.700109619140625,0.07134148115813732,-0.7530480260506272,-0.5320803393095731
1761505101681144800,0.710144775390625,0.07027531323134899,-0.8044079186707734,-0.4083605822689831
1761505101691180800,0.720180908203125,-0.09185586139857768,-0.7812002076931297,-0.2419585984520614
1761505101701216800,0.730216796875,-0.26343290976583955,-0.6774100898075849,-0.22623685931563375
1761505101711251700,0.740251708984375,-0.40721944940984245,-0.5671135857027023,-0.3065976593621075
1761505101721287700,0.75028759765625,-0.4032306720346212,-0.533737239671126,-0.3426980235300958
1761505101731322600,0.760322509765625,-0.3252449305564165,-0.5689491305667906,-0.2691270297542214
1761505101741358600,0.770358642578125,-0.17519933051764963,-0.6022347295749932,-0.07523951150998473
1761505101751393500,0.7803935546875,0.016330372554063798,-0.6431383293062448,0.14835370142906903
1761505101761429500,0.790429443359375,0.06222644681036472,-0.6510697798926383,0.30412104011550545
1761505101771464700,0.800464599609375,0.055367082434892655,-0.5969601501729339,0.4322891548670828
1761505101781500700,0.810500732421875,-0.04652560433149337,-0.45078357358723875,0.556792901892215
1761505101791535600,0.82053564453125,-0.10656827736198901,-0.2510934334788471,0.5262118856675922
1761505101801571600,0.830571533203125,-0.22586101174056528,-0.08523352064937352,0.4120750727474689
1761505101811606500,0.8406064453125,-0.10147709170281886,-0.04097096587903797,0.43360272168368097
1761505101821642800,0.850642822265625,0.11893442246019839,0.02832761127464473,0.6246155612744391
1761505101831677700,0.860677734375,0.19107202243208884,0.182010617967695,0.71045537725389
1761505101841713700,0.870713623046875,0.40318858645856376,0.26993805387616154,0.7696941865555942
1761505101851748600,0.88074853515625,0.5150234060466289,0.24800292011760175,0.8240912549145519
1761505101861784600,0.89078466796875,0.5409913755178452,0.14183730527237057,0.8150978011198341
1761505101871819800,0.90081982421875,0.5565624541372061,0.11795688266493379,0.6936598714061081
1761505101881855700,0.910855712890625,0.5489648386150598,0.24397088812254367,0.4977868784330785
1761505101891890400,0.920890380859375,0.4701321249186992,0.4234180122777819,0.30675533414185047
1761505101901926400,0.930926513671875,0.4612298565387726,0.5156803355854004,0.15354104093909263
1761505101911961600,0.940961669921875,0.5202671519190073,0.48833662078157064,0.06996697793453932
1761505101921997600,0.95099755859375,0.5744657750964164,0.35710137354433535,0.043888826087117194
1761505101932032500,0.961032470703125,0.6001017361342906,0.17908910449780524,-0.0456771708086133
1761505101942068500,0.971068359375,0.6444476583391427,0.05234890365749597,-0.20423983930200337
1761505101952103700,0.981103759765625,0.5887468139052391,-0.01666881072819233,-0.3486638000667095
1761505101962139600,0.9911396484375,0.43623394697010515,-0.054615387284755706,-0.45094767810776826
1761505101972174600,1.001174560546875,0.212392458358407,-0.051414545416831964,-0.5016686883024871
1761505101982210600,1.01121044921875,-0.1451636732161045,-0.0755977503631264,-0.5361801758438348
1761505101992245800,1.021245849609375,-0.4843973816365003,-0.1648513203088194,-0.6820417681962251
1761505102002281700,1.03128173828125,-0.45784489027559755,-0.26383937167488036,-0.8769635979242623
1761505102012316700,1.041316650390625,-0.46376025179922575,-0.37049452360272406,-0.9727873400405048
1761505102022352600,1.0513525390625,-0.3232710001349449,-0.44560704773217436,-0.9788280815094709
1761505102032387800,1.061387939453125,-0.24133096807301044,-0.40747985391169783,-0.8652486102111637
1761505102042423800,1.071423828125,-0.18469722670316696,-0.2817658543139696,-0.7151768528178334
1761505102052458500,1.08145849609375,-0.025562311279773712,-0.23771387355439363,-0.5150710445806383
1761505102062494500,1.091494384765625,0.05364508094787598,-0.2923417549945414,-0.3197903184123337
1761505102072529700,1.10152978515625,0.09950082319378853,-0.25677082152813674,-0.18264760069698094
1761505102082565600,1.111565673828125,0.15888240196704864,-0.29085853069946166,-0.11394172873944043
1761505102092600600,1.1216005859375,0.06242401520907879,-0.4401065506197512,-0.1920635176874697
1761505102102636500,1.131636474609375,-0.06527472846508026,-0.5331147238586098,-0.3094331750489771
1761505102112671500,1.14167138671875,-0.14636252761185167,-0.5457152622345834,-0.2718142230115831
1761505102122707700,1.151707763671875,-0.22137772884666918,-0.5665981835264712,-0.11967676526010036
1761505102132742400,1.161742431640625,-0.3171206608116627,-0.5644033768959343,0.08356485678479075
1761505102142778400,1.1717783203125,-0.3211059310555458,-0.5924681725159288,0.2739303383827209
1761505102152813300,1.181813232421875,-0.21900515449643135,-0.6133893799915909,0.3583103109426796
1761505102162849500,1.191849609375,-0.1014665703088045,-0.565449232687056,0.3533602873198688
1761505102172884500,1.201884521484375,0.10625731171667575,-0.5749992974512279,0.2837750021792948
1761505102182920400,1.21192041015625,0.3267857302576303,-0.6670921824760735,0.23824819962680338
1761505102192955400,1.221955322265625,0.396916082060337,-0.8056398716185241,0.31652517913654443
1761505102202991400,1.231991455078125,0.24017945995032786,-0.8656478386618196,0.4344365421593189
1761505102213026600,1.242026611328125,-0.011884499061107634,-0.8704876799084246,0.5332324319541454
1761505102223062500,1.2520625,-0.23052082024514675,-0.8604339034058153,0.6187368784993886
1761505102233097500,1.262097412109375,-0.3530553130239248,-0.8058126709021628,0.6483269839905202
1761505102243133400,1.272133544921875,-0.4814321020901203,-0.7019836092457175,0.5433084202885627
1761505102253168600,1.282168701171875,-0.41835985210537907,-0.6125627199091017,0.3736947809487581
1761505102263204600,1.29220458984375,-0.23181787431836126,-0.5668710091184824,0.2487972123004496
1761505102273239300,1.3022392578125,0.10305646984875201,-0.5973243073102087,0.1821431583061814
1761505102283275500,1.312275634765625,0.5188052626729012,-0.7010901675373316,0.07988003079220653
1761505102293310500,1.322310546875,0.8471727091640233,-0.8012381295282394,-0.016556582525372503
1761505102303346400,1.332346435546875,1.0512357305943965,-0.9041763067595661,-0.08671703720539808
1761505102313381400,1.34238134765625,1.0529016179800033,-0.9158167679317295,-0.062262833297997706
1761505102323417300,1.352417236328125,0.8605477390438317,-0.9571914923060685,0.006781476833671331
1761505102333452500,1.36245263671875,0.5686456906408072,-1.001494598282501,0.011248393114656209
1761505102343488500,1.372488525390625,0.2752420055031776,-1.0653950427196919,-0.049289808347821235
1761505102353523500,1.3825234375,-0.12537293107509612,-1.1477571726512164,-0.14099354792460797
1761505102363559400,1.392559326171875,-0.3907487916022539,-1.1369923252698033,-0.32413200087845323
1761505102373594600,1.4025947265625,-0.4903390466451645,-0.9954991572599857,-0.510651766833663
1761505102383630600,1.412630615234375,-0.5254951157003641,-0.8669574599556624,-0.6288992299430072
1761505102393665500,1.42266552734375,-0.510603251516819,-0.7636259725578128,-0.6755282946489751
1761505102403701500,1.432701416015625,-0.4513970293104648,-0.6756040632989257,-0.6612725364118814
1761505102413736700,1.44273681640625,-0.5888058506160975,-0.5537967157509177,-0.5577408502668142
1761505102423772700,1.452772705078125,-0.8718640828281641,-0.42933227782286704,-0.3620828152187168
1761505102433807600,1.4628076171875,-1.0127835426032543,-0.35479207368865606,-0.16684636658355592
1761505102443843600,1.472843505859375,-1.0372592276901007,-0.27322452820092435,-0.07997150846794247
1761505102453878500,1.48287841796875,-0.9649252283632754,-0.05934380404613912,-0.048786096609383815
1761505102463914500,1.49291455078125,-0.6990127767413854,0.2642545283470303,-0.05663096489086747
1761505102473949400,1.502949462890625,-0.6217921744167805,0.6022982232652604,0.02957841505333781
1761505102483985400,1.5129853515625,-0.47742286644876003,0.8095765534803271,0.24910335564017294
1761505102494020400,1.523020263671875,0.02148410205543041,0.9136405198711901,0.3619223639599979
1761505102504056600,1.533056640625,0.23888065231144426,1.0178790391113608,0.28194515640363094
1761505102514091500,1.543091552734375,0.4651420615464449,0.9921807534269987,0.16683102288395166
1761505102524127500,1.55312744140625,0.6992044999212026,0.9108478934779762,0.015088701929897069
1761505102534162400,1.563162353515625,0.8484031277418136,0.8614343126200139,-0.26574615514427424
1761505102544198400,1.573198486328125,0.7430337047755717,0.8556124745987356,-0.5075776200853288
1761505102554233600,1.583233642578125,0.49477849039733407,0.8599514536511152,-0.6643558893799781
1761505102564269600,1.59326953125,0.31918986830115315,0.8451036478050052,-0.710269937684387
1761505102574304500,1.603304443359375,0.11468845545351504,0.7839769058648497,-0.6010689737312496
1761505102584340500,1.613340576171875,-0.023806407523155212,0.7042446129802614,-0.49359848683252927
1761505102594375700,1.623375732421875,-0.05895604683756828,0.5670701849523931,-0.4072244178459048
1761505102604411600,1.63341162109375,-0.024675007051229474,0.40287857066132127,-0.32090061774179335
1761505102614446300,1.6434462890625,-0.012598200288414954,0.2954366522699594,-0.21202406343743205
1761505102624482300,1.653482421875,-0.1380389359027147,0.21535181962065397,-0.040569034014642236
1761505102634517500,1.663517578125,-0.1895873368322849,0.19397826526761053,0.08445610653609037
1761505102644553500,1.673553466796875,-0.16798866848647592,0.24205087984539567,0.11759396763667464
1761505102654588400,1.68358837890625,-0.09301263021826743,0.32320933307558297,0.05342983076199889
1761505102664624400,1.693624267578125,-0.07467033331990242,0.30166122587323185,-0.023254472728818653
1761505102674659600,1.70365966796875,-0.0685971508860588,0.1661637911468744,-0.058689212594926356
1761505102684695600,1.713695556640625,-0.11365034457743167,0.06585267448350787,-0.04871434654742479
1761505102694730500,1.72373046875,-0.2845224595457315,0.06340703489705919,0.045645314365625377
1761505102704766500,1.733766357421875,-0.4347007460534572,0.15069580757580697,0.17680384310483932
1761505102714801700,1.7438017578125,-0.5499655400902033,0.27370778167322274,0.25648689002022146
1761505102724837600,1.753837646484375,-0.5628671072393655,0.3360984791345894,0.20395707683786748
1761505102734872600,1.76387255859375,-0.5873772791177034,0.3110017395399511,0.1449023919314146
1761505102744908500,1.773908447265625,-0.5487193394213915,0.18888474152088164,0.1531521877519786
1761505102754943500,1.783943603515625,-0.4111690638184547,0.047628085680678486,0.1632993416264653
1761505102764979700,1.793979736328125,-0.19589958871901034,0.020108137527108192,0.15917422452047467
1761505102775014400,1.804014404296875,-0.11448211922645568,0.11261603309363126,0.10171265402436255
1761505102785050400,1.81405029296875,-0.026593992415070534,0.2123964769463986,-0.025143501345813273
1761505102795085300,1.824085205078125,0.08354103751778602,0.3045373658314347,-0.07759981090053915
1761505102805121500,1.83412158203125,0.12663374479115008,0.42209092839248474,-0.05113222134411335
1761505102815156500,1.844156494140625,0.10104454550445079,0.5418541298270225,-0.0629877865716815
1761505102825192400,1.8541923828125,0.12660568774044512,0.6341421720977872,-0.09607216391935944
1761505102835227400,1.864227294921875,0.18962007005810735,0.7127279252957552,-0.09508636775240302
1761505102845263400,1.874263427734375,0.21067747113406657,0.7370223355315625,-0.07350202019289136
1761505102855298600,1.884298583984375,0.2000491096138954,0.6858019244473427,0.05056903450340032
1761505102865334500,1.89433447265625,0.0533300236493349,0.5912722407296299,0.23371873950362204
1761505102875369500,1.904369384765625,-0.12626198886930942,0.4969703013531863,0.2803044034592807
1761505102885405400,1.914405517578125,-0.3221896346390247,0.4859180883977562,0.25585882124975323
1761505102895440600,1.924440673828125,-0.6380336996436119,0.5054999370284379,0.1281562781833112
1761505102905476600,1.9344765625,-0.7872060239791869,0.4792663023583591,0.05435176791250705
1761505102915511600,1.944511474609375,-0.715768681231141,0.4412138542745262,0.11251140367537736
1761505102925547500,1.954547607421875,-0.6327858621180057,0.39325047222487625,0.18653832452520727
1761505102935582500,1.96458251953125,-0.5803612628757954,0.3517114971995354,0.21717633163407443
1761505102945618400,1.974618408203125,-0.5373930587649345,0.33584435824304815,0.25402663738653064
1761505102955653400,1.9846533203125,-0.46099487873911854,0.34623248126655815,0.3020812048509717
1761505102965689300,1.994689453125,-0.46954292685389515,0.318449206001684,0.2953885753445327
1761505102975724500,2.004724609375,-0.48463002134859556,0.32530835118144746,0.30661840988919137
1761505102985760500,2.014760498046875,-0.4127244765669107,0.37374979907162487,0.27655089614465833
1761505102995795500,2.02479541015625,-0.32917584026455876,0.42024595811292526,0.28066593024805186
1761505103005831400,2.03483154296875,-0.22761516193151474,0.4426726017154753,0.3477269576080143
1761505103015866600,2.04486669921875,-0.17227496750354765,0.44616884633339937,0.3416591820016503
1761505103025902600,2.054902587890625,-0.2047545108258724,0.4078535825949162,0.26665990898832675
1761505103035937500,2.0649375,-0.2360264319241047,0.3173671098534018,0.17015534500107168
1761505103045973500,2.074973388671875,-0.29377134940624233,0.2580008747797459,0.07438274855017661
1761505103056008700,2.0850087890625,-0.35172494120299813,0.18662987526617944,0.023838702357560394
1761505103066044700,2.095044677734375,-0.34121640667021275,0.12095449357833712,0.00886836611032486
1761505103076079600,2.10507958984375,-0.26334581600427626,0.06458857283182441,-0.009893471374362707
1761505103086115600,2.115115478515625,-0.18353461266458032,0.04925901135075837,-0.11082330445796251
1761505103096150300,2.125150390625,-0.16787059506475924,0.063462418346107,-0.27318258875533935
1761505103106186200,2.135186279296875,-0.06928221054077148,0.07890987058579921,-0.40392420725673434
1761505103116221200,2.14522119140625,0.04085691104531288,0.1300431148432195,-0.4456327666953206
1761505103126257200,2.155257080078125,0.12510522004961966,0.16862006172519176,-0.35615970878005027
1761505103136292000,2.1652919921875,0.17406652709543705,0.18879699017219245,-0.19279723878949878
1761505103146328300,2.175328369140625,0.18177753986418246,0.18154928406625986,-0.0714101624801755
1761505103156363000,2.185363037109375,0.17555471982657908,0.15622805153336375,-0.00138575526997447
1761505103166399000,2.19539892578125,0.1842816316395998,0.09729695647396147,0.11249722901955246
1761505103176434000,2.205433837890625,0.14503566292226314,0.045431087093055246,0.1860308133944869
1761505103186469000,2.21546923828125,0.0036199440628290175,-0.024920250516571103,0.22560426050052046
1761505103196505000,2.225505126953125,-0.1283458094060421,-0.1327143798790872,0.24493381487056612
1761505103206540000,2.2355400390625,-0.23851064995527266,-0.20970990474354476,0.27095380678996445
1761505103216576000,2.245575927734375,-0.2848316716253757,-0.24438447389211504,0.2965685789093375
1761505103226611200,2.255611083984375,-0.3704121060162782,-0.26996512454617766,0.31725626989006994
1761505103236647200,2.265647216796875,-0.5113187063097954,-0.3031033875055611,0.3425624144516885
1761505103246682000,2.27568212890625,-0.5239443791270256,-0.3297358487674966,0.33397768758833407
1761505103256718000,2.285718017578125,-0.5012134918808937,-0.32225195928551253,0.3031340749047696
1761505103266753300,2.295753173828125,-0.47560324980616564,-0.32012261910662054,0.28441052360385655
1761505103276789200,2.305789306640625,-0.43087446576356886,-0.29718073772462084,0.2801679175980389
1761505103286824200,2.31582421875,-0.33604747959971426,-0.28243582599740474,0.2877199404127896
1761505103296860200,2.325860107421875,-0.3914268369942903,-0.267050917599909,0.27786943139731884
1761505103306895000,2.33589501953125,-0.45587563602924347,-0.2799497813353315,0.2234207789815962
1761505103316931000,2.34593115234375,-0.3663011635661125,-0.326710071205534,0.19208499886691568
1761505103326966000,2.355966064453125,-0.2502940267294645,-0.3435851085629314,0.20745237160772084
1761505103337002000,2.366001953125,-0.22342589354813097,-0.31255846746265886,0.2342768117778003
1761505103347037200,2.376037109375,-0.23014205006062982,-0.21011366323884575,0.22583792312592266
1761505103357073200,2.3860732421875,-0.09977145682871341,-0.17804485614188015,0.22294088651016353
1761505103367108000,2.396108154296875,0.06777472858726978,-0.20860948748728259,0.18424290706440805
1761505103377144000,2.40614404296875,0.13207798167169094,-0.24685605163741856,0.12369886038303375
1761505103387179300,2.41617919921875,0.15208441238999365,-0.2808767234545201,0.10792363749369978
1761505103397215200,2.42621533203125,0.09359013784527778,-0.32957587243281306,0.11421411594003439
1761505103407250200,2.436250244140625,-0.029838088902831076,-0.3995799675073474,0.13103987079560755
1761505103417286100,2.4462861328125,-0.13731412875950336,-0.5039172344142571,0.14298618304654956
1761505103427321000,2.456321044921875,-0.16513035644590854,-0.581264677988924,0.11576879803612827
1761505103437357300,2.466357421875,-0.175631292194128,-0.6744413761951029,0.031112638883292673
1761505103447392300,2.476392333984375,-0.040491584864258766,-0.7541079103671013,-0.027293080595135688
1761505103457428200,2.48642822265625,-0.032442718443274496,-0.7894036801539361,0.0003230944745242596
1761505103467463000,2.496462890625,-0.21631986093521116,-0.7628204283285885,0.010595482163876294
1761505103477499100,2.5064990234375,-0.314939809641242,-0.7228093204576521,-0.012440087117254733
1761505103487534000,2.5165341796875,-0.26941081513166426,-0.651387832865864,-0.09090060650035739
1761505103497570000,2.526570068359375,-0.3095493487745523,-0.5528550509866327,-0.190022659509629
1761505103507605000,2.53660498046875,-0.41576340587139127,-0.5280684367870911,-0.24978549268543718
1761505103517641000,2.546640869140625,-0.44981472855508325,-0.591586603908427,-0.2360318387515843
1761505103527676200,2.55667626953125,-0.4726601820915937,-0.6449437712930143,-0.19874445675611493
1761505103537712000,2.566712158203125,-0.5171534038126469,-0.6710741647843271,-0.2086119169063866
1761505103547747000,2.5767470703125,-0.4573930548548698,-0.6370593747187405,-0.19624942506998777
1761505103557782300,2.5867822265625,-0.34935879659354685,-0.550564675027132,-0.15191840817332267
1761505103567818200,2.596818359375,-0.3072854954957962,-0.4841810354720801,-0.1617383759200573
1761505103577853200,2.606853271484375,-0.26454817753136156,-0.49049814619701354,-0.18108955760002135
1761505103587889200,2.61688916015625,-0.20629355696141718,-0.5026802034325898,-0.12599004006013273
1761505103597924400,2.62692431640625,-0.12297522228360175,-0.46401568786501884,-0.07361600196138024
1761505103607960300,2.636960205078125,0.027733225578069686,-0.4316490303326398,-0.034645927575975656
1761505103617995000,2.6469951171875,0.017186112600564955,-0.37436281640343366,0.016057839222997427
1761505103628031000,2.657031005859375,-0.026939444851875303,-0.3781678347095847,0.05756517700105905
1761505103638066200,2.667066162109375,-0.06219020645320415,-0.45676878547668454,0.10974471544101834
1761505103648102100,2.67710205078125,-0.0005208090037107468,-0.505174540998973,0.18715967129394412
1761505103658137000,2.68713720703125,-0.009122048610448836,-0.5464866484658792,0.25536124699115753
1761505103668173000,2.697173095703125,-0.0987006127268076,-0.5655021684506908,0.5007094878815114
1761505103678208000,2.7072080078125,-0.2634346633315086,-0.5490888668535276,0.8343572128631174
1761505103688244200,2.717244140625,-0.5034796832472086,-0.48021742907073345,1.0210876989595592
1761505103698279200,2.727279052734375,-0.7548924848735332,-0.36301914622075854,1.00167587313354
1761505103708315100,2.737315185546875,-0.8375707680821418,-0.23010975522622465,0.875227567911893
1761505103718350000,2.74735009765625,-0.8410708851575851,-0.19003800320923328,0.8616264741912484
1761505103728386000,2.757385986328125,-0.8423229310452938,-0.16288791128136218,0.9567330079488455
1761505103738421200,2.767421142578125,-0.8665519478946924,-0.11662852013800293,1.1599145703695715
1761505103748457200,2.777457275390625,-0.9307195919007062,-0.14806907580140977,1.3420631355032324
1761505103758492200,2.7874921875,-1.0179787731587886,-0.22610658399946987,1.4170213458538055
1761505103768528100,2.797528076171875,-1.046027640557289,-0.26368684799429026,1.3810007689237593
1761505103778563000,2.80756298828125,-0.9224041834980249,-0.14981511575113982,1.1841291203022002
1761505103788599000,2.81759912109375,-0.7346475692242384,0.015640892452560364,0.981223598343879
1761505103798634000,2.827634033203125,-0.5092191036820412,0.11301420209836215,0.935947555682063
1761505103808670000,2.837669921875,-0.35430385178029533,0.14659611717201768,0.9440133732378482
1761505103818705200,2.847705078125,-0.31494097868502136,0.10414861246701329,0.9904835941202937
1761505103828740000,2.857739990234375,-0.4561515303611755,0.062227688919380304,0.9437982691824436
1761505103838776000,2.867776123046875,-0.7936042005836963,0.11968502163179218,0.7519646147280931
1761505103848811300,2.877811279296875,-1.0358680655926464,0.18219656899385153,0.43786563982516524
1761505103858847200,2.88784716796875,-1.0118424623608588,0.19793843760285526,0.21237842983305452
1761505103868882200,2.897882080078125,-0.9168494719803333,0.11928469720259308,0.09046513769254087
1761505103878918100,2.907918212890625,-0.7352800219088792,0.03026774902436882,-0.00003068739920854568
1761505103888953000,2.917953125,-0.467502945458889,-0.12356390889175235,-0.1183639290958643
1761505103898989300,2.9279892578125,-0.20852993771135805,-0.27452717176470903,-0.22157471272349355
1761505103909024000,2.93802392578125,-0.14892740966379642,-0.41461544141266493,-0.40431861340180036
1761505103919060200,2.948060302734375,-0.02327449260354042,-0.50766745379325,-0.6264452609196305
1761505103929095000,2.958094970703125,0.18273031054437158,-0.5806842477524653,-0.800357035844773
1761505103939131100,2.968131103515625,0.35536709709763525,-0.6504902995042503,-0.8823800700150429
1761505103949166000,2.978166015625,0.5095575418561696,-0.7063074637942016,-0.8568735805757344
1761505103959202000,2.9882021484375,0.6031798284053802,-0.751044796469435,-0.8015965145118534
1761505103969237000,2.998237060546875,0.6478875696599483,-0.7691764462918043,-0.7074326684318483
1761505103979273000,3.00827294921875,0.6503530829906463,-0.6998295730169862,-0.6526014464393257
1761505103989308200,3.01830810546875,0.5451835665106773,-0.5686409414004534,-0.6107713064476847
1761505103999344000,3.02834423828125,0.4279308135271072,-0.427234136499837,-0.550336273098737
1761505104009379000,3.038379150390625,0.3790104230135679,-0.3313311916675418,-0.48232028310149905
1761505104019414300,3.048414306640625,0.2108767930984497,-0.24307430460900067,-0.40025720918178553
1761505104029450200,3.0584501953125,-0.1506751301139593,-0.16043671873696147,-0.3279521436884999
1761505104039485200,3.068485107421875,-0.5377648146867752,-0.11466558603458106,-0.2649165724523365
1761505104049521200,3.078521240234375,-0.9449036000758408,-0.08287636306397617,-0.20602365397885442
1761505104059556000,3.08855615234375,-1.1069476809442043,-0.07189531564861536,-0.21567922494411468
1761505104069592000,3.098592041015625,-1.0125929884672165,-0.032273718551918865,-0.25715909019336103
1761505104079627000,3.108626953125,-0.7106248886018991,-0.00010309504829347133,-0.32921018092557786
1761505104089663500,3.11866357421875,-0.30904256829619403,0.004407075852528215,-0.35701427978277206
1761505104099698400,3.128698486328125,0.09069324735999107,-0.05921477083899081,-0.34425241336524487
1761505104109734400,3.138734375,0.3469914829403162,-0.09096125064641236,-0.3345828138746321
1761505104119769300,3.148769287109375,0.2947621140092611,-0.008020297913625836,-0.436249144539237
1761505104129805300,3.158805419921875,0.02624035667181015,0.0900081877052784,-0.559362752380222
1761505104139840300,3.16884033203125,-0.15140870508551596,0.17317082036472856,-0.629748247987777
1761505104149876500,3.17887646484375,-0.16628128004670142,0.33217852921187874,-0.7441996798150241
1761505104159911400,3.188911376953125,-0.0771849464893341,0.4899533352632075,-0.8466431323319673
1761505104169947400,3.198947509765625,0.1540524975925684,0.561520149609819,-0.7874700817428529
1761505104179982300,3.208982421875,0.3856465000271797,0.5529871529337018,-0.5899203877292573
1761505104190018300,3.219018310546875,0.5324637856692075,0.5297201129842549,-0.3442239179231226
1761505104200053500,3.229053466796875,0.5215238739818334,0.6142096103332937,-0.14967764350920915
1761505104210088400,3.23908837890625,0.32098318145871163,0.7517715763740241,-0.12180062554627656
1761505104220124400,3.24912451171875,0.14463351186215875,0.8518737264618277,-0.18212854525893926
1761505104230159600,3.25915966796875,0.03188099290728569,0.8683777020171284,-0.21075608932822942
1761505104240195600,3.269195556640625,-0.06829144593775271,0.8918537085421383,-0.17690818026214836
1761505104250230300,3.279230224609375,-0.22569676108956335,0.9406840826846659,-0.11165946302115917
1761505104260266200,3.289266357421875,-0.2748860316723585,0.9758914435356855,-0.07449994518905878
1761505104270301400,3.299301513671875,-0.2556049926191568,1.0072301462598146,-0.05882832880467176
1761505104280337400,3.30933740234375,-0.43137890815436836,1.038779715255648,-0.033353695808351035
1761505104290372400,3.319372314453125,-0.5824070894896983,1.0438777690470218,-0.011123743821680545
1761505104300408300,3.329408203125,-0.7129816808611155,0.927829131156206,-0.012175883223116397
1761505104310443500,3.339443603515625,-0.6944488298267125,0.9456842290595173,-0.01274608432650566
1761505104320479500,3.3494794921875,-0.487790531206131,0.9130204152114689,-0.03890753054320812
1761505104330514400,3.359514404296875,-0.22373919728100297,0.7875032533600926,-0.013074001106619835
1761505104340550400,3.36955029296875,-0.011833061134815215,0.7207549452111125,-0.08518617437630892
1761505104350585300,3.37958544921875,0.2392582534521818,0.6390434612080454,-0.2536962363883853
1761505104360620500,3.38962060546875,0.41446635179817676,0.5436202627167105,-0.43951691416352984
1761505104370656500,3.399656494140625,0.44049043537080285,0.4157799186147749,-0.6271095700472593
1761505104380691500,3.40969140625,0.37995676395297046,0.27452099775224925,-0.8498267308041453
1761505104390727400,3.4197275390625,0.3929401641666889,0.16061141771674156,-0.9873998027607798
1761505104400762400,3.429762451171875,0.381214655059576,0.0816053932800889,-1.0357032304197549
1761505104410798300,3.43979833984375,0.33068449126183985,0.013220862231403589,-1.0212295916482805
1761505104420833300,3.449833251953125,0.3354787398010492,-0.05484904991015792,-0.9627505146726966
1761505104430869200,3.459869140625,0.2755009487003088,-0.10136778610944747,-0.9018278439372778
1761505104440904400,3.469904541015625,-0.02843056019246578,-0.0911909677490592,-0.7900307260110974
1761505104450940400,3.4799404296875,-0.3535568328052759,-0.0679382485859096,-0.6611784283876418
1761505104460975400,3.489975341796875,-0.4973772747188806,-0.035866847673058505,-0.5473343148037791
1761505104471011300,3.50001123046875,-0.5971586684197187,-0.02040273655951023,-0.3508949201196432
1761505104481046500,3.510046630859375,-0.5223065487921238,-0.000036971009522676466,-0.09546090015321969
1761505104491082500,3.52008251953125,-0.39957390309274193,0.06229425134956836,0.11228314787745475
1761505104501117400,3.530117431640625,-0.343474414730072,0.1473617677822709,0.1965811412423849
1761505104511152400,3.54015234375,-0.3289800254315138,0.19348434427082536,0.2154848714157939
1761505104521188600,3.550188720703125,-0.4500824395805597,0.2687999897569418,0.1702864240348339
1761505104531223300,3.560223388671875,-0.48801031143665313,0.3590663900069892,0.0049915246769785876
1761505104541259500,3.570259521484375,-0.4022118503808975,0.4226321225970983,-0.1937140613734722
1761505104551294200,3.580294189453125,-0.266997908771038,0.4214177783712744,-0.3537619999885559
1761505104561330400,3.590330322265625,-0.11647358530461788,0.2795826650559902,-0.43789311235398054
1761505104571365400,3.600365478515625,0.011710311537981032,0.0699492961473763,-0.408762587198615
1761505104581401300,3.6104013671875,0.17020576001405716,-0.08572305773198605,-0.3973229092955589
1761505104591436300,3.620436279296875,0.0835416220396757,-0.1294401805140078,-0.46763095575273034
1761505104601472300,3.63047216796875,0.03361936100721359,-0.14350187748372553,-0.5030839619278907
1761505104611507500,3.640507568359375,0.0785831228494644,-0.081395403791219,-0.49937721636444327
1761505104621543400,3.65054345703125,0.16390636760890484,0.06075535134449601,-0.46179421242326496
1761505104631578400,3.660578369140625,0.24974632971882818,0.17839052777439354,-0.4451218945637345
1761505104641613600,3.670613525390625,0.36541912003457544,0.13857172760516404,-0.37017946630418297
1761505104651649500,3.6806494140625,0.47300797261595723,0.037640140955895185,-0.2660653040960431
1761505104661684500,3.6906845703125,0.4268307433307171,-0.03195683462247252,-0.1886979867771268
1761505104671720400,3.700720458984375,0.2936865937322378,-0.06931435924470425,-0.12413637501746415
1761505104681755400,3.71075537109375,-0.1897673695743084,-0.058893356864899396,-0.01867079820036888
1761505104691791400,3.720791259765625,-0.5828308678597212,-0.047507601106166836,0.10418050544261932
1761505104701826300,3.730826416015625,-0.7475058817535638,0.019298720840364693,0.22690905948877332
1761505104711862300,3.7408623046875,-0.7775514759272336,0.1002108711592853,0.3184413880214095
1761505104721897500,3.7508974609375,-0.5641963100165128,0.16053703730627894,0.3663949793294072
1761505104731933400,3.760933349609375,-0.2024585088431835,0.1858493193477392,0.5106219562172889
1761505104741968400,3.770968505859375,0.20209376718401909,0.21933336353749036,0.6683870445922017
1761505104752004400,3.78100439453125,0.2787473832756281,0.20939941402226686,0.6967989000841974
1761505104762039300,3.791039306640625,0.3918476927548647,0.05954422198906541,0.7123258473008871
1761505104772074500,3.801074462890625,0.5809346788495778,-0.11621537275984882,0.6060130060046911
1761505104782110500,3.8111103515625,0.5953612636089325,-0.21790683786571025,0.41498277688771484
1761505104792145400,3.8211455078125,0.5623474672794342,-0.2712467983871698,0.15477321308255196
1761505104802181400,3.831181396484375,0.5139151525437832,-0.3249503315240145,-0.1024035588979721
1761505104812216600,3.841216552734375,0.4211170418590307,-0.43487581035941836,-0.26167496018260716
1761505104822252500,3.85125244140625,0.32682430870234963,-0.5571608584217727,-0.18703180713057516
1761505104832287200,3.861287353515625,0.08648293618857861,-0.562046584636718,-0.08411153088212013
1761505104842323200,3.8713232421875,-0.037218846803903576,-0.4658740290828049,-0.027948914155364036
1761505104852358400,3.8813583984375,-0.0523585482686758,-0.36812764834091066,0.04574117595553398
1761505104862394400,3.891394287109375,-0.14522797062397003,-0.26605478270202876,0.12020108139514922
1761505104872429300,3.90142919921875,-0.16877601947188375,-0.18962620753794907,0.1930146809324622
1761505104882465300,3.91146533203125,-0.022675942188501358,-0.15044132135808466,0.3225827256098389
1761505104892500500,3.92150048828125,0.18673545453250406,-0.10317235131338238,0.5097670929536223
1761505104902535400,3.931535400390625,0.2409837620705366,-0.06803600987195968,0.7744599396526813
1761505104912571400,3.9415712890625,0.24714696087539195,-0.010555004023015499,0.994395068475604
1761505104922606600,3.951606689453125,0.12156769357323646,0.09789207282289862,0.9370347663968801
1761505104932642600,3.961642578125,0.02311374908387661,0.0765489866733551,0.6855696500614286
1761505104942677500,3.971677490234375,-0.007353285372257232,-0.029541736304759977,0.3786971192806959
1761505104952713500,3.98171337890625,0.09030278673768043,-0.1769469048373401,0.05364946486204862
1761505104962748400,3.99174853515625,0.11046703836619853,-0.3504258413031697,-0.16564853510111568
1761505104972784600,4.00178466796875,0.2985083148002624,-0.5880319436341523,-0.16442337722033262
1761505104982819300,4.0118193359375,0.530728340178728,-0.7734083847731351,-0.014061550839245318
1761505104992854300,4.021854248046875,0.624901830869913,-0.8229122742630541,0.0068038347959518426
1761505105002890200,4.03189013671875,0.5408914222747088,-0.7537085357859731,-0.06331599561274051
1761505105012925400,4.041925537109375,0.5310428129553795,-0.6134937171489,-0.17650719824582337
1761505105022960400,4.05196044921875,0.5110463191092014,-0.47895679801777,-0.2098521262258291
1761505105032996400,4.061996337890625,0.4324573510408401,-0.35164340039938685,-0.1612625751018524
1761505105043031600,4.072031494140625,0.3885305310308933,-0.2402972411110997,-0.10497954686582088
1761505105053067500,4.082067626953125,0.42533319824934,-0.16920257432088254,-0.06357260072231292
1761505105063102500,4.0921025390625,0.43609424623847004,-0.17062091668620705,-0.052614568856358526
1761505105073138400,4.102138427734375,0.3856593595087528,-0.19588292984515426,-0.039029695618152616
1761505105083173600,4.112173583984375,0.4092693676769733,-0.24355711968988178,0.015679507429897783
1761505105093209300,4.122209228515625,0.4526660263329744,-0.27110125243663785,0.0684013360530138
1761505105103244300,4.132244384765625,0.28003333143293857,-0.3039866000808775,0.013450140942633151
1761505105113280300,4.1422802734375,0.0957025999546051,-0.4248118047237396,-0.0534326072409749
1761505105123315500,4.1523154296875,-0.10974983000755309,-0.5456295567125081,-0.019386545254290104
1761505105133350100,4.16235009765625,-0.25370880360901354,-0.6022548225149512,0.10816519116461276
1761505105143386000,4.17238623046875,-0.2751519891321659,-0.6292221782870591,0.1951385412186384
1761505105153421000,4.182421142578125,-0.15821546249091625,-0.59188291997388,0.19529285499751567
1761505105163457300,4.192457275390625,0.005533668729662895,-0.44485900584384797,0.04331073393821716
1761505105173492200,4.2024921875,-0.0726186614871025,-0.24330095297172663,-0.25264935768395663
1761505105183528200,4.212528076171875,-0.16518705506920814,-0.2321697564959526,-0.47262686434388157
1761505105193563100,4.222563232421875,-0.45567865215241904,-0.4538824163854122,-0.5560200178235769
1761505105203599000,4.23259912109375,-0.9545411969929933,-0.7744280832096934,-0.6309338045105338
1761505105213634300,4.24263427734375,-1.3786959991127252,-0.9503203644275665,-0.7742685087338089
1761505105223670300,4.252670166015625,-1.5923586235374212,-0.9316768926255404,-1.0942965814247727
1761505105233705200,4.262705322265625,-1.7053367679417133,-0.699520726263523,-1.496129953882098
1761505105243740400,4.272740478515625,-1.850996115720272,-0.4045024455361068,-1.6832418405115603
1761505105253776400,4.2827763671875,-1.801743132251501,-0.22610475736856459,-1.3580144456118344
1761505105263811300,4.292811279296875,-1.5607207917362451,-0.12886822584494947,-0.7219526305630802
1761505105273847300,4.302847412109375,-1.2599509617447853,-0.047968788877129555,-0.25948300309628247
1761505105283882200,4.31288232421875,-0.8658534442365169,0.05801701242178678,-0.1799064852952957
1761505105293918200,4.322918212890625,-0.35788463287651534,0.17112813555598258,-0.3083925799548626
1761505105303953200,4.332953125,0.060714288681745526,0.2827705013118684,-0.42137130888104435
1761505105313989000,4.342989013671875,0.2331803948432207,0.37656273760050535,-0.3479454226642847
1761505105324024300,4.3530244140625,0.3415449079722166,0.46915831145048137,-0.054256490844488144
1761505105334059300,4.363059326171875,0.6314391236841679,0.4927407009594142,0.17947130874842404
1761505105344095200,4.37309521484375,0.923593685543537,0.4860010174408555,0.26878362314403054
1761505105354130200,4.383130126953125,0.9105418962687254,0.5509963444426655,0.3483446511149406
1761505105364166100,4.393166259765625,0.7091606612682342,0.5656294115595519,0.4136021361842751
1761505105374201300,4.403201416015625,0.6242629484444856,0.4847947103910148,0.5080608735576272
1761505105384237300,4.4132373046875,0.6737678608477116,0.4144985005021095,0.5578069012403488
1761505105394272300,4.423272216796875,0.4839987377077341,0.45408071543648837,0.544139610415697
1761505105404308200,4.43330810546875,0.19460136560201644,0.4920074182488024,0.46915509658008814
1761505105414343400,4.443343505859375,0.09767126967906951,0.4903019295051694,0.38191140515208244
1761505105424379400,4.45337939453125,0.1755406913012266,0.4672182832986116,0.2665218156918883
1761505105434414000,4.4634140625,0.2085410436272621,0.48122459681928154,0.1022989294797182
1761505105444449300,4.47344921875,0.21233926686644553,0.527033138922602,-0.004037000431120395
1761505105454485200,4.4834853515625,0.19915537564456462,0.5230347169362008,-0.0032841362372040745
1761505105464520200,4.493520263671875,-0.12236965760588646,0.48417950110211966,0.07009615727216005
1761505105474556200,4.50355615234375,-0.5216214891374111,0.4416168090522289,0.0821259100228548
1761505105484591400,4.51359130859375,-0.7576461674958467,0.44071883729919786,0.061355509194731706
1761505105494627300,4.52362744140625,-0.8174930256932973,0.5000117148756981,0.004335983377695083
1761505105504662300,4.533662353515625,-0.7294535077124834,0.5603590699411928,-0.08425795361548662
1761505105514698200,4.5436982421875,-0.5832055463910103,0.6148302264496683,-0.19125585456639527
1761505105524733200,4.553733154296875,-0.37238252930641175,0.5745123907171189,-0.2366515780851245
1761505105534769400,4.563769287109375,-0.2027981160610914,0.5060442730382084,-0.2782163451388478
1761505105544804400,4.573804443359375,0.011340309181809425,0.4989385326862335,-0.3194096485316753
1761505105554840300,4.58384033203125,0.1154489184319973,0.5351362197488546,-0.34081191752254963
1761505105564876300,4.593876220703125,0.06926350584030151,0.5217242188595235,-0.392898955373466
1761505105574911200,4.6039111328125,0.05764087258577347,0.4459150907680392,-0.4427072346374392
1761505105584947500,4.613947509765625,0.014993570992350578,0.41315351563394065,-0.48759383959025143
1761505105594982100,4.623982177734375,-0.15289455972909927,0.39906273870021103,-0.4445812118157744
1761505105605018000,4.63401806640625,-0.4271002079218626,0.40862215581461786,-0.40600890457630157
1761505105615053000,4.644052978515625,-0.49007834988236426,0.4605997419416904,-0.370311860512197
1761505105625088300,4.654088134765625,-0.47999943893849845,0.4873328505665064,-0.34890433082431555
1761505105635124200,4.664124267578125,-0.4251993427366018,0.451903079136461,-0.3257499574691057
1761505105645159200,4.6741591796875,-0.17714578841030595,0.40646980008631944,-0.2887631658554077
1761505105655195100,4.684195068359375,0.011100070685148239,0.41996480308398604,-0.29014205299317836
1761505105665230300,4.694230224609375,0.07706161237061024,0.4605658396720886,-0.3428239879973233
1761505105675266300,4.704266357421875,0.12876198899149893,0.49662674861252304,-0.35863764320090413
1761505105685301200,4.71430126953125,0.15232172827720641,0.46991906668990846,-0.3489142676964402
1761505105695337200,4.724337158203125,0.19017887298464775,0.42137656957805153,-0.3068060414157808
1761505105705372400,4.734372314453125,0.18705401896238327,0.40018545911982656,-0.29614480053931475
1761505105715408400,4.744408447265625,0.13593407257795334,0.3760184015907347,-0.3215665343046188
1761505105725443000,4.754443115234375,0.0014595511585474012,0.33667847097963094,-0.2773015683814883
1761505105735479300,4.764479248046875,-0.21675942139625548,0.2681427679572254,-0.14196882269755004
1761505105745514200,4.77451416015625,-0.45361412083804603,0.22786372986510395,-0.03843801333531737
1761505105755549200,4.784549072265625,-0.5543330876499414,0.24594123834744094,0.024195552971214056
1761505105765585200,4.794585205078125,-0.5529103613704442,0.2832266475815326,0.05931757362633943
1761505105775620000,4.8046201171875,-0.5380249269276857,0.29105609909817576,0.16578604387566445
1761505105785656300,4.81465625,-0.5389145692437887,0.24199330443926154,0.36381446131691336
1761505105795691300,4.824691162109375,-0.5949813243806362,0.19580168130248785,0.5058941970430314
1761505105805727200,4.834727294921875,-0.681489979532361,0.1894852646972984,0.49148880120217797
1761505105815762200,4.84476220703125,-0.7593646618515253,0.267163547661528,0.4103831741377711
1761505105825798400,4.85479833984375,-0.819770907497406,0.4046146737389266,0.2729351898655295
1761505105835833300,4.864833251953125,-0.7692904280602931,0.5052680279687046,0.17075740254744887
1761505105845869300,4.874869384765625,-0.6445248152285814,0.542421627516672,0.14554258953109384
1761505105855904300,4.884904296875,-0.41647184640169144,0.5200772553700953,0.1660705599054694
1761505105865939200,4.894939208984375,-0.19344167417287825,0.4762731118917465,0.20812676373794672
1761505105875975200,4.90497509765625,-0.11134323667883872,0.4035713021658361,0.20976605537757276
1761505105886010000,4.915010009765625,-0.1887117230415344,0.3706776250846684,0.15191504717245696
1761505105896046000,4.925046142578125,-0.23985914195477961,0.3558956510163843,0.026548399707674978
1761505105906081300,4.935081298828125,-0.13628186310231685,0.38864137099422513,-0.07506094007268548
1761505105916117200,4.9451171875,-0.0624842209637165,0.43636444148197767,-0.047114948526769874
1761505105926152200,4.955152099609375,0.06511398494541645,0.38454102300330995,0.06598083090782166
1761505105936188200,4.965188232421875,0.14150281262099743,0.2705319281160831,0.21549992285445332
1761505105946223400,4.975223388671875,0.13229016311764716,0.17739523312672972,0.30401085773929953
1761505105956259300,4.98525927734375,0.07536591436862945,0.1599318379547447,0.34897271988540884
1761505105966294300,4.995294189453125,-0.012896306452155112,0.17101035439521073,0.3598582710370421
1761505105976329200,5.0053291015625,-0.28343700239658354,0.19633491139635442,0.354795873080939
1761505105986365400,5.015365478515625,-0.5383879150211811,0.19755926555953918,0.3489046230852604
1761505105996400400,5.025400390625,-0.6491472143322229,0.23602087896615265,0.43034445054009557
1761505106006436400,5.035436279296875,-0.638632250058651,0.2897952123168856,0.5230108976691961
1761505106016471000,5.045470947265625,-0.5842945106714964,0.3515422050472349,0.5491261666566133
1761505106026507300,5.05550732421875,-0.4999824887812137,0.33336196684278546,0.5431136283688247
1761505106036542200,5.065542236328125,-0.3390910850793123,0.30377493009157475,0.59727279631868
1761505106046578200,5.075578125,-0.25066227551996706,0.32112332058176396,0.6048781567558645
1761505106056613000,5.085613037109375,-0.17282441807985305,0.3373344506703317,0.5245610497206449
1761505106066649000,5.095649169921875,-0.19238252050876617,0.31896701933071014,0.4198176496982574
1761505106076684300,5.105684326171875,-0.25092706393599506,0.24758111450895665,0.33994624060392375
1761505106086719200,5.11571923828125,-0.2514665776401758,0.17694463981501757,0.2882822504706681
1761505106096755500,5.12575537109375,-0.20277824231684208,0.15237681946530937,0.242364987295866
1761505106106790700,5.135790771484375,-0.1057195515781641,0.14476415250450372,0.16850202483609317
1761505106116826600,5.14582666015625,0.028678981995582577,0.09070566845014691,0.12173735105171798
1761505106126861600,5.155861572265625,0.14011983382999896,0.008590425951778889,0.11152926077023148
1761505106136897500,5.1658974609375,0.16570611050724982,-0.10037738683260977,0.0590291120737791
1761505106146932500,5.175932373046875,0.1230687457859516,-0.2085605520453304,-0.01847001493126154
1761505106156968700,5.18596875,0.0747971745699644,-0.25206308222860097,-0.0981025007031858
1761505106167003400,5.19600341796875,0.050933483901619905,-0.2576568105824292,-0.1876423402443528
1761505106177039400,5.206039306640625,-0.015706103175878523,-0.2871625257257372,-0.22184666153267024
1761505106187074300,5.21607421875,-0.041376551005244254,-0.3580812514271587,-0.23191066716834902
1761505106197109500,5.226109619140625,-0.09745499657988548,-0.3653411594275385,-0.2530041624709964
1761505106207145500,5.2361455078125,-0.16566870110630988,-0.3303624197006225,-0.28720380758419634
1761505106217180400,5.246180419921875,-0.1659293978691101,-0.3037139206193387,-0.29186551578491926
1761505106227216400,5.25621630859375,-0.12751461927890778,-0.2751534504368901,-0.2606070386901498
1761505106237251600,5.26625146484375,-0.16875965285897254,-0.26396065996699036,-0.23786577618047594
1761505106247287600,5.27628759765625,-0.2557651516169309,-0.246226485029608,-0.24532880553752182
1761505106257322500,5.286322509765625,-0.20270926873385905,-0.2236083374429494,-0.21764687175527214
1761505106267358500,5.2963583984375,-0.2986369096159935,-0.1908360217191279,-0.17865458553805946
1761505106277393700,5.3063935546875,-0.4435159206718206,-0.20025135418772697,-0.13698855006694793
1761505106287429600,5.3164296875,-0.49653322511017317,-0.23556166395656764,-0.07853665335923433
1761505106297464600,5.326464599609375,-0.49658758564591404,-0.29464623254463074,-0.07581336587518453
1761505106307499500,5.33649951171875,-0.36389760955572126,-0.31842034523338075,-0.01850464785322547
1761505106317535500,5.346535400390625,-0.1845563569277525,-0.270803584664315,0.15564356617629527
1761505106327570400,5.3565703125,0.024004560443758965,-0.22004684556908904,0.22905849260762332
1761505106337606400,5.3666064453125,0.1525268954604864,-0.22230952980406582,0.319403657182306
1761505106347641300,5.376641357421875,0.17308745293021202,-0.2557270846288651,0.31901451173424716
1761505106357677600,5.386677490234375,0.1839028614550829,-0.2717719913050532,0.28961817524954675
1761505106367712500,5.39671240234375,0.10422843623757362,-0.2652587369535118,0.32319983459487556
1761505106377748500,5.40674853515625,-0.017196633994579314,-0.21047537269070743,0.32894583090096713
1761505106387783400,5.416783447265625,-0.08913958817720413,-0.14588037011809646,0.3261865953207016
1761505106397819400,5.4268193359375,-0.17079788068830967,-0.15285451997965574,0.2657420634910464
1761505106407854600,5.4368544921875,-0.20201602577269076,-0.2010319101061672,0.2058621798068285
1761505106417889500,5.4468896484375,-0.29056057066619395,-0.24400953963249922,0.14287790036648512
1761505106427925500,5.456925537109375,-0.3694821316897869,-0.2543647102344781,0.0635042116612196
1761505106437960400,5.46696044921875,-0.3615840719163418,-0.26644772754237056,-0.0257195476680994
1761505106447996400,5.476996337890625,-0.3166787622630596,-0.29073804612495,-0.06637509092241525
1761505106458031400,5.48703125,-0.21562427988648414,-0.3022987931244075,-0.10331877404674887
1761505106468067300,5.4970673828125,-0.0023123685956001282,-0.33707031984142954,-0.07341404964849352
1761505106478102500,5.5071025390625,0.21570260581970213,-0.3917945012629032,-0.03891659063249826
1761505106488138500,5.517138427734375,0.32466625388562675,-0.45754649185091256,-0.007284165658801794
1761505106498173400,5.52717333984375,0.33402211125195025,-0.5104331556469202,-0.0010065466940402984
1761505106508209400,5.53720947265625,0.28409049786925317,-0.5482571287371217,0.0599134936928749
1761505106518244600,5.54724462890625,0.1304109252423048,-0.5636647604230791,0.09982406379878521
1761505106528279600,5.557279541015625,-0.03601473171114921,-0.5544143361926078,0.1092955103687942
1761505106538315500,5.5673154296875,-0.1262578972160816,-0.5643585148409008,0.09976488095745444
1761505106548350500,5.5773505859375,-0.3012280951529741,-0.6037191229138523,0.030959201887249946
1761505106558386700,5.58738671875,-0.30621991209089755,-0.6426314757626503,0.02396875847801566
1761505106568421600,5.597421630859375,-0.21717501645982265,-0.6601805033914745,0.07063581710681319
1761505106578457600,5.60745751953125,-0.21363865902721882,-0.6606480478379875,0.11369652180671691
1761505106588492300,5.6174921875,-0.2035211696386337,-0.6554343317776918,0.11249605997577308
1761505106598528500,5.627528564453125,-0.20219138233959674,-0.6442272205214947,0.07896656920909881
1761505106608563500,5.6375634765625,-0.2879460042536259,-0.6220108586687594,-0.003641571372747421
1761505106618598400,5.647598388671875,-0.3608458207696676,-0.5912343198720366,-0.06619754239842296
1761505106628634400,5.65763427734375,-0.3931716348350048,-0.6220141466043889,-0.02965805616080761
1761505106638669600,5.667669677734375,-0.31553426840305326,-0.6822066033691168,0.0528041000790894
1761505106648705500,5.67770556640625,-0.18778584036827087,-0.7131345333352684,0.13324468736350537
1761505106658740500,5.687740478515625,-0.08689385507702826,-0.7081473925724625,0.15421820954829454
1761505106668776400,5.6977763671875,-0.10027122304439544,-0.6795777161702513,0.190501967459172
1761505106678811600,5.707811767578125,-0.32433132284283633,-0.6332637087628245,0.15026231152936814
1761505106688847600,5.71784765625,-0.33319793538749215,-0.5786204836230725,0.04840864159911871
1761505106698882600,5.727882568359375,-0.19642273581027983,-0.4812203590355813,-0.02119812472090125
1761505106708918500,5.73791845703125,-0.15916004986464977,-0.3011562720257789,-0.1560137146629393
1761505106718953700,5.74795361328125,-0.11479834556877612,-0.15196465846784413,-0.23931641338020562
1761505106728988400,5.757988525390625,-0.12278759075701236,-0.16236388740725816,-0.17118600322306154
1761505106739024400,5.7680244140625,-0.23645488646924495,-0.29438217478096484,-0.06814370803013443
1761505106749059300,5.778059326171875,-0.4826239422231912,-0.4493977452520281,-0.0345503582470119
1761505106759095600,5.788095458984375,-0.8278069144368171,-0.5105832316420972,-0.020195669680088756
1761505106769130500,5.798130615234375,-1.1409960810184478,-0.46541671376936133,-0.04455868817269802
1761505106779166500,5.80816650390625,-1.376909700217843,-0.3874626826036721,-0.0034603695869445798
1761505106789201400,5.818201416015625,-1.519573373311758,-0.36287206590026616,0.15869886209368705
1761505106799237400,5.8282373046875,-1.4834978513240813,-0.34065935730934144,0.41873643033280966
1761505106809272600,5.8382724609375,-1.2665116354346275,-0.26479645320400597,0.6811722918853164
1761505106819307500,5.8483076171875,-1.0221113429188728,-0.13505378261208534,0.8411381051748991
1761505106829343500,5.858343505859375,-0.803534058445692,0.01931442986615002,0.8785666492067277
1761505106839378700,5.868378662109375,-0.58072542001307,0.11866466560810804,0.8029574276015162
1761505106849414700,5.87841455078125,-0.3735895670086145,0.137261667919904,0.6523617924645543
1761505106859449300,5.888449462890625,-0.2270844160556793,0.125189902658388,0.5201636915445328
1761505106869485300,5.8984853515625,-0.1408598385423422,0.13486907369494439,0.3384092402949929
1761505106879520500,5.9085205078125,-0.043676060119271276,0.15285919615477322,0.1083247656404972
1761505106889556500,5.918556396484375,0.05081541047990322,0.18355412108264862,-0.029434768798947332
1761505106899591400,5.92859130859375,0.1771528026729822,0.1869375529758632,-0.08469371468424797
1761505106909627400,5.93862744140625,0.28094986175596715,0.1545358971953392,-0.05975859539210796
1761505106919662600,5.94866259765625,0.3344523193627596,0.09361234967708587,0.03336538624614477
1761505106929697500,5.958697509765625,0.313404855158925,0.019541151294112203,0.13465221607387065
1761505106939733500,5.9687333984375,0.22964053027927875,0.01036963751874864,0.16104191808849572
1761505106949768400,5.9787685546875,0.06923018809258938,0.05935030685216188,0.1810506868943572
1761505106959804400,5.988804443359375,-0.02477203768491745,0.1619882590278983,0.14490151514858007
1761505106969839600,5.998839599609375,-0.0758650960624218,0.28064875991754235,0.14009002321362496
1761505106979875600,6.00887548828125,-0.10983575472533702,0.3209189571160823,0.16654489941895007
1761505106989910500,6.01891064453125,-0.08346212706267833,0.30431904690563677,0.21301731225848197
1761505106999946500,6.028946533203125,-0.03810615103244781,0.2793943028770387,0.19819822105020282
1761505107009981400,6.0389814453125,-0.0023135376393795012,0.27387181312851605,0.07197890227884053
1761505107020016400,6.049016357421875,-0.047796939441561694,0.2716105171330273,0.0015875614523887633
1761505107030052400,6.05905224609375,-0.15722586693167687,0.2735437502179295,-0.021584932081401345
1761505107040087600,6.069087646484375,-0.15620762979984282,0.27123006644807757,0.023899346503615377
1761505107050123500,6.07912353515625,-0.16839724928736685,0.2861864472351968,0.014703940396010876
1761505107060158500,6.089158447265625,-0.2579500944405794,0.30675942579507826,-0.11087503464519977
1761505107070194400,6.0991943359375,-0.32467151458263394,0.29528299607820807,-0.273193548540771
1761505107080229600,6.109229736328125,-0.30805881795585155,0.3158348587848246,-0.4136196718409657
1761505107090265600,6.119265625,-0.3238473387181759,0.2985775806441903,-0.5138038011237979
1761505107100300500,6.129300537109375,-0.36294366983175275,0.2710196385677904,-0.5232184029400349
1761505107110335500,6.13933544921875,-0.3687397888898849,0.23018881181180476,-0.5363333205789327
1761505107120371500,6.149371337890625,-0.3604787410229444,0.21872239203229546,-0.5942910040289163
1761505107130406400,6.159406494140625,-0.39946518202126025,0.27828794907033444,-0.6085647363141179
1761505107140442600,6.169442626953125,-0.3962123177051544,0.320962869323045,-0.6146197985693812
1761505107150477300,6.179477294921875,-0.3052414224475622,0.3549517212297767,-0.5487415512531996
1761505107160513300,6.18951318359375,-0.24757892255187033,0.3545527119748294,-0.44147593927681444
1761505107170548500,6.199548583984375,-0.16552081706821917,0.3220822287417948,-0.31540245871692896
1761505107180583400,6.20958349609375,-0.06915653833448887,0.29714126423075793,-0.2357458614170551
1761505107190619400,6.219619384765625,-0.04186813391447067,0.35089192444495854,-0.23738193818628786
1761505107200654600,6.229654541015625,-0.011812018346786498,0.4778587736479938,-0.3282011500135064
1761505107210690600,6.239690673828125,-0.12245382875800132,0.4273546210743487,-0.43162966804504393
1761505107220725500,6.2497255859375,-0.04584697441756725,0.6741515994682907,-0.5119564196914435
1761505107230761500,6.259761474609375,0.04684475328326225,0.5958969779208302,-0.539891305321455
1761505107240796700,6.269796630859375,0.012623919251561163,0.6002431904315948,-0.540111377812922
1761505107250832600,6.27983251953125,-0.035652328139543533,0.4870326985761523,-0.5963955750927329
1761505107260867600,6.28986767578125,-0.0009147767573595046,0.39477746259644625,-0.6779939541101455
1761505107270902300,6.29990234375,0.08362053249478339,0.30606808253005147,-0.8144736778721213
1761505107280938500,6.3099384765625,0.1796791062802076,0.3138996529385447,-0.9652759414970874
1761505107290973400,6.319973388671875,0.3085825495690107,0.41530981688499446,-1.124594689054787
1761505107301009400,6.330009521484375,0.3478969073474407,0.46502997947409747,-1.2640911302894353
1761505107311044400,6.34004443359375,0.39610242758989334,0.4511037454523146,-1.3051014783307908
1761505107321080300,6.350080322265625,0.4300970516502857,0.5133582493133843,-1.1703300197914241
1761505107331115500,6.360115478515625,0.3559714927315712,0.5893544244095683,-1.0373632725864648
1761505107341151500,6.3701513671875,0.23207506394982336,0.5074916953675449,-0.8295359301865101
1761505107351186400,6.3801865234375,0.01638648665547371,0.4350884301967919,-0.5094160875588655
1761505107361221600,6.3902216796875,-0.42945290852785106,0.42826179904714223,-0.4058522527098655
1761505107371257600,6.400257568359375,-0.8572112880975008,0.5101498086608947,-0.34694442892819644
1761505107381292500,6.41029248046875,-1.040037460231781,0.5796108828999101,-0.3850488263949752
1761505107391328500,6.42032861328125,-1.1304787786573172,0.5213787664227187,-0.4533972632169723
1761505107401363700,6.43036376953125,-1.050388173854351,0.44612668769210573,-0.4826628129288554
1761505107411399700,6.440399658203125,-0.899408507835865,0.38011049320995804,-0.4128066018924117
1761505107421434400,6.450434326171875,-0.6467015747457743,0.27002514763772484,-0.2537225398734212
1761505107431470300,6.46047021484375,-0.3587280979633331,0.11654694280177354,-0.05759878700971603
1761505107441505500,6.470505615234375,-0.14137012615203856,-0.04061842611432075,0.07492518486380577
1761505107451540500,6.48054052734375,-0.07396189278960227,-0.14430267247259615,0.08451222063750029
1761505107461576400,6.490576416015625,-0.09966215123534201,-0.14964052636921404,-0.08161269980370998
1761505107471611400,6.500611328125,-0.19334990423619747,-0.18582462329789995,-0.23679741629660128
1761505107481647600,6.510647705078125,-0.1927075146794319,-0.3156330526024103,-0.28997283390611406
1761505107491682600,6.5206826171875,-0.16393734726905823,-0.4577250632882118,-0.3477124906912446
1761505107501718500,6.530718505859375,-0.16419278333485127,-0.6175030989207327,-0.356523865917325
1761505107511753500,6.54075341796875,-0.22186288201510904,-0.7646184907265007,-0.3591489537239074
1761505107521789400,6.55078955078125,-0.43979719240963455,-0.7497469386786222,-0.44380233639776706
1761505107531824600,6.56082470703125,-0.6807113963752984,-0.6118591016843915,-0.6453399310037493
1761505107541859300,6.570859375,-0.9446405652254819,-0.5477677377849817,-0.6891489698529243
1761505107551895300,6.580895263671875,-1.0183329934239387,-0.5588036571927368,-0.5080778246924281
1761505107561930500,6.590930419921875,-0.9884686010360717,-0.5365440407201647,-0.2549903678521514
1761505107571966500,6.600966552734375,-0.8708037601202726,-0.4943797003380954,0.02020721398741007
1761505107582001400,6.61100146484375,-0.586298251709342,-0.4022361080393195,0.2482403090700507
1761505107592037400,6.621037353515625,-0.3004857523530721,-0.2213838663265109,0.39902036086320875
1761505107602072600,6.631072509765625,-0.04708616082370281,0.01974821817353368,0.49299540637284517
1761505107612107500,6.641107421875,0.18280279125869273,0.29036081031039357,0.5798457145690917
1761505107622143500,6.6511435546875,-0.016713818913698195,0.48526700407788154,0.7855217241540551
1761505107632178400,6.661178466796875,0.07984335204362869,0.6436886566653848,0.933387057544291
1761505107642214700,6.671214599609375,0.33005203857719895,0.8200660910516977,0.9627902621611952
1761505107652249600,6.68124951171875,0.5761567969232797,0.965071651096642,0.905195566804707
1761505107662285600,6.69128564453125,0.827089121556282,0.9616925300523638,0.8317439616248011
1761505107672320500,6.701320556640625,0.9869587809950112,0.9275959069222212,0.8617872177109122
1761505107682355500,6.71135546875,0.9071662823557853,0.8906430175781249,1.0882847737893462
1761505107692391400,6.721391357421875,0.7459031227320432,0.7828595192074775,1.3917498342141508
1761505107702426400,6.73142626953125,0.9224556214243173,0.7379749600812793,1.4669360081017015
1761505107712462300,6.74146240234375,1.0893582482397555,0.8072630158409476,1.2980343164235353
1761505107722497500,6.75149755859375,1.150275950539112,0.8865592553958296,0.964416986580193
1761505107732533500,6.761533447265625,1.2239520121246577,0.9033557841569184,0.6613225130334496
1761505107742568400,6.771568359375,1.2074147188216446,0.8052642432391643,0.45551586280614137
1761505107752604400,6.7816044921875,1.1577946556061505,0.5671238879010081,0.3246130623936653
1761505107762639600,6.7916396484375,1.166475390189886,0.42960780682861804,0.2602715231254697
1761505107772674600,6.801674560546875,1.2509779662162064,0.41657004607915876,0.228043616476655
1761505107782710500,6.81171044921875,1.2881740166664122,0.3653741118490696,0.20455431207865477
1761505107792745500,6.821745361328125,1.216608663624525,0.24579700757116077,0.3152583740711212
1761505107802781700,6.83178173828125,1.0020119732201098,0.047345104020833965,0.3707411918401718
1761505107812816400,6.84181640625,0.7465794145584106,-0.220061385551095,0.159577398493886
1761505107822852600,6.8518525390625,0.4885539167940616,-0.4889014150574803,-0.2037277981266379
1761505107832887300,6.86188720703125,0.18149989196658134,-0.7223029053054749,-0.6003261925399304
1761505107842922500,6.871922607421875,-0.0806751266926527,-0.8532282098107039,-0.8329331714093685
1761505107852958500,6.88195849609375,-0.46448447442054747,-0.8147646236427127,-0.9350181658774613
1761505107862993400,6.891993408203125,-0.8520669109463691,-0.7152060789123177,-1.0096066661328076
1761505107873029400,6.902029296875,-0.8936141423434019,-0.6072071842253208,-1.0595195748150348
1761505107883064600,6.912064697265625,-0.6393710857272148,-0.5276113772019744,-1.067016652572155
1761505107893100500,6.9221005859375,-0.38113866721391676,-0.46528088549524543,-0.9767574127152562
1761505107903135500,6.932135498046875,-0.17756138347387312,-0.4079245289392769,-0.709131142912805
1761505107913170700,6.942170654296875,0.029894203004240987,-0.38699090037345885,-0.2974637741833925
1761505107923206700,6.95220654296875,0.15967852078080177,-0.3156622786968946,0.017878771039843557
1761505107933241600,6.96224169921875,0.22126666968762873,-0.15283172362595795,0.14533902978301047
1761505107943277600,6.972277587890625,0.3206207778871059,0.06077946287244558,0.2042319482564926
1761505107953312500,6.9823125,0.49880058552026746,0.22591084223166108,0.26695699223875996
1761505107963348500,6.992348388671875,0.5476894118517637,0.34127807372957464,0.37057840249389407
1761505107973383400,7.002383544921875,0.6034007776796817,0.40341947260499,0.5277028548777103
1761505107983419400,7.01241943359375,0.8152613211184739,0.3886116334430873,0.6473112310767173
1761505107993454300,7.022454345703125,0.9540361700803041,0.31732173634171484,0.6294611016094684
1761505108003489500,7.032489501953125,0.9992705655574798,0.25276567754000423,0.49185704999268054
1761505108013525500,7.042525390625,0.9943366162866354,0.15696107851564883,0.311985636010766
1761505108023560400,7.052560546875,1.0572107133507729,0.05456190353184938,0.10399579652547836
1761505108033596400,7.062596435546875,0.886905584615469,0.032908728519827124,-0.15666063426434992
1761505108043631600,7.072631591796875,0.552151651957631,-0.020360650983452796,-0.3366387234911322
1761505108053667600,7.08266748046875,0.32988661888241766,-0.1338904379211366,-0.4246978229552507
1761505108063702500,7.09270263671875,0.2170598656475544,-0.2522739485003054,-0.39400107139647006
1761505108073737500,7.102737548828125,0.0920773951947689,-0.3254343156486749,-0.3004462971255183
1761505108083773400,7.1127734375,-0.1618681397795677,-0.354049000236392,-0.2490288290992379
1761505108093807900,7.122807861328125,-0.3359878583669662,-0.35449104491546746,-0.1919736474469304
1761505108103843800,7.13284375,-0.39432255843579767,-0.3553067452125251,-0.16124796205461026
1761505108113879000,7.142879150390625,-0.6352852777183056,-0.4027905270516872,-0.14566723882406948
1761505108123915000,7.1529150390625,-0.7386679107815027,-0.5314392649270594,-0.12410948701053857
1761505108133949700,7.16294970703125,-0.7644517558574676,-0.6639855947628617,-0.058304304930567735
1761505108143985000,7.17298486328125,-0.8262006482839583,-0.7436784324198961,-0.11111936479508876
1761505108154020900,7.183020751953125,-0.7443208219766616,-0.8168633494876325,-0.2526741998642683
1761505108164055800,7.193055908203125,-0.564690231013298,-0.8892954023614525,-0.3672130177140236
1761505108174091800,7.203091796875,-0.4054015863329172,-0.931249753254652,-0.4209454846844077
1761505108184127000,7.213126953125,-0.1809527794778347,-0.9697381816029548,-0.5038698516085743
1761505108194163000,7.223162841796875,0.008927402821183204,-0.9918281405970454,-0.6056596625223756
1761505108204198000,7.233197998046875,0.21406536000669002,-1.0101754059314727,-0.682314155396819
1761505108214232800,7.24323291015625,0.5324672928005456,-1.0817731999382376,-0.7849117755621671
1761505108224268800,7.253268798828125,0.7914554981172084,-1.1339183977171778,-0.9566858078062533
1761505108234304000,7.263303955078125,0.6186492002159357,-1.1490063689947128,-1.3230565294772385
1761505108244340000,7.273340087890625,0.10748246959745883,-1.220248043040186,-1.7725439257740974
1761505108254375000,7.283375,-0.7028858187824487,-1.3664531881332396,-2.0622949336230754
1761505108264411000,7.293410888671875,-1.8747545924484728,-1.509386618079245,-2.1602444357216357
1761505108274445800,7.30344580078125,-2.692843245947361,-1.6318766871944068,-2.029587426763773
1761505108284480800,7.313480712890625,-2.851891067609191,-1.5755455820329487,-1.7078727161601184
1761505108294516700,7.323516845703125,-2.4657944857269523,-1.069318938165158,-1.2696844202518462
1761505108304552000,7.333552001953125,-1.8417238449841737,-0.4302442050360143,-0.7224968204423785
1761505108314588000,7.343587890625,-1.2180921801805495,0.009003829058259725,-0.15184154354482887
1761505108324622800,7.353622802734375,-0.5636953747570514,0.2319381396971643,0.3250011849284172
1761505108334658800,7.363658935546875,0.022142273703217506,0.33328283719196916,0.6259264977425336
1761505108344694000,7.373694091796875,0.3898410291075706,0.39392815229073164,0.7222939913466573
1761505108354729000,7.38372900390625,0.6897773308843373,0.4069511538624763,0.6812564630374311
1761505108364765000,7.393764892578125,0.8809726874351501,0.39949221615865826,0.6302297478944063
1761505108374800000,7.4037998046875,0.8949445141643285,0.4256706135101616,0.6179881059587001
1761505108384835800,7.4138359375,0.7412929985880852,0.5303700282603502,0.6466673802152275
1761505108394870800,7.423870849609375,0.6228215174645185,0.7068431781060993,0.7228481180980801
1761505108404906800,7.43390673828125,0.5304331566244364,0.8541042619928717,0.7743307603150605
1761505108414941700,7.443941650390625,0.3601800503373146,0.9196322345666587,0.8252163134217262
1761505108424977000,7.453976806640625,0.14919687425494194,0.9174621970511972,0.8967989098593592
1761505108435012900,7.464012939453125,0.007026537635922431,0.8385393208533525,0.8381348317056894
1761505108445047800,7.4740478515625,0.09321779740154743,0.6854831408217549,0.659016574178636
1761505108455083800,7.484083740234375,0.07055763730406761,0.6032635611660778,0.39424686285108324
1761505108465119000,7.494118896484375,-0.05219079048633575,0.5386912818819284,0.057657239198684686
1761505108475155000,7.504155029296875,-0.031954642665386196,0.4306766051039099,-0.22152064444869754
1761505108485190000,7.51418994140625,-0.04055471322834491,0.3811943429239094,-0.40673575754612684
1761505108495224800,7.524224853515625,-0.1577642115920782,0.3481086504019797,-0.552813915258646
1761505108505261000,7.534260986328125,-0.25176935997903344,0.33038302409723397,-0.6158782741978764
1761505108515296000,7.5442958984375,-0.4016512938886881,0.34916444306522604,-0.5916591942206024
1761505108525332000,7.55433203125,-0.4541185632288456,0.3710905167344957,-0.6390677188664674
1761505108535366700,7.56436669921875,-0.34751579907536506,0.41196978574208915,-0.7294120066583156
1761505108545403000,7.57440283203125,-0.15232348184287547,0.45192967488244173,-0.7966516054555773
1761505108555437800,7.584437744140625,0.004109773406386375,0.4590387762352824,-0.785572285297513
1761505108565472800,7.59447265625,0.01414426068663597,0.37029483631215987,-0.7519467868104577
1761505108575508700,7.6045087890625,-0.053718730705976485,0.2681343654550612,-0.7584080917790532
1761505108585544000,7.6145439453125,-0.0858598358541727,0.2630812467839569,-0.7419371417105197
1761505108595580000,7.624579833984375,-0.12084580903947352,0.3525356730639934,-0.6697364133745431
1761505108605614800,7.63461474609375,-0.17215806312561033,0.46970739670060574,-0.5085825593441724
1761505108615650000,7.644650146484375,-0.16161445727944374,0.5809056719508022,-0.33848990431576964
1761505108625686000,7.65468603515625,-0.07959668380618094,0.6645226242490112,-0.17457856827080248
1761505108635721000,7.664720947265625,-0.01818155337870121,0.7401685246028006,-0.03814765208661556
1761505108645757000,7.6747568359375,-0.037595278900861735,0.8020224848389625,-0.02106499986052513
1761505108655791900,7.6847919921875,-0.04072656266391277,0.7932914083074778,0.040471564989536996
1761505108665827800,7.694827880859375,-0.06271627615392207,0.7852408613860606,0.11073679521828889
1761505108675862800,7.70486279296875,-0.07415361596941948,0.7976543527573347,0.14071867650598285
1761505108685897700,7.714897705078125,-0.056332712596654885,0.8640519477725028,0.12950009400770068
1761505108695933700,7.72493359375,0.0014379238486289978,0.96820607666485,0.11796528516709803
1761505108705969000,7.734968994140625,0.015524901390075682,1.0444022313125432,0.09612696284651756
1761505108716004900,7.7450048828125,-0.016219313395023346,1.0509181890778243,0.03288958542793989
1761505108726039800,7.755039794921875,-0.11898878299593925,1.0051773053832351,-0.004779050970077514
1761505108736075800,7.76507568359375,-0.35695290498435495,0.9357834511615335,-0.001336655431240797
1761505108746111000,7.775111083984375,-0.523984711137414,0.8540529701970517,-0.01490238557755947
1761505108756146000,7.78514599609375,-0.576273701301217,0.7871681031215936,-0.039173634133487935
1761505108766182000,7.795181884765625,-0.6025742637276649,0.7154071544423699,-0.09326938145831226
1761505108776217000,7.805217041015625,-0.532037669211626,0.6725339351385832,-0.09914499549344181
1761505108786253000,7.815253173828125,-0.4134013529151678,0.6962981109552085,-0.024231062676012514
1761505108796287700,7.825287841796875,-0.2742114934116602,0.7119010460175573,-0.012310030996799469
1761505108806323700,7.83532373046875,-0.19508885685801505,0.7169749882809817,0.06700286743193865
1761505108816359000,7.84535888671875,-0.2953244240671396,0.6202505709979683,0.14995485301539302
1761505108826393900,7.855393798828125,-0.45002281834781166,0.43969647198151796,0.19556071215346454
1761505108836429800,7.865429931640625,-0.5723819545596838,0.3014014058932662,0.18677768623903393
1761505108846464800,7.87546484375,-0.6812894885241985,0.2828644632056355,0.07035802307873965
1761505108856501000,7.8855009765625,-0.7253536711782217,0.3432380121583119,-0.10905074182748795
1761505108866536000,7.895535888671875,-0.6221896493017673,0.3485775100227445,-0.2177985551856458
1761505108876571000,7.90557080078125,-0.4892699561089277,0.3218008179845288,-0.30147593243420123
1761505108886606800,7.91560693359375,-0.27424247307181354,0.2655914395065978,-0.3748354754164815
1761505108896642000,7.92564208984375,-0.09176584502756595,0.2693751227637753,-0.3847008897401392
1761505108906678000,7.935677978515625,0.10028934322297572,0.34896318487208333,-0.34509310197308657
1761505108916712700,7.945712646484375,0.27086919724643227,0.4071689978642389,-0.3163799254469573
1761505108926748700,7.955748779296875,0.3627916941404342,0.42301304820608343,-0.22924612413421272
1761505108936784000,7.965783935546875,0.28511399569809437,0.3652938131544739,-0.09603826164975762
1761505108946818800,7.97581884765625,0.12893676103651522,0.26487843239903447,-0.013459639423340558
1761505108956854800,7.985854736328125,-0.001928337714076042,0.1662210742920637,0.07072787930443883
1761505108966890000,7.995889892578125,-0.24700492205619812,0.09193710994124411,0.1592271237514913
1761505108976926000,8.005926025390625,-0.35911037527918815,0.08579776693601161,0.1765343785136938
1761505108986960000,8.0159599609375,-0.39971594191193577,0.13974077138453722,0.1916368167079985
1761505108996995800,8.025995849609375,-0.35031390536129475,0.17492822195868937,0.25842852560728785
1761505109007031000,8.036031005859375,-0.13526304144859314,0.135298697283864,0.24740005885362623
1761505109017065700,8.046065673828124,0.009587328034639358,0.06680221202699467,0.20352628420516847
1761505109027101700,8.056101806640624,0.013687749090790747,0.008242050905525685,0.1632005574271083
1761505109037137000,8.066136962890624,-0.024026187753677368,-0.02230864324606955,0.03745265555977821
1761505109047172900,8.0761728515625,-0.11022913795709609,-0.06141859189304523,-0.06117357675656676
1761505109057207800,8.086207763671876,-0.21116145525872707,-0.11582797174430452,-0.04986790049672127
1761505109067243800,8.096243896484374,-0.2572264563411474,-0.18735358643084762,-0.0230475519798696
1761505109077279000,8.106279052734376,-0.2629208685904741,-0.26091559318266805,-0.034003391888737675
1761505109087314000,8.11631396484375,-0.3183896578341722,-0.3140802702024579,-0.07277239074409007
1761505109097349600,8.126349609375,-0.3414046227186918,-0.3769711722709238,-0.17660978183746337
1761505109107384600,8.136384521484375,-0.267173265337944,-0.4044561952415853,-0.24341215826123952
1761505109117420800,8.1464208984375,-0.17237433622479437,-0.3950635129962116,-0.20233985089957712
1761505109127455700,8.156455810546875,-0.1046428622573614,-0.3858662071924656,-0.12107801036015152
1761505109137490700,8.16649072265625,-0.08820435315370559,-0.40432394716404374,-0.08946049069464206
1761505109147526700,8.176526611328125,-0.07790098580420017,-0.40076822744384405,-0.08425093935281038
1761505109157561900,8.186561767578125,-0.044160628765821455,-0.42553916915021833,-0.06310615225434303
1761505109167597800,8.196597900390625,-0.1868821695268154,-0.40906909586451945,-0.10181187661513685
1761505109177632800,8.2066328125,-0.26265900278389454,-0.40830066877529025,-0.12727014299854636
1761505109187668700,8.216668701171875,-0.2507411859750748,-0.4120131134271621,-0.05668152603432536
1761505109197704000,8.226703857421874,-0.3003080576986074,-0.37856662476882336,0.03893558759391308
1761505109207738600,8.236738525390624,-0.3120487643748522,-0.3345741921767592,0.09188011905699968
1761505109217774600,8.246774658203124,-0.23685002326667307,-0.2619467628613114,0.17960896365344522
1761505109227809800,8.256809814453124,-0.18984335741996763,-0.14994009383767842,0.26553090495839715
1761505109237845800,8.266845703125,-0.12576982143819332,-0.11487871732860803,0.26248174652084705
1761505109247880700,8.276880615234376,0.007977554750442505,-0.17852913252748548,0.20685411345362661
1761505109257915600,8.28691552734375,0.07353285372257232,-0.2310997161116451,0.10326748225092887
1761505109267951600,8.29695166015625,-0.008029577198624611,-0.20982801469787954,-0.006063099431246519
1761505109277986800,8.30698681640625,-0.19845628746449948,-0.11959427460841834,-0.14120178384780882
1761505109288022800,8.317022705078125,-0.2778273458212614,-0.031586759201064706,-0.21893559639155863
1761505109298057700,8.3270576171875,-0.36434769141077994,-0.006894517887244001,-0.1650194434173405
1761505109308093700,8.33709375,-0.36261458400785923,-0.08843794271387159,-0.0809101044923067
1761505109318129000,8.34712890625,-0.15383096379637717,-0.19699206013083456,0.007878332159668208
1761505109328163600,8.35716357421875,0.11219546959400176,-0.2827642177015543,0.10429419495016336
1761505109338199800,8.36719970703125,0.35208617573082446,-0.3392095968924463,0.11334507802054285
1761505109348234800,8.37723486328125,0.49579438944160936,-0.3887085910115391,0.09440072357580065
1761505109358270700,8.387270751953125,0.43757600922882556,-0.4501780089095235,0.03929652986079454
1761505109368305700,8.3973056640625,0.2164098773062229,-0.5002742382694035,0.011496376526355743
1761505109378341600,8.407341552734374,0.04301788847148418,-0.48717897517904635,-0.0071929802440106865
1761505109388376800,8.417376953125,-0.1198147124260664,-0.44908751025907695,-0.027694354872405527
1761505109398411800,8.427411865234374,-0.1968067666918039,-0.45321905710585414,-0.011116875689476727
1761505109408447700,8.43744775390625,-0.24861527986228465,-0.49089258887469767,0.013344050219655037
1761505109418482700,8.447482666015626,-0.3264250802516937,-0.5212895537693053,0.00631707419231534
1761505109428518700,8.4575185546875,-0.33277064988613125,-0.5707083222590387,-0.053207274052500725
1761505109438553900,8.467553955078126,-0.42518472968935966,-0.6177175453890115,-0.16300108933225274
1761505109448588800,8.4775888671875,-0.5494932464033365,-0.6546520953588187,-0.1597948406368494
1761505109458624800,8.487624755859375,-0.5334598109692334,-0.6274411400891841,-0.09350333634465932
1761505109468659700,8.49765966796875,-0.3816840261369943,-0.4550465647939592,-0.06532207473814487
1761505109478695700,8.50769580078125,-0.2429056700438261,-0.2860328641086817,-0.005087824658304453
1761505109488730600,8.517730712890625,-0.12093640993237495,-0.29404309728601946,0.11026727801039814
1761505109498766600,8.5277666015625,-0.009077624946832657,-0.39489012919068334,0.18677520202100276
1761505109508801800,8.5378017578125,0.08421089960336685,-0.4942193221446126,0.2067446617297828
1761505109518836700,8.547836669921875,0.16202362260222433,-0.5212272291228175,0.25586919651329515
1761505109528872700,8.557872802734375,0.16867781979441643,-0.40522907931022345,0.33662820209711786
1761505109538907600,8.56790771484375,0.005263035094738007,-0.3107838590055704,0.3672774612523615
1761505109548944000,8.57794384765625,-0.10823825640082359,-0.3862982419341802,0.32940672641098495
1761505109558978800,8.587978759765624,-0.3108738753765821,-0.5612183171190321,0.18663433224558829
1761505109569013800,8.598013671875,-0.5255792868524789,-0.6351900006502866,-0.03754427936598658
1761505109579049700,8.6080498046875,-0.6333177770376205,-0.5287045792661607,-0.06937514952123165
1761505109589084700,8.618084716796876,-0.6465203729599713,-0.4077126397542655,0.042677112209796905
1761505109599121000,8.628120849609376,-0.505127450454235,-0.35609869930781424,0.240164262381196
1761505109609155600,8.638155517578125,-0.43277416190505025,-0.4012492158938199,0.41979909112825986
1761505109619190800,8.648190673828125,-0.4149550120979547,-0.5247819259297103,0.5779319899022579
1761505109629226800,8.658226806640625,-0.4513976138323545,-0.6228981628973037,0.712168464782089
1761505109639261700,8.66826171875,-0.4711719893604517,-0.7146747485145926,0.6728102678619324
1761505109649297700,8.678297607421875,-0.6007803660482168,-0.7608284507937729,0.4289055037781596
1761505109659332900,8.688332763671875,-0.6351379782021045,-0.7480901844475418,-0.010711802019923925
1761505109669368800,8.698368896484375,-0.4176660246223211,-0.633469752728939,-0.11641951702982187
1761505109679403800,8.70840380859375,0.24334756859242915,-0.11373933803513646,-0.015136048202961683
1761505109689438700,8.718438720703125,-0.2149497416257858,0.11886113802827894,0.04831584874913096
1761505109699474700,8.728474609375,-1.2164648712396622,-0.885389042572677,0.6231435890257359
1761505109709510000,8.738510009765625,-0.6364706881105899,-1.089188956087455,0.7098670559719205
1761505109719545900,8.7485458984375,0.538865469405055,-0.7455046249337494,0.34324250567033887
1761505109729580500,8.75858056640625,0.9865385097563266,0.02286971119493246,-0.36715135065466165
1761505109739616500,8.768616455078124,0.5603787975549698,0.4913681704971939,-0.8335790680974722
1761505109749651700,8.778651611328126,0.08352174829542637,0.6206083714596927,-0.9143044636726378
1761505109759686700,8.788686767578126,-0.47664545233547684,0.6331476081024855,-0.9010269028179347
