time,seconds_elapsed,z,y,x
1761505497571234800,0.08123486328125,-0.950408935546875,0.0507354736328125,-0.1720733642578125
1761505497581271600,0.091271484375,-0.95916748046875,0.048614501953125,-0.1805267333984375
1761505497591307500,0.1013076171875,-0.98309326171875,0.0484619140625,-0.18988037109375
1761505497601343500,0.111343505859375,-1.0061492919921875,0.0454254150390625,-0.198822021484375
1761505497611379500,0.12137939453125,-1.0187225341796875,0.0374603271484375,-0.19964599609375
1761505497621415400,0.13141552734375,-1.03021240234375,0.0370330810546875,-0.1944122314453125
1761505497631451400,0.141451416015625,-1.0208740234375,0.037628173828125,-0.1888580322265625
1761505497641487400,0.1514873046875,-1.009124755859375,0.0366668701171875,-0.1872100830078125
1761505497651523300,0.1615234375,-0.9954681396484375,0.04193115234375,-0.186798095703125
1761505497661559300,0.171559326171875,-0.9908447265625,0.04083251953125,-0.1832122802734375
1761505497671595300,0.18159521484375,-0.9877777099609375,0.0364990234375,-0.179718017578125
1761505497681631200,0.19163134765625,-0.9823150634765625,0.0369873046875,-0.176055908203125
1761505497691667200,0.201667236328125,-0.98260498046875,0.0361480712890625,-0.174102783203125
1761505497701703400,0.211703369140625,-0.995849609375,0.0321807861328125,-0.1701507568359375
1761505497711740200,0.221740234375,-1.018798828125,0.0279083251953125,-0.1726226806640625
1761505497721776000,0.231776123046875,-1.0467987060546875,0.021087646484375,-0.17425537109375
1761505497731812400,0.241812255859375,-1.0529022216796875,0.021636962890625,-0.1790924072265625
1761505497741848300,0.251848388671875,-1.031341552734375,0.0281982421875,-0.179656982421875
1761505497751884300,0.26188427734375,-1.0049896240234375,0.0302276611328125,-0.1792755126953125
1761505497761920300,0.271920166015625,-0.9868011474609375,0.02490234375,-0.179290771484375
1761505497771956200,0.281956298828125,-0.980255126953125,0.0181427001953125,-0.1739501953125
1761505497781992200,0.2919921875,-0.9783935546875,0.0066375732421875,-0.1727752685546875
1761505497792028400,0.3020283203125,-0.969146728515625,0.00054931640625,-0.1790924072265625
1761505497802064400,0.312064453125,-0.9672088623046875,-0.0015869140625,-0.1858367919921875
1761505497812100400,0.322100341796875,-0.9839630126953125,-0.0067291259765625,-0.1849822998046875
1761505497822136300,0.33213623046875,-0.9909515380859375,-0.0047454833984375,-0.185455322265625
1761505497832172300,0.34217236328125,-0.9980621337890625,0.0040740966796875,-0.185272216796875
1761505497842208500,0.35220849609375,-1.00067138671875,0.0115814208984375,-0.1800537109375
1761505497852245200,0.362245361328125,-1.006378173828125,0.0172119140625,-0.1738433837890625
1761505497862281200,0.37228125,-1.0152130126953125,0.0210723876953125,-0.176177978515625
1761505497872317400,0.3823173828125,-1.0087432861328125,0.0231475830078125,-0.1747589111328125
1761505497882353400,0.392353515625,-1.005889892578125,0.018585205078125,-0.1721954345703125
1761505497892389400,0.402389404296875,-1.00762939453125,0.01629638671875,-0.1724700927734375
1761505497902425300,0.41242529296875,-0.99639892578125,0.020050048828125,-0.171630859375
1761505497912461300,0.42246142578125,-0.988861083984375,0.0238037109375,-0.1717987060546875
1761505497922497300,0.432497314453125,-0.982086181640625,0.02362060546875,-0.1717987060546875
1761505497932533200,0.442533203125,-0.9907684326171875,0.02117919921875,-0.166961669921875
1761505497942569200,0.4525693359375,-1.0134124755859375,0.018218994140625,-0.167388916015625
1761505497952605200,0.462605224609375,-1.017822265625,0.0164031982421875,-0.17034912109375
1761505497962641200,0.47264111328125,-1.0096435546875,0.014068603515625,-0.1643829345703125
1761505497972677000,0.482677001953125,-0.99566650390625,0.0099945068359375,-0.1611175537109375
1761505497982713300,0.49271337890625,-0.9691619873046875,0.010498046875,-0.1607818603515625
1761505497992750300,0.502750244140625,-0.9596710205078125,0.0122222900390625,-0.1647186279296875
1761505498002786300,0.512786376953125,-0.962371826171875,0.010986328125,-0.1647491455078125
1761505498012822300,0.522822265625,-0.9671783447265625,0.0116119384765625,-0.1665191650390625
1761505498022858500,0.5328583984375,-0.99066162109375,0.0167236328125,-0.1693115234375
1761505498032894500,0.54289453125,-1.004791259765625,0.0174713134765625,-0.1659698486328125
1761505498042930400,0.552930419921875,-1.0114898681640625,0.01434326171875,-0.15814208984375
1761505498052966400,0.56296630859375,-1.0156707763671875,0.0102081298828125,-0.1545867919921875
1761505498063002400,0.57300244140625,-1.0129241943359375,0.004425048828125,-0.1504974365234375
1761505498073038300,0.583038330078125,-1.005645751953125,0.0041656494140625,-0.1508331298828125
1761505498083074300,0.59307421875,-0.9903717041015625,0.00732421875,-0.1557464599609375
1761505498093110300,0.6031103515625,-0.971038818359375,0.0043182373046875,-0.16241455078125
1761505498103146200,0.613146240234375,-0.9600830078125,0.000732421875,-0.1654815673828125
1761505498113182200,0.62318212890625,-0.983673095703125,0.0004119873046875,-0.16583251953125
1761505498123219200,0.63321923828125,-1.0352783203125,0.001556396484375,-0.1730804443359375
1761505498133255200,0.643255126953125,-1.0585784912109375,0.005279541015625,-0.175933837890625
1761505498143291100,0.653291015625,-1.0499267578125,0.00439453125,-0.16864013671875
1761505498153327000,0.6633271484375,-1.0255584716796875,-0.000640869140625,-0.15875244140625
1761505498163363300,0.67336328125,-0.9919586181640625,-0.0048065185546875,-0.1519775390625
1761505498173399300,0.6833994140625,-0.9727020263671875,-0.0081024169921875,-0.1506500244140625
1761505498183435300,0.693435302734375,-0.97271728515625,-0.0086212158203125,-0.1522064208984375
1761505498193471200,0.70347119140625,-0.989654541015625,-0.0048675537109375,-0.162689208984375
1761505498203507500,0.713507568359375,-0.9982147216796875,-0.0012359619140625,-0.1712493896484375
1761505498213543400,0.72354345703125,-0.9894561767578125,0.000152587890625,-0.172119140625
1761505498223579400,0.733579345703125,-0.975921630859375,-0.0000457763671875,-0.174041748046875
1761505498233615400,0.743615478515625,-0.973724365234375,-0.00653076171875,-0.1694793701171875
1761505498243651300,0.7536513671875,-0.983551025390625,-0.008056640625,-0.164459228515625
1761505498253688300,0.763688232421875,-1.009033203125,-0.0002288818359375,-0.166412353515625
1761505498263724300,0.773724365234375,-1.0203399658203125,0.00531005859375,-0.168701171875
1761505498273760300,0.78376025390625,-1.02532958984375,0.0091094970703125,-0.1694183349609375
1761505498283796200,0.793796142578125,-1.0165557861328125,0.008636474609375,-0.1710968017578125
1761505498293832200,0.803832275390625,-1.007171630859375,0.0072784423828125,-0.169158935546875
1761505498303868400,0.813868408203125,-1.0055084228515625,0.00439453125,-0.16680908203125
1761505498313904400,0.823904296875,-1.00390625,-0.00213623046875,-0.166748046875
1761505498323940400,0.8339404296875,-1.0040435791015625,-0.003936767578125,-0.1670074462890625
1761505498333976300,0.843976318359375,-1.0070648193359375,-0.0005645751953125,-0.1680145263671875
1761505498344012300,0.85401220703125,-1.0060577392578125,-0.0019683837890625,-0.172393798828125
1761505498354048300,0.86404833984375,-1.0120086669921875,-0.001190185546875,-0.1764068603515625
1761505498364084200,0.874084228515625,-1.005584716796875,-0.003173828125,-0.1681060791015625
1761505498374120200,0.8841201171875,-0.9987030029296875,-0.00592041015625,-0.162384033203125
1761505498384157400,0.894157470703125,-0.9846954345703125,-0.006134033203125,-0.1660919189453125
1761505498394193400,0.904193359375,-0.9668426513671875,-0.0067138671875,-0.165863037109375
1761505498404229400,0.9142294921875,-0.9508209228515625,-0.0063629150390625,-0.1639862060546875
1761505498414265300,0.924265380859375,-0.9488983154296875,-0.00506591796875,-0.1643218994140625
1761505498424301300,0.93430126953125,-0.9901275634765625,0.0021514892578125,-0.1684112548828125
1761505498434337300,0.944337158203125,-1.0410614013671875,0.004547119140625,-0.1772613525390625
1761505498444373200,0.954373291015625,-1.0637054443359375,0.00250244140625,-0.174072265625
1761505498454409500,0.964409423828125,-1.0541229248046875,-0.0002593994140625,-0.1645660400390625
1761505498464445400,0.974445556640625,-1.0321197509765625,-0.0035247802734375,-0.158477783203125
1761505498474481400,0.9844814453125,-1.0018463134765625,-0.0026092529296875,-0.1542816162109375
1761505498484517400,0.994517333984375,-0.9877777099609375,-0.0051116943359375,-0.1565704345703125
1761505498494553300,1.00455322265625,-0.9761199951171875,-0.0058135986328125,-0.163848876953125
1761505498504590300,1.01459033203125,-0.9659576416015625,-0.005889892578125,-0.1638031005859375
1761505498514626300,1.024626220703125,-0.966827392578125,-0.00848388671875,-0.1583709716796875
1761505498524662300,1.034662353515625,-0.988525390625,-0.01177978515625,-0.1541595458984375
1761505498534698200,1.0446982421875,-1.0101776123046875,-0.00701904296875,-0.1569976806640625
1761505498544734200,1.054734130859375,-1.010101318359375,-0.000457763671875,-0.16314697265625
1761505498554770200,1.064770263671875,-1.0035400390625,-0.0005950927734375,-0.1654510498046875
1761505498564806100,1.07480615234375,-1.0074310302734375,-0.0058135986328125,-0.16668701171875
1761505498574842000,1.084842041015625,-1.0135650634765625,-0.006317138671875,-0.165191650390625
1761505498584878000,1.094878173828125,-1.0128631591796875,-0.00537109375,-0.1584320068359375
1761505498594914300,1.104914306640625,-0.9975433349609375,-0.006195068359375,-0.1500244140625
1761505498604950300,1.1149501953125,-0.986328125,-0.006988525390625,-0.147064208984375
1761505498614987000,1.124987060546875,-0.9882354736328125,-0.0078887939453125,-0.1515350341796875
1761505498625023200,1.135023193359375,-1.000640869140625,-0.0095977783203125,-0.1588287353515625
1761505498635059200,1.14505908203125,-1.02020263671875,-0.011199951171875,-0.16400146484375
1761505498645095200,1.15509521484375,-1.0206298828125,-0.0125732421875,-0.162933349609375
1761505498655131100,1.165131103515625,-1.016754150390625,-0.0145111083984375,-0.1625823974609375
1761505498665167000,1.1751669921875,-1.00140380859375,-0.0136566162109375,-0.1667022705078125
1761505498675203000,1.185203125,-1.0032958984375,-0.01226806640625,-0.173797607421875
1761505498685239000,1.195239013671875,-1.000885009765625,-0.01068115234375,-0.1794586181640625
1761505498695275000,1.20527490234375,-0.99261474609375,-0.007965087890625,-0.1690826416015625
1761505498705311200,1.215311279296875,-0.98565673828125,-0.0074462890625,-0.1605682373046875
1761505498715347200,1.22534716796875,-0.9872589111328125,-0.007293701171875,-0.15667724609375
1761505498725383200,1.235383056640625,-0.9944610595703125,-0.009368896484375,-0.158447265625
1761505498735420200,1.245420166015625,-0.9971160888671875,-0.012542724609375,-0.1583251953125
1761505498745456000,1.2554560546875,-0.9901123046875,-0.0133514404296875,-0.1573333740234375
1761505498755492000,1.2654921875,-0.9869537353515625,-0.0132598876953125,-0.157196044921875
1761505498765528300,1.2755283203125,-0.99176025390625,-0.0166473388671875,-0.1572265625
1761505498775564300,1.285564208984375,-0.99847412109375,-0.0201568603515625,-0.156646728515625
1761505498785600300,1.295600341796875,-1.016357421875,-0.0159149169921875,-0.1583404541015625
1761505498795636200,1.30563623046875,-1.0172576904296875,-0.0101318359375,-0.162322998046875
1761505498805672200,1.315672119140625,-1.007354736328125,-0.0074310302734375,-0.161712646484375
1761505498815708200,1.325708251953125,-1.0061798095703125,-0.0068206787109375,-0.16497802734375
1761505498825744100,1.335744140625,-0.99365234375,-0.01104736328125,-0.166748046875
1761505498835780000,1.345780029296875,-0.9853057861328125,-0.0117645263671875,-0.163543701171875
1761505498845817000,1.355817138671875,-0.9922637939453125,-0.016021728515625,-0.1557769775390625
1761505498855853000,1.36585302734375,-1.0041961669921875,-0.015960693359375,-0.15167236328125
1761505498865889000,1.375888916015625,-1.005889892578125,-0.0125885009765625,-0.1504364013671875
1761505498875925200,1.38592529296875,-1.00299072265625,-0.0152435302734375,-0.144622802734375
1761505498885961200,1.395961181640625,-1.0037994384765625,-0.0191497802734375,-0.14251708984375
1761505498895997200,1.4059970703125,-1.0082244873046875,-0.020538330078125,-0.1448516845703125
1761505498906033200,1.416033203125,-1.00006103515625,-0.0194244384765625,-0.1534423828125
1761505498916069400,1.4260693359375,-0.9977874755859375,-0.01776123046875,-0.1595916748046875
1761505498926105300,1.436105224609375,-1.01116943359375,-0.0126800537109375,-0.165679931640625
1761505498936141300,1.446141357421875,-1.0106658935546875,-0.0091552734375,-0.1697235107421875
1761505498946177300,1.45617724609375,-1.003631591796875,-0.009857177734375,-0.1698760986328125
1761505498956214300,1.46621435546875,-0.9911651611328125,-0.019805908203125,-0.1635894775390625
1761505498966250200,1.476250244140625,-0.98919677734375,-0.0259246826171875,-0.155853271484375
1761505498976286200,1.4862861328125,-1.00421142578125,-0.02679443359375,-0.157989501953125
1761505498986322200,1.496322265625,-1.0136871337890625,-0.0265960693359375,-0.1632080078125
1761505498996358100,1.506358154296875,-1.0142822265625,-0.0239105224609375,-0.157501220703125
1761505499006394000,1.51639404296875,-1.001373291015625,-0.0227813720703125,-0.147186279296875
1761505499016430000,1.52643017578125,-0.98284912109375,-0.0222930908203125,-0.144378662109375
1761505499026466000,1.536466064453125,-0.9808197021484375,-0.0263519287109375,-0.1479949951171875
1761505499036502000,1.546501953125,-0.9806976318359375,-0.0295867919921875,-0.159088134765625
1761505499046538200,1.556538330078125,-0.9854736328125,-0.0265045166015625,-0.1678009033203125
1761505499056574200,1.56657421875,-0.9995880126953125,-0.0231781005859375,-0.172332763671875
1761505499066610200,1.576610107421875,-1.0189666748046875,-0.021453857421875,-0.177520751953125
1761505499076647200,1.586647216796875,-1.0196380615234375,-0.0221099853515625,-0.175628662109375
1761505499086683400,1.596683349609375,-1.0097503662109375,-0.0263671875,-0.166534423828125
1761505499096719400,1.60671923828125,-1.001922607421875,-0.025726318359375,-0.1614227294921875
1761505499106755300,1.61675537109375,-1.003143310546875,-0.02288818359375,-0.16015625
1761505499116791300,1.626791259765625,-1.02703857421875,-0.0142822265625,-0.158905029296875
1761505499126827300,1.6368271484375,-1.0392303466796875,-0.00848388671875,-0.1561431884765625
1761505499136863200,1.64686328125,-1.0431976318359375,-0.012542724609375,-0.1509246826171875
1761505499146899200,1.656899169921875,-1.0244598388671875,-0.018707275390625,-0.146728515625
1761505499156935200,1.66693505859375,-0.992431640625,-0.02264404296875,-0.1412811279296875
1761505499166971100,1.67697119140625,-0.96533203125,-0.0277099609375,-0.140960693359375
1761505499177008000,1.687008056640625,-0.943817138671875,-0.0294342041015625,-0.1490631103515625
1761505499187044000,1.697044189453125,-0.9354248046875,-0.0283966064453125,-0.154083251953125
1761505499197080000,1.707080078125,-0.9534454345703125,-0.0287933349609375,-0.1549224853515625
1761505499207116000,1.717115966796875,-1.0050201416015625,-0.022705078125,-0.15997314453125
1761505499217152000,1.727152099609375,-1.050506591796875,-0.015472412109375,-0.17156982421875
1761505499227188200,1.737188232421875,-1.053375244140625,-0.0068511962890625,-0.16583251953125
1761505499237224200,1.74722412109375,-1.035736083984375,-0.0041351318359375,-0.1570587158203125
1761505499247260200,1.75726025390625,-1.013763427734375,-0.0104827880859375,-0.15771484375
1761505499257296100,1.767296142578125,-0.9996795654296875,-0.0160369873046875,-0.1578369140625
1761505499267332000,1.77733203125,-0.989837646484375,-0.0215606689453125,-0.1551055908203125
1761505499277368000,1.7873681640625,-0.9801177978515625,-0.0216522216796875,-0.1539154052734375
1761505499287404300,1.797404296875,-0.9686431884765625,-0.0269927978515625,-0.1467132568359375
1761505499297441300,1.807441162109375,-0.96795654296875,-0.030670166015625,-0.1438446044921875
1761505499307477200,1.817477294921875,-0.977935791015625,-0.026275634765625,-0.148193359375
1761505499317513200,1.82751318359375,-1.005706787109375,-0.0173492431640625,-0.158447265625
1761505499327549200,1.837549072265625,-1.035369873046875,-0.009918212890625,-0.163909912109375
1761505499337585200,1.847585205078125,-1.0552520751953125,-0.0094146728515625,-0.166259765625
1761505499347621000,1.85762109375,-1.04498291015625,-0.0109710693359375,-0.162139892578125
1761505499357657000,1.867656982421875,-1.0204925537109375,-0.01702880859375,-0.1577911376953125
1761505499367693300,1.877693359375,-0.98773193359375,-0.0264892578125,-0.150360107421875
1761505499377729300,1.887729248046875,-0.96527099609375,-0.031036376953125,-0.1477203369140625
1761505499387765200,1.89776513671875,-0.9724578857421875,-0.029937744140625,-0.150726318359375
1761505499397801200,1.90780126953125,-0.9881744384765625,-0.0277099609375,-0.15191650390625
1761505499407838200,1.917838134765625,-1.0026092529296875,-0.0272216796875,-0.1483306884765625
1761505499417874200,1.927874267578125,-1.008209228515625,-0.0313262939453125,-0.1467132568359375
1761505499427910100,1.93791015625,-1.0090179443359375,-0.0292205810546875,-0.1506805419921875
1761505499437946000,1.947946044921875,-1.0128021240234375,-0.02276611328125,-0.1532440185546875
1761505499447982000,1.957982177734375,-1.018707275390625,-0.017364501953125,-0.1560516357421875
1761505499458018300,1.968018310546875,-1.0173797607421875,-0.0203094482421875,-0.159149169921875
1761505499468054300,1.97805419921875,-1.01556396484375,-0.0224151611328125,-0.157684326171875
1761505499478090200,1.98809033203125,-1.01287841796875,-0.021209716796875,-0.1552886962890625
1761505499488126200,1.998126220703125,-0.998870849609375,-0.0239715576171875,-0.149810791015625
1761505499498162200,2.008162109375,-0.9940032958984375,-0.0314483642578125,-0.1421051025390625
1761505499508198100,2.0181982421875,-0.9806060791015625,-0.0413818359375,-0.1323394775390625
1761505499518235100,2.028235107421875,-0.973236083984375,-0.037139892578125,-0.131011962890625
1761505499528271000,2.03827099609375,-0.9818878173828125,-0.03228759765625,-0.136260986328125
1761505499538307000,2.04830712890625,-1.0035552978515625,-0.0329437255859375,-0.13812255859375
1761505499548343300,2.05834326171875,-1.0235443115234375,-0.02923583984375,-0.1399383544921875
1761505499558379300,2.068379150390625,-1.02655029296875,-0.0228118896484375,-0.1416168212890625
1761505499568415200,2.078415283203125,-1.0149383544921875,-0.024871826171875,-0.1403656005859375
1761505499578451200,2.088451171875,-0.991851806640625,-0.02813720703125,-0.1357879638671875
1761505499588487200,2.098487060546875,-0.965911865234375,-0.0289306640625,-0.1345062255859375
1761505499598523100,2.108523193359375,-0.959320068359375,-0.0302581787109375,-0.139984130859375
1761505499608559400,2.118559326171875,-0.966400146484375,-0.0399932861328125,-0.137115478515625
1761505499618595300,2.12859521484375,-0.9804534912109375,-0.048065185546875,-0.133331298828125
1761505499628631300,2.13863134765625,-0.998870849609375,-0.0416259765625,-0.137054443359375
1761505499638668300,2.148668212890625,-1.0085906982421875,-0.03143310546875,-0.1421356201171875
1761505499648704300,2.158704345703125,-1.020843505859375,-0.0234832763671875,-0.1469268798828125
1761505499658740200,2.168740234375,-1.034027099609375,-0.02093505859375,-0.150726318359375
1761505499668776200,2.178776123046875,-1.0435791015625,-0.014678955078125,-0.151275634765625
1761505499678812200,2.188812255859375,-1.04638671875,-0.009124755859375,-0.1537933349609375
1761505499688848400,2.198848388671875,-1.0274200439453125,-0.0139617919921875,-0.15411376953125
1761505499698884400,2.20888427734375,-1.0030975341796875,-0.0205535888671875,-0.14697265625
1761505499708920300,2.21892041015625,-0.9907684326171875,-0.028045654296875,-0.1401824951171875
1761505499718956300,2.228956298828125,-0.9862213134765625,-0.034393310546875,-0.1355438232421875
1761505499728992300,2.2389921875,-0.99188232421875,-0.0338592529296875,-0.13348388671875
1761505499739028200,2.2490283203125,-0.998016357421875,-0.0296173095703125,-0.1354217529296875
1761505499749065200,2.259065185546875,-0.9953155517578125,-0.0235137939453125,-0.14154052734375
1761505499759101200,2.26910107421875,-0.9954376220703125,-0.021514892578125,-0.1481170654296875
1761505499769137400,2.279137451171875,-1.00128173828125,-0.022186279296875,-0.1493682861328125
1761505499779173400,2.28917333984375,-1.012481689453125,-0.019561767578125,-0.1535797119140625
1761505499789209300,2.299209228515625,-1.029052734375,-0.0155029296875,-0.1557464599609375
1761505499799245300,2.309245361328125,-1.026947021484375,-0.0133514404296875,-0.1478118896484375
1761505499809281300,2.31928125,-1.01593017578125,-0.017333984375,-0.1383056640625
1761505499819317200,2.329317138671875,-0.999359130859375,-0.028656005859375,-0.1331787109375
1761505499829353200,2.339353271484375,-0.9829254150390625,-0.034210205078125,-0.1349029541015625
1761505499839389400,2.349389404296875,-0.9734649658203125,-0.034912109375,-0.1392059326171875
1761505499849425400,2.35942529296875,-0.9780426025390625,-0.0345916748046875,-0.143035888671875
1761505499859461400,2.36946142578125,-0.9824676513671875,-0.0357208251953125,-0.1434326171875
1761505499869497300,2.379497314453125,-0.9945831298828125,-0.0337677001953125,-0.145538330078125
1761505499879534300,2.389534423828125,-1.0135498046875,-0.0251312255859375,-0.15283203125
1761505499889570300,2.3995703125,-1.042755126953125,-0.0155181884765625,-0.1563262939453125
1761505499899606300,2.409606201171875,-1.04522705078125,-0.012237548828125,-0.1576080322265625
1761505499909642200,2.419642333984375,-1.03057861328125,-0.0120697021484375,-0.1508941650390625
1761505499919678200,2.42967822265625,-1.008453369140625,-0.0218963623046875,-0.14166259765625
1761505499929714200,2.439714111328125,-0.9950714111328125,-0.0350799560546875,-0.1359100341796875
1761505499939750100,2.449750244140625,-0.9925994873046875,-0.039031982421875,-0.1349945068359375
1761505499949786000,2.4597861328125,-0.9970703125,-0.0317535400390625,-0.1359710693359375
1761505499959822000,2.469822021484375,-1.002166748046875,-0.029541015625,-0.1407012939453125
1761505499969858000,2.479858154296875,-0.9923858642578125,-0.0322265625,-0.1442413330078125
1761505499979894300,2.489894287109375,-0.979644775390625,-0.0306243896484375,-0.14715576171875
1761505499989931300,2.49993115234375,-0.9869842529296875,-0.0305023193359375,-0.1481781005859375
1761505499999967200,2.50996728515625,-1.0049285888671875,-0.03314208984375,-0.1486053466796875
1761505500010003500,2.52000341796875,-1.0322723388671875,-0.030029296875,-0.14849853515625
1761505500020039400,2.530039306640625,-1.0426025390625,-0.0255126953125,-0.147735595703125
1761505500030075400,2.540075439453125,-1.0254974365234375,-0.0275726318359375,-0.1403656005859375
1761505500040111400,2.550111328125,-0.9940948486328125,-0.030914306640625,-0.128143310546875
1761505500050147300,2.560147216796875,-0.965545654296875,-0.033416748046875,-0.1235809326171875
1761505500060183300,2.570183349609375,-0.967010498046875,-0.037750244140625,-0.125640869140625
1761505500070219300,2.58021923828125,-0.9766082763671875,-0.0376434326171875,-0.13153076171875
1761505500080255200,2.590255126953125,-0.9839019775390625,-0.03326416015625,-0.1366729736328125
1761505500090291200,2.600291259765625,-0.9969482421875,-0.0326385498046875,-0.145660400390625
1761505500100327200,2.6103271484375,-1.0199127197265625,-0.033050537109375,-0.1461944580078125
1761505500110364200,2.6203642578125,-1.0304107666015625,-0.027435302734375,-0.1437835693359375
1761505500120400100,2.630400146484375,-1.024505615234375,-0.023193359375,-0.1424560546875
1761505500130436000,2.64043603515625,-1.022216796875,-0.0312347412109375,-0.1370697021484375
1761505500140472000,2.65047216796875,-1.02642822265625,-0.0394287109375,-0.1319732666015625
1761505500150508300,2.66050830078125,-1.0176239013671875,-0.0340118408203125,-0.128509521484375
1761505500160544300,2.670544189453125,-1.005889892578125,-0.0287322998046875,-0.1294708251953125
1761505500170580500,2.68058056640625,-0.9971160888671875,-0.0376129150390625,-0.1312408447265625
1761505500180616400,2.690616455078125,-0.9885711669921875,-0.0458984375,-0.1297760009765625
1761505500190652400,2.70065234375,-0.9853363037109375,-0.0430145263671875,-0.1383819580078125
1761505500200688400,2.7106884765625,-0.9863739013671875,-0.036102294921875,-0.1438446044921875
1761505500210724400,2.720724365234375,-0.9951019287109375,-0.035919189453125,-0.1425628662109375
1761505500220760300,2.73076025390625,-1.0217437744140625,-0.03411865234375,-0.147125244140625
1761505500230796300,2.74079638671875,-1.0289764404296875,-0.024444580078125,-0.15130615234375
1761505500240833300,2.750833251953125,-1.01812744140625,-0.01666259765625,-0.1504364013671875
1761505500250869200,2.760869140625,-1.0095977783203125,-0.0238189697265625,-0.1455841064453125
1761505500260905200,2.7709052734375,-0.999725341796875,-0.0369415283203125,-0.1407318115234375
1761505500270941200,2.780941162109375,-0.9920806884765625,-0.0374755859375,-0.1448211669921875
1761505500280977200,2.79097705078125,-0.993804931640625,-0.0309906005859375,-0.14794921875
1761505500291013000,2.80101318359375,-0.9971466064453125,-0.02679443359375,-0.145751953125
1761505500301049300,2.81104931640625,-0.9921417236328125,-0.02313232421875,-0.145355224609375
1761505500311085300,2.821085205078125,-0.9855194091796875,-0.0230560302734375,-0.142608642578125
1761505500321121300,2.831121337890625,-0.9930267333984375,-0.0248565673828125,-0.1419830322265625
1761505500331157200,2.8411572265625,-1.00848388671875,-0.0263214111328125,-0.14605712890625
1761505500341193200,2.851193115234375,-1.0239105224609375,-0.027587890625,-0.1494598388671875
1761505500351229200,2.861229248046875,-1.038177490234375,-0.02923583984375,-0.148956298828125
1761505500361265200,2.87126513671875,-1.0308380126953125,-0.0265350341796875,-0.147186279296875
1761505500371302400,2.881302490234375,-1.0150604248046875,-0.0263671875,-0.1465606689453125
1761505500381338400,2.89133837890625,-0.9926605224609375,-0.030548095703125,-0.1415252685546875
1761505500391374300,2.901374267578125,-0.9852447509765625,-0.0341644287109375,-0.136322021484375
1761505500401410300,2.911410400390625,-0.9886474609375,-0.0343780517578125,-0.1387481689453125
1761505500411446300,2.9214462890625,-0.999267578125,-0.0318756103515625,-0.1436920166015625
1761505500421482200,2.931482177734375,-1.0142059326171875,-0.03314208984375,-0.1504974365234375
1761505500431518200,2.941518310546875,-1.0095062255859375,-0.0336456298828125,-0.14947509765625
1761505500441554400,2.951554443359375,-1.0091705322265625,-0.0281982421875,-0.1540985107421875
1761505500451590400,2.96159033203125,-1.0042724609375,-0.027069091796875,-0.1529083251953125
1761505500461626400,2.97162646484375,-1.003021240234375,-0.0346832275390625,-0.1434783935546875
1761505500471662300,2.981662353515625,-1.0025482177734375,-0.040008544921875,-0.13897705078125
1761505500481698300,2.9916982421875,-0.9984893798828125,-0.038299560546875,-0.1358642578125
1761505500491734300,3.001734375,-0.9962158203125,-0.039764404296875,-0.1335296630859375
1761505500501771300,3.011771240234375,-0.9955902099609375,-0.0433502197265625,-0.129730224609375
1761505500511807200,3.02180712890625,-0.994842529296875,-0.0400238037109375,-0.1333160400390625
1761505500521843200,3.03184326171875,-1.011505126953125,-0.03326416015625,-0.1429290771484375
1761505500531879200,3.041879150390625,-1.020050048828125,-0.0290069580078125,-0.1486968994140625
1761505500541915100,3.0519150390625,-1.0129852294921875,-0.0303955078125,-0.1468353271484375
1761505500551951000,3.061951171875,-1.00457763671875,-0.0340728759765625,-0.1410980224609375
1761505500561987000,3.071987060546875,-0.9932403564453125,-0.04071044921875,-0.135528564453125
1761505500572023000,3.08202294921875,-0.9880218505859375,-0.0445098876953125,-0.1333160400390625
1761505500582059300,3.092059326171875,-0.9877777099609375,-0.0424346923828125,-0.128936767578125
1761505500592095500,3.102095458984375,-0.9945526123046875,-0.039276123046875,-0.1271209716796875
1761505500602131500,3.11213134765625,-1.0017852783203125,-0.033660888671875,-0.129852294921875
1761505500612167200,3.122167236328125,-1.0068206787109375,-0.0280914306640625,-0.1363677978515625
1761505500622203100,3.132203125,-1.0193939208984375,-0.0238800048828125,-0.1432037353515625
1761505500632239000,3.142239013671875,-1.025054931640625,-0.0255584716796875,-0.1432952880859375
1761505500642276000,3.152276123046875,-1.0166168212890625,-0.0321044921875,-0.139404296875
1761505500652312000,3.16231201171875,-0.9957427978515625,-0.0388946533203125,-0.13458251953125
1761505500662348000,3.17234814453125,-0.9849700927734375,-0.0452728271484375,-0.134002685546875
1761505500672384000,3.182384033203125,-0.9909210205078125,-0.0472564697265625,-0.139068603515625
1761505500682420000,3.192419921875,-0.9988250732421875,-0.0462646484375,-0.149688720703125
1761505500692456000,3.2024560546875,-1.0045318603515625,-0.0429840087890625,-0.15875244140625
1761505500702492000,3.212491943359375,-1.0102081298828125,-0.0370025634765625,-0.158050537109375
1761505500712528000,3.22252783203125,-1.016876220703125,-0.029296875,-0.1531524658203125
1761505500722564000,3.232564208984375,-1.018096923828125,-0.0250701904296875,-0.1493988037109375
1761505500732600000,3.24260009765625,-1.00775146484375,-0.026702880859375,-0.1438446044921875
1761505500742636000,3.252635986328125,-1.003387451171875,-0.0319061279296875,-0.1367645263671875
1761505500752672000,3.262672119140625,-1.0030975341796875,-0.0349273681640625,-0.1369476318359375
1761505500762708000,3.2727080078125,-1.0014495849609375,-0.0367431640625,-0.140838623046875
1761505500772745200,3.2827451171875,-1.0069122314453125,-0.036712646484375,-0.143402099609375
1761505500782781200,3.29278125,-1.0066375732421875,-0.0352630615234375,-0.14166259765625
1761505500792817200,3.302817138671875,-0.995147705078125,-0.0326385498046875,-0.1438751220703125
1761505500802853000,3.31285302734375,-0.9846038818359375,-0.0323944091796875,-0.14508056640625
1761505500812889000,3.32288916015625,-0.97882080078125,-0.033233642578125,-0.14410400390625
1761505500822925000,3.332925048828125,-0.9870758056640625,-0.0361175537109375,-0.1450958251953125
1761505500832961000,3.3429609375,-0.99786376953125,-0.0372467041015625,-0.14459228515625
1761505500842997000,3.3529970703125,-1.0010528564453125,-0.03375244140625,-0.141510009765625
1761505500853033000,3.363032958984375,-1.01531982421875,-0.0289306640625,-0.1404266357421875
1761505500863069200,3.373069091796875,-1.035491943359375,-0.0225982666015625,-0.138336181640625
1761505500873105200,3.383105224609375,-1.033721923828125,-0.021484375,-0.1340179443359375
1761505500883141000,3.39314111328125,-1.0215911865234375,-0.025177001953125,-0.1354827880859375
1761505500893177000,3.403177001953125,-1.0181732177734375,-0.0301971435546875,-0.1388397216796875
1761505500903214000,3.413214111328125,-1.0086517333984375,-0.0319366455078125,-0.1449432373046875
1761505500913250000,3.42325,-0.99407958984375,-0.0339202880859375,-0.1516265869140625
1761505500923286000,3.4332861328125,-0.973358154296875,-0.0432586669921875,-0.1560211181640625
1761505500933322000,3.443322021484375,-0.955352783203125,-0.049835205078125,-0.1606903076171875
1761505500943358000,3.45335791015625,-0.9535980224609375,-0.048095703125,-0.160003662109375
1761505500953394200,3.463394287109375,-0.9807586669921875,-0.0441436767578125,-0.156097412109375
1761505500963430100,3.47343017578125,-1.0123138427734375,-0.033203125,-0.14703369140625
1761505500973466000,3.483466064453125,-1.032958984375,-0.0258636474609375,-0.146209716796875
1761505500983502000,3.493502197265625,-1.039337158203125,-0.0277862548828125,-0.1451568603515625
1761505500993538000,3.5035380859375,-1.029205322265625,-0.0300140380859375,-0.1403045654296875
1761505501003574000,3.513573974609375,-1.0212554931640625,-0.034393310546875,-0.140655517578125
1761505501013610200,3.5236103515625,-1.0183868408203125,-0.04052734375,-0.13330078125
1761505501023646200,3.533646240234375,-1.0137939453125,-0.0469512939453125,-0.12518310546875
1761505501033683000,3.543682861328125,-1.0002899169921875,-0.0480499267578125,-0.1218109130859375
1761505501043719200,3.55371923828125,-0.98876953125,-0.04962158203125,-0.1236724853515625
1761505501053755100,3.563755126953125,-0.976165771484375,-0.0500640869140625,-0.1302642822265625
1761505501063791000,3.573791015625,-0.9825286865234375,-0.0470733642578125,-0.138031005859375
1761505501073827000,3.5838271484375,-1.0003204345703125,-0.04595947265625,-0.1422576904296875
1761505501083863000,3.593863037109375,-1.01544189453125,-0.0412139892578125,-0.1416168212890625
1761505501093899000,3.60389892578125,-1.0282440185546875,-0.035736083984375,-0.13763427734375
1761505501103935000,3.61393505859375,-1.0301971435546875,-0.0323944091796875,-0.1332244873046875
1761505501113971000,3.623970947265625,-1.0269775390625,-0.0319366455078125,-0.1315155029296875
1761505501124007000,3.6340068359375,-1.022308349609375,-0.0365142822265625,-0.1291656494140625
1761505501134043000,3.64404296875,-1.0094451904296875,-0.04107666015625,-0.123260498046875
1761505501144078800,3.654078857421875,-0.998626708984375,-0.040618896484375,-0.1219940185546875
1761505501154116000,3.6641162109375,-0.9945831298828125,-0.038299560546875,-0.129150390625
1761505501164152000,3.674152099609375,-0.9967498779296875,-0.0413665771484375,-0.1414031982421875
1761505501174188000,3.68418798828125,-0.9945220947265625,-0.042633056640625,-0.14715576171875
1761505501184224300,3.694224365234375,-0.992523193359375,-0.0348358154296875,-0.153961181640625
1761505501194260200,3.70426025390625,-0.9920196533203125,-0.031494140625,-0.1530609130859375
1761505501204296200,3.714296142578125,-1.0111541748046875,-0.0330657958984375,-0.1487579345703125
1761505501214332200,3.724332275390625,-1.023681640625,-0.0338897705078125,-0.1504669189453125
1761505501224368000,3.7343681640625,-1.015899658203125,-0.033233642578125,-0.1484527587890625
1761505501234404000,3.744404052734375,-0.9934234619140625,-0.0388336181640625,-0.14013671875
1761505501244440000,3.754440185546875,-0.97552490234375,-0.044219970703125,-0.1364898681640625
1761505501254476000,3.76447607421875,-0.975128173828125,-0.04693603515625,-0.1378631591796875
1761505501264512000,3.774511962890625,-0.9831695556640625,-0.0433349609375,-0.1376495361328125
1761505501274549000,3.784549072265625,-0.9998626708984375,-0.0359954833984375,-0.1385040283203125
1761505501284585000,3.7945849609375,-1.0139312744140625,-0.0316619873046875,-0.138458251953125
1761505501294621000,3.804620849609375,-1.0173492431640625,-0.0313262939453125,-0.13323974609375
1761505501304657000,3.814656982421875,-1.0160675048828125,-0.0321197509765625,-0.129730224609375
1761505501314692900,3.82469287109375,-1.0080108642578125,-0.0373992919921875,-0.134674072265625
1761505501324729000,3.83472900390625,-1.00140380859375,-0.036224365234375,-0.1346282958984375
1761505501334765000,3.84476513671875,-1.001373291015625,-0.034210205078125,-0.132049560546875
1761505501344801000,3.854801025390625,-1.011932373046875,-0.0376739501953125,-0.133636474609375
1761505501354837200,3.864837158203125,-1.0191802978515625,-0.0410003662109375,-0.13153076171875
1761505501364873200,3.874873291015625,-1.0085601806640625,-0.037506103515625,-0.128387451171875
1761505501374909200,3.8849091796875,-0.9994964599609375,-0.0374298095703125,-0.1295928955078125
1761505501384945200,3.894945068359375,-0.987213134765625,-0.0404815673828125,-0.1311492919921875
1761505501394982100,3.904982177734375,-0.9814300537109375,-0.03863525390625,-0.133758544921875
1761505501405018000,3.91501806640625,-0.9932098388671875,-0.0367584228515625,-0.1387939453125
1761505501415054000,3.92505419921875,-1.00054931640625,-0.036041259765625,-0.1400604248046875
1761505501425090000,3.935090087890625,-1.014190673828125,-0.0355682373046875,-0.13580322265625
1761505501435126000,3.9451259765625,-1.0234527587890625,-0.0327911376953125,-0.1334381103515625
1761505501445162000,3.955161865234375,-1.0129547119140625,-0.0343017578125,-0.1349029541015625
1761505501455198000,3.965197998046875,-0.999114990234375,-0.0343475341796875,-0.1352691650390625
1761505501465234000,3.97523388671875,-0.9911956787109375,-0.0334625244140625,-0.1383209228515625
1761505501475270100,3.985270263671875,-0.9898681640625,-0.033935546875,-0.142486572265625
1761505501485306000,3.99530615234375,-0.992156982421875,-0.0345916748046875,-0.1454620361328125
1761505501495342000,4.005342041015625,-0.986663818359375,-0.0361328125,-0.1420135498046875
1761505501505377000,4.015376953125,-0.9850921630859375,-0.040191650390625,-0.1349639892578125
1761505501515413000,4.0254130859375,-0.9902801513671875,-0.042510986328125,-0.127716064453125
1761505501525449000,4.035448974609375,-1.0004730224609375,-0.040802001953125,-0.12823486328125
1761505501535485000,4.04548486328125,-1.012908935546875,-0.03668212890625,-0.13372802734375
1761505501545521000,4.05552099609375,-1.02490234375,-0.035430908203125,-0.1387786865234375
1761505501555557000,4.06555712890625,-1.024444580078125,-0.0409698486328125,-0.1432647705078125
1761505501565593000,4.075593017578125,-1.0089111328125,-0.047882080078125,-0.142181396484375
1761505501575629800,4.0856298828125,-0.992767333984375,-0.0519256591796875,-0.1366729736328125
1761505501585666300,4.095666259765625,-0.9850311279296875,-0.05267333984375,-0.13323974609375
1761505501595702300,4.105702392578125,-0.98724365234375,-0.0528717041015625,-0.132232666015625
1761505501605738200,4.11573828125,-1.0023193359375,-0.0475921630859375,-0.133056640625
1761505501615773700,4.125773681640625,-1.01898193359375,-0.044647216796875,-0.1385040283203125
1761505501625809700,4.1358095703125,-1.03851318359375,-0.0445404052734375,-0.1457366943359375
1761505501635845600,4.145845703125,-1.036163330078125,-0.0444183349609375,-0.1442718505859375
1761505501645881600,4.155881591796875,-1.0258941650390625,-0.04608154296875,-0.1389312744140625
1761505501655917800,4.165917724609375,-1.0265960693359375,-0.0505218505859375,-0.139434814453125
1761505501665953800,4.175953857421875,-1.0170440673828125,-0.0504302978515625,-0.1408233642578125
1761505501675989800,4.18598974609375,-1.004486083984375,-0.0477752685546875,-0.1374969482421875
1761505501686026000,4.19602587890625,-0.9873046875,-0.0517120361328125,-0.1347808837890625
1761505501696062000,4.20606201171875,-0.9791259765625,-0.058837890625,-0.1278839111328125
1761505501706098700,4.2160986328125,-0.980743408203125,-0.056304931640625,-0.129241943359375
1761505501716135000,4.226135009765625,-0.982208251953125,-0.0479888916015625,-0.13818359375
1761505501726171000,4.2361708984375,-0.9904937744140625,-0.0421600341796875,-0.1466522216796875
1761505501736206800,4.246206787109375,-0.9962310791015625,-0.038421630859375,-0.151031494140625
1761505501746242800,4.256242919921875,-1.0106353759765625,-0.0361480712890625,-0.15203857421875
1761505501756278800,4.26627880859375,-1.0241851806640625,-0.03643798828125,-0.1527557373046875
1761505501766314800,4.276314697265625,-1.0179595947265625,-0.0336761474609375,-0.1449737548828125
1761505501776350700,4.286350830078125,-1.0047607421875,-0.0339508056640625,-0.1364593505859375
1761505501786386700,4.29638671875,-0.9875335693359375,-0.0431365966796875,-0.1293487548828125
1761505501796422700,4.306422607421875,-0.992706298828125,-0.04681396484375,-0.12506103515625
1761505501806458600,4.316458740234375,-1.0069427490234375,-0.04461669921875,-0.125335693359375
1761505501816495600,4.32649560546875,-1.0092926025390625,-0.039794921875,-0.1289520263671875
1761505501826531800,4.33653173828125,-1.00616455078125,-0.035308837890625,-0.13214111328125
1761505501836567800,4.34656787109375,-1.00439453125,-0.0377044677734375,-0.13427734375
1761505501846603800,4.356603759765625,-1.010467529296875,-0.0392303466796875,-0.1402435302734375
1761505501856639700,4.3666396484375,-1.01959228515625,-0.0361175537109375,-0.14544677734375
1761505501866676000,4.376676025390625,-1.020111083984375,-0.0385589599609375,-0.1456756591796875
1761505501876712000,4.3867119140625,-1.0181427001953125,-0.04632568359375,-0.1353759765625
1761505501886748000,4.396747802734375,-1.0150299072265625,-0.0483856201171875,-0.124053955078125
1761505501896784000,4.406783935546875,-1.0121002197265625,-0.04644775390625,-0.1232452392578125
1761505501906819800,4.41681982421875,-1.0106048583984375,-0.04803466796875,-0.12371826171875
1761505501916855800,4.426855712890625,-0.9980010986328125,-0.0499114990234375,-0.12884521484375
1761505501926891800,4.436891845703125,-0.9915771484375,-0.0534210205078125,-0.1341400146484375
1761505501936927700,4.446927734375,-0.9871826171875,-0.0564422607421875,-0.13372802734375
1761505501946964700,4.45696484375,-0.98565673828125,-0.0527801513671875,-0.1337432861328125
1761505501957000700,4.467000732421875,-0.989013671875,-0.0440216064453125,-0.1361236572265625
1761505501967036700,4.47703662109375,-1.0022735595703125,-0.042266845703125,-0.13946533203125
1761505501977072600,4.48707275390625,-1.0123291015625,-0.0444793701171875,-0.1433258056640625
1761505501987108600,4.497108642578125,-1.0121612548828125,-0.04608154296875,-0.1442108154296875
1761505501997144600,4.50714453125,-1.0042724609375,-0.0481719970703125,-0.1452178955078125
1761505502007180800,4.517180908203125,-0.9885406494140625,-0.05035400390625,-0.141845703125
1761505502017216800,4.527216796875,-0.985198974609375,-0.05029296875,-0.1354827880859375
1761505502027252700,4.537252685546875,-0.990936279296875,-0.050933837890625,-0.131439208984375
1761505502037288700,4.547288818359375,-1.002197265625,-0.0493011474609375,-0.1285858154296875
1761505502047324700,4.55732470703125,-1.0115966796875,-0.0483551025390625,-0.1263275146484375
1761505502057362000,4.56736181640625,-1.0166015625,-0.045867919921875,-0.133270263671875
1761505502067398000,4.57739794921875,-1.009307861328125,-0.043670654296875,-0.14031982421875
1761505502077433900,4.587433837890625,-0.9985809326171875,-0.045623779296875,-0.139984130859375
1761505502087469800,4.5974697265625,-0.99395751953125,-0.04931640625,-0.1365814208984375
1761505502097505800,4.607505859375,-0.996246337890625,-0.0512542724609375,-0.131866455078125
1761505502107541800,4.617541748046875,-1.0013427734375,-0.05194091796875,-0.127410888671875
1761505502117577700,4.62757763671875,-1.015655517578125,-0.05194091796875,-0.126556396484375
1761505502127613700,4.63761376953125,-1.02044677734375,-0.049163818359375,-0.1310882568359375
1761505502137649700,4.647649658203125,-1.0105133056640625,-0.0445404052734375,-0.13140869140625
1761505502147686000,4.657685791015625,-1.0000457763671875,-0.044769287109375,-0.1331939697265625
1761505502157721900,4.667721923828125,-0.9941558837890625,-0.050323486328125,-0.1330108642578125
1761505502167758600,4.677758544921875,-0.9937744140625,-0.053955078125,-0.13372802734375
1761505502177794800,4.687794921875,-0.9930877685546875,-0.0514984130859375,-0.13232421875
1761505502187830800,4.697830810546875,-0.9983673095703125,-0.0485382080078125,-0.1314544677734375
1761505502197866800,4.70786669921875,-1.0001983642578125,-0.0469207763671875,-0.1320037841796875
1761505502207902700,4.71790283203125,-1.004913330078125,-0.044403076171875,-0.1313934326171875
1761505502217938700,4.727938720703125,-1.009246826171875,-0.041259765625,-0.1370849609375
1761505502227974700,4.737974609375,-1.0021209716796875,-0.041015625,-0.1405029296875
1761505502238011000,4.748010986328125,-1.00201416015625,-0.043609619140625,-0.1396484375
1761505502248046800,4.758046875,-1.003814697265625,-0.0422515869140625,-0.1430511474609375
1761505502258082800,4.768082763671875,-1.0106658935546875,-0.03778076171875,-0.1488037109375
1761505502268118800,4.778118896484375,-1.0246734619140625,-0.034027099609375,-0.143798828125
1761505502278155800,4.78815576171875,-1.0258026123046875,-0.0330047607421875,-0.1373443603515625
1761505502288191700,4.798191650390625,-1.0172119140625,-0.0373077392578125,-0.1372833251953125
1761505502298227700,4.808227783203125,-1.0018768310546875,-0.0426177978515625,-0.13739013671875
1761505502308263700,4.818263671875,-0.9889984130859375,-0.046630859375,-0.1365509033203125
1761505502318299600,4.828299560546875,-0.9917144775390625,-0.045684814453125,-0.13494873046875
1761505502328336000,4.8383359375,-1.0039520263671875,-0.0455780029296875,-0.1356964111328125
1761505502338371800,4.848371826171875,-1.0100860595703125,-0.0451202392578125,-0.13909912109375
1761505502348407800,4.85840771484375,-1.011993408203125,-0.0438079833984375,-0.1399993896484375
1761505502358443800,4.86844384765625,-1.0068359375,-0.0452880859375,-0.1393585205078125
1761505502368479700,4.878479736328125,-1.0013275146484375,-0.0446014404296875,-0.13861083984375
1761505502378515700,4.888515625,-1.00274658203125,-0.0435791015625,-0.1334991455078125
1761505502388552700,4.898552734375,-1.01434326171875,-0.041534423828125,-0.130096435546875
1761505502398588700,4.908588623046875,-1.011444091796875,-0.0392303466796875,-0.12261962890625
1761505502408625000,4.918625,-1.0004730224609375,-0.0400238037109375,-0.116455078125
1761505502418660900,4.928660888671875,-0.9870147705078125,-0.0435943603515625,-0.11480712890625
1761505502428696800,4.93869677734375,-0.9800262451171875,-0.0437469482421875,-0.120147705078125
1761505502438732800,4.94873291015625,-0.9857025146484375,-0.04205322265625,-0.1282501220703125
1761505502448768800,4.958768798828125,-1.0006866455078125,-0.0424957275390625,-0.13214111328125
1761505502458804700,4.9688046875,-1.015655517578125,-0.0410919189453125,-0.1341400146484375
1761505502468841000,4.978841064453125,-1.0221710205078125,-0.03912353515625,-0.1409912109375
1761505502478877000,4.988876953125,-1.0251617431640625,-0.0399169921875,-0.147247314453125
1761505502488913000,4.998912841796875,-1.0209503173828125,-0.0432586669921875,-0.1437835693359375
1761505502498950000,5.008949951171875,-1.011871337890625,-0.050537109375,-0.14324951171875
1761505502508985900,5.01898583984375,-1.0015869140625,-0.0572662353515625,-0.1390228271484375
1761505502519021800,5.029021728515625,-0.9906768798828125,-0.0564727783203125,-0.1362457275390625
1761505502529057800,5.039057861328125,-0.984344482421875,-0.0503997802734375,-0.136505126953125
1761505502539093800,5.04909375,-0.9846038818359375,-0.044189453125,-0.13775634765625
1761505502549129700,5.059129638671875,-0.9886474609375,-0.0462799072265625,-0.138214111328125
1761505502559165700,5.069165771484375,-0.99786376953125,-0.0476837158203125,-0.139892578125
1761505502569201700,5.07920166015625,-1.0000152587890625,-0.0483551025390625,-0.143890380859375
1761505502579237600,5.089237548828125,-0.9970550537109375,-0.0489349365234375,-0.1421661376953125
1761505502589273600,5.099273681640625,-1.007171630859375,-0.0488739013671875,-0.1412200927734375
1761505502599309600,5.1093095703125,-1.0214996337890625,-0.0472869873046875,-0.1421051025390625
1761505502609346600,5.1193466796875,-1.0267181396484375,-0.047149658203125,-0.1366729736328125
1761505502619382500,5.129382568359375,-1.022216796875,-0.0461578369140625,-0.131744384765625
1761505502629418500,5.13941845703125,-1.0169677734375,-0.0432281494140625,-0.1286468505859375
1761505502639454700,5.149454833984375,-1.015472412109375,-0.04010009765625,-0.1289520263671875
1761505502649490700,5.15949072265625,-1.007720947265625,-0.0389556884765625,-0.13397216796875
1761505502659526700,5.169526611328125,-0.9947509765625,-0.0415802001953125,-0.1361541748046875
1761505502669562600,5.179562744140625,-0.9894256591796875,-0.0489501953125,-0.1334075927734375
1761505502679598600,5.1895986328125,-0.994171142578125,-0.0516204833984375,-0.131561279296875
1761505502689634600,5.199634521484375,-0.9900360107421875,-0.0481109619140625,-0.1295013427734375
1761505502699670500,5.20967041015625,-0.9851837158203125,-0.04180908203125,-0.127410888671875
1761505502709706500,5.21970654296875,-0.9934539794921875,-0.0406494140625,-0.127899169921875
1761505502719742500,5.229742431640625,-1.0066986083984375,-0.040679931640625,-0.1293487548828125
1761505502729779500,5.239779541015625,-1.02496337890625,-0.0391845703125,-0.1303863525390625
1761505502739815400,5.2498154296875,-1.028106689453125,-0.0384368896484375,-0.1324615478515625
1761505502749851400,5.259851318359375,-1.01654052734375,-0.0382080078125,-0.1354827880859375
1761505502759887400,5.269887451171875,-0.998260498046875,-0.043609619140625,-0.1349334716796875
1761505502769923300,5.27992333984375,-0.9851531982421875,-0.0476226806640625,-0.1349945068359375
1761505502779959600,5.28995947265625,-0.9833831787109375,-0.0478668212890625,-0.1381072998046875
1761505502789995500,5.29999560546875,-0.9906463623046875,-0.048004150390625,-0.140380859375
1761505502800031500,5.310031494140625,-0.9996490478515625,-0.05120849609375,-0.138702392578125
1761505502810067500,5.3200673828125,-1.0108795166015625,-0.0506134033203125,-0.1399078369140625
1761505502820103400,5.330103515625,-1.015655517578125,-0.0411529541015625,-0.1454620361328125
1761505502830139600,5.3401396484375,-1.0185546875,-0.0370635986328125,-0.147247314453125
1761505502840176600,5.3501767578125,-1.01898193359375,-0.0430755615234375,-0.14569091796875
1761505502850212600,5.360212646484375,-1.0117950439453125,-0.047149658203125,-0.1432037353515625
1761505502860248600,5.37024853515625,-1.0136566162109375,-0.049407958984375,-0.1409454345703125
1761505502870284500,5.380284423828125,-1.0088958740234375,-0.051422119140625,-0.1421356201171875
1761505502880320500,5.390320556640625,-1.0014190673828125,-0.0503387451171875,-0.140777587890625
1761505502890356500,5.4003564453125,-0.9862518310546875,-0.0489044189453125,-0.135009765625
1761505502900392400,5.410392333984375,-0.9775390625,-0.047760009765625,-0.13250732421875
1761505502910428400,5.420428466796875,-0.9799957275390625,-0.049591064453125,-0.1343994140625
1761505502920464600,5.430464599609375,-0.9933319091796875,-0.04608154296875,-0.1385650634765625
1761505502930500600,5.44050048828125,-1.011688232421875,-0.0412750244140625,-0.1431884765625
1761505502940536600,5.45053662109375,-1.02203369140625,-0.041748046875,-0.1439666748046875
1761505502950573600,5.460573486328125,-1.02783203125,-0.044219970703125,-0.1436920166015625
1761505502960609500,5.470609619140625,-1.014495849609375,-0.04742431640625,-0.1437225341796875
1761505502970645500,5.4806455078125,-1.001220703125,-0.0510101318359375,-0.1381683349609375
1761505502980681500,5.490681396484375,-0.9940643310546875,-0.0570068359375,-0.13134765625
1761505502990717400,5.500717529296875,-0.99395751953125,-0.0567169189453125,-0.12603759765625
1761505503000753400,5.51075341796875,-0.999481201171875,-0.052886962890625,-0.127044677734375
1761505503010789600,5.52078955078125,-1.0011138916015625,-0.049163818359375,-0.1319122314453125
1761505503020825600,5.53082568359375,-1.0056915283203125,-0.0462493896484375,-0.13543701171875
1761505503030861600,5.540861572265625,-1.0064697265625,-0.0435333251953125,-0.1401824951171875
1761505503040897500,5.5508974609375,-1.0016021728515625,-0.0445098876953125,-0.14202880859375
1761505503050933500,5.56093359375,-1.008453369140625,-0.04571533203125,-0.1432952880859375
1761505503060969500,5.570969482421875,-1.01202392578125,-0.047515869140625,-0.144866943359375
1761505503071006500,5.58100634765625,-1.0133819580078125,-0.04840087890625,-0.140106201171875
1761505503081042400,5.59104248046875,-1.010406494140625,-0.0491790771484375,-0.132049560546875
1761505503091078400,5.601078369140625,-0.999237060546875,-0.05120849609375,-0.1270751953125
1761505503101114600,5.611114501953125,-0.99432373046875,-0.051788330078125,-0.1296844482421875
1761505503111150600,5.621150634765625,-0.98919677734375,-0.0536651611328125,-0.13427734375
1761505503121186600,5.6311865234375,-0.9904022216796875,-0.05523681640625,-0.1365814208984375
1761505503131222500,5.641222412109375,-0.9977874755859375,-0.0523223876953125,-0.13909912109375
1761505503141258500,5.651258544921875,-1.01708984375,-0.046783447265625,-0.146331787109375
1761505503151294500,5.66129443359375,-1.0392303466796875,-0.0406646728515625,-0.1515655517578125
1761505503161330400,5.671330322265625,-1.0423126220703125,-0.040008544921875,-0.1466064453125
1761505503171366400,5.681366455078125,-1.0343475341796875,-0.043792724609375,-0.1461181640625
1761505503181403600,5.691403564453125,-1.0071258544921875,-0.0493927001953125,-0.1445770263671875
1761505503191439600,5.701439697265625,-0.984222412109375,-0.0522308349609375,-0.140594482421875
1761505503201475600,5.7114755859375,-0.9710540771484375,-0.0540771484375,-0.1361083984375
1761505503211511600,5.721511474609375,-0.9673919677734375,-0.0527191162109375,-0.1345367431640625
1761505503221547500,5.731547607421875,-0.97314453125,-0.04803466796875,-0.1346893310546875
1761505503231583500,5.74158349609375,-0.977874755859375,-0.0432586669921875,-0.1370086669921875
1761505503241619700,5.75161962890625,-0.9791259765625,-0.040863037109375,-0.138458251953125
1761505503251655700,5.76165576171875,-0.9755096435546875,-0.039703369140625,-0.1440582275390625
1761505503261691600,5.771691650390625,-0.976776123046875,-0.036102294921875,-0.1466827392578125
1761505503271727600,5.7817275390625,-1.0044708251953125,-0.0325927734375,-0.143829345703125
1761505503281763600,5.791763671875,-1.0399017333984375,-0.0304412841796875,-0.1477508544921875
1761505503291799600,5.801799560546875,-1.07037353515625,-0.025238037109375,-0.1514434814453125
1761505503301835500,5.81183544921875,-1.069061279296875,-0.0230865478515625,-0.1495819091796875
1761505503311872500,5.82187255859375,-1.040679931640625,-0.026123046875,-0.143585205078125
1761505503321908500,5.831908447265625,-1.0144195556640625,-0.0334930419921875,-0.1399688720703125
1761505503331944400,5.8419443359375,-0.9961090087890625,-0.04315185546875,-0.1348114013671875
1761505503341980400,5.85198046875,-0.9904632568359375,-0.04852294921875,-0.13372802734375
1761505503352016400,5.862016357421875,-0.9900665283203125,-0.0469512939453125,-0.140594482421875
1761505503362052400,5.87205224609375,-0.9936065673828125,-0.043304443359375,-0.14410400390625
1761505503372088300,5.88208837890625,-0.99798583984375,-0.0402069091796875,-0.1383056640625
1761505503382124500,5.89212451171875,-0.997833251953125,-0.042388916015625,-0.138214111328125
1761505503392160500,5.902160400390625,-0.9974822998046875,-0.041534423828125,-0.1403656005859375
1761505503402196500,5.912196533203125,-0.994354248046875,-0.0406951904296875,-0.1409912109375
1761505503412232700,5.922232666015625,-1.000030517578125,-0.041839599609375,-0.140625
1761505503422268700,5.9322685546875,-1.00177001953125,-0.0425262451171875,-0.14093017578125
1761505503432305700,5.9423056640625,-0.9943084716796875,-0.04638671875,-0.136810302734375
1761505503442341600,5.952341552734375,-0.99200439453125,-0.049560546875,-0.1341400146484375
1761505503452377600,5.962377685546875,-1.000732421875,-0.0503387451171875,-0.131011962890625
1761505503462413600,5.97241357421875,-1.0160980224609375,-0.0491180419921875,-0.12847900390625
1761505503472449500,5.982449462890625,-1.02398681640625,-0.0464935302734375,-0.128143310546875
1761505503482485500,5.992485595703125,-1.0164642333984375,-0.04046630859375,-0.1324310302734375
1761505503492521500,6.002521484375,-1.010986328125,-0.0381317138671875,-0.1380767822265625
1761505503502557400,6.012557373046875,-1.0060577392578125,-0.0411224365234375,-0.1407623291015625
1761505503512593400,6.022593505859375,-1.0033416748046875,-0.04345703125,-0.1395111083984375
1761505503522629400,6.03262939453125,-1.0101470947265625,-0.0431671142578125,-0.1401824951171875
1761505503532665600,6.04266552734375,-1.00738525390625,-0.0445404052734375,-0.13946533203125
1761505503542701600,6.05270166015625,-1.00286865234375,-0.049530029296875,-0.1321868896484375
1761505503552737500,6.062737548828125,-1.0054931640625,-0.0512237548828125,-0.130615234375
1761505503562774500,6.0727744140625,-1.011199951171875,-0.050537109375,-0.1331939697265625
1761505503572810500,6.082810546875,-1.0173187255859375,-0.0525970458984375,-0.13592529296875
1761505503582846500,6.092846435546875,-1.0142669677734375,-0.0521697998046875,-0.1384735107421875
1761505503592882700,6.102882568359375,-1.00390625,-0.0509796142578125,-0.13623046875
1761505503602918700,6.112918701171875,-0.98907470703125,-0.0513916015625,-0.1334075927734375
1761505503612955400,6.122955322265625,-0.98541259765625,-0.0490264892578125,-0.1339874267578125
1761505503622991400,6.132991455078125,-0.9934539794921875,-0.046661376953125,-0.13623046875
1761505503633027300,6.14302734375,-1.0047760009765625,-0.045806884765625,-0.13775634765625
1761505503643063300,6.153063232421875,-1.00274658203125,-0.0441741943359375,-0.1401519775390625
1761505503653099300,6.163099365234375,-0.9971923828125,-0.0455474853515625,-0.13677978515625
1761505503663135200,6.17313525390625,-0.9960784912109375,-0.0469207763671875,-0.1335601806640625
1761505503673171200,6.183171142578125,-1.0064544677734375,-0.045135498046875,-0.136016845703125
1761505503683208200,6.193208251953125,-1.0119781494140625,-0.04217529296875,-0.139404296875
1761505503693244200,6.203244140625,-1.0161285400390625,-0.039520263671875,-0.1385955810546875
1761505503703280000,6.213280029296875,-1.013824462890625,-0.0411224365234375,-0.1358489990234375
1761505503713316000,6.223316162109375,-1.0140380859375,-0.0435791015625,-0.136566162109375
1761505503723352300,6.233352294921875,-1.0040740966796875,-0.0485992431640625,-0.145233154296875
1761505503733388500,6.243388427734375,-0.9904022216796875,-0.0516510009765625,-0.1472320556640625
1761505503743424500,6.253424560546875,-0.98333740234375,-0.0533447265625,-0.1483001708984375
1761505503753460500,6.26346044921875,-0.9829864501953125,-0.05267333984375,-0.150421142578125
1761505503763496400,6.273496337890625,-1.0004119873046875,-0.050811767578125,-0.1531829833984375
1761505503773532400,6.283532470703125,-1.020660400390625,-0.0488128662109375,-0.1515350341796875
1761505503783568400,6.293568359375,-1.033233642578125,-0.04376220703125,-0.1472015380859375
1761505503793604400,6.303604248046875,-1.020721435546875,-0.0426788330078125,-0.1420440673828125
1761505503803640300,6.313640380859375,-1.0033721923828125,-0.0459747314453125,-0.1353759765625
1761505503813676300,6.32367626953125,-0.9931488037109375,-0.0482025146484375,-0.1341705322265625
1761505503823713300,6.33371337890625,-0.9940643310546875,-0.04388427734375,-0.1347808837890625
1761505503833749200,6.343749267578125,-0.9934234619140625,-0.040130615234375,-0.1386260986328125
1761505503843785200,6.35378515625,-0.99761962890625,-0.04302978515625,-0.139373779296875
1761505503853821200,6.3638212890625,-0.9990692138671875,-0.0438079833984375,-0.134368896484375
1761505503863857200,6.373857177734375,-1.0006866455078125,-0.0419464111328125,-0.1297454833984375
1761505503873893400,6.383893310546875,-1.007080078125,-0.0406341552734375,-0.13232421875
1761505503883929300,6.393929443359375,-1.006103515625,-0.041290283203125,-0.1400299072265625
1761505503893965300,6.40396533203125,-1.002960205078125,-0.0426788330078125,-0.1451416015625
1761505503904001300,6.414001220703125,-1.0031585693359375,-0.0482940673828125,-0.146728515625
1761505503914037200,6.424037353515625,-0.99688720703125,-0.0507965087890625,-0.1457366943359375
1761505503924073200,6.4340732421875,-0.9916229248046875,-0.0498504638671875,-0.148529052734375
1761505503934109200,6.444109130859375,-0.996246337890625,-0.0535888671875,-0.14532470703125
1761505503944145200,6.454145263671875,-1.0162353515625,-0.056640625,-0.1358642578125
1761505503954181000,6.46418115234375,-1.027130126953125,-0.0537261962890625,-0.129669189453125
1761505503964218400,6.47421826171875,-1.020599365234375,-0.0511627197265625,-0.1297454833984375
1761505503974254300,6.48425439453125,-1.00750732421875,-0.050445556640625,-0.1277313232421875
1761505503984290300,6.494290283203125,-0.9996337890625,-0.0520172119140625,-0.126617431640625
1761505503994326300,6.504326171875,-0.9978790283203125,-0.0547027587890625,-0.133392333984375
1761505504004362200,6.5143623046875,-0.99664306640625,-0.0550689697265625,-0.1423187255859375
1761505504014398500,6.5243984375,-0.9917144775390625,-0.05438232421875,-0.1446685791015625
1761505504024434400,6.534434326171875,-0.9969940185546875,-0.052886962890625,-0.1439666748046875
1761505504034470400,6.544470458984375,-1.0042266845703125,-0.052459716796875,-0.138946533203125
1761505504044506400,6.55450634765625,-1.00787353515625,-0.0519256591796875,-0.135467529296875
1761505504054542300,6.564542236328125,-1.0022430419921875,-0.050201416015625,-0.1337738037109375
1761505504064578300,6.574578369140625,-0.997711181640625,-0.0481719970703125,-0.1332855224609375
1761505504074614300,6.5846142578125,-1.0105133056640625,-0.0487213134765625,-0.1338348388671875
1761505504084650200,6.594650146484375,-1.026580810546875,-0.046905517578125,-0.1390838623046875
1761505504094686200,6.604686279296875,-1.0350494384765625,-0.041015625,-0.1404571533203125
1761505504104722200,6.61472216796875,-1.0295867919921875,-0.0413665771484375,-0.13824462890625
1761505504114759200,6.62475927734375,-1.0073394775390625,-0.0482940673828125,-0.1344146728515625
1761505504124795100,6.634795166015625,-0.985137939453125,-0.053436279296875,-0.1331787109375
1761505504134831400,6.644831298828125,-0.971038818359375,-0.0528564453125,-0.1359100341796875
1761505504144867300,6.654867431640625,-0.9709320068359375,-0.05340576171875,-0.143463134765625
1761505504154903300,6.6649033203125,-0.9828948974609375,-0.056304931640625,-0.1539764404296875
1761505504164939500,6.674939453125,-0.9835662841796875,-0.0564422607421875,-0.1562652587890625
1761505504174975500,6.6849755859375,-0.9874267578125,-0.050567626953125,-0.1524658203125
1761505504185011500,6.695011474609375,-1.002227783203125,-0.04693603515625,-0.14892578125
1761505504195047400,6.70504736328125,-1.017120361328125,-0.045440673828125,-0.1461639404296875
1761505504205083400,6.71508349609375,-1.025421142578125,-0.043426513671875,-0.1414642333984375
1761505504215119400,6.725119384765625,-1.0274200439453125,-0.04290771484375,-0.1338653564453125
1761505504225155300,6.7351552734375,-1.0241241455078125,-0.0446014404296875,-0.1316375732421875
1761505504235191300,6.74519140625,-1.0171661376953125,-0.050872802734375,-0.133941650390625
1761505504245227300,6.755227294921875,-1.0062255859375,-0.0551605224609375,-0.1380767822265625
1761505504255263200,6.76526318359375,-0.98992919921875,-0.0532989501953125,-0.141326904296875
1761505504265300200,6.77530029296875,-0.9811553955078125,-0.0532989501953125,-0.142486572265625
1761505504275336200,6.785336181640625,-0.98101806640625,-0.055877685546875,-0.14117431640625
1761505504285372200,6.7953720703125,-0.98919677734375,-0.0536346435546875,-0.1410675048828125
1761505504295408000,6.805408203125,-1.0027618408203125,-0.04864501953125,-0.141143798828125
1761505504305444400,6.8154443359375,-1.014495849609375,-0.0475006103515625,-0.14404296875
1761505504315480300,6.825480224609375,-1.02288818359375,-0.04595947265625,-0.144012451171875
1761505504325516300,6.835516357421875,-1.0291595458984375,-0.04364013671875,-0.140533447265625
1761505504335552300,6.84555224609375,-1.025970458984375,-0.0412139892578125,-0.1360321044921875
1761505504345588200,6.855588134765625,-1.014862060546875,-0.044097900390625,-0.1333770751953125
1761505504355624200,6.865624267578125,-0.9989166259765625,-0.0529022216796875,-0.1322784423828125
1761505504365660400,6.875660400390625,-0.981048583984375,-0.0553741455078125,-0.13433837890625
1761505504375696400,6.8856962890625,-0.974700927734375,-0.0535430908203125,-0.1390533447265625
1761505504385732400,6.895732421875,-0.9788818359375,-0.0521697998046875,-0.1476287841796875
1761505504395768300,6.905768310546875,-0.9898529052734375,-0.047821044921875,-0.15380859375
1761505504405804300,6.91580419921875,-1.0011138916015625,-0.04449462890625,-0.15582275390625
1761505504415840500,6.925840576171875,-1.01458740234375,-0.0454864501953125,-0.1595611572265625
1761505504425877200,6.935877197265625,-1.0143585205078125,-0.04638671875,-0.154998779296875
1761505504435913200,6.945913330078125,-1.01031494140625,-0.0507354736328125,-0.148223876953125
1761505504445949400,6.955949462890625,-1.0072174072265625,-0.0523834228515625,-0.1407318115234375
1761505504455985400,6.9659853515625,-1.0062713623046875,-0.0526275634765625,-0.1408538818359375
1761505504466021400,6.976021484375,-1.0015411376953125,-0.0529937744140625,-0.140533447265625
1761505504476057300,6.986057373046875,-0.993682861328125,-0.0523681640625,-0.1397857666015625
1761505504486093300,6.99609326171875,-0.979522705078125,-0.048797607421875,-0.1359405517578125
1761505504496129300,7.00612939453125,-0.9810791015625,-0.0453948974609375,-0.137847900390625
1761505504506165200,7.016165283203125,-0.9895477294921875,-0.04290771484375,-0.1374664306640625
1761505504516201200,7.026201171875,-1.002655029296875,-0.042510986328125,-0.1385040283203125
1761505504526237200,7.0362373046875,-1.0136566162109375,-0.0434112548828125,-0.1414794921875
1761505504536273200,7.046273193359375,-1.0252838134765625,-0.0459747314453125,-0.1406707763671875
1761505504546309000,7.05630908203125,-1.037384033203125,-0.0477752685546875,-0.1423492431640625
1761505504556345300,7.066345458984375,-1.0320281982421875,-0.04705810546875,-0.14288330078125
1761505504566381300,7.07638134765625,-1.02178955078125,-0.048370361328125,-0.1382293701171875
1761505504576417300,7.086417236328125,-1.0166015625,-0.0565338134765625,-0.1357574462890625
1761505504586453200,7.096453369140625,-1.00592041015625,-0.059417724609375,-0.1322021484375
1761505504596490500,7.106490478515625,-0.9976654052734375,-0.054351806640625,-0.1326446533203125
1761505504606526500,7.1165263671875,-0.9930419921875,-0.0502471923828125,-0.1280670166015625
1761505504616562200,7.126562255859375,-1.0023193359375,-0.0490875244140625,-0.123291015625
1761505504626598100,7.13659814453125,-1.0120849609375,-0.044189453125,-0.124908447265625
1761505504636634000,7.146634033203125,-1.010650634765625,-0.0422210693359375,-0.130859375
1761505504646670000,7.156670166015625,-1.0079193115234375,-0.042694091796875,-0.1318817138671875
1761505504656706000,7.1667060546875,-1.0088653564453125,-0.04522705078125,-0.134307861328125
1761505504666742000,7.176741943359375,-1.0077667236328125,-0.0442962646484375,-0.1370697021484375
1761505504676778000,7.186778076171875,-1.0038604736328125,-0.0404052734375,-0.1417236328125
1761505504686814000,7.19681396484375,-0.9930877685546875,-0.0424346923828125,-0.141998291015625
1761505504696850200,7.20685009765625,-0.9875640869140625,-0.0437774658203125,-0.1405792236328125
1761505504706886100,7.21688623046875,-0.9855194091796875,-0.0430450439453125,-0.14166259765625
1761505504716922000,7.226922119140625,-0.9857177734375,-0.0393524169921875,-0.13800048828125
1761505504726958000,7.2369580078125,-0.99176025390625,-0.0401763916015625,-0.132904052734375
1761505504736994000,7.246994140625,-1.0010986328125,-0.0430450439453125,-0.1302337646484375
1761505504747030000,7.257030029296875,-1.008758544921875,-0.040740966796875,-0.12969970703125
1761505504757066000,7.26706591796875,-1.00994873046875,-0.0378570556640625,-0.1331329345703125
1761505504767102000,7.27710205078125,-1.0081634521484375,-0.04266357421875,-0.1345367431640625
1761505504777139000,7.287138916015625,-0.997772216796875,-0.0505218505859375,-0.13348388671875
1761505504787175000,7.2971748046875,-0.989837646484375,-0.0525665283203125,-0.1350250244140625
1761505504797211000,7.3072109375,-0.9880218505859375,-0.0553741455078125,-0.1390838623046875
1761505504807246800,7.317246826171875,-0.9939422607421875,-0.0548858642578125,-0.1425018310546875
1761505504817282800,7.32728271484375,-1.004608154296875,-0.05499267578125,-0.1441802978515625
1761505504827318800,7.33731884765625,-1.0161895751953125,-0.0511322021484375,-0.145477294921875
1761505504837355300,7.347355224609375,-1.0250244140625,-0.0490570068359375,-0.1437530517578125
1761505504847391200,7.35739111328125,-1.0295562744140625,-0.0513153076171875,-0.13909912109375
1761505504857427200,7.36742724609375,-1.02252197265625,-0.0550689697265625,-0.1331634521484375
1761505504867463200,7.377463134765625,-1.0030670166015625,-0.06024169921875,-0.131011962890625
1761505504877499100,7.3874990234375,-0.9910125732421875,-0.06524658203125,-0.1331024169921875
1761505504887535000,7.39753515625,-0.990325927734375,-0.0633544921875,-0.1358184814453125
1761505504897571000,7.407571044921875,-1.003875732421875,-0.05517578125,-0.140289306640625
1761505504907607000,7.41760693359375,-1.0174560546875,-0.049652099609375,-0.1410064697265625
1761505504917643000,7.42764306640625,-1.01885986328125,-0.0482025146484375,-0.138671875
1761505504927679000,7.437678955078125,-1.009918212890625,-0.0525665283203125,-0.131805419921875
1761505504937715000,7.44771484375,-0.9961090087890625,-0.055938720703125,-0.128143310546875
1761505504947751200,7.457751220703125,-0.988983154296875,-0.0552215576171875,-0.1297454833984375
1761505504957788000,7.467787841796875,-0.9962921142578125,-0.0549163818359375,-0.132080078125
1761505504967824000,7.477823974609375,-1.002166748046875,-0.0529327392578125,-0.135498046875
1761505504977860000,7.487860107421875,-1.000885009765625,-0.04962158203125,-0.132598876953125
1761505504987896000,7.49789599609375,-0.997955322265625,-0.04827880859375,-0.1295623779296875
1761505504997932000,7.50793212890625,-0.9972381591796875,-0.0477294921875,-0.126251220703125
1761505505007968000,7.517968017578125,-0.9991302490234375,-0.0467987060546875,-0.1295166015625
1761505505018004000,7.52800390625,-1.010711669921875,-0.047576904296875,-0.1290740966796875
1761505505028040000,7.5380400390625,-1.0244903564453125,-0.0496673583984375,-0.12835693359375
1761505505038076000,7.548075927734375,-1.0292816162109375,-0.04852294921875,-0.13165283203125
1761505505048111900,7.55811181640625,-1.02642822265625,-0.044403076171875,-0.1345367431640625
1761505505058147800,7.56814794921875,-1.00946044921875,-0.0461883544921875,-0.1342620849609375
1761505505068184000,7.57818408203125,-0.988250732421875,-0.0501251220703125,-0.1346435546875
1761505505078220000,7.588219970703125,-0.975616455078125,-0.0511016845703125,-0.1325225830078125
1761505505088256000,7.598256103515625,-0.979949951171875,-0.05462646484375,-0.1298065185546875
1761505505098292200,7.608292236328125,-0.9939727783203125,-0.0535430908203125,-0.12744140625
1761505505108328200,7.618328125,-1.0037384033203125,-0.0516204833984375,-0.1290435791015625
1761505505118364200,7.6283642578125,-1.0126800537109375,-0.0509796142578125,-0.1336669921875
1761505505128400100,7.638400146484375,-1.0233917236328125,-0.0485687255859375,-0.1378021240234375
1761505505138436000,7.64843603515625,-1.0173492431640625,-0.0451507568359375,-0.14276123046875
1761505505148473000,7.65847314453125,-1.0037078857421875,-0.0452728271484375,-0.1448211669921875
1761505505158509000,7.668509033203125,-0.9906158447265625,-0.05072021484375,-0.1430816650390625
1761505505168545000,7.678544921875,-0.983184814453125,-0.053070068359375,-0.143646240234375
1761505505178581000,7.6885810546875,-0.98712158203125,-0.0528717041015625,-0.138275146484375
1761505505188617000,7.698616943359375,-0.9956817626953125,-0.0515899658203125,-0.1311187744140625
1761505505198653000,7.70865283203125,-1.0002899169921875,-0.048065185546875,-0.1247711181640625
1761505505208689000,7.71868896484375,-1.0061492919921875,-0.050201416015625,-0.1289520263671875
1761505505218724900,7.728724853515625,-1.00897216796875,-0.0535888671875,-0.135467529296875
1761505505228760800,7.7387607421875,-1.0084991455078125,-0.045989990234375,-0.137420654296875
1761505505238797000,7.748797119140625,-1.0163726806640625,-0.04156494140625,-0.1381683349609375
1761505505248833000,7.7588330078125,-1.0266571044921875,-0.0497283935546875,-0.140716552734375
1761505505258869000,7.768868896484375,-1.034149169921875,-0.0565948486328125,-0.141204833984375
1761505505268905000,7.778905029296875,-1.0271148681640625,-0.0523681640625,-0.142364501953125
1761505505278941000,7.78894091796875,-1.0152130126953125,-0.049713134765625,-0.1485137939453125
1761505505288977000,7.798976806640625,-0.9952239990234375,-0.055267333984375,-0.1405792236328125
1761505505299013000,7.80901318359375,-0.9839019775390625,-0.0634307861328125,-0.1340179443359375
1761505505309049000,7.819049072265625,-0.978485107421875,-0.0657501220703125,-0.1299591064453125
1761505505319085000,7.8290849609375,-0.977783203125,-0.0594940185546875,-0.12994384765625
1761505505329122000,7.8391220703125,-0.9866180419921875,-0.0564117431640625,-0.13275146484375
1761505505339158000,7.849157958984375,-0.9894866943359375,-0.0544586181640625,-0.1298980712890625
1761505505349194000,7.859194091796875,-1.00177001953125,-0.0524139404296875,-0.1311492919921875
1761505505359230000,7.86922998046875,-1.01104736328125,-0.0488433837890625,-0.136199951171875
1761505505369266000,7.879265869140625,-1.0221405029296875,-0.0501251220703125,-0.140472412109375
1761505505379302100,7.88930224609375,-1.0220489501953125,-0.05328369140625,-0.1389312744140625
1761505505389338000,7.899338134765625,-1.014892578125,-0.0572357177734375,-0.1360626220703125
1761505505399374000,7.9093740234375,-1.014739990234375,-0.0617828369140625,-0.1306610107421875
1761505505409410000,7.91941015625,-1.005279541015625,-0.0628204345703125,-0.1298980712890625
1761505505419446000,7.929446044921875,-0.9947357177734375,-0.060150146484375,-0.1248321533203125
1761505505429482000,7.93948193359375,-0.9825286865234375,-0.0548858642578125,-0.121124267578125
1761505505439518000,7.94951806640625,-0.982208251953125,-0.049713134765625,-0.1182861328125
1761505505449554000,7.959553955078125,-0.99896240234375,-0.04827880859375,-0.1190338134765625
1761505505459590000,7.96958984375,-1.0066070556640625,-0.0494232177734375,-0.124755859375
1761505505469625900,7.9796259765625,-1.0206146240234375,-0.052459716796875,-0.1273651123046875
1761505505479661800,7.989661865234375,-1.017974853515625,-0.0536956787109375,-0.133514404296875
1761505505489698000,7.999697998046875,-1.014801025390625,-0.053619384765625,-0.1361083984375
1761505505499734000,8.009734130859375,-1.003692626953125,-0.0575714111328125,-0.1311187744140625
1761505505509771000,8.01977099609375,-0.991607666015625,-0.067352294921875,-0.1255340576171875
1761505505519807000,8.029806884765625,-0.979217529296875,-0.0694732666015625,-0.12060546875
1761505505529843200,8.03984326171875,-0.9705657958984375,-0.0650787353515625,-0.1186370849609375
1761505505539879200,8.049879150390625,-0.970489501953125,-0.06646728515625,-0.1239013671875
1761505505549915100,8.0599150390625,-0.996734619140625,-0.0655517578125,-0.1315765380859375
1761505505559951000,8.069951171875,-1.0206451416015625,-0.04693603515625,-0.1399688720703125
1761505505569987000,8.079987060546875,-1.04632568359375,-0.037384033203125,-0.1496429443359375
1761505505580023000,8.09002294921875,-1.0507659912109375,-0.0479583740234375,-0.1483001708984375
1761505505590059000,8.10005908203125,-1.031890869140625,-0.0594940185546875,-0.1441802978515625
1761505505600095000,8.110094970703125,-1.0064239501953125,-0.0574798583984375,-0.1362457275390625
1761505505610131000,8.120130859375,-0.9907989501953125,-0.05810546875,-0.136932373046875
1761505505620166700,8.130166748046875,-0.9802703857421875,-0.06915283203125,-0.1379852294921875
1761505505630203000,8.140202880859375,-0.95916748046875,-0.0692596435546875,-0.140716552734375
1761505505640238800,8.15023876953125,-0.9253692626953125,-0.00152587890625,-0.1467437744140625
1761505505650274800,8.16027490234375,-0.9639129638671875,-0.0001373291015625,-0.0966796875
1761505505660310800,8.170310791015625,-1.0638885498046875,-0.083587646484375,-0.0439910888671875
1761505505670346800,8.1803466796875,-1.0776824951171875,-0.090972900390625,-0.0336761474609375
1761505505680382700,8.1903828125,-1.02264404296875,-0.0323028564453125,-0.1075439453125
1761505505690420000,8.200419921875,-1.0137176513671875,-0.0083465576171875,-0.1551055908203125
1761505505700456000,8.2104560546875,-1.0257720947265625,-0.036102294921875,-0.1480560302734375
1761505505710492000,8.220491943359375,-1.0472564697265625,-0.06939697265625,-0.1424102783203125
1761505505720528000,8.23052783203125,-1.048309326171875,-0.0482330322265625,-0.161285400390625
1761505505730563800,8.240563720703125,-1.045379638671875,0.032318115234375,-0.168121337890625
1761505505740599800,8.250599853515626,-1.0067901611328125,-0.0265350341796875,-0.1262969970703125
1761505505750635800,8.2606357421875,-0.97857666015625,-0.1066741943359375,-0.0543365478515625
1761505505760671700,8.270671630859376,-0.9466552734375,-0.111602783203125,-0.0455169677734375
1761505505770708000,8.2807080078125,-0.979644775390625,-0.070343017578125,-0.0699005126953125
1761505505780744000,8.290743896484376,-1.027008056640625,-0.0169219970703125,-0.1067657470703125
1761505505790780000,8.30077978515625,-1.0439605712890625,-0.001220703125,-0.15423583984375
1761505505800815900,8.31081591796875,-1.031982421875,-0.024444580078125,-0.1655731201171875
1761505505810851800,8.320851806640626,-1.0258941650390625,-0.039581298828125,-0.1300201416015625
1761505505820887800,8.3308876953125,-1.022674560546875,-0.0276336669921875,-0.097869873046875
1761505505830923800,8.340923828125,-0.99945068359375,-0.0114593505859375,-0.108856201171875
1761505505840959700,8.350959716796876,-0.9631500244140625,-0.0232696533203125,-0.1302642822265625
1761505505850996700,8.360996826171874,-0.957611083984375,-0.0459136962890625,-0.1407012939453125
1761505505861032700,8.37103271484375,-0.9771575927734375,-0.055572509765625,-0.144927978515625
1761505505871068700,8.381068603515626,-1.0093994140625,-0.0511322021484375,-0.1410064697265625
1761505505881104600,8.391104736328124,-1.040283203125,-0.04925537109375,-0.12994384765625
1761505505891140600,8.401140625,-1.0554962158203125,-0.051788330078125,-0.111480712890625
1761505505901176800,8.4111767578125,-1.057525634765625,-0.0493316650390625,-0.1025238037109375
1761505505911212800,8.421212890625,-1.033233642578125,-0.0447235107421875,-0.1042022705078125
1761505505921249000,8.4312490234375,-1.018218994140625,-0.047698974609375,-0.107391357421875
1761505505931285000,8.441284912109374,-1.0113983154296875,-0.0533905029296875,-0.1094818115234375
1761505505941321700,8.45132177734375,-0.999725341796875,-0.0441741943359375,-0.1116485595703125
1761505505951358000,8.46135791015625,-1.0001678466796875,-0.038970947265625,-0.123626708984375
1761505505961394000,8.471393798828124,-1.0056915283203125,-0.045013427734375,-0.1332244873046875
1761505505971430000,8.481429931640625,-1.01019287109375,-0.05224609375,-0.1321563720703125
1761505505981465900,8.4914658203125,-1.0073699951171875,-0.044891357421875,-0.1304168701171875
1761505505991501800,8.501501708984375,-1.0082550048828125,-0.03472900390625,-0.135711669921875
1761505506001537800,8.511537841796875,-1.0052032470703125,-0.0463409423828125,-0.135955810546875
1761505506011573800,8.52157373046875,-1.0066680908203125,-0.075439453125,-0.1431121826171875
1761505506021609700,8.531609619140625,-0.9951629638671875,-0.0932769775390625,-0.1501007080078125
1761505506031645700,8.541645751953125,-0.93585205078125,-0.0757598876953125,-0.168121337890625
1761505506041681700,8.551681640625,-0.8771514892578125,-0.0464935302734375,-0.1852874755859375
1761505506051717600,8.561717529296875,-0.87506103515625,-0.0245819091796875,-0.16412353515625
1761505506061753900,8.57175390625,-0.917938232421875,-0.01654052734375,-0.1567840576171875
1761505506071789800,8.581789794921875,-0.9756622314453125,-0.01318359375,-0.1611785888671875
1761505506081825800,8.59182568359375,-1.0293426513671875,0.1010284423828125,-0.1541595458984375
1761505506091863000,8.601863037109375,-1.1889495849609375,0.00360107421875,-0.0588531494140625
1761505506101899000,8.61189892578125,-1.171661376953125,-0.1349639892578125,-0.0071563720703125
1761505506111935000,8.62193505859375,-0.9747467041015625,-0.12677001953125,0.000152587890625
1761505506121971000,8.631970947265625,-0.864349365234375,-0.02362060546875,-0.0922088623046875
1761505506132007000,8.6420068359375,-0.9063720703125,0.0232086181640625,-0.1416473388671875
1761505506142043000,8.65204296875,-1.0027618408203125,-0.00396728515625,-0.1401519775390625
1761505506152078800,8.662078857421875,-1.1109466552734375,0.041290283203125,-0.1515350341796875
1761505506162114800,8.67211474609375,-1.1113128662109375,0.1109161376953125,-0.160491943359375
