time,seconds_elapsed,z,y,x
1761479472459008800,0.0950087890625,0.7769552635997533,0.2943208547814749,0.8729195832304656
1761479472469044700,0.105044677734375,1.0492980405300856,0.46739729312732814,0.7707007332496345
1761479472479080700,0.115080810546875,1.3192191432714462,0.47927138039227574,0.6239138427458704
1761479472489117700,0.12511767578125,1.6362959649413824,0.27107805422414094,0.5433537207350134
1761479472499153700,0.135153564453125,1.7517472214609384,0.3137880092576146,0.5603397807188332
1761479472509189600,0.145189697265625,1.6874433838546274,0.5078421893056482,0.6208487560868263
1761479472519225600,0.1552255859375,1.5215058026790618,0.8008372205771506,0.5850355382971465
1761479472529261600,0.165261474609375,2.007331755813956,0.9167297911234199,0.9677939156673848
1761479472539297500,0.175297607421875,2.6357354573249814,0.9365028514772653,1.226205197878927
1761479472549334800,0.185334716796875,2.578395028990507,1.0311500971600414,1.0963804019615053
1761479472559370800,0.195370849609375,2.421437457606196,1.095078525582701,0.8180519747503101
1761479472569406700,0.20540673828125,2.3538234725385903,0.7699514492522924,0.5204050990849733
1761479472579442700,0.215442626953125,2.7393682657569647,0.24369009841978548,0.126882897246629
1761479472589478700,0.225478759765625,3.603887246519327,0.029297040828689933,-0.3826005564600229
1761479472599514600,0.2355146484375,4.2069881644696,-0.15615743398256599,-0.6145952486500144
1761479472609550600,0.245550537109375,4.065895101693273,-0.5764904127918183,-0.531073500354588
1761479472619587600,0.255587646484375,3.067229516291618,-0.9589306641235947,-0.475509434042871
1761479472629623600,0.26562353515625,1.0355419023782013,-1.3635473836891352,-0.783024646641314
1761479472639659500,0.275659423828125,-1.6720628593713045,-1.3424737621307372,-1.4399927638575434
1761479472649695700,0.28569580078125,-4.79043570292294,-1.0621866020672022,-3.041028030325472
1761479472659731700,0.295731689453125,-7.617260718336701,-1.2752177967205642,-4.633737951518595
1761479472669767700,0.305767578125,-9.090634066009521,-1.4171950949855148,-5.75533404327929
1761479472679804700,0.3158046875,-8.421849254271388,-0.9681939478356391,-6.061276891994476
1761479472689840600,0.325840576171875,-6.901539967900514,-1.3977484901070594,-4.489429141566157
1761479472699876600,0.335876708984375,-6.738766403713822,-2.779850498270988,-1.9298998488262296
1761479472709912600,0.34591259765625,-6.991556923434138,-3.468430143803358,-0.38201574230939145
1761479472719948800,0.35594873046875,-7.992409789747,-3.0497201630860564,-0.7128443182170391
1761479472729984800,0.36598486328125,-9.862233355534077,-2.1351628936961293,-2.291148989699781
1761479472740021800,0.376021728515625,-11.215193440365791,-1.7611003023482859,-4.040933386655151
1761479472750057700,0.3860576171875,-10.752339782017469,-1.8210555893562732,-5.552802469199896
1761479472760093700,0.39609375,-9.26859526245594,-2.178459306848049,-5.793281788879632
1761479472770129700,0.406129638671875,-7.9167814250499005,-2.3513918614774942,-4.499141265024244
1761479472780165600,0.41616552734375,-6.315268019676208,-2.119768486817926,-2.674916836373508
1761479472790201600,0.42620166015625,-3.8225364271849394,-1.036827923600748,-0.9023848932981491
1761479472800237600,0.436237548828125,-2.726251010030508,-0.4086958786379546,-0.025421441504359245
1761479472810274600,0.446274658203125,-3.3621500357329843,1.0372134888522326,1.079415238635242
1761479472820310500,0.456310546875,-6.368164328083395,2.013788822998851,2.5020178917527196
1761479472830346500,0.466346435546875,-7.344717450398206,2.5151237493023273,3.4567218780919906
1761479472840382500,0.476382568359375,-5.758488123396039,2.9583558845967053,3.389534301742911
1761479472850418700,0.486418701171875,-3.341564928343892,2.831845181663334,2.4854028570383786
1761479472860454700,0.49645458984375,-0.4787357026129961,2.533731711399555,0.9062506288155913
1761479472870491600,0.50649169921875,2.5307085641860962,2.12086578053534,0.34815526602268215
1761479472880527600,0.516527587890625,4.960418175575136,2.0473105688504876,1.0154828646898268
1761479472890563800,0.526563720703125,6.752420835056901,2.1747800338134167,2.308982168032229
1761479472900599800,0.536599853515625,8.369453881123661,2.236384549333155,3.1304470199659464
1761479472910635800,0.5466357421875,9.239756121462584,2.3505723617881533,3.21728505320251
1761479472920671700,0.556671630859375,9.663561379492283,2.1901576356872914,2.9344948242768645
1761479472930708700,0.566708740234375,10.43096146376133,1.6807501698262988,1.999829125098884
1761479472940744700,0.57674462890625,11.846799737310409,0.9831364462278783,1.212690321137011
1761479472950780700,0.58678076171875,13.412871826946734,0.2044999515429139,1.4244161322802305
1761479472960816600,0.596816650390625,14.626332255673407,-0.4203792291037738,2.394494213362038
1761479472970852600,0.6068525390625,15.110793350195884,-0.5342040534652769,3.0051147131621834
1761479472980888600,0.616888671875,14.388256490004062,-0.37355749136991795,3.215148625695705
1761479472990925600,0.626925537109375,12.895966260415316,-0.3582840805228799,3.61771089694947
1761479473000961500,0.63696142578125,11.160841087931393,-0.30964141097217796,3.7953739872321486
1761479473010997000,0.6469970703125,9.447290618395805,-0.06873071413785219,3.615767069405317
1761479473021033000,0.657032958984375,8.090215499460697,0.22765797815993427,3.4528748472750186
1761479473031069000,0.66706884765625,7.186908815142512,0.37573702736608683,3.2659549760863182
1761479473041105200,0.677105224609375,6.5271893533915275,0.6607613720193505,2.971913285306096
1761479473051142000,0.687141845703125,5.705889336630702,0.8400808512069284,3.0383190636277195
1761479473061177900,0.697177734375,4.79015688598156,0.7373070707570761,3.1281250067591664
1761479473071214000,0.707214111328125,4.487206789341569,1.1929733018193394,3.2943197775661943
1761479473081250000,0.71725,5.025339268296957,1.4943372252464293,4.068506453235448
1761479473091286000,0.7272861328125,5.967284603089094,1.923225777889788,4.029617042870819
1761479473101322000,0.737322021484375,6.130778882765769,2.6108582056999206,3.24896117118746
1761479473111358000,0.74735791015625,4.561101462113857,2.9938629590466617,2.5035095916151997
1761479473121395000,0.75739501953125,1.706161528328061,2.7450927808836103,1.3976292476415633
1761479473131431000,0.767430908203125,-1.6870681208014486,2.341723869422078,-0.30848084276020526
1761479473141467000,0.777466796875,-5.5636330752938985,1.4293705398172138,-2.3710338427975772
1761479473151502800,0.7875029296875,-9.290249460381268,0.5818476289760321,-5.558751732993126
1761479473161538800,0.797538818359375,-12.39063188921213,-0.4988766464311629,-10.215753363460301
1761479473171574800,0.80757470703125,-14.430734864771365,-1.855696402365714,-14.75014451330304
1761479473181612000,0.817612060546875,-15.852647489798068,-2.9972575699210164,-17.077172917896508
1761479473191648000,0.82764794921875,-16.63701039930582,-3.4579958435505627,-15.373401499575376
1761479473201684000,0.83768408203125,-16.276795277655125,-3.2843513412594794,-10.9848848015666
1761479473211720000,0.847719970703125,-15.270933643269538,-2.700886267149448,-6.263446647024154
1761479473221756000,0.857755859375,-14.574679225325584,-1.968548290041834,-2.6833514872416853
1761479473231791900,0.8677919921875,-14.53833716135621,-1.3236220544055104,-0.7764397152930498
1761479473241828900,0.877828857421875,-13.940096542918681,-0.6860016117379069,0.04911299047619104
1761479473251864800,0.88786474609375,-12.934683821344375,-0.2058264509063214,0.27978870902210473
1761479473261900800,0.89790087890625,-11.944403202450275,-0.2771568992137909,0.45953006688356396
1761479473271936800,0.907936767578125,-10.488044702464341,-0.6096161815958098,0.5893617309331893
1761479473281973000,0.917972900390625,-8.658561914893983,-0.8776720384545623,0.3778904790729284
1761479473292009000,0.928009033203125,-7.448208804532885,-1.0823875324442982,0.19800182169526814
1761479473302046000,0.9380458984375,-7.263670567783713,-0.8769158863250166,0.30848698024004695
1761479473312082200,0.948082275390625,-7.548327467364072,-0.35895752280503507,0.26327742694318296
1761479473322118100,0.9581181640625,-7.442067817559838,0.42690081289224324,0.20657558877319096
1761479473332154000,0.968154052734375,-6.340885860535502,1.336449533405155,0.23065613706260918
1761479473342190000,0.978190185546875,-4.484468304288387,2.0831873533956706,0.2636512286916375
1761479473352227000,0.98822705078125,-2.404678630506992,2.5694141424164174,0.15966361547261476
1761479473362263000,0.998262939453125,0.13938742790222167,2.873002536959946,0.09792553670108317
1761479473372299000,1.008299072265625,3.151602328458428,3.077776044747233,-0.20594518191516398
1761479473382335000,1.0183349609375,6.100302495959401,2.8549130457788703,-0.40905075649023054
1761479473392371000,1.028370849609375,8.545845636296272,2.5308798290997743,-0.4794689853236079
1761479473402407000,1.038406982421875,10.400108060336112,2.13303464949578,-0.15244769274443387
1761479473412444000,1.04844384765625,11.830138525366783,1.8812474615991115,0.35182109505385156
1761479473422480000,1.05847998046875,12.45697044751644,1.6597025594919919,0.5362555791676045
1761479473432515800,1.068515869140625,12.702262720435858,1.4052058203756808,0.4242117930039763
1761479473442551800,1.0785517578125,12.83489658242464,1.1127452613070608,0.32651392757892606
1761479473452587800,1.088587890625,13.057954811704159,0.9537214050427079,0.7055684819951653
1761479473462623700,1.098623779296875,13.254146076846123,0.7412937292404472,1.4977923341363668
1761479473472661000,1.108660888671875,13.455506853580474,0.5566622612498701,2.2201041534006594
1761479473482697000,1.118697021484375,13.394134393250942,0.4990352710589766,2.9878257247090336
1761479473492733000,1.12873291015625,12.702955963397025,0.34656142095997927,3.7685070230945943
1761479473502769000,1.138768798828125,11.67096503149867,0.38518640823476014,4.146026038506627
1761479473512804900,1.148804931640625,10.08367713535428,0.603349193622917,4.1371974198848
1761479473522841000,1.158841064453125,8.650554549527168,0.678020769051835,3.9195109467715024
1761479473532877800,1.1688779296875,7.461994753301143,0.7879020434193312,3.4319492558851836
1761479473542913800,1.178913818359375,6.544164453589916,0.8097041984479874,2.9678134487718344
1761479473552950000,1.188949951171875,5.8172039317369455,0.9034680854249745,2.8399674055814743
1761479473562986000,1.198986083984375,5.395173866686225,1.028202426335588,3.101777098059654
1761479473573022000,1.20902197265625,5.296310756874084,1.1936906563084573,3.112907563883066
1761479473583059000,1.219058837890625,4.955547354668378,1.9522928824201224,2.6376205404192206
1761479473593095000,1.229094970703125,4.347725253415107,2.8910288997769356,2.0347768121004104
1761479473603131100,1.239131103515625,4.870173841026425,3.493574521932006,2.1642424193166194
1761479473613167000,1.2491669921875,5.9714329549402,4.073448878073692,2.331148261002451
1761479473623203000,1.259203125,6.419100150072574,3.7070571136146784,2.609875624403357
1761479473633239000,1.269239013671875,5.12934500169456,2.9582106309071183,1.705567507957667
1761479473643276000,1.279276123046875,2.593520117408037,2.2038208348587154,-0.3414835331737995
1761479473653312000,1.28931201171875,-0.8498363754153251,1.0988178582414985,-2.748582376565039
1761479473663348000,1.299347900390625,-5.094723770168423,-0.1868625880435109,-4.980585349813103
1761479473673384000,1.309384033203125,-9.499839720800518,-1.8536426847063003,-7.188813771981001
1761479473683420000,1.319419921875,-12.30394846201539,-3.1553689875155686,-9.128051065734029
1761479473693456000,1.329455810546875,-14.125525591027737,-4.3423999667391175,-10.960725342822075
1761479473703492900,1.339492919921875,-16.482514249598978,-5.183910120096803,-12.66260875543952
1761479473713528800,1.34952880859375,-18.408233305609226,-5.171832144290208,-12.69653206782937
1761479473723564800,1.359564697265625,-18.61051996501684,-4.057800642564892,-9.945374580079317
1761479473733600800,1.369600830078125,-17.314814968323706,-2.451701662966609,-5.168112246984243
1761479473743636700,1.37963671875,-15.575656594800948,-1.242703766606748,-0.6669774700552225
1761479473753673000,1.3896728515625,-13.98118375558853,-1.1528035693205891,1.722424388603866
1761479473763710000,1.3997099609375,-12.480568765246867,-1.827930443561822,1.4271888118639589
1761479473773746000,1.409745849609375,-10.971198806041478,-3.0199080854073164,-0.8345619416549801
1761479473783782000,1.419781982421875,-10.047202969437837,-3.7802988754361864,-3.9434354277163743
1761479473793818000,1.429818115234375,-9.696880880770086,-3.747084003576636,-5.938955165183544
1761479473803854000,1.43985400390625,-8.370798281469941,-3.283307385164499,-5.586902307200432
1761479473813890800,1.449890869140625,-6.914663068845868,-2.4890339070171117,-3.88221552760005
1761479473823927000,1.459927001953125,-7.25852794419825,-1.1957764496065675,-1.7595415285989642
1761479473833963000,1.469962890625,-7.671541174578667,0.2202599037978798,0.07314911510199308
1761479473843999000,1.4799990234375,-7.591680871400237,1.3118262565411627,1.3298545190542936
1761479473854035000,1.490034912109375,-6.390445717996358,2.0475480308681724,2.603314073930681
1761479473864071000,1.50007080078125,-4.07623178679049,2.451468877124041,3.564353108510375
1761479473874108000,1.51010791015625,-0.9585755670756101,2.5038813475370407,3.6905958081573247
1761479473884143900,1.520143798828125,2.400320435297489,2.432199820769578,3.2101199838787315
1761479473894180000,1.53018017578125,5.074900879323482,2.4382985760360953,2.6693612480729816
1761479473904216000,1.540216064453125,6.895012027436494,2.5489026847854257,2.375446690803766
1761479473914252000,1.550251953125,8.203689318427443,2.4929656935080886,2.441837856078148
1761479473924289000,1.5602890625,9.044982906424998,2.47115162884593,2.5992417099252343
1761479473934325000,1.570324951171875,9.613907998529076,2.6237919215530154,2.7022446960210798
1761479473944361000,1.58036083984375,9.176450647243858,2.5798411361455917,2.654828572590649
1761479473954397000,1.59039697265625,9.054985245001316,2.3529899443238973,2.4815920665785667
1761479473964433000,1.600432861328125,9.614147067981957,1.8042274964131413,1.957892309862375
1761479473974468900,1.61046875,10.661125141131878,1.072005912226811,1.1432198945477605
1761479473984505900,1.620505859375,11.782205392324924,0.33576997783258555,0.3854536078035831
1761479473994541800,1.630541748046875,12.92745445461273,-0.2594401868678629,0.04366933811753988
1761479474004577800,1.640577880859375,13.8043284745574,-0.4371083917170763,0.3437567388027906
1761479474014613800,1.65061376953125,13.834406801956892,-0.379960417214781,1.3758178133279084
1761479474024650000,1.66064990234375,12.691528560453653,-0.20766301868371664,2.4984894253656265
1761479474034686000,1.67068603515625,10.737330428934097,0.13316416947320103,3.3038857705518603
1761479474044722700,1.68072265625,8.599280289363861,0.6520549184724688,3.621417642512917
1761479474054759000,1.690759033203125,6.981676749932766,1.1821177804797887,3.803927588304877
1761479474064795100,1.700795166015625,6.009284254428744,1.634545614142716,3.9344960421964523
1761479474074831000,1.7108310546875,5.719937735727429,1.733310524277389,3.973827351109683
1761479474084867000,1.7208671875,6.03961684885025,1.4645380070492624,3.89216438242346
1761479474094904000,1.730904052734375,6.988216965356469,0.9480145717032253,3.613898060663044
1761479474104940000,1.74093994140625,7.868204148885607,0.87244977376163,3.1417955124542116
1761479474114976000,1.75097607421875,7.845652709859609,1.3967923584260045,3.3755086989998815
1761479474125012000,1.761011962890625,6.6943684590607875,1.5636742347143588,3.4003178538247942
1761479474135048000,1.7710478515625,5.076638078379631,2.173725117933005,2.7737799461856483
1761479474145084000,1.781083984375,3.5046383522599935,2.479605861197412,2.2293320004731414
1761479474155121000,1.791120849609375,2.259579254698753,2.0016428965225814,1.3836027681156993
1761479474165156900,1.801156982421875,1.1925637711703776,0.7661730266921222,0.1552846697360277
1761479474175192800,1.81119287109375,-0.46417117068767544,-1.1811847374133766,-1.7896645719230173
1761479474185228800,1.821228759765625,-2.362041265785694,-2.7002251728922126,-4.423101689177751
1761479474195264800,1.8312646484375,-4.80461035874784,-2.800224300996959,-6.2341550860881805
1761479474205302000,1.841302001953125,-7.995007405024767,-2.733230201393366,-7.008839482146501
1761479474215338000,1.851337890625,-11.59453528729081,-2.6344915947437286,-8.54942875548005
1761479474225374000,1.8613740234375,-15.30533626360893,-3.066091744433343,-10.720581538707018
1761479474235410000,1.871409912109375,-19.27252373831272,-3.321588892763853,-13.30461603488922
1761479474245446000,1.88144580078125,-21.645294487905502,-2.91267257630825,-13.601509900230168
1761479474255481900,1.89148193359375,-21.597134560370446,-2.211049909329414,-10.59724274380803
1761479474265518800,1.901518798828125,-20.34910083091259,-1.7083559696324169,-6.852145530134439
1761479474275554800,1.911554931640625,-19.37996353781223,-1.24199123442322,-4.116445723757147
1761479474285590800,1.9215908203125,-18.59918491653204,-0.8046591900181025,-2.556257723723352
1761479474295626800,1.931626708984375,-17.267630023300647,-0.6381468046292662,-1.5183391553416847
1761479474305663000,1.9416630859375,-14.820094247841833,-0.9919652840454131,-0.8960475069701671
1761479474315699000,1.951698974609375,-12.285925314068793,-1.490559460273385,-0.8903250376701355
1761479474325735700,1.961735595703125,-10.28065984313488,-1.9762623715505003,-0.8316203352451323
1761479474335772000,1.97177197265625,-8.322004147684574,-2.04558549862355,-0.22043168016821144
1761479474345808000,1.981807861328125,-6.8874337011367075,-1.5107339410349725,1.0453124780252576
1761479474355844000,1.991843994140625,-5.804217608913779,-0.5783264691125601,2.1021707246765495
1761479474365880000,2.001880126953125,-3.9939731902986764,0.37645935029126704,3.1396956175655126
1761479474375917000,2.0119169921875,-2.1582494625121353,1.8872110461786389,3.2809622833430767
1761479474385953000,2.021953125,-0.8499702309280633,2.551658120973408,3.568869124630093
1761479474395989000,2.031989013671875,0.839082926210761,3.355252092912793,3.726791449393332
1761479474406025000,2.04202490234375,2.6425188338547945,3.814616155579686,3.214015530012548
1761479474416061000,2.05206103515625,4.582064170643687,3.674138594353199,2.422583120509982
1761479474426097000,2.062096923828125,6.63509326327145,3.501358015415072,1.1884671495065093
1761479474436134000,2.0721337890625,8.478831955209374,3.2801696716606616,0.24650077192634343
1761479474446169900,2.082169921875,10.3986011629045,2.9024691622018812,-0.10438450358211994
1761479474456205800,2.092205810546875,12.220033330488205,2.6874615529090167,-0.16047697768211364
1761479474466241800,2.10224169921875,13.979533065772056,2.4913018519490957,0.051720250365138054
1761479474476277800,2.11227783203125,15.638441260015963,2.095892082798481,0.7992392838612198
1761479474486313700,2.122313720703125,16.72874994084835,1.8272030060701072,1.8570801118090747
1761479474496351000,2.13235107421875,16.82162696198821,1.822195991563052,2.826741428783536
1761479474506387000,2.142386962890625,15.907838046622276,1.7679433001108467,3.511319437459111
1761479474516423000,2.1524228515625,14.65204420455694,1.7449669136710464,3.695324297983944
1761479474526459000,2.162458984375,13.235364219486712,1.7899850360490381,3.4145711278438564
1761479474536494800,2.172494873046875,11.593289086621999,1.840730303902179,3.1863542006269094
1761479474546531800,2.18253173828125,9.754870128402114,1.929373632995039,3.0655911014348267
1761479474556567800,2.19256787109375,7.971617761608957,1.9595608275964855,3.0057077106192707
1761479474566603800,2.202603759765625,6.951189257210492,1.5960194841325281,2.856301285266876
1761479474576640000,2.212639892578125,6.914594679784774,1.307924719057977,2.5733117343768477
1761479474586676000,2.222676025390625,6.84364015211761,1.1441555679626763,2.3219462790235874
1761479474596712700,2.232712646484375,6.347846931719779,1.2622998629584907,2.2254355775564907
1761479474606749000,2.2427490234375,5.621587836134434,1.197649842263013,2.3513445152044294
1761479474616785000,2.252784912109375,4.773173017954826,0.7799462621092796,2.124972923593223
1761479474626820900,2.26282080078125,4.425428670820594,1.4400912557959555,1.64925276940912
1761479474636856800,2.27285693359375,4.258664575693011,1.7950117781698702,2.5203493749961257
1761479474646892800,2.282892822265625,4.441335265004635,2.1336345150850713,3.6781276639893647
1761479474656930000,2.292929931640625,4.553727133953571,2.3603144419930873,3.9653143743082877
1761479474666966000,2.302966064453125,4.502725845512748,1.776283258432895,2.976258913294971
1761479474677002000,2.313001953125,3.8963393300205467,1.2134887780383228,1.0245683806821704
1761479474687038000,2.323037841796875,2.084586260408163,0.4249176031857729,-0.9118664228707551
1761479474697074000,2.333073974609375,-1.0628583638489246,-0.7938383016005158,-2.573870245042443
1761479474707110000,2.34310986328125,-4.5841795553624625,-1.8410297252401708,-4.671598603357374
1761479474717147000,2.35314697265625,-7.796319646891951,-3.146837890535593,-5.935781211322546
1761479474727182800,2.363182861328125,-10.94592524857521,-4.235742842049897,-7.532731254303455
1761479474737218800,2.37321875,-15.433355909800529,-4.972752756491303,-10.722848314595222
1761479474747254800,2.3832548828125,-20.46716957645416,-5.305870612379908,-13.84425482675433
1761479474757290800,2.393290771484375,-25.566484766066072,-4.591926516227424,-15.23842019767761
1761479474767326700,2.40332666015625,-28.437485607814786,-2.6859818357452747,-12.394610145193338
1761479474777364000,2.413364013671875,-26.511593533325193,-1.29517191272974,-6.8409542740345
1761479474787400000,2.42339990234375,-21.487176640570162,-1.3708622367471455,-0.8052857244186102
1761479474797436000,2.433435791015625,-16.656411849868295,-1.1999952363453805,2.500346743670106
1761479474807471900,2.443471923828125,-13.387669581151007,-1.7591176040984688,2.9292937485024333
1761479474817508000,2.453508056640625,-11.447627400755882,-2.4520485767081377,0.979009721686691
1761479474827544800,2.463544921875,-10.132829581058024,-3.1732524347305295,-1.8393018785342572
1761479474837580800,2.473580810546875,-9.379048856818676,-3.62150590531826,-3.599993161690235
1761479474847617000,2.483616943359375,-8.935507217183709,-3.105158557191491,-3.4257080234080552
1761479474857653000,2.493653076171875,-7.695914568334818,-1.7993891164712608,-1.445064660294354
1761479474867689000,2.50368896484375,-5.60657965209484,-0.3559914395410567,0.8143665642358362
1761479474877725000,2.513724853515625,-3.4713170974165197,1.1475940179787576,2.275373766810447
1761479474887762000,2.523761962890625,-1.3558213194817303,2.4645816028058527,3.1372277661472556
1761479474897798000,2.5337978515625,0.3744569974929094,3.5220962675392626,3.5411700935825703
1761479474907833900,2.543833740234375,1.9469792861819266,4.018963839170336,4.114425908367336
1761479474917869800,2.553869873046875,3.649012920925021,4.413173584881425,4.11435255087018
1761479474927905800,2.56390576171875,5.357049595475196,4.325836077690124,2.9600673646897078
1761479474937943000,2.573943115234375,7.47490742636621,4.115136979246139,1.4934847000703215
1761479474947979000,2.58397900390625,9.594771336382626,3.9800989787250756,0.6312532457232475
1761479474958015000,2.594014892578125,11.126782166463135,3.8676539182841774,0.5190872944846749
1761479474968051000,2.604051025390625,12.022902154147625,3.8959313337415455,0.8700786607161164
1761479474978087000,2.6140869140625,12.475159599679708,3.874696822533011,1.5025696315407753
1761479474988123000,2.624122802734375,12.820603853178024,3.634531098847091,2.077433758305013
1761479474998160000,2.634159912109375,13.103857315701246,3.096219756193459,2.4532410013630983
1761479475008195800,2.64419580078125,13.13878016052246,2.4149198924057185,2.5276439159184694
1761479475018232300,2.654232421875,12.785366535580158,1.6664176930911838,2.1660025608569384
1761479475028268300,2.664268310546875,12.174545837032793,1.1906009466648102,1.4688000484079122
1761479475038304300,2.67430419921875,11.261342612600325,0.9283250979796052,1.0902435066416858
1761479475048340200,2.68434033203125,9.905824659979343,0.8375915186092256,1.2925526701420544
1761479475058377200,2.694377197265625,8.465353464955092,0.946057007894665,1.6693179445773363
1761479475068413200,2.7044130859375,7.10470224109888,0.9914525852829217,2.153496130505204
1761479475078449200,2.71444921875,6.179868784627318,0.9595788988992571,2.6332570845127106
1761479475088485000,2.724485107421875,5.908904310312867,0.8780183676742017,3.103461105623841
1761479475098521300,2.734521240234375,6.261638136297464,0.8038440011776983,3.2472254334360358
1761479475108558000,2.74455810546875,6.730858991590142,0.8126163595676421,3.10155176487118
1761479475118594000,2.754593994140625,7.193182488584518,0.8929485180415213,2.8519439668402073
1761479475128630300,2.76463037109375,7.8277791995167725,0.7047209252551198,2.4507640898555514
1761479475138666500,2.77466650390625,8.185307858562469,1.5186455909423529,2.377914249961078
1761479475148702500,2.784702392578125,7.282747024175524,2.2375116536669433,3.477415706552565
1761479475158738400,2.794738525390625,6.074762981033325,2.5119179389983413,4.249655339807272
1761479475168775400,2.804775390625,5.872319085237383,2.9113854591071604,4.471705561088025
1761479475178811400,2.814811279296875,5.334199465763569,2.332000932309031,4.122277790911496
1761479475188847400,2.824847412109375,4.017323670747876,1.6645748417034745,2.3826433243095875
1761479475198883300,2.83488330078125,1.911670656913519,1.166620936140418,0.1586748966962099
1761479475208919300,2.844919189453125,-1.4842922165721655,0.2106453224301338,-1.599863592340052
1761479475218955300,2.854955322265625,-5.343025746297836,-1.3852622257605194,-3.3976340215682983
1761479475228992300,2.8649921875,-8.747535498854518,-2.4268765799202026,-6.095937286487222
1761479475239028200,2.8750283203125,-12.67103522300124,-3.6868919852033257,-9.50759457271099
1761479475249064200,2.885064208984375,-16.808490417039394,-4.810167992874979,-13.706893351721762
1761479475259100200,2.89510009765625,-19.373764098650216,-5.734130511730909,-16.928679807996748
1761479475269136100,2.90513623046875,-19.80440592470169,-5.489841278374195,-16.022351730030774
1761479475279172000,2.915172119140625,-21.12841113320589,-2.0113316391050815,-12.939789035528898
1761479475289209300,2.925209228515625,-19.922226832962036,-0.5274520949870347,-7.596133174633979
1761479475299245300,2.935245361328125,-17.469353203606605,-0.17584186620488762,-1.486917012117803
1761479475309281300,2.94528125,-14.862123709797858,-1.5434107604950666,3.258428672234714
1761479475319317200,2.955317138671875,-11.590362970042229,-2.7164211054116487,3.606852233804762
1761479475329353200,2.965353271484375,-8.69081349467933,-3.5585371157079932,0.32223639639019963
1761479475339390200,2.97539013671875,-7.060064057949185,-3.845588216948509,-3.459459194101393
1761479475349426200,2.98542626953125,-6.780138278543949,-3.185599582867324,-4.97333786290288
1761479475359462100,2.995462158203125,-7.219646132618188,-2.0412427932441233,-4.250972852146625
1761479475369498400,3.005498291015625,-7.235877720972895,-0.3038980632808991,-2.709527254244685
1761479475379534300,3.015534423828125,-6.65182227975428,1.5895998263485729,-0.8542769882112741
1761479475389570300,3.0255703125,-6.254396494606137,2.475679627664387,1.3030028986163436
1761479475399607300,3.035607177734375,-5.330221209782362,3.002730740635097,3.536664891117811
1761479475409643300,3.045643310546875,-5.0723482722312205,3.7550899076387285,4.689105326214433
1761479475419679200,3.05567919921875,-3.7569986638695,3.701022217364609,4.462010388764739
1761479475429715500,3.065715576171875,-0.2662152339607477,3.34072906204164,3.1392496273636814
1761479475439751400,3.07575146484375,3.0412007565438746,2.7587907591074705,1.4939588934533297
1761479475449787400,3.085787353515625,5.799933063462376,1.5233195741027592,0.4558902490764856
1761479475459824400,3.095824462890625,8.866992483884095,0.8243066512309014,-0.282797389318794
1761479475469860400,3.1058603515625,10.450074160510301,0.9243363206043839,-1.122180759780854
1761479475479896300,3.115896240234375,10.785671558254956,1.1821611081648618,-1.2018643912181257
1761479475489932300,3.125932373046875,11.069238324511051,1.18444439679645,-0.6648945263013243
1761479475499968300,3.13596826171875,10.851077219623326,1.272027476246655,-0.07803747166544199
1761479475510005200,3.146005126953125,11.154232483446597,0.6286661518394947,1.2958590182110667
1761479475520041200,3.156041259765625,12.204973708522319,-0.1837010187400505,2.5133655074581505
1761479475530077200,3.1660771484375,13.165426175385713,0.12592055502049623,2.6984423811286686
1761479475540113200,3.176113037109375,13.069971412712334,0.2190872067566961,2.9170494762182235
1761479475550149000,3.186149169921875,12.360464714485406,-0.2153669075919315,2.97171922403872
1761479475560185000,3.19618505859375,11.482597007328271,-0.19534516970664262,2.652823370248079
1761479475570222300,3.206222412109375,10.205602556324004,0.09889642755985259,2.5790935326486824
1761479475580258300,3.21625830078125,8.642852889108656,-0.17958667875640094,2.937725769022107
1761479475590294300,3.226294189453125,7.194201894760131,-0.41200785273015494,3.0451231906846163
1761479475600330200,3.236330322265625,6.125622815176844,-0.3810306767947972,2.7556887014389035
1761479475610366500,3.246366455078125,5.482480978739261,-0.4586857615465298,2.290066747421026
1761479475620402400,3.25640234375,5.34215948485732,-0.6628508185792714,2.0852650364525616
1761479475630439200,3.266439208984375,5.449394701695442,-0.6788767282940447,1.9321268772259352
1761479475640475400,3.276475341796875,5.422677959683537,-0.5393089753888547,1.4802387033976614
1761479475650511400,3.286511474609375,4.7154058886408805,1.124790065496415,2.085652282204479
1761479475660547300,3.29654736328125,4.3911154823303225,1.9232703476838766,3.616524025252461
1761479475670583300,3.306583251953125,4.665897469106317,2.5535806134685872,4.834305532048642
1761479475680619300,3.316619384765625,5.29889259006083,3.6579727647110816,4.969463651818037
1761479475690656300,3.32665625,5.386411299037933,3.6414494999334215,4.758878242881596
1761479475700692200,3.336692138671875,5.113925898766517,2.4575328533381224,3.9847579104468225
1761479475710728200,3.346728271484375,4.3675890607923264,0.7238228083491325,2.113861893122643
1761479475720764200,3.35676416015625,2.374853985607624,-0.9607086335815489,-0.9305109175860882
1761479475730800400,3.36680029296875,-0.8804869497448206,-1.3562331151530145,-4.389196789227426
1761479475740837400,3.37683740234375,-5.035151052737236,-0.6808850724417715,-7.148263150405883
1761479475750873300,3.386873291015625,-9.684022568240762,-0.4632920497655868,-8.94649038349092
1761479475760909300,3.396909423828125,-13.657696482354401,-1.1074198285005985,-10.585378118491173
1761479475770945300,3.4069453125,-16.423289322692156,-1.3844399495922028,-12.58097325928211
1761479475780981200,3.416981201171875,-19.037485148382185,-1.4370646014511583,-13.723228400450944
1761479475791017200,3.427017333984375,-20.093585270142555,-1.672997363742441,-12.608808191668986
1761479475801054200,3.43705419921875,-19.134545008164643,-1.2934149860598145,-9.79021792063713
1761479475811090200,3.447090087890625,-18.057573947811125,-0.47445473735816773,-5.532476889529824
1761479475821126100,3.457126220703125,-16.733323240113258,-0.1581875881033018,-0.8552642456829548
1761479475831162000,3.467162109375,-15.007372723209857,-0.8631854671362788,2.376530394387245
1761479475841198000,3.477197998046875,-13.376547298634051,-1.6623824462257324,2.825085478270054
1761479475851234300,3.487234375,-11.893746197402477,-1.8662445382565258,0.7570845880903303
1761479475861271300,3.497271240234375,-10.48254785861373,-1.9908242731273174,-1.854972764266282
1761479475871307300,3.507307373046875,-9.091134416747092,-1.758114272274822,-3.4443308908134695
1761479475881343500,3.517343505859375,-7.440229496216774,-0.9509856964685022,-3.700475104875862
1761479475891379500,3.52737939453125,-5.5452919474393125,0.012030666066147387,-2.7307915760695933
1761479475901415400,3.53741552734375,-3.8424376439630983,1.213585516411066,-0.6661357585340738
1761479475911451400,3.547451416015625,-2.9616292071789503,2.1771150526322423,2.3917804243586955
1761479475921488400,3.55748828125,-2.1045634650319816,2.620806768262386,5.368105827018618
1761479475931524400,3.5675244140625,-1.1855968547672033,3.187234198331833,6.404345648533106
1761479475941560300,3.577560302734375,0.03267009745836258,3.5569907630488276,5.471936203849316
1761479475951596300,3.58759619140625,1.85864633821249,3.1098540215313433,3.3625527713149785
1761479475961632300,3.59763232421875,4.209757629182935,2.142989349538088,0.7419472247131168
1761479475971668200,3.607668212890625,6.193575238418579,1.520610315144062,-1.7565974379710851
1761479475981705200,3.617705322265625,7.875385000300407,1.394613553082198,-3.262803526318073
1761479475991741200,3.6277412109375,9.406203990247844,1.301496147315204,-3.166408852446079
1761479476001777200,3.637777099609375,10.716479364085197,1.3204399172380565,-1.6470029446557164
1761479476011813000,3.647813232421875,11.677423998379707,1.5999655914098023,0.31502646501138803
1761479476021848600,3.6578486328125,12.489296846103667,1.4882742719456552,2.1631305125519633
1761479476031884500,3.667884521484375,13.232743223333358,0.8714368703920393,3.574985269422829
1761479476041921500,3.677921630859375,13.5881722797513,0.43140375033468004,4.143018088862299
1761479476051957500,3.68795751953125,13.8794465516448,0.1890937080964446,3.683412618654966
1761479476061993500,3.697993408203125,13.852467359304427,0.09197671129927039,2.9194992074579
1761479476072029700,3.70802978515625,13.041757710140942,-0.09065349987149238,2.423558395282924
1761479476082065700,3.718065673828125,11.789338897466658,-0.12109423084259033,2.3938357494533062
1761479476092101600,3.7281015625,10.474901143252849,-0.1811113310404122,2.6476217099517583
1761479476102139000,3.738138916015625,8.91828837135732,-0.1608878235053271,2.8539187740445136
1761479476112174800,3.7481748046875,7.459906841111183,-0.05679053936675191,3.0424264989465475
1761479476122210800,3.7582109375,6.540943153455853,-0.19274784668982028,3.0803549553245304
1761479476132246800,3.768246826171875,6.385413569048047,-0.18320070453509688,2.6819243770480155
1761479476142282800,3.77828271484375,6.195086227503419,-0.0011886252626776696,2.2290851861052214
1761479476152318700,3.788318603515625,5.7685857390403745,0.012017185530066489,2.198903252200782
1761479476162355700,3.798355712890625,5.537657507038116,1.1256986317086963,2.6869769842624662
1761479476172391700,3.8083916015625,5.024075531971454,1.878267861266434,3.8581057532161473
1761479476182427600,3.818427734375,4.843224459302425,2.0959547727711496,4.318169488584995
1761479476192463600,3.828463623046875,5.103316826468705,2.625449333371222,3.5576547799155116
1761479476202499600,3.83849951171875,4.845052259251475,1.9088947624593973,2.0643432444550096
1761479476212535600,3.84853564453125,3.619933541435003,0.7898057581488043,-0.1320432026192546
1761479476222572500,3.858572509765625,0.6863216374725103,0.18295827408134938,-1.9308271928042173
1761479476232608500,3.8686083984375,-4.254072571727633,-0.1125697097338736,-3.1717791473075745
1761479476242644500,3.87864453125,-9.217814338767528,-0.6107022963320836,-4.787540273742377
1761479476252680400,3.888680419921875,-12.950847020637989,-0.43219698307160287,-7.820746816661954
1761479476262716700,3.898716552734375,-14.681921456426382,-1.1924215131554752,-11.529238346993923
1761479476272753700,3.908753662109375,-15.24989319332838,-2.9574595202788707,-15.506826804202793
1761479476282789600,3.91878955078125,-15.566734452676773,-3.78358418071717,-17.330507042974233
1761479476292825600,3.92882568359375,-16.077233659297228,-3.659147361448407,-14.88013633635044
1761479476302861600,3.938861572265625,-17.045918532454966,-2.4223783917181194,-9.720810622411966
1761479476312897800,3.948897705078125,-17.723778046530484,-0.6614729543548077,-3.6186949395507573
1761479476322933800,3.958933837890625,-17.975590076607464,-0.2055652426868677,1.652991517546028
1761479476332970500,3.968970458984375,-16.967178757739067,-0.8468676618028431,4.5506139703691
1761479476343006700,3.9790068359375,-15.148078832495212,-1.5991085361890494,4.532674993574619
1761479476353042700,3.989042724609375,-13.604220912754535,-2.2473627472043036,2.7967057714819905
1761479476363078700,3.99907861328125,-12.455602666294574,-2.303671640533954,0.901574599828571
1761479476373114600,4.009114501953125,-12.109551679074764,-1.5751611127600074,-0.42378129263222214
1761479476383150600,4.019150634765625,-11.121655909490585,-0.17639573722798377,-0.9593241934858262
1761479476393186600,4.0291865234375,-9.130052468684315,1.4587699450418352,-1.3150553015902637
1761479476403222500,4.039222412109375,-6.533616756090521,3.007991145381331,-1.3701130258150398
1761479476413258500,4.049258544921875,-3.7728468058645723,4.264427961525321,-1.2452286089092492
1761479476423294500,4.05929443359375,-1.3885855249643324,4.560031494794786,-0.9482292373672128
1761479476433331700,4.069331787109375,0.5598609111607075,4.174427372604608,-0.18580226533561944
1761479476443367700,4.07936767578125,2.7012679599434137,3.393598190180957,0.8724893751196563
1761479476453403600,4.089403564453125,5.037443547588587,2.3615910378001628,1.6431740340173244
1761479476463439600,4.099439697265625,7.351376908287405,1.3452484875410795,1.5995257386878132
1761479476473475600,4.1094755859375,9.35774186489582,0.9487037230111658,1.0131892007946968
1761479476483511800,4.11951171875,10.902640233600138,0.8220584339126944,0.2565817286968231
1761479476493548500,4.129548583984375,12.377259197419882,0.4666031836075708,-0.22728636836856603
1761479476503584500,4.13958447265625,13.783276334178447,0.3411845867598429,-0.34778906305879353
1761479476513620700,4.149620849609375,14.605955822598933,0.21860073841400443,0.19230185648798942
1761479476523656700,4.15965673828125,14.704239671218394,0.20964038317129013,1.028948203201592
1761479476533692700,4.169692626953125,13.866647860348223,0.936223084687814,2.600166423554718
1761479476543728600,4.179728759765625,12.607735009479521,0.35082755397185683,4.806003858932852
1761479476553765600,4.189765625,12.264801862019299,-0.6471449345991015,6.558694498723745
1761479476563801900,4.1998017578125,11.691529680621624,-0.2685909135835245,6.433791523247957
1761479476573837800,4.209837890625,10.565703111684321,0.4556547963527962,5.0939188835263245
1761479476583873800,4.219873779296875,9.323048152655362,0.09874733794536442,4.247632017286121
1761479476593909800,4.22990966796875,8.160287399074434,-0.4289542748233303,3.7856969350874423
1761479476603945700,4.23994580078125,6.9554282099544995,-0.45189920667894184,3.144879449944198
1761479476613982700,4.249982666015625,5.892085861980915,-0.42519773530140514,2.5596324608534573
1761479476624018700,4.260018798828125,5.358122777664661,-0.41050435283202674,2.198358770060539
1761479476634054700,4.2700546875,5.374588174775242,-0.26300215366575863,2.1637232177481054
1761479476644090600,4.280090576171875,5.335725067895651,0.22398571938797832,2.51925924167186
1761479476654126600,4.290126708984375,4.938747026515006,0.6170725254837424,3.1246675597816704
1761479476664162600,4.30016259765625,4.479667041486501,1.4112079833999276,3.66801865016818
1761479476674199600,4.310199462890625,3.8901919133067127,1.7459166156113146,4.070022703017294
1761479476684235500,4.320235595703125,3.9801942557930943,2.0879827709786594,4.072778723727167
1761479476694271500,4.330271484375,4.2221740431636565,2.637929167976975,3.926538945712149
1761479476704307500,4.340307373046875,4.217460458645224,1.9343299402281642,3.44305224917978
1761479476714343400,4.350343505859375,3.3175095144957303,1.1842778080578893,2.061465789322555
1761479476724379600,4.360379638671875,0.3322287980943918,0.8400112931020557,0.049501989793777464
1761479476734416600,4.370416748046875,-3.8531706349015233,0.5446529667653143,-2.249951302392781
1761479476744452600,4.38045263671875,-7.979584210443496,0.76456836797446,-5.760825041911006
1761479476754488800,4.39048876953125,-11.214192738890647,0.8457550974510609,-9.397396414414048
1761479476764524800,4.40052490234375,-12.546035216891765,-1.026351026315242,-12.654169428396225
1761479476774560800,4.410560791015625,-12.07641747123599,-3.212646287485957,-14.910250904107093
1761479476784596700,4.4205966796875,-11.501852327418327,-4.2532627166494725,-15.076346306192875
1761479476794633700,4.4306337890625,-11.402432168245316,-3.4527632035940883,-11.88568096436858
1761479476804669700,4.440669677734375,-12.197823836767673,-1.8678429133638739,-6.383697997301817
1761479476814705700,4.45070556640625,-13.017970007318258,-0.7577039620976894,-1.0304852035105228
1761479476824741600,4.46074169921875,-13.18878016296625,-0.521360865439847,2.741945422768593
1761479476834777600,4.470777587890625,-12.764824098289012,-1.06141225669384,4.053369674380123
1761479476844813600,4.4808134765625,-12.41506373515725,-2.0728699575208127,2.219597957444191
1761479476854850800,4.490850830078125,-12.417222959017753,-2.9603841755539175,-1.6003028605401515
1761479476864886800,4.50088671875,-12.66766136265397,-3.060670011645555,-5.332817656016349
1761479476874922800,4.5109228515625,-12.86003686890006,-1.6749391454599796,-6.936655704945325
1761479476884958700,4.520958740234375,-12.244861482274532,-0.11370174597110598,-5.160782342487574
1761479476894994700,4.53099462890625,-10.40548332363367,0.6399043888863176,-1.6538652316406368
1761479476905030700,4.54103076171875,-7.976058374404907,1.1929236905239522,1.7040090264692902
1761479476915067600,4.551067626953125,-5.56349863525927,1.475008401528746,4.068929354822635
1761479476925103600,4.561103515625,-3.2207097669541835,1.5183764186121522,4.776939384751022
1761479476935139600,4.5711396484375,-1.2665005295187235,1.83667649846673,3.7465292923033235
1761479476945175600,4.581175537109375,0.6625590690910815,2.0929742956556376,1.9439248670473694
1761479476955213600,4.591213623046875,4.083585072162747,2.077161955626309,-1.4601038239941
1761479476965249500,4.60124951171875,5.399175503543019,2.2726010872267186,-2.054187030491233
1761479476975285800,4.61128564453125,6.725034815481305,2.1346261564709246,-1.604018958453834
1761479476985321700,4.62132177734375,7.709560231849551,1.7483748224183917,-0.8032824217721819
1761479476995357700,4.631357666015625,8.285182775765657,1.4387081308744847,-0.09206614314839244
1761479477005394700,4.641394775390625,9.062871029815078,1.057603073669225,0.4726845858804881
1761479477015431200,4.65143115234375,9.852703310644626,0.700459906809777,0.5529449942924082
1761479477025467100,4.661467041015625,10.847982760739326,0.473079284286499,0.6000077742405235
1761479477035503000,4.671503173828125,11.774889516353607,0.3513553407056257,1.0878995738640427
1761479477045539000,4.6815390625,12.504019783461093,0.3548175003908574,2.0343346212908626
1761479477055575000,4.691574951171875,13.100863394582271,0.3690435210768133,3.1168326283723116
1761479477065612000,4.701612060546875,13.31664432633519,0.4379971572503447,4.072828700348735
1761479477075648000,4.71164794921875,12.656074969756602,0.34660233749225733,4.782628244042396
1761479477085684000,4.72168408203125,11.777019514119624,-0.0565468302713707,5.214623238268494
1761479477095720000,4.731719970703125,10.730643498516082,-0.42314058357588946,5.082289236009121
1761479477105756200,4.741756103515625,8.994704671561717,-0.6127248516682535,4.152278084638715
1761479477115792100,4.751792236328125,7.365003867101669,-0.7227189387604593,2.692160232119262
1761479477125829000,4.7618291015625,6.030711657860874,-0.5644575182359666,1.1505059599027037
1761479477135865000,4.771864990234375,4.7866374796837565,-0.24226181918233633,0.3555393849246204
1761479477145901300,4.7819013671875,3.5728450425237415,0.082150240746513,0.9338521908380091
1761479477155937300,4.791937255859375,2.781775328853726,0.14845496984645723,2.3789579137951136
1761479477165973200,4.80197314453125,2.4754437730818983,0.8851004348896443,3.4695462883517143
1761479477176009200,4.81200927734375,2.372425881677866,1.5510824641667305,3.586734159405529
1761479477186046200,4.822046142578125,2.9737738184809683,2.0066564869008956,2.5390482302471993
1761479477196082200,4.832082275390625,4.730722115716338,2.200073903415352,1.2605381139829754
1761479477206118100,4.8421181640625,4.641003266346455,2.082168239481002,0.18638503365963696
1761479477216154000,4.852154052734375,4.050408778747916,1.6745660743638873,0.04875526307970285
1761479477226190000,4.862190185546875,2.974048543769121,1.4990190994523465,0.5333931754738092
1761479477236226000,4.87222607421875,0.44060266357362265,0.9894092428870499,0.46733547993749375
1761479477246263300,4.88226318359375,-2.9038433731645346,0.2648226105585694,-1.54696640715003
1761479477256299300,4.89229931640625,-5.766583167046308,0.42275808706432577,-5.356778961840272
1761479477266335200,4.902335205078125,-8.049769507303834,0.46840208625569935,-9.41469709330499
1761479477276371200,4.91237109375,-10.194628742367028,-0.7329930069502443,-12.412984006273746
1761479477286407200,4.9224072265625,-11.92865501369834,-2.002432147204131,-13.059334283363818
1761479477296443100,4.932443115234375,-13.266965810930728,-2.9026398425936697,-11.331569410514831
1761479477306480000,4.942480224609375,-14.375013562071322,-3.0627324971333145,-8.300760284125804
1761479477316516000,4.95251611328125,-15.825146903932094,-2.0718273166000842,-4.74155330633223
1761479477326552000,4.962552001953125,-17.426307842606306,-1.3454773278608918,-1.5028566317886114
1761479477336588000,4.972588134765625,-18.024179043209553,-1.6035539712905882,-0.3247717600867152
1761479477346624300,4.982624267578125,-17.48328002215028,-1.649975384595245,-1.5770295369803904
1761479477356661000,4.992660888671875,-16.547586733490228,-0.9827768191352486,-3.405049850782752
1761479477366697000,5.002697021484375,-15.543075344669818,-0.49606969925165173,-3.9741719267636535
1761479477376733200,5.012733154296875,-14.032411254000664,0.06414722227249293,-3.605415771260857
1761479477386769200,5.02276904296875,-11.416266632330418,0.8120125484555959,-2.7282041899248957
1761479477396805000,5.03280517578125,-8.304379643666744,1.0688641070697456,-1.547304699193686
1761479477406841000,5.042841064453125,-5.593184748470783,1.2546382422894238,0.33941154920533295
1761479477416877300,5.052877197265625,-3.3771161341965197,1.5514242633417248,2.5361031167060135
1761479477426914300,5.062914306640625,-1.275979136481881,1.654492569758743,3.8553915258213873
1761479477436950300,5.0729501953125,0.7211112113028765,1.721472348576039,4.326775404366851
1761479477446986200,5.082986328125,1.960721980330348,1.7803303418666123,4.184567658346891
1761479477457022200,5.093022216796875,2.564144385319948,1.646313501086831,3.4316719002485274
1761479477467058200,5.10305810546875,3.0070448044419287,1.055264036262408,1.9925674635328352
1761479477477095200,5.11309521484375,3.955837813171744,0.2987678059866652,0.12356412808746099
1761479477487131100,5.123131103515625,5.422573914787173,-0.2175286704693921,-1.7850677456520496
1761479477497167000,5.1331669921875,7.15380792505145,-0.2205643666371703,-3.0774080882176755
1761479477507203000,5.143203125,8.72291017616391,0.1022401484971866,-3.0959894545689224
1761479477517239000,5.153239013671875,9.948289006221295,0.36917997040543704,-1.7749797746188938
1761479477527275000,5.16327490234375,10.891887368917464,0.4395885180950165,0.12149725868552923
1761479477537312300,5.173312255859375,11.787070952534675,0.41960539518706497,1.9433378609396517
1761479477547348200,5.18334814453125,12.515393410390615,0.2080683115489781,3.3269518811017273
1761479477557384200,5.19338427734375,13.129067744803429,0.10487404066473245,4.266412997862696
1761479477567420200,5.203420166015625,13.576371951842308,-0.03871357887368649,4.587828725519776
1761479477577456000,5.2134560546875,13.348247086822985,-0.21226499605383722,4.447881910169125
1761479477587492400,5.223492431640625,12.15198796826601,-0.22263255121335385,4.418127115635573
1761479477597529000,5.233529052734375,10.433686504811048,-0.5010439805328846,4.363630678555369
1761479477607565000,5.24356494140625,8.78667742267549,-0.790854755745083,3.8461993345841763
1761479477617601300,5.253601318359375,7.248125208127498,-0.6389348132017999,3.0503637216866015
1761479477627637200,5.26363720703125,5.974063887965679,-0.44689727020580317,2.415394962571561
1761479477637673200,5.273673095703125,5.209321040207147,-0.22435926540810613,2.0526770643197
1761479477647709200,5.283709228515625,4.682141916942596,0.0099491288180463,2.0675152986198664
1761479477657746200,5.29374609375,4.295665980353951,0.08153948843702673,2.378056727171689
1761479477667782100,5.3037822265625,4.108336651581525,0.33777978328503666,2.895955250263214
1761479477677818000,5.313818115234375,4.101480209815502,0.2587648083569482,2.962854365059733
1761479477687854000,5.32385400390625,4.511655586421489,0.6720541157323867,2.8034768730521202
1761479477697890000,5.33389013671875,5.133600321051478,1.1153393694534897,2.837711151087284
1761479477707926000,5.343926025390625,5.588385239234566,1.3756237520605326,2.98276990262419
1761479477717963300,5.35396337890625,5.417306788039207,1.5556751987844704,2.802492245928943
1761479477727999200,5.363999267578125,4.254548372545838,1.5500244795463978,1.9980808201268314
1761479477738035200,5.37403515625,1.1742840181142091,1.80967582494691,0.5007482124567032
1761479477748071200,5.3840712890625,-1.9765847353726624,1.9617077764973043,-1.659495346482098
1761479477758107100,5.394107177734375,-5.017485632187128,1.4935332153871654,-4.1771150042533876
1761479477768143000,5.40414306640625,-7.748445550560951,0.32126360583528873,-6.510823325002193
1761479477778180000,5.41418017578125,-9.81427684161663,-1.4524839966401457,-8.956911239740252
1761479477788216000,5.424216064453125,-11.20549622221589,-2.64136118825227,-11.663588365250826
1761479477798252000,5.434251953125,-12.584639380574226,-2.741207756143808,-12.65335577392578
1761479477808288000,5.4442880859375,-14.005668208503723,-2.2749483810052276,-10.831903732597826
1761479477818324000,5.454323974609375,-14.875143350368738,-1.4103889221020043,-7.691128503102064
1761479477828360200,5.464360107421875,-14.719350731110572,-0.5799028515838086,-4.456376182270049
1761479477838397200,5.474397216796875,-13.922376177310943,-0.5821807699205354,-1.4730772873356937
1761479477848433200,5.48443310546875,-12.397933736658096,-1.8455606466680765,0.5367921702623367
1761479477858469000,5.49446923828125,-11.102916137707233,-3.0382097580343483,0.5782306805878877
1761479477868505300,5.50450537109375,-10.846194123756884,-2.8630799856215714,-0.8509437521353364
1761479477878541300,5.514541259765625,-11.535820063471794,-1.8960873033344745,-2.2984265794873235
1761479477888578300,5.524578369140625,-12.695222738796472,-1.029261506934464,-3.203132609209418
1761479477898614300,5.5346142578125,-12.568485533630847,-0.40459936657194046,-3.6256738386526703
1761479477908650200,5.544650146484375,-10.052088403391837,-0.48419024169184266,-3.2635762642562387
1761479477918686200,5.554686279296875,-6.838637813785672,-0.8355529254537075,-2.252966704691201
1761479477928722200,5.56472216796875,-4.994671158310771,-0.8314517006799578,-0.7477148483291268
1761479477938758100,5.574758056640625,-4.391848472779989,-0.26247336228499185,1.587485756804049
1761479477948794000,5.584794189453125,-4.631172192683816,1.008851609981805,3.9892859092652797
1761479477958831000,5.5948310546875,-5.413084786430001,2.271236082483828,4.9616889261633155
1761479477968867000,5.6048671875,-4.253011664497852,2.950113541430235,4.315625064799189
1761479477978903000,5.614903076171875,-1.171729072934389,3.1965406635984777,2.7923978451550004
1761479477988939000,5.62493896484375,2.5984265941500664,2.805200043582916,1.5016593848280608
1761479477998975000,5.63497509765625,5.728865723070502,1.9146065642349421,0.6813767284162342
1761479478009012200,5.64501220703125,7.490752061229943,1.2724993315421045,-0.25114216799139977
1761479478019048200,5.655048095703125,8.52755127019286,1.2388605351820587,-1.2271313728131352
1761479478029084200,5.665084228515625,9.016736470627784,1.222793928130716,-1.789136894787103
1761479478039120100,5.6751201171875,9.021414399310945,0.9356587288033217,-1.7754498763486741
1761479478049156000,5.685156005859375,8.961918838769197,0.7957376324158162,-1.2963424178138374
1761479478059192000,5.695192138671875,9.473823236012459,0.5827154613191261,-0.8756275270149111
1761479478069228300,5.705228271484375,10.647141039443015,0.046247043118439614,-0.8100023776769638
1761479478079265300,5.715265380859375,11.910949845659733,-0.23877078046249225,-0.3864376504048705
1761479478089301200,5.72530126953125,13.273905254805086,-0.07506218218170106,0.794367586171627
1761479478099337200,5.735337158203125,13.89272688897848,-0.10460603737831115,2.5387106688559054
1761479478109373400,5.74537353515625,13.128046000540255,-0.06121697750687599,4.121267737086117
1761479478119409400,5.755409423828125,11.564365774476528,0.270929731794633,4.606833577980101
1761479478129445400,5.7654453125,9.991894339191912,0.25350034849010405,4.725354451203346
1761479478139482400,5.775482421875,8.495565063345431,0.27268432037699963,4.033692037224769
1761479478149518300,5.785518310546875,7.045839717763662,0.50731188182123,3.070245649242401
1761479478159554300,5.79555419921875,6.055258070096373,0.47106779833361506,2.6896169773772356
1761479478169590300,5.80559033203125,5.483297555819154,0.1144517971534282,2.4468723431140185
1761479478179626200,5.815626220703125,5.7076066619426005,-0.16427768513932822,2.4795862797141073
1761479478189663200,5.825663330078125,6.461501367950439,-0.4582934377606958,2.7298303298220037
1761479478199699200,5.83569921875,7.715210220435261,-0.7031882357951253,3.2171564583867784
1761479478209735400,5.8457353515625,8.64355548442006,0.0006489654280245304,3.5484395000636577
1761479478219771400,5.855771484375,8.63882144163549,1.5801175661236047,4.090131717327237
1761479478229807400,5.865807373046875,7.405463887783885,2.380705634245276,4.479396407851577
1761479478239843300,5.87584326171875,6.412381655472517,3.0053733640983697,4.494281257772445
1761479478249879300,5.88587939453125,5.2492614209294315,3.240246826595068,3.3951416202306746
1761479478259916300,5.895916259765625,2.3248037142813205,2.375210251699388,1.3239751056268811
1761479478269952300,5.9059521484375,0.7077835276961326,0.9628506871115415,-1.0220660424724222
1761479478279988200,5.91598828125,-1.0936351949065923,-0.13141498771831392,-3.851488965424895
1761479478290024200,5.926024169921875,-3.49912397275269,-1.8537290478155015,-6.583363660556078
1761479478300060200,5.93606005859375,-6.118149702817202,-3.8228213816061616,-7.811661008408665
1761479478310096400,5.946096435546875,-9.135289784815907,-4.403629511466622,-9.367726667815447
1761479478320133000,5.956133056640625,-12.146659466719626,-3.1700030775457617,-10.955906544363499
1761479478330169000,5.966169189453125,-15.899895563185215,-1.6794430327504872,-11.775942824798822
1761479478340205300,5.976205322265625,-19.63244893710613,-1.0915252900805323,-10.125812980294228
1761479478350241300,5.9862412109375,-22.54318323882818,-0.35104726113714274,-6.0642877642482516
1761479478360277200,5.99627734375,-22.695572771644592,-1.8305384341031312,-1.6951032509580253
1761479478370313200,6.006313232421875,-21.73832465378046,-2.7202351107418536,-0.7763327477872372
1761479478380350500,6.0163505859375,-19.859187316203116,-2.871460275954008,-2.3084547831572593
1761479478390386400,6.026386474609375,-18.851172303175925,-2.824577236486971,-3.2208751866489647
1761479478400422400,6.03642236328125,-18.380424092185496,-2.988099865475297,-3.0209505801975727
1761479478410458400,6.046458251953125,-18.431527671957014,-2.267498941782117,-2.159406085201353
1761479478420494300,6.056494384765625,-17.671029622161388,-1.515628727339208,-0.855952958599478
1761479478430530300,6.0665302734375,-15.216500626814364,-0.7401991389367729,0.9461677747927606
