time,seconds_elapsed,z,y,x
1761479472459008800,0.0950087890625,0.19264118373394012,0.09475181996822357,0.18568411469459534
1761479472469044700,0.105044677734375,0.23389647901058197,0.18890522420406342,0.20413263142108917
1761479472479080700,0.115080810546875,0.2743702828884125,0.2477748692035675,0.21154730021953583
1761479472489117700,0.12511767578125,0.3113325536251068,0.24159260094165802,0.22666099667549133
1761479472499153700,0.135153564453125,0.29119256138801575,0.15204733610153198,0.3003687560558319
1761479472509189600,0.145189697265625,0.2519415616989136,-0.031737156212329865,0.4413658380508423
1761479472519225600,0.1552255859375,0.284248948097229,-0.1427888721227646,0.526569128036499
1761479472529261600,0.165261474609375,0.3286587595939636,-0.20288656651973724,0.5514335036277771
1761479472539297500,0.175297607421875,0.36996549367904663,-0.2356479912996292,0.6137988567352295
1761479472549334800,0.185334716796875,0.40091222524642944,-0.16132982075214386,0.7435216903686523
1761479472559370800,0.195370849609375,0.434212327003479,-0.09550656378269196,0.8867183923721313
1761479472569406700,0.20540673828125,0.4498847723007202,-0.08018086850643158,0.9533562660217285
1761479472579442700,0.215442626953125,0.4316890239715576,-0.06710997223854065,0.8655055165290833
1761479472589478700,0.225478759765625,0.3943091630935669,-0.09849932044744492,0.6522595286369324
1761479472599514600,0.2355146484375,0.37507331371307373,-0.2568223178386688,0.33355712890625
1761479472609550600,0.245550537109375,0.3339535892009735,-0.5424250960350037,-0.031401388347148895
1761479472619587600,0.255587646484375,0.3200027346611023,-0.851974606513977,-0.3125108778476715
1761479472629623600,0.26562353515625,0.24490398168563843,-1.0407730340957642,-0.41198182106018066
1761479472639659500,0.275659423828125,0.0005598193965852261,-1.0917682647705078,-0.326133668422699
1761479472649695700,0.28569580078125,-0.2944158911705017,-1.0289809703826904,-0.10484815388917923
1761479472659731700,0.295731689453125,-0.5731850266456604,-0.8374528884887695,0.17524121701717377
1761479472669767700,0.305767578125,-0.7898448705673218,-0.47082242369651794,0.2170182317495346
1761479472679804700,0.3158046875,-0.8396084308624268,-0.1665540337562561,0.01616497151553631
1761479472689840600,0.325840576171875,-0.697262704372406,-0.3236118257045746,-0.3005714416503906
1761479472699876600,0.335876708984375,-0.45849546790122986,-0.7248396277427673,-0.6425122618675232
1761479472709912600,0.34591259765625,-0.2900390923023224,-1.0541200637817383,-0.8451703190803528
1761479472719948800,0.35594873046875,-0.2838725447654724,-1.1642529964447021,-0.7711269855499268
1761479472729984800,0.36598486328125,-0.3739941716194153,-0.9024644494056702,-0.5971730351448059
1761479472740021800,0.376021728515625,-0.5794996619224548,-0.29280245304107666,-0.45568063855171204
1761479472750057700,0.3860576171875,-0.8264575600624084,0.2350291609764099,-0.4432961344718933
1761479472760093700,0.39609375,-0.9689069986343384,0.3200482130050659,-0.5483354926109314
1761479472770129700,0.406129638671875,-0.9643758535385132,0.14305293560028076,-0.7909603714942932
1761479472780165600,0.41616552734375,-0.8984842300415039,0.2858632504940033,-1.153630018234253
1761479472790201600,0.42620166015625,-0.6838158965110779,0.24289073050022125,-1.5658116340637207
1761479472800237600,0.436237548828125,-0.5168225765228271,0.439669668674469,-1.6477164030075073
1761479472810274600,0.446274658203125,-0.1819457858800888,0.2759401202201843,-1.1982121467590332
1761479472820310500,0.456310546875,0.26825907826423645,0.19002078473567963,-0.47744256258010864
1761479472830346500,0.466346435546875,0.637885570526123,0.25396621227264404,0.20020809769630432
1761479472840382500,0.476382568359375,0.8543708920478821,0.23277150094509125,0.6869192123413086
1761479472850418700,0.486418701171875,0.8113440275192261,0.14241790771484375,0.9751978516578674
1761479472860454700,0.49645458984375,0.6282505393028259,-0.1450807750225067,1.0489319562911987
1761479472870491600,0.50649169921875,0.49575960636138916,-0.4808630645275116,1.0225318670272827
1761479472880527600,0.516527587890625,0.47461310029029846,-0.7639672160148621,0.9476945400238037
1761479472890563800,0.526563720703125,0.4869973063468933,-0.7939959168434143,0.8735169768333435
1761479472900599800,0.536599853515625,0.5184732675552368,-0.7237730622291565,0.8917216658592224
1761479472910635800,0.5466357421875,0.5236778855323792,-0.6596574783325195,1.0201514959335327
1761479472920671700,0.556671630859375,0.4159092903137207,-0.5761696100234985,1.166640281677246
1761479472930708700,0.566708740234375,0.20701491832733154,-0.4458276033401489,1.1858307123184204
1761479472940744700,0.57674462890625,0.0058671217411756516,-0.4081627428531647,0.9923975467681885
1761479472950780700,0.58678076171875,-0.09158060699701309,-0.28678253293037415,0.6147629022598267
1761479472960816600,0.596816650390625,-0.1484837830066681,-0.025324173271656036,0.16048792004585266
1761479472970852600,0.6068525390625,-0.17216435074806213,0.27280205488204956,-0.21711423993110657
1761479472980888600,0.616888671875,-0.16253937780857086,0.5307722091674805,-0.44888320565223694
1761479472990925600,0.626925537109375,-0.13448484241962433,0.6507409811019897,-0.5521997809410095
1761479473000961500,0.63696142578125,-0.11855882406234741,0.7026716470718384,-0.5368766188621521
1761479473010997000,0.6469970703125,-0.11556968837976456,0.6978792548179626,-0.4375492334365845
1761479473021033000,0.657032958984375,-0.13419218361377716,0.6944369077682495,-0.3133053481578827
1761479473031069000,0.66706884765625,-0.176718607544899,0.7339960336685181,-0.14583778381347656
1761479473041105200,0.677105224609375,-0.17224591970443726,0.7120023369789124,0.0824291929602623
1761479473051142000,0.687141845703125,-0.07839585095643997,0.6416307091712952,0.38292163610458374
1761479473061177900,0.697177734375,0.08295213431119919,0.4431390166282654,0.6771380305290222
1761479473071214000,0.707214111328125,0.3546592891216278,0.08937589079141617,0.836675226688385
1761479473081250000,0.71725,0.6209633946418762,-0.24528983235359192,0.7547374367713928
1761479473091286000,0.7272861328125,0.7999840378761292,-0.45225954055786133,0.46617886424064636
1761479473101322000,0.737322021484375,0.9463333487510681,-0.5423141121864319,0.11930164694786072
1761479473111358000,0.74735791015625,1.0701086521148682,-0.5395780205726624,-0.18195059895515442
1761479473121395000,0.75739501953125,1.1046299934387207,-0.6783878207206726,-0.4921927750110626
1761479473131431000,0.767430908203125,1.1166808605194092,-0.9480389952659607,-0.7386651039123535
1761479473141467000,0.777466796875,1.0017836093902588,-1.092167854309082,-0.8907593488693237
1761479473151502800,0.7875029296875,0.5819442272186279,-1.0181114673614502,-0.9720499515533447
1761479473161538800,0.797538818359375,-0.1601743996143341,-0.4459436535835266,-1.0024386644363403
1761479473171574800,0.80757470703125,-1.0777164697647095,0.29518744349479675,-0.9067696928977966
1761479473181612000,0.817612060546875,-1.7563285827636719,0.6952736973762512,-0.7222983241081238
1761479473191648000,0.82764794921875,-1.9996581077575684,0.6219094395637512,-0.5470601916313171
1761479473201684000,0.83768408203125,-1.865057349205017,0.30818498134613037,-0.4578893780708313
1761479473211720000,0.847719970703125,-1.52943754196167,-0.05711737275123596,-0.39931315183639526
1761479473221756000,0.857755859375,-1.1442252397537231,-0.3189123868942261,-0.2998881936073303
1761479473231791900,0.8677919921875,-0.7584352493286133,-0.20634403824806213,-0.2272973507642746
1761479473241828900,0.877828857421875,-0.49721580743789673,0.1834840029478073,-0.16897498071193695
1761479473251864800,0.88786474609375,-0.32701027393341064,0.6298271417617798,-0.13982082903385162
1761479473261900800,0.89790087890625,-0.21869681775569916,0.9976416230201721,-0.17386159300804138
1761479473271936800,0.907936767578125,-0.1977582573890686,1.2396409511566162,-0.34065937995910645
1761479473281973000,0.917972900390625,-0.17879952490329742,1.2282105684280396,-0.5374431014060974
1761479473292009000,0.928009033203125,-0.11464370787143707,1.052506923675537,-0.6143770217895508
1761479473302046000,0.9380458984375,-0.0004061930812895298,0.8189979195594788,-0.4672548770904541
1761479473312082200,0.948082275390625,0.1997671127319336,0.6706433296203613,-0.11630167067050934
1761479473322118100,0.9581181640625,0.46319466829299927,0.6921387910842896,0.33308541774749756
1761479473332154000,0.968154052734375,0.7040925025939941,0.7108759880065918,0.7786410450935364
1761479473342190000,0.978190185546875,0.8583059906959534,0.6416465640068054,1.1894234418869019
1761479473352227000,0.98822705078125,0.9354463219642639,0.4997557997703552,1.506303071975708
1761479473362263000,0.998262939453125,0.9108366966247559,0.34941068291664124,1.670311450958252
1761479473372299000,1.008299072265625,0.8072469234466553,0.12706604599952698,1.6580076217651367
1761479473382335000,1.0183349609375,0.618770956993103,-0.13713373243808746,1.5144290924072266
1761479473392371000,1.028370849609375,0.4818357527256012,-0.3877907395362854,1.271772027015686
1761479473402407000,1.038406982421875,0.3824346959590912,-0.5326656699180603,0.9870537519454956
1761479473412444000,1.04844384765625,0.2890093922615051,-0.5579015016555786,0.7437569499015808
1761479473422480000,1.05847998046875,0.11929992586374283,-0.6203985810279846,0.5319841504096985
1761479473432515800,1.068515869140625,-0.10278294235467911,-0.5459744334220886,0.37627288699150085
1761479473442551800,1.0785517578125,-0.29516685009002686,-0.37399592995643616,0.2531287968158722
1761479473452587800,1.088587890625,-0.4487316608428955,-0.1927928328514099,0.11061719059944153
1761479473462623700,1.098623779296875,-0.5663807392120361,0.03886684775352478,-0.06547226011753082
1761479473472661000,1.108660888671875,-0.639763355255127,0.2322315275669098,-0.28084713220596313
1761479473482697000,1.118697021484375,-0.658251166343689,0.39236652851104736,-0.4896007478237152
1761479473492733000,1.12873291015625,-0.6173300743103027,0.6014995574951172,-0.6471728086471558
1761479473502769000,1.138768798828125,-0.5717222690582275,0.8061712384223938,-0.6682694554328918
1761479473512804900,1.148804931640625,-0.5071267485618591,0.9589216113090515,-0.5944950580596924
1761479473522841000,1.158841064453125,-0.4727941155433655,0.9878509044647217,-0.44753915071487427
1761479473532877800,1.1688779296875,-0.4741440713405609,0.8697961568832397,-0.22881585359573364
1761479473542913800,1.178913818359375,-0.4445801377296448,0.5884570479393005,0.004190000705420971
1761479473552950000,1.188949951171875,-0.3648671805858612,0.2573752999305725,0.2688877284526825
1761479473562986000,1.198986083984375,-0.21761249005794525,-0.022868892177939415,0.4789977967739105
1761479473573022000,1.20902197265625,-0.16414058208465576,-0.19096063077449799,0.7391834259033203
1761479473583059000,1.219058837890625,-0.17130401730537415,-0.30358168482780457,1.0141266584396362
1761479473593095000,1.229094970703125,-0.10021600127220154,-0.19940467178821564,1.122560739517212
1761479473603131100,1.239131103515625,0.019697051495313644,-0.03205295279622078,0.9456116557121277
1761479473613167000,1.2491669921875,0.19906733930110931,-0.050984300673007965,0.49290624260902405
1761479473623203000,1.259203125,0.29077640175819397,-0.28328433632850647,-0.025097521021962166
1761479473633239000,1.269239013671875,0.2935154438018799,-0.5988292098045349,-0.5127124786376953
1761479473643276000,1.279276123046875,0.23587121069431305,-0.898527204990387,-0.9291393756866455
1761479473653312000,1.28931201171875,0.12152893096208572,-1.107334017753601,-1.1593773365020752
1761479473663348000,1.299347900390625,0.025748081505298615,-1.1083779335021973,-1.1816083192825317
1761479473673384000,1.309384033203125,-0.04818420112133026,-0.7612887024879456,-1.1391681432724
1761479473683420000,1.319419921875,-0.30613064765930176,-0.3158506453037262,-1.0927141904830933
1761479473693456000,1.329455810546875,-0.7894248962402344,-0.05243794620037079,-0.8938907980918884
1761479473703492900,1.339492919921875,-1.3303940296173096,0.02447621524333954,-0.5239165425300598
1761479473713528800,1.34952880859375,-1.6731878519058228,-0.02799418196082115,-0.1627143919467926
1761479473723564800,1.359564697265625,-1.6396231651306152,-0.14390215277671814,0.0730159655213356
1761479473733600800,1.369600830078125,-1.2867168188095093,-0.3318574130535126,0.14435194432735443
1761479473743636700,1.37963671875,-0.821732759475708,-0.5168120861053467,0.06696100533008575
1761479473753673000,1.3896728515625,-0.4721231162548065,-0.5747914910316467,-0.17441433668136597
1761479473763710000,1.3997099609375,-0.3745548129081726,-0.4341468811035156,-0.5702196955680847
1761479473773746000,1.409745849609375,-0.5525732636451721,-0.08506959676742554,-0.927352249622345
1761479473783782000,1.419781982421875,-0.8290945887565613,0.346090167760849,-1.1237335205078125
1761479473793818000,1.429818115234375,-1.0327857732772827,0.6167006492614746,-1.3265244960784912
1761479473803854000,1.43985400390625,-1.1733918190002441,0.6224777102470398,-1.5245293378829956
1761479473813890800,1.449890869140625,-1.1152031421661377,0.5210490822792053,-1.4795790910720825
1761479473823927000,1.459927001953125,-0.8740390539169312,0.4795617461204529,-1.1687772274017334
1761479473833963000,1.469962890625,-0.5613940954208374,0.4237924814224243,-0.6687580347061157
1761479473843999000,1.4799990234375,-0.14600631594657898,0.4529115557670593,-0.09649255871772766
1761479473854035000,1.490034912109375,0.3048519492149353,0.48955613374710083,0.44384312629699707
1761479473864071000,1.50007080078125,0.6307335495948792,0.39888033270835876,0.7575091123580933
1761479473874108000,1.51010791015625,0.8199812769889832,0.2889096140861511,0.8321753740310669
1761479473884143900,1.520143798828125,0.9054087400436401,0.14078578352928162,0.7888963222503662
1761479473894180000,1.53018017578125,0.903390109539032,-0.09009429067373276,0.6563350558280945
1761479473904216000,1.540216064453125,0.8787944912910461,-0.3543876111507416,0.5323509573936462
1761479473914252000,1.550251953125,0.8877120614051819,-0.5206453204154968,0.40184837579727173
1761479473924289000,1.5602890625,0.9115363359451294,-0.5260493159294128,0.34039685130119324
1761479473934325000,1.570324951171875,0.9427589774131775,-0.5564687252044678,0.47349977493286133
1761479473944361000,1.58036083984375,0.9864682555198669,-0.5755189657211304,0.7117066383361816
1761479473954397000,1.59039697265625,0.9760422706604004,-0.6074848771095276,0.9372870326042175
1761479473964433000,1.600432861328125,0.8648564219474792,-0.5938429236412048,1.0641446113586426
1761479473974468900,1.61046875,0.6728798151016235,-0.5841509103775024,1.03079092502594
1761479473984505900,1.620505859375,0.43968406319618225,-0.4212753176689148,0.8265070915222168
1761479473994541800,1.630541748046875,0.23079049587249756,-0.13174951076507568,0.4877306818962097
1761479474004577800,1.640577880859375,0.10919486731290817,0.144209623336792,0.11488121747970581
1761479474014613800,1.65061376953125,0.07938078045845032,0.25912368297576904,-0.1649584323167801
1761479474024650000,1.66064990234375,0.08551520109176636,0.25757700204849243,-0.26636937260627747
1761479474034686000,1.67068603515625,0.10607879608869553,0.23824618756771088,-0.16603878140449524
1761479474044722700,1.68072265625,0.17790475487709045,0.30083367228507996,0.08343682438135147
1761479474054759000,1.690759033203125,0.2808447480201721,0.42316651344299316,0.4117731750011444
1761479474064795100,1.700795166015625,0.3377551734447479,0.4393793046474457,0.7051156759262085
1761479474074831000,1.7108310546875,0.3725443184375763,0.22363397479057312,0.9118326306343079
1761479474084867000,1.7208671875,0.36746305227279663,-0.1529516875743866,0.9303092956542969
1761479474094904000,1.730904052734375,0.3113206923007965,-0.45351657271385193,0.7783514261245728
1761479474104940000,1.74093994140625,0.3297996520996094,-0.5453336238861084,0.5813603401184082
1761479474114976000,1.75097607421875,0.3813251554965973,-0.4996167719364166,0.4440123736858368
1761479474125012000,1.761011962890625,0.4263734221458435,-0.2958410382270813,0.3789609670639038
1761479474135048000,1.7710478515625,0.4898376166820526,-0.05390430614352226,0.3697008788585663
1761479474145084000,1.781083984375,0.5439662337303162,-0.004449188709259033,0.25406429171562195
1761479474155121000,1.791120849609375,0.5612469911575317,-0.21658968925476074,-0.004663379862904549
1761479474165156900,1.801156982421875,0.46799376606941223,-0.7536386251449585,-0.3842688202857971
1761479474175192800,1.81119287109375,0.24266745150089264,-1.266910195350647,-0.7965195178985596
1761479474185228800,1.821228759765625,-0.0072829993441700935,-1.4026533365249634,-1.1635595560073853
1761479474195264800,1.8312646484375,-0.10460422188043594,-1.0830622911453247,-1.4576364755630493
1761479474205302000,1.841302001953125,-0.199706569314003,-0.37767404317855835,-1.6423373222351074
1761479474215338000,1.851337890625,-0.3992100954055786,0.5189563632011414,-1.6762290000915527
1761479474225374000,1.8613740234375,-0.9507943391799927,1.0777394771575928,-1.4229621887207031
1761479474235410000,1.871409912109375,-1.4883211851119995,1.272299885749817,-1.0513588190078735
1761479474245446000,1.88144580078125,-1.7694575786590576,1.2761133909225464,-0.7691758871078491
1761479474255481900,1.89148193359375,-1.8199008703231812,1.2080061435699463,-0.6248368620872498
1761479474265518800,1.901518798828125,-1.7368651628494263,0.9947104454040527,-0.5376532077789307
1761479474275554800,1.911554931640625,-1.6394282579421997,0.7239279747009277,-0.3835859000682831
1761479474285590800,1.9215908203125,-1.5205456018447876,0.4941902160644531,-0.21599069237709045
1761479474295626800,1.931626708984375,-1.3866057395935059,0.47623196244239807,-0.15534518659114838
1761479474305663000,1.9416630859375,-1.3083972930908203,0.541662871837616,-0.18231526017189026
1761479474315699000,1.951698974609375,-1.2388824224472046,0.6493640542030334,-0.21126168966293335
1761479474325735700,1.961735595703125,-1.0786175727844238,0.7306783199310303,-0.2450101673603058
1761479474335772000,1.97177197265625,-0.78399258852005,0.6507374048233032,-0.21350736916065216
1761479474345808000,1.981807861328125,-0.5059744715690613,0.3274029791355133,-0.08625993877649307
1761479474355844000,1.991843994140625,-0.06352062523365021,0.19075991213321686,0.13082684576511383
1761479474365880000,2.001880126953125,0.22383904457092285,-0.01434214599430561,0.35878986120224
1761479474375917000,2.0119169921875,0.5831167697906494,-0.2182292342185974,0.6613566279411316
1761479474385953000,2.021953125,0.9436156153678894,-0.33194220066070557,0.9696285724639893
1761479474395989000,2.031989013671875,1.2345188856124878,-0.4447537064552307,1.2331337928771973
1761479474406025000,2.04202490234375,1.378456711769104,-0.5858670473098755,1.4027351140975952
1761479474416061000,2.05206103515625,1.333699107170105,-0.6397800445556641,1.5127407312393188
1761479474426097000,2.062096923828125,1.1625616550445557,-0.723030149936676,1.5762802362442017
1761479474436134000,2.0721337890625,0.95908522605896,-0.7664636373519897,1.6089447736740112
1761479474446169900,2.082169921875,0.7496036291122437,-0.7126577496528625,1.6103289127349854
1761479474456205800,2.092205810546875,0.5553632974624634,-0.6371408700942993,1.5127216577529907
1761479474466241800,2.10224169921875,0.39964863657951355,-0.5996198058128357,1.2490092515945435
1761479474476277800,2.11227783203125,0.32010799646377563,-0.5412236452102661,0.8265101909637451
1761479474486313700,2.122313720703125,0.3012239336967468,-0.34301090240478516,0.351197749376297
1761479474496351000,2.13235107421875,0.30044230818748474,-0.040559686720371246,-0.06726662069559097
1761479474506387000,2.142386962890625,0.27571991086006165,0.2521006464958191,-0.4242589473724365
1761479474516423000,2.1524228515625,0.20329660177230835,0.5011435151100159,-0.7201295495033264
1761479474526459000,2.162458984375,0.10386349260807037,0.7273017168045044,-0.9003239870071411
1761479474536494800,2.172494873046875,0.01702127419412136,0.9304846525192261,-0.9366707801818848
1761479474546531800,2.18253173828125,-0.049456048756837845,0.9923295378684998,-0.8157548308372498
1761479474556567800,2.19256787109375,-0.137100949883461,0.8854970932006836,-0.6373113393783569
1761479474566603800,2.202603759765625,-0.2202025204896927,0.734129786491394,-0.4988364577293396
1761479474576640000,2.212639892578125,-0.28588220477104187,0.5929838418960571,-0.38751447200775146
1761479474586676000,2.222676025390625,-0.3019481599330902,0.4103904366493225,-0.25732868909835815
1761479474596712700,2.232712646484375,-0.2633906304836273,0.17741762101650238,-0.07245445251464844
1761479474606749000,2.2427490234375,-0.2065342664718628,-0.12430880218744278,0.11170707643032074
1761479474616785000,2.252784912109375,-0.21436689794063568,-0.18997864425182343,0.3000341057777405
1761479474626820900,2.26282080078125,-0.11059937626123428,-0.19495293498039246,0.46778902411460876
1761479474636856800,2.27285693359375,0.11438553780317307,-0.16021573543548584,0.5295876860618591
1761479474646892800,2.282892822265625,0.35642364621162415,-0.09343226999044418,0.48533400893211365
1761479474656930000,2.292929931640625,0.5108707547187805,-0.09414946287870407,0.256005197763443
1761479474666966000,2.302966064453125,0.5616633892059326,-0.1576855480670929,-0.12949629127979279
1761479474677002000,2.313001953125,0.5536389946937561,-0.17928697168827057,-0.5412164926528931
1761479474687038000,2.323037841796875,0.5318931341171265,-0.27856189012527466,-0.9099002480506897
1761479474697074000,2.333073974609375,0.3202493488788605,-0.42812713980674744,-1.2143458127975464
1761479474707110000,2.34310986328125,0.19108834862709045,-0.5170149207115173,-1.5780822038650513
1761479474717147000,2.35314697265625,0.05480880290269852,-0.402771919965744,-2.043976068496704
1761479474727182800,2.363182861328125,-0.23377908766269684,-0.030307278037071228,-2.385615110397339
1761479474737218800,2.37321875,-0.6419236660003662,0.7860365509986877,-2.3994367122650146
1761479474747254800,2.3832548828125,-1.2672852277755737,1.4349459409713745,-1.7642557621002197
1761479474757290800,2.393290771484375,-1.7034157514572144,1.4569239616394043,-0.6930574774742126
1761479474767326700,2.40332666015625,-1.7025254964828491,1.1372675895690918,0.28153300285339355
1761479474777364000,2.413364013671875,-1.3131792545318604,0.6329686641693115,0.7654341459274292
1761479474787400000,2.42339990234375,-0.8048433065414429,0.12040882557630539,0.8307697176933289
1761479474797436000,2.433435791015625,-0.4285815358161926,-0.3213097155094147,0.6595005393028259
1761479474807471900,2.443471923828125,-0.33149656653404236,-0.47240519523620605,0.4401992857456207
1761479474817508000,2.453508056640625,-0.4816485345363617,-0.28039127588272095,0.16433176398277283
1761479474827544800,2.463544921875,-0.7301768064498901,0.0162051972001791,0.02219647355377674
1761479474837580800,2.473580810546875,-0.8761233687400818,0.20437245070934296,0.03188079223036766
1761479474847617000,2.483616943359375,-0.7736880779266357,0.29893529415130615,0.18253588676452637
1761479474857653000,2.493653076171875,-0.4964572787284851,0.3048192858695984,0.35244396328926086
1761479474867689000,2.50368896484375,-0.15205441415309906,0.2568016052246094,0.5536441206932068
1761479474877725000,2.513724853515625,0.2159997671842575,0.14660906791687012,0.7646535634994507
1761479474887762000,2.523761962890625,0.4845414161682129,-0.20060692727565765,0.9579641222953796
1761479474897798000,2.5337978515625,0.8072512745857239,-0.4747452735900879,1.1348984241485596
1761479474907833900,2.543833740234375,1.083864450454712,-0.6336858868598938,1.2731038331985474
1761479474917869800,2.553869873046875,1.194515585899353,-0.6896535754203796,1.3373006582260132
1761479474927905800,2.56390576171875,1.1384872198104858,-0.5891832709312439,1.2808692455291748
1761479474937943000,2.573943115234375,0.9908220767974854,-0.3990679383277893,1.111691951751709
1761479474947979000,2.58397900390625,0.8065398931503296,-0.24951677024364471,0.8856462836265564
1761479474958015000,2.594014892578125,0.6495747566223145,-0.1450529545545578,0.6670827865600586
1761479474968051000,2.604051025390625,0.5729076266288757,-0.014486908912658691,0.5166214108467102
1761479474978087000,2.6140869140625,0.5471020936965942,0.07677242904901505,0.40181729197502136
1761479474988123000,2.624122802734375,0.5603527426719666,-0.006923024542629719,0.27049630880355835
1761479474998160000,2.634159912109375,0.5677711963653564,-0.24218614399433136,0.10258612036705017
1761479475008195800,2.64419580078125,0.5240939259529114,-0.4451077878475189,-0.07628031820058823
1761479475018232300,2.654232421875,0.4010889232158661,-0.5574085116386414,-0.2682092785835266
1761479475028268300,2.664268310546875,0.24225419759750366,-0.5232478380203247,-0.4331345856189728
1761479475038304300,2.67430419921875,0.10636188089847565,-0.3755318820476532,-0.5129862427711487
1761479475048340200,2.68434033203125,0.008908524177968502,-0.18810737133026123,-0.4510820508003235
1761479475058377200,2.694377197265625,-0.031069252640008926,-0.03292497619986534,-0.2631736695766449
1761479475068413200,2.7044130859375,-0.016714993864297867,0.06692076474428177,0.002947718370705843
1761479475078449200,2.71444921875,0.057979483157396317,0.1000576764345169,0.2557680010795593
1761479475088485000,2.724485107421875,0.13278482854366302,0.10384519398212433,0.45654410123825073
1761479475098521300,2.734521240234375,0.152099147439003,0.052596647292375565,0.6007127165794373
1761479475108558000,2.74455810546875,0.1111336499452591,-0.09353236854076385,0.6778492331504822
1761479475118594000,2.754593994140625,0.023451201617717743,-0.24426275491714478,0.6342295408248901
1761479475128630300,2.76463037109375,-0.05820642411708832,-0.24200250208377838,0.5092612504959106
1761479475138666500,2.77466650390625,0.036302775144577026,-0.24486912786960602,0.46844062209129333
1761479475148702500,2.784702392578125,0.22877517342567444,-0.2503717243671417,0.4696243405342102
1761479475158738400,2.794738525390625,0.49552831053733826,-0.14381010830402374,0.3573833107948303
1761479475168775400,2.804775390625,0.7790992856025696,0.003934074193239212,0.11521833389997482
1761479475178811400,2.814811279296875,0.9389411211013794,0.16435463726520538,-0.2007279098033905
1761479475188847400,2.824847412109375,0.9552847743034363,0.21602804958820343,-0.5595321655273438
1761479475198883300,2.83488330078125,0.8879963159561157,-0.05096396058797836,-0.8894320726394653
1761479475208919300,2.844919189453125,0.8726909160614014,-0.4153391718864441,-1.2039480209350586
1761479475218955300,2.854955322265625,0.7905300259590149,-0.6612895727157593,-1.5479331016540527
1761479475228992300,2.8649921875,0.5141028165817261,-0.6647095084190369,-1.781038522720337
1761479475239028200,2.8750283203125,-0.020964855328202248,-0.24207676947116852,-1.7788493633270264
1761479475249064200,2.885064208984375,-0.7517784237861633,0.6470522284507751,-1.5835682153701782
1761479475259100200,2.89510009765625,-1.458441972732544,1.0981637239456177,-1.340125560760498
1761479475269136100,2.90513623046875,-1.9754743576049805,1.1212280988693237,-0.756178617477417
1761479475279172000,2.915172119140625,-2.0218656063079834,1.0627906322479248,-0.21112298965454102
1761479475289209300,2.925209228515625,-1.6358100175857544,0.7418290972709656,0.08530960232019424
1761479475299245300,2.935245361328125,-0.8999295830726624,0.4309905171394348,0.13043180108070374
1761479475309281300,2.94528125,-0.2596280574798584,0.3297768831253052,-0.15988674759864807
1761479475319317200,2.955317138671875,-0.006802706979215145,0.4940662384033203,-0.7405295968055725
1761479475329353200,2.965353271484375,-0.19506557285785675,0.754895806312561,-1.4028674364089966
1761479475339390200,2.97539013671875,-0.5360727310180664,0.8844181299209595,-1.9403034448623657
1761479475349426200,2.98542626953125,-0.805075466632843,0.887015700340271,-2.184943914413452
1761479475359462100,2.995462158203125,-0.8998551964759827,0.9353305101394653,-2.1181538105010986
1761479475369498400,3.005498291015625,-0.8233262896537781,0.9395175576210022,-1.843197226524353
1761479475379534300,3.015534423828125,-0.5394924283027649,0.8750179409980774,-1.438077449798584
1761479475389570300,3.0255703125,-0.04418586939573288,0.9269468784332275,-0.8219671249389648
1761479475399607300,3.035607177734375,0.4002227485179901,0.5828472971916199,-0.0014847329584881663
1761479475409643300,3.045643310546875,0.7916014790534973,0.2008144110441208,0.8080886602401733
1761479475419679200,3.05567919921875,1.054549217224121,0.11088265478610992,1.315211534500122
1761479475429715500,3.065715576171875,1.0328930616378784,-0.0610104575753212,1.4865503311157227
1761479475439751400,3.07575146484375,0.8812086582183838,-0.21857957541942596,1.4030113220214844
1761479475449787400,3.085787353515625,0.7045616507530212,-0.08268294483423233,1.1137498617172241
1761479475459824400,3.095824462890625,0.44034329056739807,0.11833272129297256,0.8350998163223267
1761479475469860400,3.1058603515625,0.2025977373123169,0.1670285314321518,0.6240168213844299
1761479475479896300,3.115896240234375,0.030258722603321075,0.16225481033325195,0.5140144228935242
1761479475489932300,3.125932373046875,-0.1441543698310852,-0.09611786901950836,0.5012071132659912
1761479475499968300,3.13596826171875,-0.1847289502620697,-0.3839555084705353,0.48530063033103943
1761479475510005200,3.146005126953125,-0.057972975075244904,-0.3982629179954529,0.37377265095710754
1761479475520041200,3.156041259765625,0.0622895210981369,-0.28410303592681885,0.18301309645175934
1761479475530077200,3.1660771484375,0.17931698262691498,-0.24101144075393677,-0.004519275389611721
1761479475540113200,3.176113037109375,0.28320103883743286,-0.1553250402212143,-0.16012324392795563
1761479475550149000,3.186149169921875,0.3328127861022949,-0.006822648458182812,-0.2550492286682129
1761479475560185000,3.19618505859375,0.33830583095550537,0.16857127845287323,-0.27008143067359924
1761479475570222300,3.206222412109375,0.3871093988418579,0.2568278908729553,-0.17462600767612457
1761479475580258300,3.21625830078125,0.44426456093788147,0.27077510952949524,0.009447951801121235
1761479475590294300,3.226294189453125,0.5056273341178894,0.311749666929245,0.2869890332221985
1761479475600330200,3.236330322265625,0.5241453647613525,0.14234015345573425,0.5774520039558411
1761479475610366500,3.246366455078125,0.5160893797874451,-0.15327264368534088,0.801385760307312
1761479475620402400,3.25640234375,0.46956926584243774,-0.3797268271446228,0.9672067165374756
1761479475630439200,3.266439208984375,0.3999215364456177,-0.4373103976249695,1.1341825723648071
1761479475640475400,3.276475341796875,0.3898555636405945,-0.5322262048721313,1.3268917798995972
1761479475650511400,3.286511474609375,0.5434815287590027,-0.430941641330719,1.55934739112854
1761479475660547300,3.29654736328125,0.8150994181632996,-0.21333527565002441,1.6823047399520874
1761479475670583300,3.306583251953125,1.0710475444793701,-0.0032024108804762363,1.6058109998703003
1761479475680619300,3.316619384765625,1.3122674226760864,-0.07433198392391205,1.3599658012390137
1761479475690656300,3.32665625,1.520742654800415,-0.4526253938674927,0.8597233891487122
1761479475700692200,3.336692138671875,1.6719942092895508,-0.8345364928245544,0.1334897130727768
1761479475710728200,3.346728271484375,1.7303615808486938,-1.0269849300384521,-0.6009232401847839
1761479475720764200,3.35676416015625,1.6185059547424316,-1.0466294288635254,-1.251507043838501
1761479475730800400,3.36680029296875,1.3511629104614258,-0.9631670713424683,-1.711495041847229
1761479475740837400,3.37683740234375,1.1069265604019165,-0.6517961621284485,-1.8501522541046143
1761479475750873300,3.386873291015625,0.850212812423706,-0.14773675799369812,-1.7533812522888184
1761479475760909300,3.396909423828125,0.3292367160320282,0.4358837902545929,-1.6015568971633911
1761479475770945300,3.4069453125,-0.4501245319843292,0.6707512736320496,-1.2701197862625122
1761479475780981200,3.416981201171875,-1.150952696800232,0.7340152263641357,-0.8526194095611572
1761479475791017200,3.427017333984375,-1.6022462844848633,0.743804931640625,-0.5527324080467224
1761479475801054200,3.43705419921875,-1.658785343170166,0.6198992133140564,-0.2686753571033478
1761479475811090200,3.447090087890625,-1.3233985900878906,0.43407222628593445,-0.09750476479530334
1761479475821126100,3.457126220703125,-0.7772761583328247,0.2952254116535187,-0.07392007112503052
1761479475831162000,3.467162109375,-0.31093889474868774,0.17231374979019165,-0.16187676787376404
1761479475841198000,3.477197998046875,-0.14609719812870026,0.08934110403060913,-0.33468079566955566
1761479475851234300,3.487234375,-0.2596922218799591,0.14112214744091034,-0.5022989511489868
1761479475861271300,3.497271240234375,-0.5206947922706604,0.34916427731513977,-0.5972798466682434
1761479475871307300,3.507307373046875,-0.7698094248771667,0.6172575950622559,-0.6222440004348755
1761479475881343500,3.517343505859375,-0.9167248606681824,0.7832809090614319,-0.6065800786018372
1761479475891379500,3.52737939453125,-0.9116420149803162,0.6509433388710022,-0.5609675049781799
1761479475901415400,3.53741552734375,-0.6938657760620117,0.20706814527511597,-0.4683758020401001
1761479475911451400,3.547451416015625,-0.18804842233657837,-0.07402864098548889,-0.21198882162570953
1761479475921488400,3.55748828125,0.3834632933139801,-0.20625218749046326,0.1634282022714615
1761479475931524400,3.5675244140625,0.8438461422920227,-0.33905208110809326,0.5541712045669556
1761479475941560300,3.577560302734375,1.0470468997955322,-0.45961207151412964,0.835445761680603
1761479475951596300,3.58759619140625,0.9729748368263245,-0.43168026208877563,0.9861202239990234
1761479475961632300,3.59763232421875,0.6706476807594299,-0.3211148679256439,1.0628345012664795
1761479475971668200,3.607668212890625,0.23069831728935242,-0.3004606068134308,1.087286114692688
1761479475981705200,3.617705322265625,-0.20447126030921936,-0.3393467366695404,1.049014925956726
1761479475991741200,3.6277412109375,-0.481397420167923,-0.24400478601455688,0.993489146232605
1761479476001777200,3.637777099609375,-0.5702585577964783,-0.07294036448001862,0.9663403630256653
1761479476011813000,3.647813232421875,-0.5162855386734009,0.02364591881632805,0.8844231367111206
1761479476021848600,3.6578486328125,-0.35214394330978394,-0.0314551517367363,0.69871586561203
1761479476031884500,3.667884521484375,-0.20248620212078094,-0.12116727232933044,0.4697365462779999
1761479476041921500,3.677921630859375,-0.1278305947780609,-0.10215257108211517,0.18769526481628418
1761479476051957500,3.68795751953125,-0.125779390335083,-0.009556865319609642,-0.14332139492034912
1761479476061993500,3.697993408203125,-0.18405547738075256,0.062036894261837006,-0.42249152064323425
1761479476072029700,3.70802978515625,-0.2594473659992218,0.07948707789182663,-0.6135317087173462
1761479476082065700,3.718065673828125,-0.3159247636795044,0.11920439451932907,-0.7165776491165161
1761479476092101600,3.7281015625,-0.3183819055557251,0.24568811058998108,-0.6687767505645752
1761479476102139000,3.738138916015625,-0.2617311477661133,0.3239266872406006,-0.5109809637069702
1761479476112174800,3.7481748046875,-0.1715683937072754,0.37323644757270813,-0.2918652296066284
1761479476122210800,3.7582109375,-0.11365289986133575,0.3698076009750366,-0.10045720636844635
1761479476132246800,3.768246826171875,-0.1109740287065506,0.2586755156517029,0.06587690860033035
1761479476142282800,3.77828271484375,-0.11146292835474014,0.0896235853433609,0.22591572999954224
1761479476152318700,3.788318603515625,-0.08551133424043655,0.050484634935855865,0.41634348034858704
1761479476162355700,3.798355712890625,0.11587557941675186,0.025155574083328247,0.6258586645126343
1761479476172391700,3.8083916015625,0.39881351590156555,-0.027014266699552536,0.7274283170700073
1761479476182427600,3.818427734375,0.6273638606071472,-0.1516355574131012,0.5918662548065186
1761479476192463600,3.828463623046875,0.7625822424888611,-0.419082373380661,0.19368021190166473
1761479476202499600,3.83849951171875,0.7660491466522217,-0.7519471049308777,-0.4350007474422455
1761479476212535600,3.84853564453125,0.7520471215248108,-0.9717114567756653,-1.038480520248413
1761479476222572500,3.858572509765625,0.7692998647689819,-1.16995108127594,-1.3128007650375366
1761479476232608500,3.8686083984375,0.8713768124580383,-1.112874984741211,-1.2630391120910645
1761479476242644500,3.87864453125,0.8115712404251099,-0.6761492490768433,-1.0333746671676636
1761479476252680400,3.888680419921875,0.531374990940094,0.11751189827919006,-0.8705752491950989
1761479476262716700,3.898716552734375,-0.2722381055355072,0.6992634534835815,-0.9160943031311035
1761479476272753700,3.908753662109375,-1.2996175289154053,0.9270748496055603,-1.108036994934082
1761479476282789600,3.91878955078125,-2.1286532878875732,0.8957456946372986,-1.2556538581848145
1761479476292825600,3.92882568359375,-2.529005289077759,0.7630283236503601,-1.264836311340332
1761479476302861600,3.938861572265625,-2.4194700717926025,0.678466260433197,-1.082075834274292
1761479476312897800,3.948897705078125,-1.8961873054504395,0.5776175260543823,-0.7765251398086548
1761479476322933800,3.958933837890625,-1.1671640872955322,0.499855637550354,-0.5686787366867065
1761479476332970500,3.968970458984375,-0.5385497808456421,0.39471542835235596,-0.5490767359733582
1761479476343006700,3.9790068359375,-0.0727061927318573,0.25218385457992554,-0.6873621344566345
1761479476353042700,3.989042724609375,0.21179261803627014,0.07023711502552032,-0.8482165336608887
1761479476363078700,3.99907861328125,0.36657875776290894,-0.32501116394996643,-0.8864171504974365
1761479476373114600,4.009114501953125,0.4004885256290436,-0.6950738430023193,-0.7695914506912231
1761479476383150600,4.019150634765625,0.32412824034690857,-0.8110992908477783,-0.5339304804801941
1761479476393186600,4.0291865234375,0.19915157556533813,-0.6268662810325623,-0.17244897782802582
1761479476403222500,4.039222412109375,0.06961995363235474,-0.2744419276714325,0.28967416286468506
1761479476413258500,4.049258544921875,-0.03125318884849548,0.004070275463163853,0.7789996266365051
1761479476423294500,4.05929443359375,0.002905314788222313,0.1128377690911293,1.2108749151229858
1761479476433331700,4.069331787109375,0.1858309656381607,0.04871762543916702,1.5226783752441406
1761479476443367700,4.07936767578125,0.43939104676246643,-0.1613149642944336,1.6831998825073242
1761479476453403600,4.089403564453125,0.6062804460525513,-0.40995875000953674,1.724560260772705
1761479476463439600,4.099439697265625,0.6579950451850891,-0.5593732595443726,1.676892638206482
1761479476473475600,4.1094755859375,0.5370793342590332,-0.6763623356819153,1.5759010314941406
1761479476483511800,4.11951171875,0.33724454045295715,-0.6961964964866638,1.3918946981430054
1761479476493548500,4.129548583984375,0.08003693073987961,-0.5930736064910889,1.120227336883545
1761479476503584500,4.13958447265625,-0.20481397211551666,-0.3707371950149536,0.7863298654556274
1761479476513620700,4.149620849609375,-0.39006471633911133,-0.20078416168689728,0.44087550044059753
1761479476523656700,4.15965673828125,-0.5294782519340515,-0.1047537699341774,0.1736517995595932
1761479476533692700,4.169692626953125,-0.42126336693763733,-0.20134754478931427,0.006586713716387749
1761479476543728600,4.179728759765625,-0.12620002031326294,-0.15450361371040344,-0.21016955375671387
1761479476553765600,4.189765625,0.15137305855751038,-0.002952593844383955,-0.37307438254356384
1761479476563801900,4.1998017578125,0.1836146116256714,0.08236869424581528,-0.43317633867263794
1761479476573837800,4.209837890625,0.17176860570907593,0.1655542552471161,-0.44447219371795654
1761479476583873800,4.219873779296875,0.14419130980968475,0.29590773582458496,-0.3738052248954773
1761479476593909800,4.22990966796875,0.09387185424566269,0.4107113182544708,-0.21440215408802032
1761479476603945700,4.23994580078125,0.009627016261219978,0.312224417924881,0.01961514912545681
1761479476613982700,4.249982666015625,-0.10130689293146133,0.05537382885813713,0.25813737511634827
1761479476624018700,4.260018798828125,-0.17424848675727844,-0.10408826172351837,0.46835798025131226
1761479476634054700,4.2700546875,-0.17047104239463806,-0.166579470038414,0.634152352809906
1761479476644090600,4.280090576171875,-0.07906869053840637,-0.1392114907503128,0.816023051738739
1761479476654126600,4.290126708984375,0.11306408047676086,-0.005272651556879282,1.0259910821914673
1761479476664162600,4.30016259765625,0.39381664991378784,0.11608174443244934,1.2482759952545166
1761479476674199600,4.310199462890625,0.7192851305007935,0.25412291288375854,1.3648253679275513
1761479476684235500,4.320235595703125,1.013167142868042,0.13710416853427887,1.2681260108947754
1761479476694271500,4.330271484375,1.310439109802246,-0.2134881466627121,0.831941545009613
1761479476704307500,4.340307373046875,1.477373480796814,-0.6291772127151489,0.1452781707048416
1761479476714343400,4.350343505859375,1.5578410625457764,-1.0587718486785889,-0.4783867299556732
1761479476724379600,4.360379638671875,1.5577137470245361,-1.2526206970214844,-0.8109340071678162
1761479476734416600,4.370416748046875,1.3787795305252075,-1.1155613660812378,-0.785311222076416
1761479476744452600,4.38045263671875,1.0371689796447754,-0.630280613899231,-0.5212324261665344
1761479476754488800,4.39048876953125,0.5254265666007996,0.037632495164871216,-0.32197490334510803
1761479476764524800,4.40052490234375,-0.19317205250263214,0.5462837219238281,-0.35409823060035706
1761479476774560800,4.410560791015625,-0.985120415687561,0.6376616954803467,-0.5598053336143494
1761479476784596700,4.4205966796875,-1.566561222076416,0.632481575012207,-0.7423232197761536
1761479476794633700,4.4306337890625,-1.7238527536392212,0.5979565978050232,-0.7577409148216248
1761479476804669700,4.440669677734375,-1.454663634300232,0.4916032552719116,-0.6739243268966675
1761479476814705700,4.45070556640625,-0.9097577333450317,0.358136922121048,-0.6413915753364563
1761479476824741600,4.46074169921875,-0.28769123554229736,0.2730039358139038,-0.7731280326843262
1761479476834777600,4.470777587890625,0.1190645694732666,0.2408161610364914,-1.0185600519180298
1761479476844813600,4.4808134765625,0.16463284194469452,0.29313796758651733,-1.284388542175293
1761479476854850800,4.490850830078125,-0.14504551887512207,0.5128887295722961,-1.3929961919784546
1761479476864886800,4.50088671875,-0.5898392796516418,0.796152651309967,-1.2020139694213867
1761479476874922800,4.5109228515625,-0.8574956655502319,0.9244488477706909,-0.8251815438270569
1761479476884958700,4.520958740234375,-0.8398956656455994,0.8456187844276428,-0.447050541639328
1761479476894994700,4.53099462890625,-0.5636922717094421,0.6247826218605042,-0.16052015125751495
1761479476905030700,4.54103076171875,-0.10175366699695587,0.35247257351875305,0.04648523032665253
1761479476915067600,4.551067626953125,0.39185717701911926,0.16050082445144653,0.20866569876670837
1761479476925103600,4.561103515625,0.7276242971420288,-0.030782576650381088,0.3492097556591034
1761479476935139600,4.5711396484375,0.8622134923934937,-0.15104639530181885,0.41599640250205994
1761479476945175600,4.581175537109375,0.8111931681632996,-0.10110892355442047,0.4471244812011719
1761479476955213600,4.591213623046875,0.603279709815979,-0.011334728449583054,0.4776090979576111
1761479476965249500,4.60124951171875,0.33207646012306213,0.03226068615913391,0.48919278383255005
1761479476975285800,4.61128564453125,0.11998941004276276,0.07853568345308304,0.4870871901512146
1761479476985321700,4.62132177734375,0.005815431009978056,0.12930458784103394,0.5138972401618958
1761479476995357700,4.631357666015625,-0.05620395392179489,0.08320033550262451,0.5779563188552856
1761479477005394700,4.641394775390625,-0.06624087691307068,0.055005718022584915,0.6701956987380981
1761479477015431200,4.65143115234375,-0.09662903845310211,0.0007527882698923349,0.7558115124702454
1761479477025467100,4.661467041015625,-0.19258591532707214,-0.05558771640062332,0.7735623121261597
1761479477035503000,4.671503173828125,-0.29672709107398987,-0.11284481734037399,0.7104055881500244
1761479477045539000,4.6815390625,-0.3607865273952484,-0.09653109312057495,0.5730109214782715
1761479477055575000,4.691574951171875,-0.3188217282295227,0.06704147905111313,0.3637319803237915
1761479477065612000,4.701612060546875,-0.2330131083726883,0.26425522565841675,0.10349719226360321
1761479477075648000,4.71164794921875,-0.12655827403068542,0.27140405774116516,-0.11693097651004791
1761479477085684000,4.72168408203125,0.04325420409440994,0.18862901628017426,-0.3335269093513489
1761479477095720000,4.731719970703125,0.24365770816802979,0.1497458666563034,-0.49617233872413635
1761479477105756200,4.741756103515625,0.34010887145996094,0.04952393099665642,-0.5436815619468689
1761479477115792100,4.751792236328125,0.3015373945236206,-0.018628427758812904,-0.4638899266719818
1761479477125829000,4.7618291015625,0.13313880562782288,-0.02076694741845131,-0.2557641565799713
1761479477135865000,4.771864990234375,-0.0726914182305336,-0.05335693806409836,0.06998854875564575
1761479477145901300,4.7819013671875,-0.15034785866737366,-0.22766774892807007,0.4644836485385895
1761479477155937300,4.791937255859375,-0.04588685184717178,-0.44559481739997864,0.8509971499443054
1761479477165973200,4.80197314453125,0.1549229472875595,-0.541850745677948,1.1804150342941284
1761479477176009200,4.81200927734375,0.36702731251716614,-0.5083763599395752,1.4638844728469849
1761479477186046200,4.822046142578125,0.48925548791885376,-0.22914204001426697,1.563307762145996
1761479477196082200,4.832082275390625,0.4834580421447754,0.19752804934978485,1.384223461151123
1761479477206118100,4.8421181640625,0.33795997500419617,0.09851039201021194,1.0719233751296997
1761479477216154000,4.852154052734375,0.3073076903820038,-0.23273086547851562,0.5975984334945679
1761479477226190000,4.862190185546875,0.48183873295783997,-0.5117310285568237,-0.012700379826128483
1761479477236226000,4.87222607421875,0.7655202746391296,-0.6956601738929749,-0.5521328449249268
1761479477246263300,4.88226318359375,0.9538033604621887,-0.7385165691375732,-0.8677725195884705
1761479477256299300,4.89229931640625,0.8887864947319031,-0.4167591631412506,-1.057681918144226
1761479477266335200,4.902335205078125,0.4932013750076294,0.1455412060022354,-1.1391738653182983
1761479477276371200,4.91237109375,-0.17532004415988922,0.5743515491485596,-1.2074321508407593
1761479477286407200,4.9224072265625,-0.8832231163978577,0.7233349084854126,-1.2629332542419434
1761479477296443100,4.932443115234375,-1.4098578691482544,0.6524057388305664,-1.316935658454895
1761479477306480000,4.942480224609375,-1.658721685409546,0.5358487963676453,-1.360355019569397
1761479477316516000,4.95251611328125,-1.578558087348938,0.4247353672981262,-1.2838668823242188
1761479477326552000,4.962552001953125,-1.1774362325668335,0.2749285399913788,-1.0878150463104248
1761479477336588000,4.972588134765625,-0.6981418132781982,0.17145435512065887,-0.936252772808075
1761479477346624300,4.982624267578125,-0.39970260858535767,0.26087450981140137,-0.8844902515411377
1761479477356661000,4.992660888671875,-0.32543542981147766,0.49850043654441833,-0.8220024108886719
1761479477366697000,5.002697021484375,-0.3665652871131897,0.6936928629875183,-0.6527739763259888
1761479477376733200,5.012733154296875,-0.4854736328125,0.8193531632423401,-0.36532390117645264
1761479477386769200,5.02276904296875,-0.5969000458717346,0.8598446846008301,-0.11515825986862183
1761479477396805000,5.03280517578125,-0.6986544132232666,0.691116452217102,0.003742015454918146
1761479477406841000,5.042841064453125,-0.6593685150146484,0.37232404947280884,0.022758848965168
1761479477416877300,5.052877197265625,-0.47557002305984497,0.023076774552464485,0.037880439311265945
1761479477426914300,5.062914306640625,-0.2154764086008072,-0.21956409513950348,-0.014759337529540062
1761479477436950300,5.0729501953125,0.05898596718907356,-0.24482664465904236,-0.12473718822002411
1761479477446986200,5.082986328125,0.3452187776565552,-0.15258780121803284,-0.21182015538215637
1761479477457022200,5.093022216796875,0.5945321917533875,-0.11179257929325104,-0.15733835101127625
1761479477467058200,5.10305810546875,0.7407514452934265,-0.20322687923908234,-0.0031277299858629704
1761479477477095200,5.11309521484375,0.7346526384353638,-0.3571624159812927,0.19286508858203888
1761479477487131100,5.123131103515625,0.5478007197380066,-0.5057337284088135,0.37479496002197266
1761479477497167000,5.1331669921875,0.2099323719739914,-0.5377753973007202,0.5010874271392822
1761479477507203000,5.143203125,-0.16062039136886597,-0.4052017033100128,0.5857032537460327
1761479477517239000,5.153239013671875,-0.4118490517139435,-0.21946583688259125,0.6638984680175781
1761479477527275000,5.16327490234375,-0.515106201171875,-0.10877393931150436,0.7226557731628418
1761479477537312300,5.173312255859375,-0.5100083351135254,-0.13913494348526,0.7165511846542358
1761479477547348200,5.18334814453125,-0.4207514226436615,-0.20558880269527435,0.6438138484954834
1761479477557384200,5.19338427734375,-0.29010334610939026,-0.25568273663520813,0.4667227864265442
1761479477567420200,5.203420166015625,-0.15095213055610657,-0.19276557862758636,0.17314337193965912
1761479477577456000,5.2134560546875,-0.03920776769518852,-0.028544532135128975,-0.1546514928340912
1761479477587492400,5.223492431640625,0.07574225962162018,0.11211937665939331,-0.3863270580768585
1761479477597529000,5.233529052734375,0.1809166818857193,0.14779318869113922,-0.4894411563873291
1761479477607565000,5.24356494140625,0.24618729948997498,0.12989674508571625,-0.4459346830844879
1761479477617601300,5.253601318359375,0.24717852473258972,0.07445838302373886,-0.26935654878616333
1761479477627637200,5.26363720703125,0.20065230131149292,-0.006557638756930828,-0.0057856254279613495
1761479477637673200,5.273673095703125,0.11912526935338974,-0.12682801485061646,0.25937676429748535
1761479477647709200,5.283709228515625,0.05599743872880936,-0.22129833698272705,0.5273655652999878
1761479477657746200,5.29374609375,0.060803331434726715,-0.24294234812259674,0.7936438322067261
1761479477667782100,5.3037822265625,0.16250546276569366,-0.21943782269954681,1.075787901878357
1761479477677818000,5.313818115234375,0.31482449173927307,-0.232843279838562,1.341992735862732
1761479477687854000,5.32385400390625,0.46982234716415405,-0.30221328139305115,1.4925901889801025
1761479477697890000,5.33389013671875,0.6236252188682556,-0.44818541407585144,1.4655152559280396
1761479477707926000,5.343926025390625,0.7843655943870544,-0.6583325266838074,1.1490113735198975
1761479477717963300,5.35396337890625,0.8904539942741394,-0.7252021431922913,0.5614525675773621
1761479477727999200,5.363999267578125,0.9827751517295837,-0.5865651965141296,-0.06838105618953705
1761479477738035200,5.37403515625,0.9935299754142761,-0.4157351553440094,-0.49430570006370544
1761479477748071200,5.3840712890625,0.9563775062561035,-0.18342548608779907,-0.7007278800010681
1761479477758107100,5.394107177734375,0.9048798084259033,0.03318226709961891,-0.7595195770263672
1761479477768143000,5.40414306640625,0.8413676619529724,0.1948782354593277,-0.6642798781394958
1761479477778180000,5.41418017578125,0.6572411060333252,0.26939061284065247,-0.5690510869026184
1761479477788216000,5.424216064453125,0.2030578851699829,0.1959259808063507,-0.6009182333946228
1761479477798252000,5.434251953125,-0.4334253966808319,0.07780616730451584,-0.6538360118865967
1761479477808288000,5.4442880859375,-0.9722741842269897,0.005687499884516001,-0.6323325634002686
1761479477818324000,5.454323974609375,-1.3109631538391113,0.13955408334732056,-0.5036341547966003
1761479477828360200,5.464360107421875,-1.411637544631958,0.3618476092815399,-0.28961458802223206
1761479477838397200,5.474397216796875,-1.2398099899291992,0.46663898229599,-0.1613597720861435
1761479477848433200,5.48443310546875,-0.8452157974243164,0.45178574323654175,-0.2749244272708893
1761479477858469000,5.49446923828125,-0.5102205276489258,0.3332831859588623,-0.6117501854896545
1761479477868505300,5.50450537109375,-0.37717485427856445,0.32015299797058105,-0.9612498879432678
1761479477878541300,5.514541259765625,-0.4552328288555145,0.45754796266555786,-1.138927936553955
1761479477888578300,5.524578369140625,-0.6569995284080505,0.6623839735984802,-1.0337307453155518
1761479477898614300,5.5346142578125,-0.8837487101554871,1.0079102516174316,-0.7366567254066467
1761479477908650200,5.544650146484375,-1.036495327949524,1.418355941772461,-0.5755029916763306
1761479477918686200,5.554686279296875,-1.0859825611114502,1.5156663656234741,-0.6316691040992737
1761479477928722200,5.56472216796875,-1.0471105575561523,1.1399238109588623,-0.764428973197937
1761479477938758100,5.574758056640625,-0.792452871799469,0.6628936529159546,-0.8039228320121765
1761479477948794000,5.584794189453125,-0.2999316453933716,0.35934919118881226,-0.598554790019989
1761479477958831000,5.5948310546875,0.2074328362941742,0.10309543460607529,-0.09313494712114334
1761479477968867000,5.6048671875,0.5988304018974304,-0.05789744853973389,0.4832993447780609
1761479477978903000,5.614903076171875,0.7856072187423706,-0.07774583995342255,0.8207276463508606
1761479477988939000,5.62493896484375,0.8474058508872986,-0.005291343666613102,0.8471810817718506
1761479477998975000,5.63497509765625,0.8388363718986511,-0.020132102072238922,0.6553935408592224
1761479478009012200,5.64501220703125,0.7365113496780396,-0.2048071324825287,0.4118514657020569
1761479478019048200,5.655048095703125,0.5605248808860779,-0.39719513058662415,0.24238021671772003
1761479478029084200,5.665084228515625,0.34288766980171204,-0.5695189237594604,0.15771353244781494
1761479478039120100,5.6751201171875,0.17496159672737122,-0.5478646755218506,0.20957322418689728
1761479478049156000,5.685156005859375,0.0979461744427681,-0.32412055134773254,0.4390740692615509
1761479478059192000,5.695192138671875,0.043536897748708725,-0.17190900444984436,0.706619143486023
1761479478069228300,5.705228271484375,-0.07563024014234543,-0.20031720399856567,0.8508719205856323
1761479478079265300,5.715265380859375,-0.24423493444919586,-0.36742672324180603,0.8451716303825378
1761479478089301200,5.72530126953125,-0.36860617995262146,-0.43380576372146606,0.6214924454689026
1761479478099337200,5.735337158203125,-0.28235191106796265,-0.33211827278137207,0.28854966163635254
1761479478109373400,5.74537353515625,-0.2002730369567871,-0.18618477880954742,-0.017719721421599388
1761479478119409400,5.755409423828125,-0.10117902606725693,-0.24153243005275726,-0.227027028799057
1761479478129445400,5.7654453125,-0.0128606166690588,-0.2856660783290863,-0.3220488727092743
1761479478139482400,5.775482421875,-0.03486128896474838,-0.28355053067207336,-0.2831520140171051
1761479478149518300,5.785518310546875,-0.13241954147815704,-0.19547422230243683,-0.08552256971597672
1761479478159554300,5.79555419921875,-0.20800277590751648,-0.0015088561922311783,0.2139282375574112
1761479478169590300,5.80559033203125,-0.2287788987159729,0.1530037522315979,0.5782537460327148
1761479478179626200,5.815626220703125,-0.20071804523468018,0.1283358782529831,0.891485333442688
1761479478189663200,5.825663330078125,-0.14013326168060303,-0.1135670393705368,1.0915532112121582
1761479478199699200,5.83569921875,-0.013713635504245758,-0.3604803681373596,1.0638166666030884
1761479478209735400,5.8457353515625,0.12224286794662476,-0.4059402644634247,0.9055803418159485
1761479478219771400,5.855771484375,0.23589757084846497,-0.28840914368629456,0.7584608197212219
1761479478229807400,5.865807373046875,0.35018524527549744,-0.1964901089668274,0.6501388549804688
1761479478239843300,5.87584326171875,0.5040140748023987,0.10211167484521866,0.577367901802063
1761479478249879300,5.88587939453125,0.690929651260376,0.6137219667434692,0.4513702690601349
1761479478259916300,5.895916259765625,0.7423508763313293,0.6642306447029114,0.3648126423358917
1761479478269952300,5.9059521484375,0.7200029492378235,0.481765478849411,0.14644116163253784
1761479478279988200,5.91598828125,0.46370846033096313,-0.0390801727771759,-0.29642853140830994
1761479478290024200,5.926024169921875,0.2971511483192444,-0.45021018385887146,-0.7675179839134216
1761479478300060200,5.93606005859375,0.2273111641407013,-0.6525947451591492,-1.2736159563064575
1761479478310096400,5.946096435546875,0.11357473582029343,-0.5117945075035095,-1.712833046913147
1761479478320133000,5.956133056640625,-0.16455306112766266,0.09922843426465988,-1.9875712394714355
1761479478330169000,5.966169189453125,-0.6257422566413879,0.9378445744514465,-2.0253803730010986
1761479478340205300,5.976205322265625,-1.12972092628479,1.357262134552002,-1.5986790657043457
1761479478350241300,5.9862412109375,-1.3472527265548706,0.9706750512123108,-1.1094348430633545
1761479478360277200,5.99627734375,-1.1207671165466309,0.7349158525466919,-0.7274037003517151
1761479478370313200,6.006313232421875,-0.9106782674789429,0.409319132566452,-0.6932449340820312
1761479478380350500,6.0163505859375,-0.9121615886688232,0.4544456899166107,-0.8225178718566895
1761479478390386400,6.026386474609375,-1.033890962600708,0.42977577447891235,-1.0028865337371826
1761479478400422400,6.03642236328125,-1.086461067199707,0.46823546290397644,-1.0685893297195435
1761479478410458400,6.046458251953125,-1.0466002225875854,0.46366390585899353,-0.8493130803108215
1761479478420494300,6.056494384765625,-0.9350900650024414,0.1373690664768219,-0.46579739451408386
1761479478430530300,6.0665302734375,-0.6652159690856934,-0.3189058005809784,-0.09800711274147034
