time,seconds_elapsed,z,y,x
1761479472441446700,0.07744677734375,0.09637314081192017,-0.04441353678703308,0.12441436201334
1761479472451482600,0.087482666015625,0.15588892996311188,0.018425878137350082,0.16397082805633545
1761479472461518800,0.097518798828125,0.19253775477409363,0.11686563491821289,0.18932145833969116
1761479472471554800,0.107554931640625,0.23664183914661407,0.20450493693351746,0.20440959930419922
1761479472481590800,0.1175908203125,0.2782004773616791,0.251270055770874,0.21165606379508972
1761479472491627800,0.127627685546875,0.30949047207832336,0.22632767260074615,0.2343405932188034
1761479472501663700,0.137663818359375,0.26752492785453796,0.10365715622901917,0.3362294137477875
1761479472511699700,0.14769970703125,0.24702337384223938,-0.07198231667280197,0.46613892912864685
1761479472521735700,0.157735595703125,0.2897638976573944,-0.1601284146308899,0.5350775122642517
1761479472531771600,0.167771728515625,0.33394360542297363,-0.2236381471157074,0.5573388934135437
1761479472541807600,0.1778076171875,0.3725232481956482,-0.22997620701789856,0.6411318182945251
1761479472551844600,0.1878447265625,0.40392163395881653,-0.1415185183286667,0.7810150980949402
1761479472561880600,0.197880615234375,0.438066303730011,-0.09351290762424469,0.9138525128364563
1761479472571916500,0.20791650390625,0.44254839420318604,-0.08023145794868469,0.944576621055603
1761479472581952500,0.217952392578125,0.4175841808319092,-0.06992022693157196,0.8253583312034607
1761479472591988500,0.227988525390625,0.3810347020626068,-0.13109970092773438,0.5818490386009216
1761479472602024400,0.2380244140625,0.3642445206642151,-0.31893405318260193,0.23638030886650085
1761479472612061700,0.248061767578125,0.32004937529563904,-0.6276671290397644,-0.11189723759889603
1761479472622097700,0.25809765625,0.3072928488254547,-0.9226630926132202,-0.36243197321891785
1761479472632133600,0.268133544921875,0.19100937247276306,-1.0625866651535034,-0.40483802556991577
1761479472642169600,0.278169677734375,-0.0745602548122406,-1.099260687828064,-0.28169161081314087
1761479472652205800,0.288205810546875,-0.3680395483970642,-0.997700572013855,-0.027005251497030258
1761479472662241800,0.29824169921875,-0.6412809491157532,-0.7745875716209412,0.2145482450723648
1761479472672278500,0.308278564453125,-0.8245229125022888,-0.36683765053749084,0.17939132452011108
1761479472682314800,0.318314697265625,-0.8279842138290405,-0.1640768200159073,-0.05886092036962509
1761479472692350700,0.328350830078125,-0.6471854448318481,-0.41694262623786926,-0.3895877003669739
1761479472702386700,0.33838671875,-0.41183149814605713,-0.8352541327476501,-0.7136397957801819
1761479472712422700,0.348422607421875,-0.2788310945034027,-1.1012557744979858,-0.8547226190567017
1761479472722458600,0.358458740234375,-0.29991695284843445,-1.1461176872253418,-0.7331951260566711
1761479472732494600,0.36849462890625,-0.4250178635120392,-0.7782973647117615,-0.552016019821167
1761479472742531600,0.378531494140625,-0.6481407284736633,-0.13622894883155823,-0.4422397315502167
1761479472752567800,0.38856787109375,-0.8818466663360596,0.2946881055831909,-0.4574493169784546
1761479472762603800,0.398603759765625,-0.9861459136009216,0.28309082984924316,-0.599010169506073
1761479472772639700,0.4086396484375,-0.9590432047843933,0.11086472868919373,-0.8672989010810852
1761479472782675700,0.41867578125,-0.8539441823959351,0.26430168747901917,-1.2789652347564697
1761479472792711700,0.428711669921875,-0.6401834487915039,0.3461875021457672,-1.6311533451080322
1761479472802748700,0.438748779296875,-0.46414583921432495,0.3934389054775238,-1.5869513750076294
1761479472812784600,0.44878466796875,-0.07198604196310043,0.23719044029712677,-1.0297783613204956
1761479472822820600,0.458820556640625,0.36284399032592773,0.18771477043628693,-0.2963451147079468
1761479472832856600,0.468856689453125,0.7083483934402466,0.2620779573917389,0.33913731575012207
1761479472842892500,0.478892578125,0.8625768423080444,0.2252538949251175,0.7757734656333923
1761479472852928500,0.488928466796875,0.7622427940368652,0.08275293558835983,1.011592149734497
1761479472862965500,0.498965576171875,0.5796828269958496,-0.23035012185573578,1.043515682220459
1761479472873001500,0.50900146484375,0.4687645435333252,-0.5728243589401245,1.0117136240005493
1761479472883037400,0.519037353515625,0.4703163802623749,-0.8004457950592041,0.921870231628418
1761479472893073700,0.52907373046875,0.4873819053173065,-0.7835988998413086,0.8668173551559448
1761479472903109600,0.539109619140625,0.5197877883911133,-0.707203209400177,0.914755642414093
1761479472913145600,0.5491455078125,0.5009331107139587,-0.64682537317276,1.056493878364563
1761479472923182800,0.559182861328125,0.3667769432067871,-0.5492879152297974,1.1843585968017578
1761479472933218800,0.56921875,0.14661261439323425,-0.4327367842197418,1.159252405166626
1761479472943254800,0.5792548828125,-0.03437395393848419,-0.39969921112060547,0.9076305627822876
1761479472953290800,0.589290771484375,-0.11210417002439499,-0.23830337822437286,0.5007323622703552
1761479472963326700,0.59932666015625,-0.16729098558425903,0.047080691903829575,0.054121293127536774
1761479472973362700,0.60936279296875,-0.17873725295066833,0.3413919508457184,-0.2889449894428253
1761479472983398700,0.619398681640625,-0.16090260446071625,0.5733711123466492,-0.4914275109767914
1761479472993435600,0.629435546875,-0.12815344333648682,0.6616458296775818,-0.5583154559135437
1761479473003471600,0.6394716796875,-0.12351421266794205,0.700698733329773,-0.5202993750572205
1761479473013506800,0.6495068359375,-0.12419065833091736,0.6891821622848511,-0.41279155015945435
1761479473023542800,0.659542724609375,-0.14984461665153503,0.6979636549949646,-0.2763647437095642
1761479473033578800,0.669578857421875,-0.19291725754737854,0.7376351356506348,-0.0988948866724968
1761479473043615000,0.679614990234375,-0.1612999439239502,0.6929662227630615,0.1512366533279419
1761479473053652000,0.68965185546875,-0.056230515241622925,0.6085461378097534,0.4619324803352356
1761479473063688000,0.69968798828125,0.1376819610595703,0.3627728819847107,0.7372812032699585
1761479473073724000,0.709723876953125,0.4221682846546173,-0.008025968447327614,0.8388834595680237
1761479473083760000,0.719760009765625,0.6661929488182068,-0.30848461389541626,0.6975449919700623
1761479473093796000,0.729796142578125,0.8316982984542847,-0.49387577176094055,0.3750183582305908
1761479473103832000,0.73983203125,0.9741963148117065,-0.5428377389907837,0.03927469998598099
1761479473113869000,0.749869140625,1.0894834995269775,-0.5532064437866211,-0.2623003125190735
1761479473123905000,0.759905029296875,1.1079071760177612,-0.7506170272827148,-0.5604712963104248
1761479473133941000,0.76994091796875,1.0951539278030396,-1.0053675174713135,-0.7873052358627319
1761479473143977000,0.77997705078125,0.9200116395950317,-1.1086020469665527,-0.9170219898223877
1761479473154013000,0.790012939453125,0.4221946597099304,-0.9276056289672852,-0.9874354004859924
1761479473164049000,0.800048828125,-0.3916998505592346,-0.2534477114677429,-0.993438720703125
1761479473174086000,0.8100859375,-1.2902536392211914,0.43596959114074707,-0.8696630001068115
1761479473184121900,0.820121826171875,-1.8645142316818237,0.7161154747009277,-0.6743792295455933
1761479473194157800,0.83015771484375,-2.002636194229126,0.5564960241317749,-0.5203856825828552
1761479473204193800,0.84019384765625,-1.8011202812194824,0.21636666357517242,-0.4465324878692627
1761479473214230000,0.85022998046875,-1.4427632093429565,-0.14330922067165375,-0.37846553325653076
1761479473224266000,0.860265869140625,-1.0502748489379883,-0.33515989780426025,-0.27909475564956665
1761479473234303000,0.870302978515625,-0.6895430088043213,-0.12241166830062866,-0.21201957762241364
1761479473244339000,0.8803388671875,-0.45945972204208374,0.2952537536621094,-0.1605401486158371
1761479473254375000,0.890375,-0.30130818486213684,0.7257968783378601,-0.13905136287212372
1761479473264411000,0.900410888671875,-0.21446409821510315,1.0737191438674927,-0.20490200817584991
1761479473274446800,0.91044677734375,-0.20429854094982147,1.2582871913909912,-0.397603303194046
1761479473284483000,0.920483154296875,-0.16904574632644653,1.1960575580596924,-0.5722610950469971
1761479473294519800,0.930519775390625,-0.09696249663829803,0.9887299537658691,-0.6004043221473694
1761479473304555800,0.9405556640625,0.03783073648810387,0.7675403356552124,-0.39805710315704346
1761479473314592000,0.950592041015625,0.25421151518821716,0.6621680855751038,-0.009592439979314804
1761479473324628000,0.9606279296875,0.5276235938072205,0.7053243517875671,0.44492074847221375
1761479473334664000,0.970663818359375,0.741263210773468,0.6993541121482849,0.8833470940589905
1761479473344700000,0.980699951171875,0.8801537156105042,0.6054590344429016,1.2769173383712769
1761479473354737200,0.990737060546875,0.9347817897796631,0.46047279238700867,1.561801791191101
1761479473364773000,1.000773193359375,0.883683979511261,0.2941136360168457,1.682038426399231
1761479473374809000,1.01080908203125,0.7581194043159485,0.06180877238512039,1.630039930343628
1761479473384845000,1.020844970703125,0.5755687355995178,-0.20875054597854614,1.4613372087478638
1761479473394881000,1.030881103515625,0.4476102590560913,-0.44225865602493286,1.1953582763671875
1761479473404917000,1.0409169921875,0.35741060972213745,-0.5502623319625854,0.9222156405448914
1761479473414954000,1.0509541015625,0.25037869811058044,-0.5744009613990784,0.6857267022132874
1761479473424990000,1.060989990234375,0.05920952558517456,-0.622239351272583,0.48500797152519226
1761479473435026000,1.07102587890625,-0.16278918087482452,-0.5075156688690186,0.3452543318271637
1761479473445062000,1.081061767578125,-0.3458018898963928,-0.3389069437980652,0.21732112765312195
1761479473455097900,1.091097900390625,-0.48731905221939087,-0.14230068027973175,0.06818810850381851
1761479473465133800,1.1011337890625,-0.594451367855072,0.09270623326301575,-0.11735086143016815
1761479473475170800,1.1111708984375,-0.6582311391830444,0.2636825144290924,-0.33908191323280334
1761479473485206800,1.121206787109375,-0.6570260524749756,0.44240936636924744,-0.5400150418281555
1761479473495242800,1.13124267578125,-0.6106215715408325,0.6505894660949707,-0.6663641929626465
1761479473505278700,1.14127880859375,-0.5583919286727905,0.850205659866333,-0.6619619727134705
1761479473515315000,1.15131494140625,-0.5022162795066833,0.974094808101654,-0.5589485168457031
1761479473525352000,1.16135205078125,-0.4743236303329468,0.9721845388412476,-0.4072343409061432
1761479473535388000,1.171387939453125,-0.48044756054878235,0.8091141581535339,-0.1725131869316101
1761479473545424000,1.181423828125,-0.43431657552719116,0.49728327989578247,0.06675213575363159
1761479473555460000,1.191460205078125,-0.33547067642211914,0.17450283467769623,0.31681203842163086
1761479473565496000,1.20149609375,-0.19993655383586884,-0.07585667818784714,0.5352320075035095
1761479473575532000,1.211531982421875,-0.18516905605793,-0.22841639816761017,0.821739912033081
1761479473585569000,1.221569091796875,-0.15732170641422272,-0.29750359058380127,1.058229684829712
1761479473595605000,1.23160498046875,-0.08417000621557236,-0.15551289916038513,1.1077524423599243
1761479473605641000,1.241640869140625,0.056474193930625916,-0.013018064200878143,0.8482328057289124
1761479473615677000,1.251677001953125,0.22620277106761932,-0.10217350721359253,0.36078163981437683
1761479473625713000,1.261712890625,0.2928699553012848,-0.3643643856048584,-0.15221430361270905
1761479473635748900,1.271748779296875,0.28024283051490784,-0.677767276763916,-0.6268668174743652
1761479473645786000,1.2817861328125,0.20226921141147614,-0.9649002552032471,-1.0105252265930176
1761479473655822000,1.291822021484375,0.0886334627866745,-1.1475178003311157,-1.1808754205703735
1761479473665858000,1.301858154296875,0.0029438582714647055,-1.0510519742965698,-1.1692206859588623
1761479473675894000,1.31189404296875,-0.0889037698507309,-0.6425951719284058,-1.1356208324432373
1761479473685930000,1.321929931640625,-0.4188387989997864,-0.23058420419692993,-1.058824896812439
1761479473695966000,1.331966064453125,-0.9345247745513916,-0.026521354913711548,-0.8112230896949768
1761479473706003000,1.3420029296875,-1.446289300918579,0.018619490787386894,-0.43038174510002136
1761479473716039000,1.352038818359375,-1.7082785367965698,-0.05530346930027008,-0.09217733144760132
1761479473726075000,1.362074951171875,-1.5798965692520142,-0.1860116869211197,0.1046862006187439
1761479473736110800,1.37211083984375,-1.1784756183624268,-0.38923537731170654,0.13760100305080414
1761479473746146800,1.382146728515625,-0.7270560264587402,-0.5492846965789795,0.020554278045892715
1761479473756183800,1.392183837890625,-0.42509377002716064,-0.5657212138175964,-0.2615887224674225
1761479473766219800,1.4022197265625,-0.40658268332481384,-0.36895114183425903,-0.6742194294929504
1761479473776255700,1.412255859375,-0.6281155943870544,0.026328276842832565,-0.9906663298606873
1761479473786291700,1.422291748046875,-0.8965861797332764,0.43015989661216736,-1.168261170387268
1761479473796328000,1.432327880859375,-1.083604335784912,0.6479590535163879,-1.3850905895233154
1761479473806364200,1.4423642578125,-1.1924258470535278,0.5851271152496338,-1.5422214269638062
1761479473816401000,1.45240087890625,-1.0713061094284058,0.504564106464386,-1.427029013633728
1761479473826437000,1.46243701171875,-0.8103032112121582,0.4652014970779419,-1.0564541816711426
1761479473836473000,1.47247314453125,-0.47465041279792786,0.41411516070365906,-0.5318407416343689
1761479473846509000,1.482509033203125,-0.038114096969366074,0.4710383713245392,0.04120203107595444
1761479473856545000,1.492544921875,0.39372119307518005,0.47483789920806885,0.5493044257164001
1761479473866582000,1.50258203125,0.6845900416374207,0.3587421774864197,0.7926360964775085
1761479473876618000,1.512617919921875,0.8440598845481873,0.2605043053627014,0.8290404677391052
1761479473886654000,1.522654052734375,0.9040531516075134,0.07943756878376007,0.7640353441238403
1761479473896690000,1.53268994140625,0.8945997357368469,-0.16169169545173645,0.6192680597305298
1761479473906726000,1.542725830078125,0.8697679042816162,-0.41287118196487427,0.4993126094341278
1761479473916761900,1.552761962890625,0.8905301690101624,-0.5295469164848328,0.36537984013557434
1761479473926799000,1.562799072265625,0.9091094732284546,-0.5311709642410278,0.35866761207580566
1761479473936835000,1.5728349609375,0.9488843083381653,-0.5658950805664062,0.5269588828086853
1761479473946871000,1.58287109375,0.984632670879364,-0.5867505669593811,0.7729635834693909
1761479473956907000,1.592906982421875,0.949053943157196,-0.6078513264656067,0.982011079788208
1761479473966943000,1.60294287109375,0.8153666853904724,-0.5976229310035706,1.0716112852096558
1761479473976979000,1.61297900390625,0.612154483795166,-0.5676754117012024,0.9969133138656616
1761479473987016000,1.623015869140625,0.37445828318595886,-0.3597773611545563,0.7477088570594788
1761479473997052000,1.633052001953125,0.18224863708019257,-0.05860632285475731,0.3923856317996979
1761479474007087900,1.643087890625,0.08810828626155853,0.184419646859169,0.030844198539853096
1761479474017123800,1.653123779296875,0.07684178650379181,0.2631418704986572,-0.20751644670963287
1761479474027159800,1.663159912109375,0.08086875081062317,0.2498452514410019,-0.26050907373428345
1761479474037196800,1.67319677734375,0.11487678438425064,0.236405611038208,-0.11679985374212265
1761479474047232800,1.683232666015625,0.19815702736377716,0.3288319408893585,0.16347122192382812
1761479474057268700,1.693268798828125,0.29104089736938477,0.4387318193912506,0.49032577872276306
1761479474067305000,1.703304931640625,0.3394528925418854,0.4056265950202942,0.7658984661102295
1761479474077341000,1.7133408203125,0.3701215982437134,0.13195617496967316,0.9365498423576355
1761479474087377000,1.723376953125,0.3474418520927429,-0.24888944625854492,0.9035943150520325
1761479474097414100,1.7334140625,0.3033449649810791,-0.4964507818222046,0.7242746353149414
1761479474107450000,1.7434501953125,0.33754047751426697,-0.5458760857582092,0.5406922698020935
1761479474117486000,1.753486083984375,0.38544729351997375,-0.4754892885684967,0.41865798830986023
1761479474127522000,1.76352197265625,0.43464013934135437,-0.22992321848869324,0.3742409646511078
1761479474137558000,1.77355810546875,0.49768221378326416,-0.021267738193273544,0.3543674051761627
1761479474147595000,1.783594970703125,0.5455794334411621,-0.03295635059475899,0.20317068696022034
1761479474157631000,1.793630859375,0.5440078973770142,-0.331142783164978,-0.09126759320497513
1761479474167667000,1.8036669921875,0.4129553437232971,-0.9119781851768494,-0.4886820614337921
1761479474177703000,1.813702880859375,0.16308052837848663,-1.3501824140548706,-0.9018539190292358
1761479474187739000,1.82373876953125,-0.04177301377058029,-1.3574899435043335,-1.243232250213623
1761479474197774800,1.83377490234375,-0.13617515563964844,-0.9482060074806213,-1.5121876001358032
1761479474207811800,1.843811767578125,-0.24283182621002197,-0.16840898990631104,-1.6709524393081665
1761479474217847800,1.853847900390625,-0.5178202390670776,0.7104991674423218,-1.6422944068908691
1761479474227883800,1.8638837890625,-1.1087325811386108,1.1434707641601562,-1.3368901014328003
1761479474237919700,1.873919677734375,-1.591484546661377,1.2811356782913208,-0.9658235907554626
1761479474247955700,1.883955810546875,-1.8064535856246948,1.2671037912368774,-0.7270022034645081
1761479474257991700,1.89399169921875,-1.8149051666259766,1.1670125722885132,-0.6015561819076538
1761479474268029000,1.90402880859375,-1.7180339097976685,0.923055112361908,-0.5038069486618042
1761479474278065000,1.91406494140625,-1.618174433708191,0.6508249044418335,-0.3446982502937317
1761479474288100900,1.924100830078125,-1.4916242361068726,0.46331146359443665,-0.18626707792282104
1761479474298136800,1.93413671875,-1.367923617362976,0.4847528338432312,-0.15726950764656067
1761479474308173000,1.944173095703125,-1.2893496751785278,0.5596649050712585,-0.18529368937015533
1761479474318209800,1.954209716796875,-1.2278804779052734,0.6545860767364502,-0.2244086116552353
1761479474328245800,1.964245849609375,-1.022750735282898,0.7370769381523132,-0.25132784247398376
1761479474338282000,1.974281982421875,-0.7180824875831604,0.5826506614685059,-0.1923428177833557
1761479474348318000,1.98431787109375,-0.4162944257259369,0.2600520849227905,-0.03953941911458969
1761479474358354000,1.99435400390625,0.02672402188181877,0.16223230957984924,0.1817743182182312
1761479474368390000,2.004389892578125,0.29852038621902466,-0.08683556318283081,0.4314126670360565
1761479474378427000,2.014427001953125,0.6710476279258728,-0.2542083263397217,0.7421289682388306
1761479474388463000,2.024463134765625,1.0177898406982422,-0.36064741015434265,1.0381582975387573
1761479474398499000,2.0344990234375,1.2830830812454224,-0.48580852150917053,1.2793368101119995
1761479474408535000,2.04453515625,1.3753561973571777,-0.6078766584396362,1.4342600107192993
1761479474418571000,2.054571044921875,1.2943083047866821,-0.6634413599967957,1.5293687582015991
1761479474428608000,2.06460791015625,1.1074720621109009,-0.7414296269416809,1.586865782737732
1761479474438644000,2.07464404296875,0.8981702327728271,-0.7615237236022949,1.6107860803604126
1761479474448680000,2.084679931640625,0.6929603815078735,-0.7001554369926453,1.5997132062911987
1761479474458716000,2.0947158203125,0.5035473108291626,-0.6311912536621094,1.4626227617263794
1761479474468752000,2.104751953125,0.3653329610824585,-0.5958647131919861,1.1523923873901367
1761479474478787800,2.114787841796875,0.30565738677978516,-0.5111846923828125,0.7059068083763123
1761479474488824800,2.124824951171875,0.29735898971557617,-0.27819299697875977,0.2368314564228058
1761479474498860800,2.13486083984375,0.29673951864242554,0.03592843934893608,-0.16339212656021118
1761479474508896800,2.144896728515625,0.25614097714424133,0.3103797137737274,-0.5097830891609192
1761479474518932700,2.1549326171875,0.16996054351329803,0.5536347031593323,-0.780428946018219
1761479474528968700,2.16496875,0.07213651388883591,0.780792772769928,-0.9250748157501221
1761479474539006000,2.175005859375,-0.004538825247436762,0.9603902101516724,-0.9209809899330139
1761479474549042000,2.1850419921875,-0.07300363481044769,0.9771438837051392,-0.7700657844543457
1761479474559078000,2.195077880859375,-0.1634856015443802,0.8424398899078369,-0.6003774404525757
1761479474569113900,2.20511376953125,-0.24202008545398712,0.695911705493927,-0.4727233350276947
1761479474579150000,2.215150146484375,-0.30115506052970886,0.5490260720252991,-0.3592175543308258
1761479474589186000,2.22518603515625,-0.3055436611175537,0.35936829447746277,-0.2184644341468811
1761479474599222800,2.235222900390625,-0.24584119021892548,0.09516806155443192,-0.02454928494989872
1761479474609259000,2.245259033203125,-0.21446649730205536,-0.16397163271903992,0.1563272923231125
1761479474619295000,2.255294921875,-0.2097444385290146,-0.19400542974472046,0.3464207947254181
1761479474629331000,2.2653310546875,-0.07323586195707321,-0.1936565488576889,0.4909348487854004
1761479474639367000,2.275366943359375,0.17740914225578308,-0.149770587682724,0.5272217392921448
1761479474649403000,2.28540283203125,0.3992515206336975,-0.08709362149238586,0.4481407701969147
1761479474659439900,2.29543994140625,0.5244882702827454,-0.1113121435046196,0.1667730063199997
1761479474669475800,2.305475830078125,0.5568485856056213,-0.16270369291305542,-0.2348220944404602
1761479474679511800,2.31551171875,0.5533396005630493,-0.20382370054721832,-0.637334942817688
1761479474689548000,2.325548095703125,0.4992516338825226,-0.3151438236236572,-0.9929487109184265
1761479474699584000,2.335583984375,0.2737458050251007,-0.4702964127063751,-1.2945109605789185
1761479474709621000,2.34562109375,0.16041763126850128,-0.5164127349853516,-1.69159996509552
1761479474719657000,2.355656982421875,-0.012089685536921024,-0.3442676365375519,-2.1510891914367676
1761479474729693000,2.36569287109375,-0.3315531611442566,0.12249262630939484,-2.430051803588867
1761479474739729000,2.37572900390625,-0.8132036924362183,0.9987722039222717,-2.303420305252075
1761479474749764900,2.385764892578125,-1.4121595621109009,1.4719361066818237,-1.5268751382827759
1761479474759800800,2.39580078125,-1.755771517753601,1.4053807258605957,-0.41482409834861755
1761479474769837800,2.405837890625,-1.6368839740753174,1.0149272680282593,0.4454064965248108
1761479474779873800,2.415873779296875,-1.194563865661621,0.4996854364871979,0.8104779720306396
1761479474789909800,2.42590966796875,-0.6971039772033691,-0.008442486636340618,0.8019630312919617
1761479474799945700,2.43594580078125,-0.37983015179634094,-0.39446502923965454,0.6077948808670044
1761479474809981700,2.445981689453125,-0.3516390025615692,-0.4539794921875,0.3766021430492401
1761479474820018000,2.456017822265625,-0.5481752157211304,-0.20144949853420258,0.108321413397789
1761479474830055000,2.466054931640625,-0.7897526621818542,0.06963926553726196,0.003949734382331371
1761479474840091000,2.4760908203125,-0.8787297010421753,0.23410624265670776,0.05895812436938286
1761479474850127000,2.486127197265625,-0.7206945419311523,0.30463579297065735,0.22293907403945923
1761479474860163000,2.4961630859375,-0.42370492219924927,0.29221028089523315,0.39903128147125244
1761479474870199000,2.506198974609375,-0.06010514870285988,0.23776595294475555,0.6068273782730103
1761479474880236000,2.516236083984375,0.2793770432472229,0.08031241595745087,0.8117296099662781
1761479474890272000,2.52627197265625,0.5536943674087524,-0.28958067297935486,1.0094150304794312
1761479474900308000,2.536307861328125,0.8838978409767151,-0.52242112159729,1.173949122428894
1761479474910344000,2.546343994140625,1.122406005859375,-0.663720428943634,1.295387625694275
1761479474920380000,2.5563798828125,1.1892467737197876,-0.6844204068183899,1.3317803144454956
1761479474930415900,2.566415771484375,1.1042267084121704,-0.5449759364128113,1.2421993017196655
1761479474940452900,2.576452880859375,0.9391778707504272,-0.3593027591705322,1.0577747821807861
1761479474950488800,2.58648876953125,0.7528990507125854,-0.22594711184501648,0.8268553018569946
1761479474960524800,2.59652490234375,0.617620050907135,-0.11831838637590408,0.6246747970581055
1761479474970560800,2.606560791015625,0.555221438407898,0.017896441742777824,0.4853033125400543
1761479474980597000,2.616596923828125,0.5406821370124817,0.06793776899576187,0.365291953086853
1761479474990634000,2.626634033203125,0.5581857562065125,-0.058826033025979996,0.22952640056610107
1761479475000670000,2.636669921875,0.5569503307342529,-0.30430689454078674,0.05817196145653725
1761479475010706200,2.6467060546875,0.4936797618865967,-0.48755955696105957,-0.1261904239654541
1761479475020742100,2.6567421875,0.35506993532180786,-0.5625991821289062,-0.3139187693595886
1761479475030778000,2.666778076171875,0.19869685173034668,-0.4991179406642914,-0.4684140682220459
1761479475040814000,2.67681396484375,0.07288113236427307,-0.33088311553001404,-0.5119184255599976
1761479475050851300,2.686851318359375,-0.014055098406970501,-0.14891144633293152,-0.41471943259239197
1761479475060887300,2.69688720703125,-0.03989814594388008,-0.00361683894880116,-0.20122765004634857
1761479475070923300,2.70692333984375,-0.011257980950176716,0.07190801203250885,0.0668080598115921
1761479475080959200,2.716959228515625,0.0747179165482521,0.1032254546880722,0.30982816219329834
1761479475090995200,2.7269951171875,0.13653413951396942,0.08968594670295715,0.4960440993309021
1761479475101031400,2.737031494140625,0.13873258233070374,0.02075161784887314,0.6251816153526306
1761479475111068200,2.747068115234375,0.08996184915304184,-0.14119280874729156,0.6796551942825317
1761479475121104100,2.757104248046875,-0.011629492044448853,-0.26407691836357117,0.605367124080658
1761479475131140400,2.767140380859375,-0.05621906369924545,-0.2335275411605835,0.48565566539764404
1761479475141176300,2.77717626953125,0.07283825427293777,-0.2610912621021271,0.47160083055496216
1761479475151212300,2.78721240234375,0.2824418246746063,-0.23046809434890747,0.45437949895858765
1761479475161248300,2.797248291015625,0.565239429473877,-0.10770329087972641,0.30580997467041016
1761479475171285500,2.807285400390625,0.8281882405281067,0.03481949865818024,0.039860863238573074
1761479475181321500,2.817321533203125,0.9514521360397339,0.19913120567798615,-0.28789597749710083
1761479475191357400,2.827357421875,0.9214193820953369,0.1689024716615677,-0.6475974321365356
1761479475201393400,2.837393310546875,0.8778284788131714,-0.15376506745815277,-0.9671114683151245
1761479475211429400,2.847429443359375,0.8503870368003845,-0.49648725986480713,-1.2911872863769531
1761479475221466400,2.85746630859375,0.7332377433776855,-0.7007200121879578,-1.6258223056793213
1761479475231502300,2.86750244140625,0.4053086042404175,-0.6056573987007141,-1.802695870399475
1761479475241538300,2.877538330078125,-0.208871990442276,-0.06787145882844925,-1.7396644353866577
1761479475251574300,2.88757421875,-0.936806857585907,0.8477603197097778,-1.5385938882827759
1761479475261610200,2.8976103515625,-1.6303843259811401,1.1132622957229614,-1.2247923612594604
1761479475271646200,2.907646240234375,-2.039163827896118,1.1191580295562744,-0.5994796752929688
1761479475281683200,2.91768310546875,-1.9732002019882202,0.9987221360206604,-0.11744619905948639
1761479475291719200,2.92771923828125,-1.4799617528915405,0.6425523161888123,0.12368731945753098
1761479475301755100,2.937755126953125,-0.7201642990112305,0.3754825294017792,0.09108729660511017
1761479475311791000,2.947791015625,-0.1564101129770279,0.3454205095767975,-0.2873079478740692
1761479475321827000,2.9578271484375,-0.029095834121108055,0.5524525046348572,-0.9096527099609375
1761479475331863000,2.967863037109375,-0.2838714122772217,0.8049098253250122,-1.560104250907898
1761479475341900300,2.977900390625,-0.6219969987869263,0.8857327699661255,-2.0365827083587646
1761479475351936300,2.987936279296875,-0.8542054295539856,0.8908433318138123,-2.1965115070343018
1761479475361972200,2.99797216796875,-0.9003303647041321,0.9594588875770569,-2.0653600692749023
1761479475372008400,3.008008544921875,-0.7880538702011108,0.897960364818573,-1.75495445728302
1761479475382044400,3.01804443359375,-0.42489510774612427,0.8977718353271484,-1.312835931777954
1761479475392081200,3.0280810546875,0.06853165477514267,0.8781081438064575,-0.6287323832511902
1761479475402117400,3.038117431640625,0.49901753664016724,0.4592019319534302,0.21254582703113556
1761479475412153300,3.0481533203125,0.8719439506530762,0.15699733793735504,0.9693693518638611
1761479475422189300,3.058189208984375,1.0644441843032837,0.08087913691997528,1.3797584772109985
1761479475432225300,3.068225341796875,0.9960004091262817,-0.12468574196100235,1.4924639463424683
1761479475442261200,3.07826123046875,0.8348655700683594,-0.21488220989704132,1.3379929065704346
1761479475452298200,3.08829833984375,0.6384654641151428,-0.024648888036608696,1.041032075881958
1761479475462334500,3.09833447265625,0.3690566122531891,0.13622574508190155,0.7747383117675781
1761479475472370400,3.108370361328125,0.14521178603172302,0.17972049117088318,0.5853718519210815
1761479475482406400,3.118406494140625,-0.01985626295208931,0.11213639378547668,0.5021390318870544
1761479475492442400,3.1284423828125,-0.18419326841831207,-0.17943952977657318,0.5044650435447693
1761479475502478300,3.138478271484375,-0.1688489317893982,-0.4215616285800934,0.4657759666442871
1761479475512515300,3.148515380859375,-0.033125195652246475,-0.37031522393226624,0.3286684453487396
1761479475522551300,3.15855126953125,0.08422193676233292,-0.2670239806175232,0.12632118165493011
1761479475532587300,3.168587158203125,0.19713197648525238,-0.23504020273685455,-0.039313849061727524
1761479475542623200,3.178623291015625,0.29944103956222534,-0.1334046572446823,-0.1929878294467926
1761479475552659200,3.1886591796875,0.3268582820892334,0.03581712022423744,-0.2711170017719269
1761479475562695200,3.198695068359375,0.3435051739215851,0.1982038915157318,-0.25773701071739197
1761479475572732200,3.208732177734375,0.39040982723236084,0.26074716448783875,-0.1401515156030655
1761479475582768000,3.21876806640625,0.4553842842578888,0.2775493264198303,0.07301828265190125
1761479475592804000,3.22880419921875,0.5105586051940918,0.2937983274459839,0.36181414127349854
1761479475602840000,3.238840087890625,0.5168934464454651,0.06443731486797333,0.6369245052337646
1761479475612876300,3.248876220703125,0.5025049448013306,-0.23328225314617157,0.8473294377326965
1761479475622913300,3.258913330078125,0.4472866952419281,-0.39644160866737366,1.00780189037323
1761479475632949200,3.26894921875,0.38015639781951904,-0.47662487626075745,1.1727267503738403
1761479475642985200,3.278985107421875,0.4047147333621979,-0.526378333568573,1.388323187828064
1761479475653021400,3.289021484375,0.5980873703956604,-0.38922497630119324,1.6039763689041138
1761479475663057400,3.299057373046875,0.868878960609436,-0.1388566792011261,1.673819899559021
1761479475673093400,3.30909326171875,1.1251184940338135,0.010271545499563217,1.5630555152893066
1761479475683130400,3.31913037109375,1.3623703718185425,-0.15121828019618988,1.2591958045959473
1761479475693166300,3.329166259765625,1.5562528371810913,-0.5688328146934509,0.6919957995414734
1761479475703202300,3.339202392578125,1.6947609186172485,-0.9012720584869385,-0.060271330177783966
1761479475713238300,3.34923828125,1.713341474533081,-1.0469623804092407,-0.7742390036582947
1761479475723274200,3.359274169921875,1.5543992519378662,-1.03886878490448,-1.3931219577789307
1761479475733310200,3.369310302734375,1.278577208518982,-0.9098109006881714,-1.77833092212677
1761479475743347200,3.37934716796875,1.0476428270339966,-0.5445224046707153,-1.8376439809799194
1761479475753383200,3.389383056640625,0.7531057596206665,0.004733502399176359,-1.7272402048110962
1761479475763419400,3.39941943359375,0.13523505628108978,0.527883768081665,-1.5371161699295044
1761479475773455400,3.409455322265625,-0.6434324979782104,0.6936243176460266,-1.1664451360702515
1761479475783491300,3.4194912109375,-1.299177885055542,0.737984836101532,-0.7674684524536133
1761479475793527300,3.42952734375,-1.6650751829147339,0.7245901823043823,-0.484616219997406
1761479475803564300,3.439564208984375,-1.6091370582580566,0.5704736113548279,-0.21118681132793427
1761479475813600300,3.449600341796875,-1.203682541847229,0.38878610730171204,-0.08254041522741318
1761479475823636200,3.45963623046875,-0.6458980441093445,0.2601109445095062,-0.08789549767971039
1761479475833672200,3.469672119140625,-0.2437324970960617,0.1432623565196991,-0.19842679798603058
1761479475843708200,3.479708251953125,-0.15662316977977753,0.08167062699794769,-0.3855482339859009
1761479475853744400,3.489744384765625,-0.3252827525138855,0.1778711974620819,-0.5409114360809326
1761479475863781000,3.499781005859375,-0.5920034050941467,0.41235560178756714,-0.6091243028640747
1761479475873817000,3.509817138671875,-0.823845386505127,0.6675570011138916,-0.6227570176124573
1761479475883853300,3.519853271484375,-0.9393206238746643,0.7830769419670105,-0.5969944000244141
1761479475893889300,3.52988916015625,-0.8940340876579285,0.5350937843322754,-0.5440265536308289
1761479475903925200,3.53992529296875,-0.5919301509857178,0.11733035743236542,-0.4226234257221222
1761479475913962200,3.549962158203125,-0.05052575841546059,-0.1253454089164734,-0.13344913721084595
1761479475923998500,3.55999853515625,0.5141701102256775,-0.23368625342845917,0.2652982473373413
1761479475934034400,3.570034423828125,0.9154365658760071,-0.38299131393432617,0.6369221210479736
1761479475944070400,3.5800703125,1.0457056760787964,-0.46679940819740295,0.878078281879425
1761479475954106400,3.5901064453125,0.9111068248748779,-0.41279369592666626,1.0114240646362305
1761479475964142300,3.600142333984375,0.5663781762123108,-0.30915650725364685,1.07121741771698
1761479475974178300,3.61017822265625,0.10670647025108337,-0.3165891170501709,1.0829012393951416
1761479475984215300,3.62021533203125,-0.2981850802898407,-0.3376811146736145,1.0334540605545044
1761479475994251300,3.630251220703125,-0.5236626863479614,-0.20425060391426086,0.9871075749397278
1761479476004287200,3.640287353515625,-0.5762478709220886,-0.04501354694366455,0.9532374739646912
1761479476014322700,3.65032275390625,-0.4870713949203491,0.022356171160936356,0.8473992347717285
1761479476024358700,3.660358642578125,-0.3156530261039734,-0.06620831787586212,0.6433765888214111
1761479476034395600,3.670395751953125,-0.18109682202339172,-0.13078944385051727,0.40388622879981995
1761479476044431600,3.680431640625,-0.12635020911693573,-0.08208394795656204,0.10369230806827545
1761479476054467600,3.690467529296875,-0.14145272970199585,0.005759618245065212,-0.22046473622322083
1761479476064503600,3.700503662109375,-0.20863524079322815,0.07242359966039658,-0.47691380977630615
1761479476074539800,3.710539794921875,-0.2829294502735138,0.07622286677360535,-0.6496355533599854
1761479476084575700,3.72057568359375,-0.32431840896606445,0.141737699508667,-0.7188827991485596
1761479476094612500,3.730612548828125,-0.31104576587677,0.2711462676525116,-0.6423754692077637
1761479476104648700,3.740648681640625,-0.24722710251808167,0.33228179812431335,-0.4579305350780487
1761479476114684700,3.7506845703125,-0.15850602090358734,0.37939685583114624,-0.24416899681091309
1761479476124720600,3.760720703125,-0.11292602121829987,0.3539261221885681,-0.056832656264305115
1761479476134756600,3.770756591796875,-0.12224867939949036,0.20933564007282257,0.10318950563669205
1761479476144792600,3.78079248046875,-0.12257305532693863,0.06514038890600204,0.26966503262519836
1761479476154829800,3.790829833984375,-0.05735943093895912,0.0442819781601429,0.4671027362346649
1761479476164865800,3.80086572265625,0.17932768166065216,0.015932094305753708,0.6662470102310181
1761479476174901800,3.81090185546875,0.4585888683795929,-0.05156439170241356,0.7136677503585815
1761479476184937700,3.820937744140625,0.6662557721138,-0.2085614651441574,0.5179187655448914
1761479476194973700,3.8309736328125,0.7698777914047241,-0.5058844685554504,0.04796486347913742
1761479476205009700,3.841009765625,0.7505661249160767,-0.8205620050430298,-0.6009068489074707
1761479476215046700,3.851046630859375,0.7288193106651306,-1.0367648601531982,-1.1409709453582764
1761479476225082600,3.86108251953125,0.7917945384979248,-1.1881163120269775,-1.3318819999694824
1761479476235118600,3.87111865234375,0.8684240579605103,-1.0426603555679321,-1.215512752532959
1761479476245154600,3.881154541015625,0.7611700296401978,-0.5100893378257751,-0.9765702486038208
1761479476255190500,3.8911904296875,0.3684840202331543,0.30413883924484253,-0.8633046746253967
1761479476265226500,3.9012265625,-0.5364599823951721,0.7756339311599731,-0.959073543548584
1761479476275263500,3.911263427734375,-1.5424832105636597,0.9426434636116028,-1.154381513595581
1761479476285299500,3.921299560546875,-2.2820208072662354,0.8512706756591797,-1.2750139236450195
1761479476295335700,3.931335693359375,-2.5569510459899902,0.7371488809585571,-1.2386293411254883
1761479476305371600,3.94137158203125,-2.326765298843384,0.6523154973983765,-1.0117660760879517
1761479476315408000,3.951407958984375,-1.7238513231277466,0.5466529726982117,-0.705261766910553
1761479476325443800,3.96144384765625,-0.9990228414535522,0.48064544796943665,-0.5500367879867554
1761479476335480600,3.97148046875,-0.4111875295639038,0.3469768762588501,-0.5720427632331848
1761479476345516800,3.981516845703125,0.007743939757347107,0.21630460023880005,-0.7352580428123474
1761479476355552800,3.991552734375,0.2542639672756195,-0.018213357776403427,-0.8731253743171692
1761479476365588700,4.001588623046875,0.3824986517429352,-0.4333746135234833,-0.8741618394851685
1761479476375623700,4.011623779296875,0.3814229965209961,-0.7581369876861572,-0.7220993638038635
1761479476385659600,4.02165966796875,0.29190003871917725,-0.8016905784606934,-0.4551517963409424
1761479476395695600,4.031695556640625,0.16369065642356873,-0.5500386357307434,-0.06611084192991257
1761479476405731600,4.041731689453125,0.03406928852200508,-0.19323071837425232,0.41266772150993347
1761479476415767600,4.051767578125,-0.04505615681409836,0.03899054229259491,0.890330970287323
1761479476425804500,4.061804443359375,0.029392510652542114,0.111871138215065,1.3023829460144043
1761479476435840500,4.071840576171875,0.24361293017864227,0.00027856664382852614,1.574144721031189
1761479476445876500,4.08187646484375,0.4828111231327057,-0.22762329876422882,1.7076785564422607
1761479476455912700,4.09191259765625,0.6281424760818481,-0.4599628150463104,1.7164384126663208
1761479476465948700,4.10194873046875,0.638384997844696,-0.5959686040878296,1.6584588289260864
1761479476475984600,4.111984619140625,0.4859829545021057,-0.6988158822059631,1.5404645204544067
1761479476486021600,4.122021728515625,0.27038514614105225,-0.6861578822135925,1.3274015188217163
1761479476496057900,4.132057861328125,0.002670884132385254,-0.5473227500915527,1.0412373542785645
1761479476506093800,4.14209375,-0.2784460186958313,-0.32979628443717957,0.6882854700088501
1761479476516129800,4.1521298828125,-0.4290570914745331,-0.16392289102077484,0.3673042356967926
1761479476526165800,4.162165771484375,-0.5393010377883911,-0.12416589260101318,0.12926477193832397
1761479476536201700,4.17220166015625,-0.3658416271209717,-0.21159186959266663,-0.044683847576379776
1761479476546237700,4.18223779296875,-0.050616305321455,-0.12217171490192413,-0.2585340738296509
1761479476556274700,4.192274658203125,0.17067666351795197,0.02677062712609768,-0.3982187509536743
1761479476566310700,4.202310546875,0.1785721331834793,0.08979060500860214,-0.4447644054889679
1761479476576346600,4.2123466796875,0.15903012454509735,0.19295214116573334,-0.4365711808204651
1761479476586382600,4.222382568359375,0.12779897451400757,0.32464227080345154,-0.345376580953598
1761479476596418600,4.23241845703125,0.06904138624668121,0.41087648272514343,-0.16419880092144012
1761479476606454500,4.24245458984375,-0.02436659298837185,0.24027810990810394,0.08141709864139557
1761479476616491500,4.252491455078125,-0.13169331848621368,0.002037051832303405,0.31269797682762146
1761479476626527500,4.262527587890625,-0.18952545523643494,-0.12831082940101624,0.5080810785293579
1761479476636563500,4.2725634765625,-0.1620972901582718,-0.17967788875102997,0.6761795282363892
1761479476646599700,4.282599609375,-0.046604253351688385,-0.11620623618364334,0.8647712469100952
1761479476656635600,4.2926357421875,0.17009663581848145,0.01937662810087204,1.0823664665222168
1761479476666671900,4.302671875,0.46816587448120117,0.1489631086587906,1.2935402393341064
1761479476676708600,4.31270849609375,0.7879238724708557,0.24959971010684967,1.3636093139648438
1761479476686744600,4.32274462890625,1.0846972465515137,0.06376539915800095,1.191977858543396
1761479476696780800,4.33278076171875,1.367475152015686,-0.32044246792793274,0.6720026135444641
1761479476706816800,4.342816650390625,1.4960930347442627,-0.7432861328125,-0.031849540770053864
1761479476716852700,4.352852783203125,1.561349868774414,-1.1435304880142212,-0.595503032207489
1761479476726888700,4.362888671875,1.5236088037490845,-1.2545750141143799,-0.8402009606361389
1761479476736925700,4.37292578125,1.3070725202560425,-1.0257960557937622,-0.7344633340835571
1761479476746961700,4.382961669921875,0.9164025187492371,-0.4686841368675232,-0.4514225721359253
1761479476756997600,4.39299755859375,0.35904231667518616,0.18754619359970093,-0.3121246099472046
1761479476767033600,4.40303369140625,-0.40063369274139404,0.5994948744773865,-0.39524000883102417
1761479476777069600,4.413069580078125,-1.1703908443450928,0.6289001703262329,-0.6178427338600159
1761479476787105500,4.42310546875,-1.6538621187210083,0.6261453628540039,-0.7605165243148804
1761479476797142800,4.433142822265625,-1.7000943422317505,0.5740494132041931,-0.7439521551132202
1761479476807178800,4.4431787109375,-1.3436832427978516,0.4488379955291748,-0.6585595011711121
1761479476817214700,4.453214599609375,-0.7580512166023254,0.32463985681533813,-0.6582494974136353
1761479476827250700,4.463250732421875,-0.16217346489429474,0.25499874353408813,-0.8309059739112854
1761479476837286700,4.47328662109375,0.15846607089042664,0.23957477509975433,-1.0899239778518677
1761479476847322600,4.483322509765625,0.10792167484760284,0.32836535573005676,-1.3340314626693726
1761479476857359600,4.493359619140625,-0.2653275430202484,0.586914598941803,-1.3698238134384155
1761479476867395600,4.5033955078125,-0.6896183490753174,0.839083731174469,-1.121792197227478
1761479476877431600,4.513431640625,-0.8858011960983276,0.9222497344017029,-0.7288371324539185
1761479476887467500,4.523467529296875,-0.7997406125068665,0.7987384796142578,-0.3652445375919342
1761479476897503500,4.53350341796875,-0.4704931974411011,0.5499600768089294,-0.10123714059591293
1761479476907539700,4.543539794921875,0.02334393747150898,0.301708459854126,0.0888449177145958
1761479476917576400,4.553576416015625,0.4859837591648102,0.10539406538009644,0.24562574923038483
1761479476927612400,4.5636123046875,0.7770670056343079,-0.07669264823198318,0.37595897912979126
1761479476937648600,4.573648681640625,0.859478771686554,-0.15536561608314514,0.424765408039093
1761479476947684900,4.583684814453125,0.7656598687171936,-0.08120563626289368,0.45459839701652527
1761479476957721600,4.5937216796875,0.5310137867927551,-0.002852511825039983,0.4817160367965698
1761479476967757800,4.6037578125,0.2681504786014557,0.037454962730407715,0.48619067668914795
1761479476977793800,4.613793701171875,0.08321073651313782,0.09480107575654984,0.48948848247528076
1761479476987829800,4.623829833984375,-0.023397201672196388,0.11741957068443298,0.5265287756919861
1761479476997865700,4.63386572265625,-0.06721685081720352,0.07296129316091537,0.5991462469100952
1761479477007902700,4.64390283203125,-0.07413254678249359,0.04346119239926338,0.6916058659553528
1761479477017939200,4.653939208984375,-0.12086250633001328,-0.012152536772191525,0.7672998309135437
1761479477027975200,4.66397509765625,-0.22484137117862701,-0.07586333900690079,0.76421058177948
1761479477038011100,4.67401123046875,-0.32476770877838135,-0.12461383640766144,0.6855937838554382
1761479477048047000,4.684047119140625,-0.36970055103302,-0.0748625248670578,0.5281080603599548
1761479477058083000,4.6940830078125,-0.2991054654121399,0.12078926712274551,0.29258206486701965
1761479477068120300,4.704120361328125,-0.21442069113254547,0.2783527970314026,0.04430168494582176
1761479477078156300,4.71415625,-0.10062114894390106,0.24347816407680511,-0.1689237803220749
1761479477088192300,4.724192138671875,0.09448256343603134,0.17645706236362457,-0.38617220520973206
1761479477098228200,4.734228271484375,0.27428269386291504,0.12608203291893005,-0.5241319537162781
1761479477108264200,4.74426416015625,0.3368629813194275,0.02093191258609295,-0.5409879088401794
1761479477118300200,4.754300048828125,0.2634066045284271,-0.02448137477040291,-0.42392677068710327
1761479477128337200,4.764337158203125,0.07395358383655548,-0.020481307059526443,-0.1841762363910675
1761479477138373000,4.774373046875,-0.11498091369867325,-0.0910113975405693,0.16411569714546204
1761479477148409000,4.7844091796875,-0.1439148336648941,-0.28727492690086365,0.5635017156600952
1761479477158445000,4.794445068359375,-0.007437676191329956,-0.4922690689563751,0.9352920651435852
1761479477168481000,4.80448095703125,0.20700138807296753,-0.5509033799171448,1.253697395324707
1761479477178517000,4.81451708984375,0.3971468210220337,-0.47293853759765625,1.5208250284194946
1761479477188554000,4.824553955078125,0.5070155262947083,-0.10473999381065369,1.520270586013794
1761479477198590000,4.83458984375,0.44220858812332153,0.2293194681406021,1.3204538822174072
1761479477208626200,4.844626220703125,0.3099743723869324,0.01188089419156313,0.9678606390953064
1761479477218662100,4.854662109375,0.32482415437698364,-0.31126734614372253,0.4532196819782257
1761479477228698400,4.864698486328125,0.5430685877799988,-0.573896050453186,-0.1605025976896286
1761479477238734300,4.874734375,0.8223886489868164,-0.7286174297332764,-0.6561639904975891
1761479477248771000,4.88477099609375,0.9568846821784973,-0.6955335140228271,-0.9316046237945557
1761479477258807300,4.894807373046875,0.8188056349754333,-0.2863529324531555,-1.0822365283966064
1761479477268843300,4.90484326171875,0.33827659487724304,0.27518975734710693,-1.1591765880584717
1761479477278879200,4.914879150390625,-0.3647143244743347,0.6387077569961548,-1.224326491355896
1761479477288915200,4.924915283203125,-1.042521595954895,0.714374303817749,-1.277312994003296
1761479477298951200,4.934951171875,-1.5055675506591797,0.6177356839179993,-1.3301889896392822
1761479477308988200,4.94498828125,-1.6804133653640747,0.5033981800079346,-1.3580923080444336
1761479477319024000,4.955024169921875,-1.5063904523849487,0.3872675597667694,-1.2400360107421875
1761479477329060000,4.96506005859375,-1.057106375694275,0.23602132499217987,-1.0404064655303955
1761479477339096000,4.975095947265625,-0.6088787913322449,0.16510507464408875,-0.9171096086502075
1761479477349132000,4.985132080078125,-0.3686501979827881,0.30778366327285767,-0.8751264214515686
1761479477359169300,4.995169189453125,-0.33435454964637756,0.5546789169311523,-0.792972207069397
1761479477369205200,5.005205322265625,-0.40068191289901733,0.7236202955245972,-0.5884504914283752
1761479477379241200,5.0152412109375,-0.5207923054695129,0.8401085138320923,-0.2950984835624695
1761479477389277200,5.025277099609375,-0.6324578523635864,0.8353998064994812,-0.07160893827676773
1761479477399313200,5.035313232421875,-0.7115260362625122,0.6079269647598267,0.011347729712724686
1761479477409349000,5.04534912109375,-0.6313098073005676,0.28125590085983276,0.026617228984832764
1761479477419385000,5.055385009765625,-0.4215770661830902,-0.05738632753491402,0.028746159747242928
1761479477429422000,5.065422119140625,-0.15619492530822754,-0.24345606565475464,-0.04253733903169632
1761479477439458000,5.0754580078125,0.1217096596956253,-0.22992907464504242,-0.15621250867843628
1761479477449494000,5.085493896484375,0.40899336338043213,-0.13431599736213684,-0.21089598536491394
1761479477459530200,5.0955302734375,0.6356515288352966,-0.1278993785381317,-0.127391517162323
1761479477469566200,5.105566162109375,0.7469894886016846,-0.24013829231262207,0.04345160350203514
1761479477479603000,5.11560302734375,0.6983053088188171,-0.4031226933002472,0.23782427608966827
1761479477489639200,5.12563916015625,0.46970757842063904,-0.5350849628448486,0.407883882522583
1761479477499675100,5.135675048828125,0.10977869480848312,-0.5202311873435974,0.5240107774734497
1761479477509711400,5.14571142578125,-0.24099662899971008,-0.36067402362823486,0.6074225902557373
1761479477519747300,5.155747314453125,-0.4537999927997589,-0.18560315668582916,0.6783571839332581
1761479477529783300,5.165783203125,-0.5270728468894958,-0.10751527547836304,0.7257404327392578
1761479477539820300,5.1758203125,-0.49959224462509155,-0.1583169400691986,0.7026891708374023
1761479477549856300,5.185856201171875,-0.3991226255893707,-0.22775407135486603,0.6101030111312866
1761479477559892200,5.195892333984375,-0.2567625343799591,-0.2502937316894531,0.39811408519744873
1761479477569928200,5.20592822265625,-0.12976199388504028,-0.15979525446891785,0.08828538656234741
1761479477579964200,5.215964111328125,-0.012171445414423943,0.009983391501009464,-0.22606828808784485
1761479477590000000,5.226000244140625,0.09678006917238235,0.12148728221654892,-0.4288538992404938
1761479477600037000,5.236037109375,0.19649814069271088,0.14407621324062347,-0.4909500181674957
1761479477610073000,5.246072998046875,0.2468622475862503,0.11872106045484543,-0.4138006269931793
1761479477620109000,5.256109130859375,0.23368412256240845,0.055517055094242096,-0.21007494628429413
1761479477630145000,5.26614501953125,0.17738942801952362,-0.03964248299598694,0.059896890074014664
1761479477640181000,5.276180908203125,0.09163723886013031,-0.15335945785045624,0.3250076472759247
1761479477650217000,5.286217041015625,0.044260405004024506,-0.23813000321388245,0.5905833840370178
1761479477660254200,5.296254150390625,0.07209949195384979,-0.24145656824111938,0.8613094091415405
1761479477670290200,5.306290283203125,0.1931486874818802,-0.21968895196914673,1.145033597946167
1761479477680326100,5.316326171875,0.3490983247756958,-0.2464667707681656,1.3912802934646606
1761479477690362000,5.326362060546875,0.502395510673523,-0.3349660038948059,1.5053964853286743
1761479477700398000,5.336398193359375,0.6619398593902588,-0.49848783016204834,1.4107470512390137
1761479477710434300,5.346434326171875,0.8128223419189453,-0.7089808583259583,1.0265204906463623
1761479477720471000,5.356470947265625,0.9117624759674072,-0.7004947066307068,0.38818395137786865
1761479477730507000,5.366507080078125,0.9826944470405579,-0.5507542490959167,-0.19836555421352386
1761479477740543200,5.376543212890625,0.982524037361145,-0.3590516448020935,-0.5674972534179688
1761479477750579200,5.3865791015625,0.9384196400642395,-0.13149650394916534,-0.7323695421218872
1761479477760615200,5.396615234375,0.8819729089736938,0.08229407668113708,-0.7464683055877686
1761479477770651100,5.406651123046875,0.8115338683128357,0.21912781894207,-0.6346288919448853
1761479477780688100,5.416688232421875,0.5638663172721863,0.25456249713897705,-0.5689406991004944
1761479477790724000,5.42672412109375,0.04374321922659874,0.16434606909751892,-0.6192291378974915
1761479477800760300,5.43676025390625,-0.5905857682228088,0.04725486412644386,-0.6610754132270813
1761479477810796300,5.44679638671875,-1.0838974714279175,0.007902664132416248,-0.6141683459281921
1761479477820832300,5.456832275390625,-1.3608702421188354,0.20034322142601013,-0.4551132023334503
1761479477830868200,5.4668681640625,-1.4066731929779053,0.38911712169647217,-0.24117134511470795
1761479477840905200,5.4769052734375,-1.1556862592697144,0.47514522075653076,-0.1666020303964615
1761479477850941200,5.486941162109375,-0.7519477605819702,0.42172062397003174,-0.3445025086402893
1761479477860977200,5.49697705078125,-0.46030768752098083,0.30910778045654297,-0.7067968249320984
1761479477871013000,5.50701318359375,-0.38390612602233887,0.3403908610343933,-1.028936743736267
1761479477881049000,5.517049072265625,-0.5032844543457031,0.49351996183395386,-1.1445847749710083
1761479477891086000,5.527086181640625,-0.7212886810302734,0.7340551018714905,-0.966849684715271
1761479477901122000,5.5371220703125,-0.9390577673912048,1.113364815711975,-0.6717442870140076
1761479477911158000,5.547157958984375,-1.0630571842193604,1.4886751174926758,-0.5750190615653992
1761479477921194000,5.557194091796875,-1.0936393737792969,1.4571051597595215,-0.6675453186035156
1761479477931230000,5.56722998046875,-1.0167146921157837,1.0017685890197754,-0.7947189807891846
1761479477941266200,5.57726611328125,-0.691586434841156,0.5773794651031494,-0.7795679569244385
1761479477951302100,5.58730224609375,-0.17590685188770294,0.28676891326904297,-0.4988401532173157
1761479477961339100,5.597339111328125,0.3179159164428711,0.046353116631507874,0.06088918447494507
1761479477971375000,5.607375,0.6559706330299377,-0.07663006335496902,0.5948452353477478
1761479477981411300,5.617411376953125,0.8055137991905212,-0.06879371404647827,0.8565165400505066
1761479477991447300,5.627447265625,0.8483113646507263,0.00515774404630065,0.8116098046302795
1761479478001483300,5.637483154296875,0.8161086440086365,-0.06278854608535767,0.5924843549728394
1761479478011520300,5.647520263671875,0.6929161548614502,-0.25217205286026,0.3627590239048004
1761479478021556500,5.657556396484375,0.5011342167854309,-0.45397549867630005,0.2111830860376358
1761479478031592400,5.667592529296875,0.2876903712749481,-0.5904912352561951,0.15409742295742035
1761479478041628400,5.67762841796875,0.1409563273191452,-0.5086131691932678,0.2492694854736328
1761479478051664400,5.687664306640625,0.08392472565174103,-0.27408722043037415,0.513748824596405
1761479478061700400,5.697700439453125,0.014473481103777885,-0.16640043258666992,0.757778525352478
1761479478071736300,5.707736328125,-0.12483487278223038,-0.23726022243499756,0.8576784729957581
1761479478081773300,5.717773193359375,-0.2886570990085602,-0.4059930443763733,0.8098075985908508
1761479478091809300,5.727809326171875,-0.3826083540916443,-0.42341917753219604,0.5357377529144287
1761479478101845200,5.73784521484375,-0.24983593821525574,-0.2904414236545563,0.2102472484111786
1761479478111881200,5.747881103515625,-0.1858457624912262,-0.1912173628807068,-0.08306212723255157
1761479478121917200,5.757917236328125,-0.07759066671133041,-0.2632524073123932,-0.2658119797706604
1761479478131953200,5.767953125,-0.009111206978559494,-0.29182252287864685,-0.3294878900051117
1761479478141990100,5.777990234375,-0.07173437625169754,-0.2784113883972168,-0.25130173563957214
1761479478152026000,5.788026123046875,-0.15859949588775635,-0.1540825068950653,-0.018616294488310814
1761479478162062000,5.79806201171875,-0.22803743183612823,0.04512619972229004,0.29757922887802124
1761479478172098000,5.80809814453125,-0.23280900716781616,0.16064587235450745,0.6661947965621948
1761479478182134300,5.81813427734375,-0.19888806343078613,0.07664364576339722,0.9532502889633179
1761479478192171300,5.828171142578125,-0.11837324500083923,-0.18143530189990997,1.1035816669464111
1761479478202207200,5.838207275390625,0.01347319781780243,-0.40476107597351074,1.0279340744018555
1761479478212243200,5.8482431640625,0.1510542333126068,-0.381355881690979,0.8663873076438904
1761479478222279400,5.858279541015625,0.253849059343338,-0.26960963010787964,0.7257518768310547
1761479478232315400,5.8683154296875,0.3771555423736572,-0.1537988781929016,0.6309484243392944
1761479478242351400,5.878351318359375,0.5430688858032227,0.25249189138412476,0.5327536463737488
1761479478252387300,5.88838720703125,0.7120400667190552,0.6626884937286377,0.4450110197067261
1761479478262424300,5.89842431640625,0.7398852705955505,0.6322906017303467,0.327749639749527
1761479478272460300,5.908460205078125,0.6824573874473572,0.376798152923584,0.05573117360472679
1761479478282496300,5.918496337890625,0.36715829372406006,-0.16195908188819885,-0.4256991147994995
1761479478292532200,5.9285322265625,0.27606675028800964,-0.5231953263282776,-0.8901887536048889
1761479478302568200,5.938568115234375,0.19958634674549103,-0.6624879240989685,-1.3987540006637573
1761479478312604200,5.948604248046875,0.06316139549016953,-0.40155380964279175,-1.7992433309555054
1761479478322641400,5.958641357421875,-0.2779946029186249,0.30086690187454224,-2.0180935859680176
1761479478332677400,5.968677490234375,-0.7608280777931213,1.1054943799972534,-1.9597747325897217
1761479478342713300,5.97871337890625,-1.2363454103469849,1.3140121698379517,-1.4507628679275513
1761479478352749300,5.988749267578125,-1.3154675960540771,0.8749259114265442,-1.0124107599258423
1761479478362785300,5.998785400390625,-1.0593876838684082,0.6266942620277405,-0.6846803426742554
1761479478372821200,6.0088212890625,-0.9002786874771118,0.41928941011428833,-0.7148140072822571
1761479478382858200,6.018858154296875,-0.9402324557304382,0.4299881160259247,-0.8757461905479431
1761479478392894200,6.028894287109375,-1.0645962953567505,0.4348510503768921,-1.038205623626709
1761479478402930200,6.03893017578125,-1.0840442180633545,0.47730425000190735,-1.0426558256149292
1761479478412966100,6.048966064453125,-1.0326236486434937,0.39941316843032837,-0.76981121301651
1761479478423002400,6.05900244140625,-0.9026156067848206,0.028911542147397995,-0.36026284098625183
1761479478433038300,6.069038330078125,-0.5877202153205872,-0.4420975148677826,-0.028620725497603416
