time,seconds_elapsed,z,y,x
1761479532469802800,0.091802734375,0.7721750435858964,0.5804705684691667,1.6015771182596683
1761479532479839000,0.1018388671875,1.4586346282243727,0.427742889739573,1.6031614648416637
1761479532489875000,0.111875,2.035071995654702,0.2806014867097139,1.330939099420607
1761479532499911200,0.1219111328125,1.8251906433343885,0.4272384473487735,0.6185125682242214
1761479532509947100,0.131947021484375,1.6314444332569837,0.4888001466400921,0.2562618490926921
1761479532519983000,0.141983154296875,1.7623831817656754,0.33501799042150376,0.4795838438749313
1761479532530019000,0.15201904296875,2.0991168900638817,0.38256643499471243,0.7238366907440126
1761479532540056000,0.16205615234375,2.535601012402773,0.5397654139194638,0.7685116987727582
1761479532550092000,0.172092041015625,2.8070845421552657,0.49587322683148083,0.6792302179068327
1761479532560128000,0.1821279296875,2.976086771598458,0.4030230206333101,0.2587038354173303
1761479532570164000,0.1921640625,2.851469627326727,0.5788384372226894,-0.21407997305393217
1761479532580200000,0.202199951171875,2.7746955997258422,0.629970074044913,-0.4818516426764428
1761479532590236000,0.21223583984375,2.7620950613498687,0.38793095770254726,-0.35486031661927697
1761479532600272000,0.22227197265625,2.562229491609335,0.2319463230036199,0.1765485531695187
1761479532610307800,0.232307861328125,2.323127890023589,0.1892205493465066,0.769303579802811
1761479532620343800,0.24234375,1.8155419405013322,0.3415370169267058,1.1547522191703319
1761479532630380000,0.252380126953125,0.6707844611227511,0.5170464363068342,1.5529896129623055
1761479532640416000,0.262416015625,-0.654699003240466,0.5447730860136449,1.350107618010044
1761479532650452000,0.272451904296875,-1.638715301042795,0.33930677365660666,0.10671849948763847
1761479532660488000,0.282488037109375,-2.260271328616142,-0.30280849621221423,-1.8958987950250505
1761479532670524000,0.29252392578125,-2.696659004843235,-1.6731429096929729,-4.29128615783453
1761479532680559900,0.302559814453125,-2.5624405040115117,-3.020343554215133,-6.220180921271443
1761479532690595800,0.312595947265625,-2.7917268140256404,-3.3292695103943344,-6.217692611587047
1761479532700631800,0.3226318359375,-4.18283513546586,-2.8360481863111255,-3.570450840863585
1761479532710667800,0.332667724609375,-6.580041238135099,-2.4965558269545434,-0.1732467351451516
1761479532720703700,0.342703857421875,-9.01599763495922,-2.2229721100524067,1.8566849750116465
1761479532730740000,0.352739990234375,-10.864271047717333,-1.4555427996888757,1.499869724932313
1761479532740776000,0.36277587890625,-11.098230610239504,-0.4262720865346491,-0.9588479542762041
1761479532750812200,0.372812255859375,-9.042119918209314,0.35354499623700975,-3.5987744335502385
1761479532760848100,0.38284814453125,-7.776309709042311,-1.446490163052827,-4.184233604086935
1761479532770884000,0.392884033203125,-5.8915223828792564,-3.7205204062998294,-3.748005794596672
1761479532780920000,0.402920166015625,-4.279980335444212,-3.5415094085395333,-4.367223734611272
1761479532790957000,0.41295703125,-5.155108388504385,-3.3108746065258976,-4.697775247143209
1761479532800993000,0.422992919921875,-6.541108573150634,-2.930285974410176,-4.430880214224755
1761479532811029000,0.433029052734375,-7.901145464500784,-2.291827911874652,-4.281332919096946
1761479532821065000,0.44306494140625,-9.524151739758253,-2.0500915778711435,-4.428711638014018
1761479532831101000,0.453100830078125,-9.66207260223925,-1.982905024435371,-4.4929137688115235
1761479532841137000,0.463136962890625,-8.120597778242827,-2.0684746451713143,-4.207172581125795
1761479532851172900,0.4731728515625,-6.553989682033658,-2.054741887895018,-3.802366330337524
1761479532861208800,0.483208740234375,-5.053339035856723,-1.360534611739218,-2.90335792773515
1761479532871244800,0.493244873046875,-3.665913202321529,-0.5498686555869877,-1.170945813602209
1761479532881281000,0.503281005859375,-2.3462141665786502,0.11491992612183094,0.8948001372575759
1761479532891317000,0.51331689453125,-1.043457497808337,0.6746615948170424,2.558189276307821
1761479532901353000,0.52335302734375,0.2326566632300615,1.1986219021655617,3.586550327271223
1761479532911389000,0.533388916015625,1.6295125884115695,1.6919623225837945,3.819171626926958
1761479532921425000,0.5434248046875,2.786689988902211,2.276582704208791,3.310725261183083
1761479532931460900,0.5534609375,3.467954342985153,2.755099211113155,2.509603816837072
1761479532941496800,0.563496826171875,3.6742169202864168,3.0928926575973628,1.6242489687949417
1761479532951532800,0.57353271484375,4.231121319729089,3.4367706846922634,1.1641375948920845
1761479532961569000,0.583569091796875,5.442557549151778,3.575736964572966,1.1009043091267348
1761479532971605000,0.59360498046875,6.630053515538573,2.9874437396541236,1.2529177021071314
1761479532981641000,0.603640869140625,7.829888154494762,1.990772835201025,0.9092170774057508
1761479532991677000,0.613677001953125,9.051772128173708,0.7803728169582784,-0.2107180954053998
1761479533001713200,0.623713134765625,10.0902787255764,0.05399309066794812,-1.5913254810974
1761479533011749000,0.6337490234375,11.037823780071735,0.07022102576084435,-2.1006144351452587
1761479533021785000,0.64378515625,11.916329785132408,0.4748223285615444,-1.0260337770596146
1761479533031822000,0.653822021484375,12.393042457485198,0.9184900057289749,0.9949880659326911
1761479533041858000,0.663858154296875,11.934614798885583,1.2945230934321879,2.7992800058841705
1761479533051894000,0.67389404296875,11.08220068193674,1.6556249347895382,3.968125047814846
1761479533061930000,0.683929931640625,10.525707785904407,1.831704555273056,4.678327619351446
1761479533071966000,0.693966064453125,10.218466714072227,1.877814564540982,4.900818277876079
1761479533082002000,0.704001953125,9.244320652899146,1.3865174865186214,4.534115840032697
1761479533092038000,0.714037841796875,8.157695044493675,0.7912222008179873,3.904328282947838
1761479533102073900,0.724073974609375,7.211557518708705,0.3910857684716582,3.225034936676919
1761479533112109800,0.73410986328125,6.329853594389557,-0.030084099553152915,2.82431829328984
1761479533122145800,0.744145751953125,5.333874471592903,0.012844868525862693,2.4607477237313984
1761479533132181800,0.754181640625,4.632681428202987,0.23167057480216025,2.432736850255728
1761479533142218000,0.764218017578125,4.553267699748277,0.6608825872462243,2.9115359734937547
1761479533152254000,0.77425390625,4.995935479158163,1.3350718153111636,3.818305365486443
1761479533162290000,0.7842900390625,5.3021659126430745,1.793859977786243,4.757063302414119
1761479533172326000,0.794325927734375,5.4613516814708705,2.0439351010680196,4.830383390168845
1761479533182361900,0.80436181640625,5.51814207470715,2.044810422597825,4.094791818092763
1761479533192397800,0.814397705078125,5.217124991956353,2.0464725105911494,2.9477511962130665
1761479533202433800,0.824433837890625,4.14499318832755,2.0057696210637688,1.8004332186967134
1761479533212469800,0.8344697265625,1.668488508015871,1.490684986349195,0.6659218235224486
1761479533222505700,0.844505615234375,-1.9919331111520528,1.3049077093243597,-1.127386657860875
1761479533232541700,0.854541748046875,-5.809925465166568,0.868496433025971,-3.6063334706276655
1761479533242579000,0.864578857421875,-8.827008848541974,0.14042561184354124,-6.19001082393527
1761479533252615000,0.874614990234375,-9.983570747482776,-1.0880810679107904,-8.080733385366202
1761479533262651000,0.88465087890625,-9.941549468833207,-3.3584605335652826,-10.522088426363467
1761479533272686800,0.894686767578125,-10.657954694402218,-6.26132775517404,-14.026249224239587
1761479533282723000,0.90472314453125,-12.185973239976168,-7.7501728127449745,-15.790123521345853
1761479533292759000,0.914759033203125,-14.61286253324747,-6.331759720271825,-13.765361907303333
1761479533302795000,0.924794921875,-17.09048481941223,-3.9425305878311394,-8.567655317044258
1761479533312831000,0.9348310546875,-19.18067430665493,-2.0720450510039923,-2.6918182868137954
1761479533322867000,0.944866943359375,-19.831740506350993,-0.7155230359070003,0.8604510006710886
1761479533332903000,0.95490283203125,-18.824057501757142,-0.14987470045126974,1.9619199579432605
1761479533342939000,0.96493896484375,-16.1934377800107,-0.5572776166692376,1.984521373590827
1761479533352974800,0.974974853515625,-12.893318376255035,-1.5846870659962295,1.3104939850240944
1761479533363010800,0.9850107421875,-10.84793833707571,-2.41284177095741,-0.13984540080279112
1761479533373046800,0.995046875,-10.22770917419195,-2.3933133330143987,-1.296149233329296
1761479533383082800,1.005082763671875,-10.216623132032156,-1.4210166991002857,-1.1995530455358325
1761479533393119000,1.015118896484375,-9.690119716072083,-0.3472157201502472,-0.22883856624662874
1761479533403155000,1.025155029296875,-8.496831722280383,0.8503254741065204,0.5703815745227039
1761479533413191000,1.03519091796875,-7.3203370423793785,1.7109034621581434,1.2926511620804666
1761479533423228000,1.045227783203125,-5.646869576907157,2.338279281926155,1.7812544709742069
1761479533433263900,1.055263916015625,-3.521962996548414,2.5382404209956526,1.6932967860579489
1761479533443299800,1.0652998046875,-0.5514613316059113,2.228530182570964,0.9738210670024156
1761479533453335800,1.075335693359375,2.960942978480458,1.85455263915807,0.03654182432517409
1761479533463371800,1.085371826171875,6.451525332859158,1.4788213839456439,-0.5170052275136113
1761479533473408000,1.095407958984375,9.197097713953257,1.3981168850280343,-0.4038461735844612
1761479533483444000,1.10544384765625,11.098665494525433,1.7457523649603128,0.2444976154103875
1761479533493480000,1.11547998046875,12.23930618623495,2.1137860514074562,0.8669400704294442
1761479533503516000,1.125515869140625,12.484255929327011,2.4658377403467893,1.0671627830445767
1761479533513552000,1.1355517578125,12.424398549735546,2.759505629378557,1.2679220867544412
1761479533523587800,1.145587890625,12.49902562843561,2.950881895454228,1.8698726656258104
1761479533533623800,1.155623779296875,12.697442752933501,3.068574501159787,2.674463247387111
1761479533543660000,1.165659912109375,13.190380583900213,2.7779405729964375,3.193996824334562
1761479533553696000,1.175696044921875,13.805700931954384,2.2975255389943716,3.375802713510394
1761479533563732000,1.18573193359375,14.182666112875937,1.771902997522056,3.6155201089069244
1761479533573768000,1.195767822265625,14.338064764380453,1.1685682708159089,3.454036584530771
1761479533583804000,1.205803955078125,13.858894762003422,0.5908680438429117,2.9569010096132753
1761479533593841000,1.2158408203125,12.859967895317077,0.14561857737675307,2.5607179180026054
1761479533603876900,1.225876953125,10.810360593831538,-0.11343282936923205,2.2584739238053557
1761479533613912800,1.235912841796875,8.340894726115465,-0.15478417286798357,2.239040616799891
1761479533623948800,1.24594873046875,6.381087522542476,-0.0573643571993336,2.1742039874911305
1761479533633984800,1.25598486328125,4.960176768034696,0.07632642996385693,2.2658660798832773
1761479533644020700,1.266020751953125,3.91071213876605,0.3029632483825087,2.4400597404897213
1761479533654056700,1.276056640625,3.3132816676676273,0.5570260895935818,2.5616394167616963
1761479533664092700,1.2860927734375,3.3603239893496033,0.6898214622870087,2.9247420765474437
1761479533674129000,1.29612890625,3.7329163620144126,0.9297263430796563,3.4022523290187117
1761479533684164900,1.306164794921875,3.9570495270490644,1.1024798148151487,3.776547998470068
1761479533694200800,1.316200927734375,3.7825551299303766,0.7632454488076269,3.742444361077249
1761479533704237000,1.326237060546875,3.458347725728154,0.9929287953153252,2.903985411983728
1761479533714273000,1.33627294921875,2.553504333361983,1.3764134411334992,1.5232646290451288
1761479533724309000,1.34630908203125,0.9363789328366517,1.356224931846559,0.1501040522277355
1761479533734345000,1.356344970703125,-1.1215806019306183,1.615190048548579,-0.744868518987298
1761479533744381000,1.366380859375,-4.029650068357586,1.328346744839847,-0.9606000586405395
1761479533754417000,1.3764169921875,-6.839255653423071,1.0366342276595533,-1.7333210456714032
1761479533764454000,1.386453857421875,-9.221247820347546,0.7955559191733598,-3.2595161752104755
1761479533774489900,1.39648974609375,-10.361733029234408,-0.48013219847269356,-5.186204953035712
1761479533784525800,1.40652587890625,-9.793233469066024,-3.37008433586359,-8.70787861124873
1761479533794561800,1.416561767578125,-9.290819953745602,-6.4430924355566495,-12.909287514281273
1761479533804597800,1.42659765625,-10.005125576686858,-7.561402637514472,-14.634302796161174
1761479533814633700,1.4366337890625,-12.55786827802658,-6.362067180252075,-12.590794396072626
1761479533824670000,1.446669921875,-14.810213489818572,-3.9865456706464286,-7.992554751175642
1761479533834706000,1.456705810546875,-15.78221961635351,-2.0374914778865874,-3.0791949716344473
1761479533844742000,1.466741943359375,-16.081969455647467,-0.7944055800944566,0.582901887269318
1761479533854777900,1.47677783203125,-15.472825165879726,-0.09180844206027686,2.9015120076075194
1761479533864813800,1.486813720703125,-14.262759640288353,-0.09983874991126358,3.7768490272432564
1761479533874849800,1.496849853515625,-12.572056962376832,-0.7675739795312285,3.445572415307164
1761479533884885800,1.5068857421875,-10.784300269901753,-1.2863695975929499,2.0888824962973596
1761479533894921700,1.516921630859375,-10.151220977795123,-1.4860351147167383,0.17951982406526804
1761479533904957700,1.526957763671875,-10.625028576356172,-0.8982323036633432,-1.4668711261719465
1761479533914995000,1.536994873046875,-11.125773281681537,0.2702271730158478,-2.2892808577403425
1761479533925031000,1.547031005859375,-10.340346542334556,1.5830835763223468,-2.436894846718013
1761479533935067000,1.55706689453125,-7.894837888789176,2.3734159156285224,-2.216444169588387
1761479533945102800,1.567102783203125,-4.40230790747404,2.827427365221083,-1.310905196173489
1761479533955138800,1.577138916015625,-1.6185983956873415,3.093328418666124,-0.5569669432848692
1761479533965175000,1.587175048828125,1.1078139423847198,2.820549296145141,-0.17649229293763635
1761479533975211000,1.5972109375,3.9781297244787215,2.521730600221455,-0.620948124808073
1761479533985247000,1.6072470703125,6.7055725746423,1.9946707194223998,-1.178633445495367
1761479533995283000,1.617282958984375,9.43204336490333,1.446903273898363,-1.161540564136207
1761479534005319000,1.62731884765625,11.255530126929283,1.179766760374233,-0.5827917048931122
1761479534015355000,1.63735498046875,12.439406733775138,1.3289549398660658,0.38573417831063267
1761479534025390800,1.647390869140625,12.943650387132166,1.7811060024142265,1.3182973522514103
1761479534035426800,1.6574267578125,12.721475954949854,2.1558196050167084,2.2670240177467464
1761479534045462800,1.667462890625,12.394257093971968,2.4054117670871316,3.613337504170835
1761479534055498800,1.677498779296875,12.452538602548836,2.7002397859394547,4.8157314722210165
1761479534065534700,1.68753466796875,12.365329105651378,2.4372044971890747,5.757099299386144
1761479534075571200,1.6975712890625,12.248141819119454,1.9033546639889478,6.368252590888738
1761479534085607200,1.707607177734375,12.40971302177906,1.545103243626654,6.605380846574902
1761479534095643400,1.717643310546875,12.253755567348003,1.0400081610720604,6.274548471274971
1761479534105679400,1.727679443359375,11.65701600112319,0.5593545690737665,5.4872313881367445
1761479534115715300,1.73771533203125,10.773982289505005,0.2833085537113249,4.428414116372168
1761479534125751300,1.747751220703125,9.51153132763803,-0.06117562258318066,3.2072201707839962
1761479534135787300,1.757787353515625,8.019574860048294,-0.5036057207796723,2.3834835745260117
1761479534145823200,1.7678232421875,6.125427000343799,-0.7707417959123849,2.0185089833885432
1761479534155859200,1.777859130859375,4.46038541791141,-0.7764618540596216,2.2625609008580443
1761479534165895200,1.787895263671875,3.2434231185436246,-0.678840780197829,3.0521862609386443
1761479534175931100,1.79793115234375,2.8871687172174454,-0.24015629827044901,3.9937995872974392
1761479534185967000,1.807967041015625,3.091482498538494,0.6399899482779204,4.902185182315111
1761479534196003000,1.818003173828125,3.0881045465379953,1.178078222765401,5.195895741444826
1761479534206039300,1.828039306640625,3.2049224152356386,1.868464406263083,4.53924648091942
1761479534216075300,1.8380751953125,3.0685137108832596,2.472458619791269,3.757999949866533
1761479534226112000,1.848112060546875,1.8135551505982874,2.256229944270849,3.196506469067931
1761479534236148200,1.858148193359375,-0.9332149158477783,1.5647161449827254,2.255357545350492
1761479534246184200,1.86818408203125,-4.567826386454701,1.2716764708518982,0.6748340287744998
1761479534256220200,1.87822021484375,-7.657716062843799,1.257692953684926,-1.395942025206983
1761479534266256100,1.888256103515625,-9.686222124111652,1.2547738513678313,-4.04326796708256
1761479534276292400,1.898292236328125,-10.298438660931586,0.4239243543647229,-6.557226179736852
1761479534286328300,1.908328369140625,-9.273904474779963,-1.7329713554508983,-9.604607670742272
1761479534296364300,1.9183642578125,-7.476611307674646,-4.6401948725730175,-12.829846313297748
1761479534306400300,1.928400146484375,-6.265553848436475,-6.086310210964084,-13.36645961986184
1761479534316436200,1.938436279296875,-6.505795267707109,-5.287373417180777,-10.299562112003564
1761479534326472200,1.94847216796875,-7.722721911239623,-3.5213352200388908,-5.752480991935729
1761479534336508200,1.958508056640625,-9.682239776477218,-2.253717669188976,-2.2669851470410824
1761479534346544400,1.96854443359375,-11.598347539055347,-1.293909345448017,-0.5111307825222611
1761479534356580400,1.978580322265625,-13.00101068921089,-0.9556050998974591,-0.4058861549794674
1761479534366617000,1.9886171875,-13.72649821590185,-1.2728687493763864,-2.0209356260135767
1761479534376653300,1.9986533203125,-14.503058927226066,-1.8422398316822945,-4.471050896571576
1761479534386689300,2.008689208984375,-15.496097320395707,-1.9477299584187566,-6.375674849843978
1761479534396725200,2.018725341796875,-15.78477748414278,-0.6586336392756551,-7.154164483404159
1761479534406761200,2.02876123046875,-14.943227291035651,0.9406403896734118,-6.257161867666244
1761479534416797200,2.038797119140625,-12.239369314599037,1.899159842647612,-3.862584359934926
1761479534426833200,2.048833251953125,-9.144304865920542,2.417079993049055,-0.8743933090448379
1761479534436869000,2.058869140625,-6.093239717966318,2.4413027262881397,1.7494962276637553
1761479534446905000,2.068905029296875,-3.194987881198525,2.2599435579665004,3.079831223711371
1761479534456941000,2.078941162109375,-0.9988117158740758,1.7876679912783204,3.1734257454708215
1761479534466977000,2.08897705078125,0.9208546159684657,1.430883282467723,2.70087428445071
1761479534477013000,2.099012939453125,2.8720331074059007,1.2076323070950805,1.549612830005586
1761479534487049200,2.10904931640625,4.097196833407879,1.0142562455043196,0.18618834204375742
1761479534497085200,2.119085205078125,4.827672669905424,1.019320104765147,-0.5205816246956586
1761479534507121200,2.12912109375,5.607056621956825,1.0679249265234916,-0.4978735338032245
1761479534517157400,2.139157470703125,6.392407373458147,1.1256453671514988,0.007403846515715122
1761479534527194400,2.1491943359375,7.396304429772496,1.245512686547637,0.6445426431462168
1761479534537230300,2.159230224609375,8.384235855191946,1.37387544708848,1.1420704322516917
1761479534547266300,2.169266357421875,9.264038329803943,1.4683955592602491,1.7417492667987942
1761479534557302300,2.17930224609375,10.115824670243263,1.5781412976145743,2.3857538575455544
1761479534567338200,2.189338134765625,11.28790913248658,1.7003060802981256,2.9938197044268247
1761479534577374200,2.199374267578125,12.323814022958278,1.7412036156147717,3.6844936918899416
1761479534587410200,2.20941015625,12.785831815004348,1.5505319906771182,4.277305271016061
1761479534597446100,2.219446044921875,13.0850661059916,1.5203673001684248,4.606652668455243
1761479534607482000,2.229482177734375,12.907246363842486,1.3947723969057202,4.487406111305952
1761479534617518000,2.23951806640625,12.176963419568539,1.3939565504781901,4.198141717930138
1761479534627554300,2.24955419921875,11.107260304391383,1.5561090601570904,3.8593250658780334
1761479534637590300,2.25959033203125,9.788125332272053,1.5840278714351355,3.564537232905626
1761479534647626200,2.269626220703125,8.749273866954445,1.4442993750102817,3.5043998673290013
1761479534657662200,2.279662109375,7.893748339986801,1.2267406199298798,3.6121556009098885
1761479534667698200,2.2896982421875,7.429040578204393,0.9029162236958742,3.74951970629096
1761479534677735200,2.299735107421875,7.187711948218941,0.6714326958984136,3.812163501730561
1761479534687771400,2.309771484375,6.705687725454569,0.5728133317142725,3.9737455180451273
1761479534697807400,2.319807373046875,5.556246472173929,0.6218192085541785,3.8705052160620688
1761479534707843300,2.32984326171875,4.624643667697907,0.8495419225133956,3.124198480965197
1761479534717879300,2.33987939453125,3.7092104922562834,1.332914198885858,2.3448341103971004
1761479534727915300,2.349915283203125,2.7566905719578263,1.5608137307167051,2.037121621660888
1761479534737951200,2.359951171875,2.0471061323195694,1.73535562023893,2.072545986263454
1761479534747987200,2.3699873046875,0.4484709127306938,1.5662706809483469,1.7971227789744735
1761479534758023200,2.380023193359375,-1.7795669562786816,1.4787509490579367,1.5290876361101864
1761479534768059100,2.39005908203125,-4.4437984402477735,1.8294630599565802,0.9174041832536458
1761479534778095400,2.400095458984375,-7.710242953416705,1.9999618115678428,-0.7674465537592768
1761479534788131300,2.41013134765625,-10.657293015623091,1.52679178025797,-3.34527050486356
1761479534798167300,2.420167236328125,-12.102483640384673,-0.23497166217416524,-6.865836201834679
1761479534808203300,2.430203369140625,-11.576311063814163,-3.446689436638355,-12.528761426007748
1761479534818239200,2.4402392578125,-10.950601423692703,-7.313721423631906,-18.647078302085397
1761479534828276200,2.450276123046875,-11.20146652830839,-9.168063927170634,-21.083730279958246
1761479534838312200,2.460312255859375,-12.121710903424024,-7.701531239172816,-17.719747183579205
1761479534848348200,2.47034814453125,-12.57702189130783,-4.772902384319901,-10.284231271880865
1761479534858384100,2.480384033203125,-13.154714227235317,-2.703807707554102,-3.0492849865391847
1761479534868420000,2.490420166015625,-14.382023148572443,-1.0872034082934259,0.6646364598870277
1761479534878456000,2.5004560546875,-14.936642067426442,-0.3497778987884521,1.6374200005352497
1761479534888492000,2.510491943359375,-13.35858844809532,-0.2964177722617984,1.7447227296516299
1761479534898528000,2.520528076171875,-10.65619411447048,-1.1632735254086553,1.1407853608772158
1761479534908564000,2.53056396484375,-8.160943817156554,-2.5982790023729203,-0.6553162583559751
1761479534918600400,2.540600341796875,-6.43712388254106,-3.344595089820027,-2.519134738509357
1761479534928636400,2.550636474609375,-6.212993055593967,-2.7814351371139288,-3.293033244886994
1761479534938672400,2.56067236328125,-6.435373239481449,-1.5478826452121137,-2.1699445764809844
1761479534948708400,2.570708251953125,-6.728387048518657,-0.4541685033177957,-0.21692045717686415
1761479534958744300,2.580744384765625,-6.479713900989293,1.0704918544020503,0.27182635184079407
1761479534968780300,2.5907802734375,-4.228651714745164,3.3555931614354253,-0.33016192869246
1761479534978816300,2.600816162109375,-3.3774989960342645,4.124196484014392,0.4548424935892224
1761479534988852200,2.610852294921875,0.058712885731458664,2.2317462220080198,1.1092162103980778
1761479534998889200,2.62088916015625,3.4479058266907927,2.389978051111847,0.5435913288831711
1761479535008925200,2.63092529296875,5.347817656749487,2.6696733827620744,0.46808863639235493
1761479535018961200,2.640961181640625,7.057782084491849,1.7812800438068805,0.6716290952533484
1761479535028997000,2.6509970703125,8.897433214855194,1.0203539047922938,0.933627588301897
1761479535039033000,2.661033203125,10.30257473782301,0.7848967971887439,1.318078156542778
1761479535049069000,2.671069091796875,11.398836189579963,0.7620954750549048,2.108521555007994
1761479535059105300,2.681105224609375,12.022598202764987,0.7469884337507188,3.4144442865937945
1761479535069142000,2.69114208984375,11.870350124245881,0.70261313932091,4.154656796468794
1761479535079178000,2.701177978515625,11.987454408669471,0.7975502347957343,3.8401059861451383
1761479535089214200,2.711214111328125,12.321003641712664,1.0861622286774217,3.469231523314118
1761479535099250200,2.721250244140625,12.369762119662761,1.0766794569958,3.4389673179537055
1761479535109286100,2.7312861328125,12.208901695621012,0.8583921684451401,3.643481298021972
1761479535119322000,2.741322021484375,11.501377695643901,0.9870349880363791,4.039951682141423
1761479535129358000,2.751358154296875,10.288435153311491,1.1090062939744443,4.456015240003168
1761479535139394000,2.76139404296875,9.11208251222968,1.1597786690302192,4.621535472549498
1761479535149431000,2.77143115234375,7.9317785031735895,1.210646248088777,4.113928772500157
1761479535159467000,2.781467041015625,6.73390201254785,1.1348525367621332,2.9902509060293436
1761479535169503000,2.7915029296875,5.724170843252539,1.0925964995086193,2.011870860548317
1761479535179539000,2.8015390625,4.577075276315212,0.9356681542187929,1.4774398664593695
1761479535189575200,2.8115751953125,3.674037472066283,0.6899409970134496,0.9449293190389871
1761479535199611100,2.821611083984375,3.1978374254107473,0.7394276431076228,-0.01496639072448015
1761479535209647000,2.831647216796875,3.389049733096361,1.2517802225098014,-0.26763825250118967
1761479535219683000,2.84168310546875,3.586195522484183,1.773544042727351,0.6999146940171718
1761479535229719000,2.851718994140625,3.4730502048194407,1.763594018860161,2.0681264162555335
1761479535239755300,2.86175537109375,3.2979286157131193,1.8865660262733697,3.364515888081491
1761479535249791200,2.871791259765625,2.6306577156692743,2.0756667486324907,4.341241152092814
1761479535259827200,2.8818271484375,1.75989428755939,1.5384228890798985,4.455586785458028
1761479535269863200,2.89186328125,0.25994448312819,1.0314509798027574,3.3360634083181617
1761479535279899100,2.901899169921875,-1.6240724431842564,1.056671199646592,1.4252493682339786
1761479535289935000,2.91193505859375,-3.6077994515269993,0.9829827169708907,-1.0002484706789254
1761479535299971000,2.92197119140625,-5.999987433773279,0.649077948488295,-3.711740887516737
1761479535310008000,2.932008056640625,-8.293526241219043,-0.10897723819985985,-6.3581204884529114
1761479535320044000,2.9420439453125,-10.020804791855811,-1.9649778842091559,-8.875493185725807
1761479535330080000,2.952080078125,-11.330166557979583,-5.208911874884366,-11.143051748740673
1761479535340116000,2.962115966796875,-12.451239794909954,-8.39187438724637,-14.77289995046854
1761479535350152000,2.97215185546875,-12.621906158173083,-8.917835366892815,-17.868315112280843
1761479535360188000,2.98218798828125,-12.680998983132838,-7.36830407769084,-16.588448320710658
1761479535370223900,2.992223876953125,-12.496371899056435,-5.129709743353724,-10.61132738326192
1761479535380260000,3.002260009765625,-13.022788805776834,-2.7654002403751012,-4.396768101264536
1761479535390296000,3.012296142578125,-13.377246386814116,-1.9595817242540419,-1.3133452828019856
1761479535400332000,3.02233203125,-12.612508215230703,-1.8781134013570844,-0.8730246510401367
1761479535410368000,3.032367919921875,-11.71454815263748,-1.8847361804977059,-1.8808800895914435
1761479535420404200,3.042404296875,-10.388816266471148,-2.313140164494514,-2.976852203013003
1761479535430440200,3.052440185546875,-8.188824342250824,-2.5806109514743087,-3.081524875886738
1761479535440476200,3.06247607421875,-6.164830205449461,-1.8213062031164764,-2.0207178916096686
1761479535450512100,3.07251220703125,-4.623300436395406,-0.4844559799559414,0.45361441309899087
1761479535460548000,3.082548095703125,-3.338746948313713,0.836275321444124,2.8893352476015686
1761479535470585000,3.092585205078125,-3.070010671442747,1.8859530089415608,3.915499957564473
1761479535480621000,3.10262109375,-2.720094825488329,2.5492297247827054,4.498006708036363
1761479535490657000,3.112656982421875,-1.670420352861285,2.0239836154073476,5.130793446937203
1761479535500693000,3.12269287109375,0.3388198669224977,1.5653528354510664,4.458525176997482
1761479535510729000,3.13272900390625,2.740487625175714,1.2599991848006844,2.711714827416837
1761479535520765200,3.14276513671875,4.380435098361969,0.28481698551289736,1.7093629547178744
1761479535530801200,3.15280126953125,5.488738285568356,-0.35296712328381835,0.6049526832967996
1761479535540837000,3.162837158203125,6.471404922327399,-0.32719314201474187,-0.4267594316601753
1761479535550873000,3.172873046875,7.6843837050169705,0.18086480893343687,-0.37618338289409875
1761479535560909000,3.182908935546875,8.928797490411997,0.6952009633682668,0.6203375916942954
1761479535570945000,3.192945068359375,9.793061619630455,1.1442325056564062,2.082389627146721
1761479535580981000,3.20298095703125,10.384612385040521,1.8732661074563859,3.529429971428215
1761479535591017000,3.213016845703125,10.833343994534015,2.152610579842329,4.582304409140348
1761479535601053000,3.223052978515625,11.39007654454112,1.978037418399006,5.137990664964914
1761479535611089000,3.2330888671875,11.80259585392475,1.7328456832446157,5.1585985687077045
1761479535621124900,3.243124755859375,12.3607768491745,1.3887325322195887,4.73415033659935
1761479535631161000,3.2531611328125,12.6139309415102,1.419652717270702,3.2904835604041813
1761479535641198000,3.263197998046875,11.51146888154745,2.059494635380059,1.903324561111629
1761479535651234000,3.273234130859375,10.764169336020945,2.7845015389472243,1.0885223819375038
1761479535661270000,3.28327001953125,10.083037668406963,2.400801496812701,0.29403643008321523
1761479535671306200,3.29330615234375,7.453095407530665,0.9716104052156209,1.2481044566065072
1761479535681342200,3.30334228515625,7.456071792992949,1.2843014130167663,1.6486723391726612
1761479535691378200,3.313378173828125,7.331855046215653,2.0470516256533564,1.8706243607759474
1761479535701414100,3.3234140625,6.1489820634543895,2.0753774102970954,2.1985873181194067
1761479535711450000,3.3334501953125,4.917942723417282,1.7236407786563037,2.340427984392643
1761479535721486000,3.343486083984375,3.65162573377192,1.352612294307351,2.1351827674403787
1761479535731522000,3.35352197265625,2.4353350500553845,1.4211467552207409,1.7459484720543026
1761479535741558000,3.36355810546875,1.5591004970580338,1.2313567354232071,1.5873916487798094
1761479535751594000,3.373593994140625,0.6583686316639185,0.4934662387549877,1.6677017415523527
1761479535761630000,3.3836298828125,-0.09612287119328976,-0.1398641055032611,1.7481138333946464
1761479535771666200,3.393666259765625,-0.810567025822401,-0.42448476472645996,1.4310755901694296
1761479535781702100,3.4037021484375,-2.073297389152646,-0.4702937452211976,0.5290732664480805
1761479535791738000,3.413738037109375,-4.439447843822837,-0.7836357642769813,-0.5823989061832427
1761479535801774000,3.423774169921875,-7.919900433853268,-1.4534408589735626,-1.1905711360484361
1761479535811811000,3.43381103515625,-9.548967616584896,-2.463665072482824,-1.986222332289815
1761479535821847000,3.443846923828125,-9.900821152603626,-5.315272646975517,-4.801344050428271
1761479535831883300,3.45388330078125,-11.345976706051825,-8.30028623687327,-10.60863975161314
1761479535841919200,3.463919189453125,-14.04202313195467,-8.13644299762845,-16.38042165634632
1761479535851955200,3.473955078125,-15.288303295743464,-5.59154867170155,-17.541061179989576
1761479535861991200,3.4839912109375,-15.461912142199276,-4.055613946175575,-11.945879704743623
1761479535872027100,3.494027099609375,-15.45946533356905,-3.2723429235577584,-4.055662461492419
1761479535882063000,3.50406298828125,-14.724740022933481,-3.2320097441256044,1.9867370038136838
1761479535892099000,3.51409912109375,-14.06968270777464,-3.6447985181003806,4.491571414291858
1761479535902135000,3.524135009765625,-13.047307160961628,-2.892339397853613,3.7567034803152084
1761479535912171000,3.5341708984375,-11.079203253686428,-2.0764152289122344,1.7808495434351264
1761479535922207200,3.544207275390625,-10.040877273547649,-2.143281318221986,-0.059872577160596845
1761479535932243200,3.5542431640625,-9.494549797698856,-1.6285088181965053,-1.2091991180203854
1761479535942279200,3.564279052734375,-8.346227319315075,-0.24187767870295793,-1.5389967434450984
1761479535952315100,3.574315185546875,-6.514847758212685,0.7524627735085785,-0.9137564744010567
1761479535962351000,3.58435107421875,-4.245736705058813,1.5328770915210246,0.29371742726191874
1761479535972387000,3.594386962890625,-1.7595687088668346,2.1199353678174315,0.854929899162054
1761479535982424000,3.604424072265625,0.8907441398650408,2.0079696153260764,0.5796345560364425
1761479535992460000,3.6144599609375,3.660145140314102,2.1535500526495275,0.06661050711348653
1761479536002496000,3.62449609375,6.035033612713217,2.3914237198755144,-0.09743439218327403
1761479536012532000,3.634531982421875,7.583034039086103,2.3870962120652197,0.10932634389847516
1761479536022568000,3.64456787109375,8.05253371132016,2.4081034903891383,0.14795841850116848
1761479536032604000,3.65460400390625,8.14964676259458,2.1970943030826744,0.3683730014041066
1761479536042640000,3.664639892578125,8.023284235960245,2.809369730482995,0.3463603454299271
1761479536052675800,3.67467578125,8.38823924561441,2.522900228522718,1.8960539855867624
1761479536062712300,3.68471240234375,8.529090900850296,1.709615468174219,2.971672462287545
1761479536072748300,3.694748291015625,8.652972132062912,0.6872996156591922,2.0942048603639005
1761479536082784300,3.7047841796875,9.458611638355254,0.06308920111954212,1.0210594957783818
1761479536092820200,3.7148203125,10.459523541378974,0.15477383413705975,0.33613530401363967
1761479536102856200,3.724856201171875,11.33207443742752,0.35319355245083567,0.1861455258153379
1761479536112892200,3.73489208984375,12.135020466852188,0.09627112055756151,1.1070406199246645
1761479536122928000,3.74492822265625,12.284545842409134,-0.384482826542668,2.406609306308627
1761479536132964000,3.754964111328125,11.317240440911053,-0.49751039957925675,3.26887086353302
1761479536143000000,3.765,9.249065217077732,-0.27763620716333387,3.5799767940998075
1761479536153036000,3.7750361328125,6.326703605926037,0.09064593761954456,3.042873073670268
1761479536163073000,3.785072998046875,3.8334821840912103,0.37240572751890866,1.8620716364860534
1761479536173109000,3.79510888671875,2.959837063065171,0.7041969013810158,0.8308446746975183
1761479536183145000,3.80514501953125,3.214296977302432,0.9018154228471219,0.3856470845490694
1761479536193181000,3.815180908203125,3.804438460436463,0.6381192590352147,0.7667967115484178
1761479536203217200,3.825217041015625,4.7083892878770826,0.5977198094338179,2.1417842115320265
1761479536213253000,3.835253173828125,5.378719575491547,0.6027496202945709,3.6683407217293977
1761479536223289000,3.8452890625,4.453765707510709,0.08269158108159899,4.573968542471528
1761479536233325000,3.855324951171875,3.6264299177169796,0.011242694026231764,4.073036205619573
1761479536243361300,3.865361328125,3.1960388515561817,1.1769181660100816,2.6356290743410584
1761479536253397200,3.875397216796875,1.2883078721791505,2.113000161726773,1.6421400147944687
1761479536263433200,3.88543310546875,0.3455880458831787,1.8704941585250199,1.398047473053634
1761479536273469200,3.89546923828125,-0.157777655595541,1.135703965959698,1.537882060201466
1761479536283505200,3.905505126953125,-1.5996306603670118,0.6304544965609907,1.90979404938668
1761479536293541000,3.915541015625,-3.093418435037136,-0.12545008796453475,1.3492755511000751
1761479536303577000,3.9255771484375,-5.181538714790344,-0.593195756138116,-0.8145350526705384
1761479536313613000,3.935613037109375,-6.865526405233144,-1.0772725275181234,-3.95451240978688
1761479536323649300,3.945649169921875,-7.201323124942183,-2.7499446048289538,-8.027200532621144
1761479536333685200,3.955685302734375,-7.6779492880553,-5.2859805015176535,-12.916664180529116
1761479536343722000,3.965721923828125,-9.119106711778045,-6.166032566976547,-16.10501598471403
1761479536353758200,3.97575830078125,-11.041671103149652,-4.236755818484723,-15.255817907202243
1761479536363794200,3.985794189453125,-14.390807343530653,-2.549396605782211,-10.38504376219511
1761479536373830100,3.995830078125,-17.767936337208745,-2.7404274194210765,-4.453321470874548
1761479536383866000,4.0058662109375,-18.87337712072134,-2.62301859909296,-0.022714228372275828
1761479536393900000,4.015900146484375,-17.446676092374325,-2.2048973780490457,2.395442746258527
1761479536403936300,4.025936279296875,-14.645439107203483,-1.6602648695498703,2.84560804181695
1761479536413972200,4.03597216796875,-11.420953328841923,-1.2688225427255033,1.9742872720852493
1761479536424008200,4.04600830078125,-8.471560502901673,-1.0804800183225423,0.8071572173789143
1761479536434045200,4.056045166015625,-6.210510591128468,-0.6101954793211072,-0.1393301447570324
1761479536444080000,4.066080078125,-4.84601321323812,0.45490701019279656,-0.693294545225054
1761479536454117000,4.0761171875,-4.814537294000387,1.9204916767507791,-0.19774916210845112
1761479536464153000,4.086153076171875,-5.34676727091372,2.504107557508349,1.4304045590400696
1761479536474189000,4.09618896484375,-4.969380065187812,2.7491522854074835,2.7527906419098374
1761479536484225000,4.10622509765625,-3.4589714105844496,3.140237469357252,2.9260645573228596
1761479536494261000,4.116260986328125,-1.2063216628879307,3.055155924399197,1.9870897627741098
1761479536504297000,4.126296875,1.7217179939001797,2.4470506222903725,0.4377484431862831
1761479536514333000,4.1363330078125,4.597938031601905,2.062665520501137,-1.2256425955601036
1761479536524369200,4.146369140625,6.858094209405779,1.8300421750187872,-2.717334713125229
1761479536534405000,4.156405029296875,8.665964884626865,1.6519561831489205,-3.5313965953260658
1761479536544441300,4.16644140625,9.964469741171598,1.4939453033193946,-3.5550843449056146
1761479536554477300,4.176477294921875,10.699080485516786,1.4503811791419983,-2.7914231549039483
1761479536564513300,4.18651318359375,11.272679999172686,1.4683505510747432,-1.1441808485344052
1761479536574549200,4.19654931640625,11.496166098475456,1.3946153066478668,0.526477989257872
1761479536584585200,4.206585205078125,11.642881092786789,1.3544354180812834,1.6161379969231784
1761479536594621200,4.21662109375,11.730640040260553,1.410911776932329,2.558267602241039
1761479536604657200,4.2266572265625,11.679642843472957,1.5183148976832628,3.391065456832945
1761479536614693000,4.236693115234375,11.624334213227034,1.4720255863256753,4.022894748878479
1761479536624729000,4.24672900390625,11.440137337261438,1.0982689921870827,4.028991896709799
1761479536634766000,4.25676611328125,11.073169818741082,0.6794348005682229,2.889018728998303
1761479536644802000,4.266802001953125,10.631384667384625,0.7537040788065642,1.8472391012743115
1761479536654838000,4.276838134765625,10.14647349100709,0.48095374398864804,1.8115888189613818
1761479536664874000,4.2868740234375,9.213121212515235,-0.12930267173945903,2.3519322519645094
1761479536674910000,4.296909912109375,7.626189290201664,-0.11118673094287514,2.967750320407748
1761479536684946200,4.3069462890625,5.889716794762015,0.17024806478582322,3.205766464844346
1761479536694982100,4.316982177734375,4.590158629772067,0.18128880649916826,2.7770769419044257
1761479536705018000,4.32701806640625,4.06209512488842,0.34374460997357964,2.1623742873571814
1761479536715054000,4.33705419921875,3.7883915809988973,0.9279553878843784,1.6346324156433343
1761479536725090000,4.347090087890625,3.8983407329708335,1.3235606796070933,1.7102891296520828
1761479536735126000,4.3571259765625,4.324182465264201,1.4556265324495732,2.2830179979532956
1761479536745162000,4.367161865234375,4.831238253432512,2.0461188748478887,3.1684611088007686
1761479536755198200,4.3771982421875,4.037189816212654,2.1568309740163385,4.290516342505812
1761479536765234200,4.387234130859375,1.9798393532544374,1.7449534696675837,4.504069661337137
1761479536775270100,4.397270263671875,-1.0163912117063998,1.8935712288603186,3.1179455580502746
1761479536785306000,4.40730615234375,-5.12971851118207,2.1490736378878355,1.121749967148155
1761479536795342000,4.417342041015625,-9.748483057713509,2.1357171665780244,-0.6867202814012765
1761479536805378300,4.42737841796875,-12.695387573969363,1.138968374583125,-2.4133215172983706
1761479536815414300,4.437414306640625,-13.371564834046364,-2.9660654360607266,-5.310054035544395
1761479536825451000,4.447450927734375,-13.783912293994426,-8.675340031215548,-11.325051991444825
1761479536835487200,4.4574873046875,-15.52999725190997,-10.077047488081455,-18.439079694771767
1761479536845523200,4.467523193359375,-16.325380737125872,-6.442419650861621,-20.54470055990219
1761479536855559200,4.47755908203125,-16.715815640473366,-2.938814733302593,-13.85705001091957
1761479536865595100,4.48759521484375,-15.559065525484083,-0.6010987843476235,-3.3790038476392623
1761479536875631000,4.497631103515625,-13.538327760130166,-0.3447795059792697,4.522297976467013
1761479536885667000,4.5076669921875,-11.726588134521245,-2.0777168130300936,7.419718623107672
1761479536895703000,4.517703125,-9.51860111989379,-3.371807214133441,4.420443868145346
1761479536905739000,4.527739013671875,-9.365659798413514,-3.637127252820134,-1.5032093907490371
1761479536915775000,4.53777490234375,-11.314538780736923,-3.4664302021577953,-6.322263577651977
1761479536925811000,4.54781103515625,-13.454569280469416,-1.6197835138186811,-8.737822498613596
1761479536935847200,4.55784716796875,-12.970624903297423,-0.12932488357126712,-7.379954183474183
1761479536945883100,4.567883056640625,-9.551900162905454,0.6269101750176399,-3.822472129777074
1761479536955919000,4.577919189453125,-5.706570304632186,1.2793610340051351,-0.4205142536602914
1761479536965955000,4.587955078125,-2.4640467652767897,0.9685499216664581,2.522437579447031
1761479536975992300,4.597992431640625,0.29371406626105306,0.6678685736760497,4.247553691352904
1761479536986028300,4.6080283203125,2.3405822981715203,0.6823427239041775,4.364622904463112
1761479536996064300,4.618064208984375,3.6925352517873047,1.022340840825811,3.324460648807883
1761479537006100200,4.628100341796875,4.372483262574672,1.5518310905769466,2.143676601149887
1761479537016136200,4.63813623046875,4.448885534253717,2.2020983949802813,1.4817900244928897
1761479537026172200,4.648172119140625,4.317634651055932,2.7978829985678195,1.2889562530852854
1761479537036208000,4.6582080078125,4.8886248589962715,3.0748733090430496,1.3050624614946544
1761479537046244000,4.668244140625,6.419333958828449,3.2233862926870582,1.5294685982517897
1761479537056280000,4.678280029296875,8.104396000504494,2.924462382823229,1.987267019037157
1761479537066316000,4.68831591796875,9.402920146271585,2.3536869866773484,2.607966575911641
1761479537076351500,4.6983515625,10.457374838912486,1.9805928019702432,2.9325808073490855
1761479537086387500,4.708387451171875,11.569402015078067,1.67824417835474,2.669388720601797
1761479537096423400,4.71842333984375,12.325438993811607,1.479665725815296,2.1261679785966874
1761479537106459400,4.72845947265625,13.0905524284482,1.2530743539735674,1.6081994590088724
1761479537116496600,4.73849658203125,13.968604844522476,0.9218408505268394,1.206015373417735
1761479537126532600,4.74853271484375,13.459575125932693,1.1977386895902453,1.073055348214507
1761479537136568600,4.758568603515625,12.234375159573554,1.519975085980445,1.543189811220765
1761479537146604500,4.7686044921875,10.443238761532307,1.4624465877279638,2.1431480472311377
1761479537156640500,4.778640625,8.792563558104634,1.5566348375968635,2.1528160392865536
1761479537166676500,4.788676513671875,7.627456533658504,1.9141301788948475,1.9852669312611222
1761479537176712400,4.79871240234375,6.5291580231159925,1.730304328198731,2.04834502646476
1761479537186748400,4.80874853515625,5.844789857798815,1.2131605689972638,2.1487807924211024
1761479537196784400,4.818784423828125,5.495756639897823,1.1192058356232941,2.307864854440093
1761479537206820600,4.828820556640625,5.0658033806324,1.310573480001092,2.9785648521497845
1761479537216856600,4.838856689453125,4.212970746010542,1.321075000271201,3.923606691652536
1761479537226892500,4.848892578125,3.1463597516298294,1.051557509894669,4.3123076108142735
1761479537236928500,4.858928466796875,2.1833774740278717,0.7498654504917561,3.8104239645868536
1761479537246964500,4.868964599609375,1.3493576764255761,0.4669138935245573,2.591187290546298
1761479537257000400,4.87900048828125,0.4834808513134718,0.35877749006301163,1.4048039615765213
1761479537267036400,4.889036376953125,-0.81083006067276,0.18904285469204185,0.7363596338391304
1761479537277072400,4.899072265625,-2.1776789701253176,0.2546770641192794,0.4257292118296027
1761479537287109400,4.909109375,-3.891590089666843,0.4794777531519532,0.15892857919633388
1761479537297145300,4.919145263671875,-4.5053532714068885,0.5216401938378811,-0.7204343349546194
1761479537307181300,4.929181396484375,-3.7048645720064637,0.2030694803483784,-2.35496153665781
1761479537317217300,4.93921728515625,-2.398856792485714,-1.5979498676732182,-4.232475072425603
1761479537327253200,4.949253173828125,-1.7863573470711707,-4.266200524155796,-6.434146328034997
1761479537337289500,4.95928955078125,-2.3360528380483387,-6.132296301591396,-9.160645759868622
1761479537347325400,4.969325439453125,-3.518044361799955,-8.288778754431009,-11.842030038690567
1761479537357361700,4.979361572265625,-6.387326124671101,-7.870931528022885,-13.476681743556261
1761479537367397600,4.989397705078125,-10.308886405187845,-5.381327712163329,-11.7860153060019
1761479537377433600,4.99943359375,-14.883917023932932,-3.696245796743035,-7.418106511735916
1761479537387469600,5.009469482421875,-18.19082155778408,-2.925394110715389,-2.794793508119881
1761479537397505500,5.019505615234375,-19.25055039143562,-2.761933733308315,0.786387108811736
1761479537407541500,5.02954150390625,-19.499789356154203,-2.9535315331801772,1.6258800771281121
1761479537417577500,5.039577392578125,-18.517808948093652,-3.4486946389809248,0.481233072386682
1761479537427613400,5.049613525390625,-16.579519164323806,-3.9305864675372835,-1.3381962309420108
1761479537437649400,5.0596494140625,-15.096369688045977,-3.3644422383233903,-2.5202558514937756
1761479537447685400,5.069685302734375,-13.591339219349623,-1.7921620878271758,-2.0507079562038184
1761479537457721300,5.079721435546875,-10.720918223315477,-0.5701275997616351,-0.6607096418321132
1761479537467758300,5.08975830078125,-6.902261852434277,0.5060919115722179,0.2954845830649137
1761479537477794300,5.099794189453125,-3.2440316058307883,1.3635235644221304,0.7575602427780628
1761479537487830500,5.10983056640625,-0.34798750824034214,1.7843141508057712,0.9529933830291032
1761479537497866500,5.119866455078125,1.732640954452753,2.405480156148225,0.7153592236474156
1761479537507902500,5.12990234375,3.5293069295704362,3.1023914305657145,0.14847732780873774
1761479537517938400,5.1399384765625,5.276467992284894,3.3971950456291435,-0.43769232908487316
1761479537527974400,5.149974365234375,6.580042407178879,3.511604684141278,-0.8491396253228187
1761479537538010400,5.16001025390625,7.319013684821129,3.5455721279338,-0.7689356232732534
1761479537548046300,5.17004638671875,7.763580575850606,3.2911171821326017,-0.5496224257409572
1761479537558082300,5.180082275390625,8.010696557065843,3.0594127050608395,-0.5195429292976856
1761479537568118500,5.190118408203125,8.624849030384421,2.7611665483281014,-0.2252224215760827
1761479537578154500,5.200154541015625,9.419729826775193,2.3340556728817523,0.2560390001222491
1761479537588190500,5.2101904296875,10.11249289547205,1.9249267365887759,0.781857064166665
1761479537598226400,5.220226318359375,10.86002391166687,1.8719022717572749,1.5661024847745895
1761479537608262700,5.2302626953125,11.439338880360125,1.8146726103208959,2.70839971151948
1761479537618298600,5.240298583984375,11.627068606626986,1.502446881943941,3.763540925119817
1761479537628334600,5.25033447265625,11.560355954313277,1.136060232051462,4.369452808837592
1761479537638370600,5.26037060546875,11.171219858604669,1.2681876058228314,4.652356435009837
1761479537648407600,5.270407470703125,10.79280857052803,1.7395112786136566,4.489576441082358
1761479537658443500,5.280443603515625,9.833778829944134,0.7209313246913254,3.823832896736264
1761479537668479500,5.2904794921875,8.624202549174427,-0.10693258062973618,3.1943723796486854
1761479537678515500,5.300515380859375,7.830297319817543,-0.04498597367405891,2.602591897135973
1761479537688551400,5.310551513671875,6.895051774924993,0.05665244607031345,2.330190083494782
1761479537698587400,5.32058740234375,5.688394011950493,0.29878800852447746,2.135743323932588
1761479537708623400,5.330623291015625,4.711089194485545,0.8776545027978718,2.022779500314593
1761479537718659300,5.340659423828125,4.507304989996552,1.549056949688494,2.4006606270372868
1761479537728695300,5.3506953125,4.148264757344126,1.6912328392654656,3.09687997366786
1761479537738731300,5.360731201171875,3.5410897218227384,1.6810273793324828,3.5653061714515086
1761479537748767500,5.370767578125,3.5273277384519575,2.0696699924357236,3.5741365436390042
1761479537758803500,5.380803466796875,3.3453327564448117,2.4725451290309426,2.9625901611655947
1761479537768839400,5.39083935546875,2.852099157401919,2.189194343613088,1.813194208331406
1761479537778875400,5.40087548828125,1.941146926766634,1.3574356228105724,0.6361170523673295
1761479537788911400,5.410911376953125,0.23528759625554083,0.465181955165416,0.02238601933121681
1761479537798947600,5.420947509765625,-2.8036954842388626,-0.019327216282486914,-0.40557489707320926
1761479537808983600,5.430983642578125,-5.923627247670293,0.10903948978111147,-1.8604875821650027
1761479537819019500,5.44101953125,-8.529760762935876,0.8841954488739371,-5.059642519915104
1761479537829056500,5.451056396484375,-9.649619947901368,0.6742933460265398,-8.698900355023145
1761479537839092500,5.461092529296875,-8.793293625944852,-1.7906135432109236,-10.982537361657618
1761479537849128400,5.47112841796875,-7.81998869177103,-5.155811568337678,-11.833327676796912
1761479537859164400,5.481164306640625,-6.736796564945578,-8.242911321747302,-12.10595803849697
1761479537869200400,5.491200439453125,-7.113064411252736,-8.608561327928305,-11.069417188209295
1761479537879236400,5.501236328125,-10.238214201593399,-5.9802060439825055,-6.6778188907980915
1761479537889272600,5.5112724609375,-15.264697963750361,-4.254567077246308,-0.743245886221528
1761479537899308500,5.52130859375,-19.4566761906147,-3.036551177172363,2.7428993624925613
1761479537909344500,5.531344482421875,-20.637221022689342,-1.3581173214644193,4.6654035481095315
1761479537919380500,5.54138037109375,-18.974469012498854,-0.24547847967389969,5.488737701046467
1761479537929416400,5.55141650390625,-15.962308472478389,-0.4975254510179162,4.894267541058361
1761479537939452400,5.561452392578125,-12.575060235846042,-0.9882397607162594,2.8106548018574715
1761479537949488400,5.57148828125,-9.76004256260395,-1.0213434272862971,-0.08639058173000812
1761479537959524400,5.5815244140625,-7.900704150474071,-0.5837165281204506,-2.098704509870708
1761479537969560300,5.591560302734375,-6.672503248733282,0.460761435309425,-2.500145083618164
1761479537979596300,5.60159619140625,-5.1913370552271605,1.6676247307933867,-1.8162739080376922
1761479537989632300,5.61163232421875,-3.2858395339906212,2.63027368478775,-1.068288279943168
1761479537999668500,5.62166845703125,-0.9682827220976352,3.397487598834932,-0.3878473710723221
1761479538009705500,5.63170556640625,1.23399994340837,3.736611709401011,0.495813678663969
1761479538019741400,5.641741455078125,3.1206349432647227,3.643738779914379,0.9437358714707195
1761479538029777400,5.65177734375,4.9698108578205105,3.0918507473289965,0.7898810884073376
1761479538039813600,5.661813720703125,6.847724791082739,2.3468663468770683,-0.12715528444722293
1761479538049849600,5.671849609375,8.509511171111464,1.7736363971859215,-1.7752194285936653
1761479538059885600,5.681885498046875,10.069469746303557,1.368097155947983,-3.2031796632215377
1761479538069921500,5.691921630859375,11.252137561881542,1.3955791832439601,-3.3534441667079924
1761479538079957800,5.701957763671875,11.62913313794136,1.9633352315686643,-2.0788051927886904
1761479538089993700,5.71199365234375,11.38127598297,2.2246581634432077,0.07962006468176841
1761479538100029700,5.72202978515625,11.028746155124901,2.1222148570567367,2.346239008758962
1761479538110065700,5.732065673828125,10.843792907834052,2.2117047199763356,4.465535640281439
1761479538120101600,5.7421015625,10.412958189558982,2.0954567601211367,5.513727765396237
1761479538130137600,5.7521376953125,10.054461562263965,1.5998754289083181,5.634617413577437
1761479538140173600,5.762173583984375,10.140900659310818,1.2955764018774032,5.159628496277332
1761479538150209800,5.772209716796875,10.104779544615745,1.0373071584850548,4.341802000845968
1761479538160245800,5.782245849609375,9.953231723320483,0.5815953347153962,3.3882314024507996
1761479538170281700,5.79228173828125,9.592346155062318,0.46143721567913887,2.8978847570210693
1761479538180317700,5.802317626953125,9.113353847339749,0.6879432473249733,2.710101839262247
1761479538190353700,5.812353759765625,8.616950386089085,0.9382292368784546,2.7695143976956604
1761479538200391000,5.822390869140625,7.970191528198122,1.071064905049652,2.702236512714624
1761479538210427000,5.832427001953125,7.142783257690072,1.2544734071165322,2.331925675115734
1761479538220462800,5.842462890625,6.119193658912182,1.5942152111895382,2.013743960943818
1761479538230498800,5.852498779296875,5.50950634830892,1.9696315552338957,1.8869807445541023
1761479538240534800,5.86253466796875,5.3788031621217725,2.3255529252134264,1.9338199448794124
1761479538250570800,5.87257080078125,5.387607815346121,2.4267044382236898,1.872473495773971
1761479538260606700,5.882606689453125,5.607687905597686,2.364658316416293,1.56319215028584
1761479538270642700,5.892642578125,5.539423347666859,2.032488262771815,0.9939002706959843
1761479538280678700,5.9026787109375,4.028220327815413,1.1981402561284602,0.26496669520437716
1761479538290714600,5.912714599609375,0.45909167546629903,0.3869515912763774,-0.5515837889418006
1761479538300750800,5.922750732421875,-4.1516988234460355,0.09244856659471988,-1.8506296204954384
1761479538310786800,5.932786865234375,-9.112744191008806,0.46412477426268156,-4.420637929412722
1761479538320822800,5.94282275390625,-12.830483442157506,0.8881953321650624,-7.74275873709619
1761479538330858800,5.952858642578125,-13.978756820702552,-0.2924162084702402,-10.453719239014386
1761479538340894700,5.962894775390625,-12.310299876868724,-3.3478678278803824,-12.2103817050457
1761479538350930700,5.9729306640625,-9.83701006695032,-5.689254428172111,-12.395609677624702
1761479538360966700,5.982966552734375,-9.316424350601434,-6.380515860134363,-10.5989787738204
1761479538371002600,5.993002685546875,-10.422315215969086,-5.790238183400034,-7.109025949516892
1761479538381038600,6.00303857421875,-12.70423372824788,-4.63882942943871,-3.1628143350854514
1761479538391074600,6.013074462890625,-14.884305146467685,-3.5602111864000556,0.21126783824265002
1761479538401111600,6.023111572265625,-16.44948174856901,-2.6006343333274127,2.2388544465780256
1761479538411147500,6.0331474609375,-16.51714834060669,-1.8889681189790366,3.455264665021002
1761479538421183500,6.04318359375,-14.989249037498235,-2.429812194980681,3.780188108538091
1761479538431219700,6.0532197265625,-12.936872271299361,-3.180303230024874,3.056724488890171
1761479538441255700,6.063255615234375,-11.16397997047901,-2.5129028583824633,1.131278989124298
1761479538451292000,6.0732919921875,-9.58361222898662,-1.4324416178256272,-1.1749392671525478
1761479538461328000,6.083327880859375,-8.080434694680571,-0.5949691224861889,-2.97552387701869
1761479538471363800,6.09336376953125,-6.494888089245557,0.23836594425495714,-3.6279935137718913
1761479538481399800,6.10339990234375,-5.299159716564416,1.1472491500638424,-2.8931840319842097
1761479538491435800,6.113435791015625,-4.895100777012109,1.559258610229194,-1.5255695449866353
1761479538501471700,6.1234716796875,-4.552298562455177,1.9976580646701156,-0.24578517100289463
1761479538511507700,6.1335078125,-3.6072786425232883,3.0510473200365897,0.7234910921767354
1761479538521543700,6.143543701171875,-2.1196827082306147,3.577760579355061,1.5827088977910577
1761479538531579600,6.15357958984375,-0.14642507145404815,3.26258549965322,1.8255458865128456
1761479538541615600,6.16361572265625,2.8125422230392694,2.8744132805407046,1.1422761839568614
1761479538551651800,6.17365185546875,6.088346100705862,2.624198164266348,0.13443199745193124
1761479538561687800,6.183687744140625,8.6575068528831,2.154745546044409,-0.7350327691495419
1761479538571723800,6.193723876953125,9.928440980935097,1.6864114104583858,-1.4240332704424856
1761479538581759700,6.203759765625,10.57156235910654,1.5915834013812242,-1.8988648052237926
1761479538591796700,6.213796630859375,11.210369965732097,1.8939575978294014,-1.8065312433108687
1761479538601831700,6.223831787109375,11.774050142920016,2.291355618187785,-0.9071636520072818
1761479538611868700,6.23386865234375,12.35408056640625,2.292568647239357,0.6794339237853885
1761479538621904600,6.243904541015625,12.66941609736681,2.1757935947701332,2.429190117559582
1761479538631940600,6.253940673828125,12.395102312624454,1.9565102078542111,3.821143219260871
1761479538641976600,6.2639765625,12.435733598220347,1.7594428905300794,4.469391731187701
1761479538652012500,6.274012451171875,12.304793680667876,1.453528683387488,3.4152821987226605
1761479538662048800,6.284048828125,11.954190436971187,1.4394327918872236,3.2760622363418337
1761479538672084700,6.294084716796875,10.93275947753191,-0.07369096689373254,3.657143620410561
1761479538682120700,6.30412060546875,9.271742328310012,-0.8385488193340599,2.0660633462458846
1761479538692156700,6.31415673828125,7.6634946462452405,0.2859789419643581,1.008127971882373
1761479538702193000,6.32419287109375,6.275930865544081,0.475354535742104,-0.10511164881289005
1761479538712228900,6.334228759765625,5.148993705016374,0.6578379588533192,-0.3794761408291757
1761479538722264800,6.344264892578125,4.748723636353016,1.0273091307576745,-0.10101341971382498
1761479538732300800,6.35430078125,4.38858157993853,1.1306064966902136,0.4750115675233304
1761479538742336800,6.364336669921875,3.6628777801483867,1.2283026085495947,1.6906079853653906
1761479538752372700,6.374372802734375,3.308183467745781,1.1847351233713328,3.225977185963094
1761479538762408700,6.38440869140625,3.2515345288068054,0.6831180191256105,4.1264284808501595
1761479538772444700,6.394444580078125,3.4493180315762757,0.4330883424207568,3.590610416316986
1761479538782480600,6.404480712890625,3.447868417289853,0.9232226602740585,2.0224417927928267
1761479538792516600,6.4145166015625,3.207737472656369,1.3247186174705623,0.8709859848193824
1761479538802552600,6.424552490234375,2.666356221038103,1.081286731595546,0.6735261610463261
1761479538812588800,6.4345888671875,1.6065695197194814,0.36690979698374865,0.7673369559049605
1761479538822625500,6.44462548828125,-0.1357224756538868,-0.7112193473637104,-0.03952273983210325
1761479538832661500,6.45466162109375,-1.8156909935832022,-1.5041406802497803,-1.7009893863871692
1761479538842697700,6.46469775390625,-4.045489442524314,-1.4643230491243302,-3.604581074002385
1761479538852733700,6.474733642578125,-7.94951289730668,-1.9610569113731384,-5.563119280552864
1761479538862769700,6.484769775390625,-11.423167497760057,-2.9987212127327916,-7.167685643756389
1761479538872805600,6.4948056640625,-14.26185246231556,-4.213806320051849,-8.842322153007984
1761479538882841600,6.504841552734375,-16.055936019724605,-5.514572399526834,-10.001206941938399
1761479538892877800,6.5148779296875,-17.2982659845829,-5.814478306165337,-10.142623829841613
1761479538902913800,6.524913818359375,-17.632855666589737,-4.0125656625658275,-8.383870529010892
1761479538912949800,6.53494970703125,-17.62676728658676,-1.9567767498359083,-4.588768636718392
1761479538922985700,6.54498583984375,-17.634872267109156,-0.8659509132616221,-0.4493709303103387
1761479538933021700,6.555021728515625,-16.738602641820908,-0.29612799553498625,2.351525278598815
1761479538943057700,6.5650576171875,-14.754047950482368,-0.39864648604951797,3.121023942582309
1761479538953094000,6.575093994140625,-11.511188311040401,-0.8814144398532807,2.587019357211888
1761479538963129900,6.5851298828125,-8.296129117193818,-2.53784440741539,2.0056210063733158
1761479538973165800,6.595165771484375,-6.513153813776373,-3.4341374135792253,0.9332365431576967
1761479538983201800,6.605201904296875,-6.594929010665417,-0.0038437428813427685,-1.5674093295894562
1761479538993237800,6.61523779296875,-6.986137820994854,2.085370250392705,-2.041268658337742
1761479539003273700,6.625273681640625,-6.301825769779086,2.209789972396195,-0.5595693808682263
1761479539013309700,6.635309814453125,-4.01780005608797,2.4117941616006195,0.8366627133265138
1761479539023345700,6.645345703125,-0.666474781230092,2.7533821780622003,1.67655213361457
1761479539033381600,6.655381591796875,2.6520506323099133,2.957088056617975,2.2511358360022307
