time,seconds_elapsed,z,y,x
1761479532454749000,0.0767490234375,-0.9266204833984375,-0.0523223876953125,-0.106475830078125
1761479532464785000,0.086784912109375,-0.9067230224609375,-0.047088623046875,-0.0811767578125
1761479532474820900,0.09682080078125,-0.8433074951171875,-0.0584869384765625,-0.075439453125
1761479532484856800,0.10685693359375,-0.7726287841796875,-0.0775146484375,-0.0902252197265625
1761479532494893000,0.11689306640625,-0.7626495361328125,-0.07440185546875,-0.1500701904296875
1761479532504929000,0.126928955078125,-0.7960052490234375,-0.0595550537109375,-0.2103729248046875
1761479532514965000,0.136965087890625,-0.79119873046875,-0.0726470947265625,-0.2059326171875
1761479532525001000,0.1470009765625,-0.763427734375,-0.0823974609375,-0.1779937744140625
1761479532535038000,0.157037841796875,-0.7182769775390625,-0.0677642822265625,-0.17138671875
1761479532545074000,0.167073974609375,-0.6838226318359375,-0.067352294921875,-0.1734161376953125
1761479532555110000,0.17710986328125,-0.6599578857421875,-0.0831146240234375,-0.2052459716796875
1761479532565145900,0.187145751953125,-0.661376953125,-0.079315185546875,-0.2559356689453125
1761479532575182000,0.19718212890625,-0.676055908203125,-0.065338134765625,-0.2923126220703125
1761479532585218000,0.207218017578125,-0.6747589111328125,-0.0876617431640625,-0.2950592041015625
1761479532595254000,0.21725390625,-0.688629150390625,-0.112640380859375,-0.2541046142578125
1761479532605290000,0.2272900390625,-0.7106475830078125,-0.1239166259765625,-0.1938629150390625
1761479532615326000,0.237325927734375,-0.7436370849609375,-0.117218017578125,-0.1523895263671875
1761479532625362000,0.24736181640625,-0.8362274169921875,-0.0978240966796875,-0.120025634765625
1761479532635398000,0.25739794921875,-0.9676971435546875,-0.0883636474609375,-0.1126708984375
1761479532645433900,0.267433837890625,-1.0872344970703125,-0.1000823974609375,-0.209564208984375
1761479532655469800,0.2774697265625,-1.152923583984375,-0.1451568603515625,-0.392608642578125
1761479532665505800,0.287505859375,-1.213043212890625,-0.2624053955078125,-0.6313934326171875
1761479532675541800,0.297541748046875,-1.2132568359375,-0.4189910888671875,-0.8626861572265625
1761479532685578000,0.307577880859375,-1.20849609375,-0.4998016357421875,-0.957733154296875
1761479532695614000,0.317614013671875,-1.3005828857421875,-0.4694976806640625,-0.7841644287109375
1761479532705650000,0.32764990234375,-1.5128021240234375,-0.422149658203125,-0.4423980712890625
1761479532715686000,0.337685791015625,-1.7658843994140625,-0.4004058837890625,-0.177490234375
1761479532725721900,0.347721923828125,-1.9834442138671875,-0.3392333984375,-0.128875732421875
1761479532735758000,0.357758056640625,-2.0731964111328125,-0.2445068359375,-0.3242034912109375
1761479532745794000,0.3677939453125,-1.952301025390625,-0.1468048095703125,-0.628936767578125
1761479532755830000,0.377830078125,-1.7288970947265625,-0.2133941650390625,-0.7767486572265625
1761479532765866000,0.387865966796875,-1.625640869140625,-0.50238037109375,-0.746002197265625
1761479532775902000,0.39790185546875,-1.378265380859375,-0.5612640380859375,-0.7649993896484375
1761479532785938000,0.40793798828125,-1.39569091796875,-0.51934814453125,-0.8336334228515625
1761479532795975000,0.417974853515625,-1.5319061279296875,-0.4925079345703125,-0.820281982421875
1761479532806011000,0.428010986328125,-1.6731109619140625,-0.4215240478515625,-0.798980712890625
1761479532816046800,0.438046875,-1.8267059326171875,-0.37725830078125,-0.804595947265625
1761479532826083000,0.4480830078125,-1.929443359375,-0.3643798828125,-0.8217010498046875
1761479532836119000,0.458119140625,-1.8105621337890625,-0.364501953125,-0.80194091796875
1761479532846155000,0.468155029296875,-1.6481781005859375,-0.3778228759765625,-0.7624969482421875
1761479532856191000,0.47819091796875,-1.4942169189453125,-0.3320465087890625,-0.6894378662109375
1761479532866227000,0.48822705078125,-1.3519439697265625,-0.2437591552734375,-0.5358734130859375
1761479532876263000,0.498262939453125,-1.22149658203125,-0.16986083984375,-0.31378173828125
1761479532886299000,0.508298828125,-1.091064453125,-0.107513427734375,-0.1117095947265625
1761479532896334800,0.5183349609375,-0.9665679931640625,-0.0460662841796875,0.029144287109375
1761479532906370800,0.528370849609375,-0.830902099609375,0.0077667236328125,0.093658447265625
1761479532916406800,0.53840673828125,-0.7014007568359375,0.073699951171875,0.0705718994140625
1761479532926442800,0.54844287109375,-0.6149139404296875,0.1373748779296875,0.0026092529296875
1761479532936479000,0.55847900390625,-0.584686279296875,0.18450927734375,-0.0846405029296875
1761479532946515000,0.568514892578125,-0.5523681640625,0.224334716796875,-0.1447601318359375
1761479532956551000,0.578551025390625,-0.4547119140625,0.2606353759765625,-0.157135009765625
1761479532966587100,0.588587158203125,-0.324615478515625,0.23065185546875,-0.138641357421875
1761479532976623000,0.598623046875,-0.212188720703125,0.143585205078125,-0.142608642578125
1761479532986659000,0.6086591796875,-0.080474853515625,0.0230255126953125,-0.23126220703125
1761479532996695000,0.618695068359375,0.0313873291015625,-0.0785369873046875,-0.3786468505859375
1761479533006731000,0.62873095703125,0.1344757080078125,-0.105194091796875,-0.4846954345703125
1761479533016767000,0.63876708984375,0.2267303466796875,-0.0753326416015625,-0.4415130615234375
1761479533026804000,0.648803955078125,0.30322265625,-0.0291290283203125,-0.2588043212890625
1761479533036840000,0.65883984375,0.2889862060546875,0.01202392578125,-0.05657958984375
1761479533046876000,0.6688759765625,0.2075653076171875,0.05224609375,0.087677001953125
1761479533056912000,0.678911865234375,0.1328125,0.0811004638671875,0.17669677734375
1761479533066947800,0.68894775390625,0.1012725830078125,0.096527099609375,0.22705078125
1761479533076983800,0.69898388671875,0.0272369384765625,0.075103759765625,0.2110595703125
1761479533087020000,0.70902001953125,-0.088623046875,0.0123291015625,0.1595611572265625
1761479533097056000,0.719055908203125,-0.1911773681640625,-0.026031494140625,0.0881195068359375
1761479533107092000,0.729092041015625,-0.281494140625,-0.0697784423828125,0.03936767578125
1761479533117128000,0.7391279296875,-0.3788299560546875,-0.0828094482421875,0.0002288818359375
1761479533127164000,0.749163818359375,-0.47021484375,-0.06494140625,-0.0206451416015625
1761479533137199900,0.759199951171875,-0.4999847412109375,-0.037628173828125,0.0069427490234375
1761479533147235800,0.76923583984375,-0.4697418212890625,0.0193328857421875,0.0824737548828125
1761479533157271800,0.779271728515625,-0.4237060546875,0.0698699951171875,0.1852874755859375
1761479533167307800,0.789307861328125,-0.40533447265625,0.0937652587890625,0.22723388671875
1761479533177343700,0.79934375,-0.389373779296875,0.0959625244140625,0.173828125
1761479533187379700,0.809379638671875,-0.4017791748046875,0.0860137939453125,0.0601959228515625
1761479533197416000,0.819416015625,-0.4707489013671875,0.091461181640625,-0.067169189453125
1761479533207452000,0.829451904296875,-0.6621551513671875,0.0523529052734375,-0.186737060546875
1761479533217488000,0.83948779296875,-0.9996185302734375,0.02520751953125,-0.3503570556640625
1761479533227523800,0.84952392578125,-1.3901214599609375,0.004730224609375,-0.5907745361328125
1761479533237561000,0.85956103515625,-1.7386627197265625,-0.0550537109375,-0.873809814453125
1761479533247597000,0.86959716796875,-1.93487548828125,-0.144256591796875,-1.0970001220703125
1761479533257633000,0.879633056640625,-1.9496612548828125,-0.33245849609375,-1.296905517578125
1761479533267669000,0.8896689453125,-1.989227294921875,-0.60357666015625,-1.6344146728515625
1761479533277705000,0.899705078125,-2.1146392822265625,-0.8354034423828125,-1.9080810546875
1761479533287741000,0.909740966796875,-2.3383026123046875,-0.7820281982421875,-1.846588134765625
1761479533297777000,0.91977685546875,-2.5994110107421875,-0.536163330078125,-1.4088287353515625
1761479533307812900,0.929812744140625,-2.8385467529296875,-0.317626953125,-0.786895751953125
1761479533317848800,0.939848876953125,-2.97332763671875,-0.1543121337890625,-0.3075714111328125
1761479533327884800,0.949884765625,-2.9343414306640625,-0.0623321533203125,-0.11053466796875
1761479533337921000,0.959921142578125,-2.7281341552734375,-0.0665435791015625,-0.071014404296875
1761479533347957000,0.96995703125,-2.39593505859375,-0.1580352783203125,-0.103607177734375
1761479533357993000,0.979992919921875,-2.1276702880859375,-0.2502593994140625,-0.2199554443359375
1761479533368029000,0.99002880859375,-2.02032470703125,-0.2834930419921875,-0.3579559326171875
1761479533378065000,1.00006494140625,-2.0101470947265625,-0.200927734375,-0.393768310546875
1761479533388100900,1.010100830078125,-1.99029541015625,-0.0854339599609375,-0.30596923828125
1761479533398136800,1.02013671875,-1.881103515625,0.03912353515625,-0.2113800048828125
1761479533408172800,1.0301728515625,-1.7680816650390625,0.1457366943359375,-0.1345977783203125
1761479533418208800,1.040208740234375,-1.61376953125,0.213165283203125,-0.0727996826171875
1761479533428245800,1.050245849609375,-1.4199371337890625,0.2498016357421875,-0.0564117431640625
1761479533438281700,1.06028173828125,-1.1494293212890625,0.2198333740234375,-0.111328125
1761479533448317700,1.070317626953125,-0.802490234375,0.16937255859375,-0.2091064453125
1761479533458353700,1.080353759765625,-0.43798828125,0.11431884765625,-0.2923736572265625
1761479533468390000,1.090389892578125,-0.118133544921875,0.0766448974609375,-0.3145599365234375
1761479533478425900,1.10042578125,0.107635498046875,0.0881805419921875,-0.2750396728515625
1761479533488462000,1.110462158203125,0.25994873046875,0.1188812255859375,-0.212432861328125
1761479533498498000,1.120498046875,0.3196868896484375,0.14892578125,-0.1883544921875
1761479533508534000,1.130533935546875,0.31988525390625,0.176666259765625,-0.1850433349609375
1761479533518570000,1.140570068359375,0.3258209228515625,0.1954193115234375,-0.1483917236328125
1761479533528606000,1.15060595703125,0.340972900390625,0.2076263427734375,-0.0748443603515625
1761479533538642000,1.160641845703125,0.3825225830078125,0.193603515625,-0.0096435546875
1761479533548678000,1.170677978515625,0.4454803466796875,0.1421356201171875,0.0136871337890625
1761479533558713900,1.1807138671875,0.4964447021484375,0.0948333740234375,0.031585693359375
1761479533568749800,1.190749755859375,0.5225677490234375,0.0357513427734375,0.0378265380859375
1761479533578785800,1.200785888671875,0.5006256103515625,-0.017181396484375,-0.01171875
1761479533588821800,1.21082177734375,0.417022705078125,-0.0602874755859375,-0.052520751953125
1761479533598858800,1.220858642578125,0.2536163330078125,-0.0815887451171875,-0.087890625
1761479533608894700,1.230894775390625,-0.006103515625,-0.0817718505859375,-0.0921630859375
1761479533618931000,1.240930908203125,-0.2279052734375,-0.06549072265625,-0.0894622802734375
1761479533628967000,1.250966796875,-0.396484375,-0.044525146484375,-0.0830078125
1761479533639003000,1.2610029296875,-0.5166778564453125,-0.022491455078125,-0.057830810546875
1761479533649038800,1.271038818359375,-0.6015167236328125,0.00640869140625,-0.0430908203125
1761479533659074800,1.28107470703125,-0.61907958984375,0.0198974609375,-0.012359619140625
1761479533669110800,1.29111083984375,-0.591094970703125,0.032318115234375,0.037353515625
1761479533679146800,1.301146728515625,-0.5534515380859375,0.05401611328125,0.0833587646484375
1761479533689182700,1.3111826171875,-0.5620574951171875,0.0250396728515625,0.1000213623046875
1761479533699219000,1.321218994140625,-0.5814666748046875,0.0118560791015625,0.0422821044921875
1761479533709255000,1.3312548828125,-0.6459197998046875,0.056396484375,-0.0930633544921875
1761479533719291000,1.341290771484375,-0.78509521484375,0.0589141845703125,-0.2451171875
1761479533729326800,1.351326904296875,-0.971923828125,0.0744171142578125,-0.3701934814453125
1761479533739363000,1.361363037109375,-1.2324981689453125,0.07550048828125,-0.417724609375
1761479533749399000,1.37139892578125,-1.5397491455078125,0.0334930419921875,-0.4640655517578125
1761479533759435800,1.381435791015625,-1.7916259765625,0.020965576171875,-0.608367919921875
1761479533769472000,1.391471923828125,-1.976776123046875,-0.0567779541015625,-0.784515380859375
1761479533779508000,1.401508056640625,-1.9636383056640625,-0.292572021484375,-1.0776519775390625
1761479533789544000,1.4115439453125,-1.8929443359375,-0.62786865234375,-1.5142059326171875
1761479533799580000,1.421579833984375,-1.9054718017578125,-0.827178955078125,-1.819427490234375
1761479533809616000,1.431615966796875,-2.1067962646484375,-0.7825775146484375,-1.7445068359375
1761479533819651800,1.44165185546875,-2.3823699951171875,-0.5634002685546875,-1.34576416015625
1761479533829687800,1.451687744140625,-2.52227783203125,-0.3319549560546875,-0.8213653564453125
1761479533839723800,1.461723876953125,-2.5831298828125,-0.1830596923828125,-0.3876190185546875
1761479533849759700,1.471759765625,-2.55609130859375,-0.0885009765625,-0.096649169921875
1761479533859795700,1.481795654296875,-2.4505767822265625,-0.0610504150390625,0.0520477294921875
1761479533869831700,1.491831787109375,-2.3032989501953125,-0.106201171875,0.0584564208984375
1761479533879868000,1.501867919921875,-2.1049346923828125,-0.1694488525390625,-0.038543701171875
1761479533889903900,1.51190380859375,-1.9925079345703125,-0.193115234375,-0.22296142578125
1761479533899939800,1.52193994140625,-2.0054168701171875,-0.16156005859375,-0.405517578125
1761479533909975800,1.531975830078125,-2.074859619140625,-0.04669189453125,-0.5276641845703125
1761479533920013000,1.542012939453125,-2.0509490966796875,0.0833282470703125,-0.55926513671875
1761479533930049000,1.552049072265625,-1.8679656982421875,0.1980743408203125,-0.5654449462890625
1761479533940085000,1.5620849609375,-1.5253143310546875,0.230560302734375,-0.4911651611328125
1761479533950121000,1.572120849609375,-1.208160400390625,0.2745208740234375,-0.410552978515625
1761479533960157000,1.582156982421875,-0.9376983642578125,0.2454833984375,-0.3553009033203125
1761479533970193000,1.59219287109375,-0.64019775390625,0.2056884765625,-0.376251220703125
1761479533980228900,1.602228759765625,-0.35589599609375,0.148956298828125,-0.4555511474609375
1761479533990264800,1.612264892578125,-0.064483642578125,0.076263427734375,-0.48529052734375
1761479534000300800,1.62230078125,0.1677703857421875,0.025543212890625,-0.4627685546875
1761479534010336800,1.632336669921875,0.311553955078125,0.0162353515625,-0.3826904296875
1761479534020373000,1.642373046875,0.40045166015625,0.0472564697265625,-0.2950439453125
1761479534030409000,1.652408935546875,0.4022064208984375,0.090179443359375,-0.2094268798828125
1761479534040445000,1.66244482421875,0.3673553466796875,0.112762451171875,-0.09356689453125
1761479534050481000,1.67248095703125,0.3601226806640625,0.1456756591796875,0.043975830078125
1761479534060516900,1.682516845703125,0.361572265625,0.144989013671875,0.1478729248046875
1761479534070553300,1.69255322265625,0.3430633544921875,0.0929412841796875,0.228240966796875
1761479534080589300,1.70258935546875,0.349151611328125,0.0549163818359375,0.267669677734375
1761479534090625300,1.712625244140625,0.35467529296875,0.0175323486328125,0.2599029541015625
1761479534100661200,1.7226611328125,0.3025665283203125,-0.0294036865234375,0.1896209716796875
1761479534110697200,1.732697265625,0.2273406982421875,-0.0523223876953125,0.0966949462890625
1761479534120733200,1.742733154296875,0.10479736328125,-0.071502685546875,-0.0269012451171875
1761479534130769200,1.75276904296875,-0.035186767578125,-0.1032562255859375,-0.1226959228515625
1761479534140805000,1.76280517578125,-0.2247772216796875,-0.13189697265625,-0.169891357421875
1761479534150841300,1.77284130859375,-0.4098052978515625,-0.1331787109375,-0.16522216796875
1761479534160877300,1.782877197265625,-0.5584259033203125,-0.1258544921875,-0.0950927734375
1761479534170913300,1.792913330078125,-0.6292724609375,-0.0995025634765625,0.0019378662109375
1761479534180949200,1.80294921875,-0.6240692138671875,-0.02325439453125,0.1024017333984375
1761479534190985200,1.812985107421875,-0.611724853515625,0.04058837890625,0.169952392578125
1761479534201021200,1.823021240234375,-0.612457275390625,0.095428466796875,0.134735107421875
1761479534211057200,1.83305712890625,-0.6013946533203125,0.1637115478515625,0.0504913330078125
1761479534221094100,1.84309423828125,-0.6817169189453125,0.176422119140625,-0.012908935546875
1761479534231130000,1.853130126953125,-0.8979034423828125,0.1118316650390625,-0.09246826171875
1761479534241166000,1.863166015625,-1.252960205078125,0.06585693359375,-0.2393951416015625
1761479534251202000,1.8732021484375,-1.592742919921875,0.060791015625,-0.4409637451171875
1761479534261238000,1.883238037109375,-1.8436737060546875,0.065338134765625,-0.701324462890625
1761479534271274000,1.89327392578125,-1.9609832763671875,0.0269317626953125,-0.971954345703125
1761479534281310200,1.903310302734375,-1.9181671142578125,-0.15130615234375,-1.2418060302734375
1761479534291346400,1.913346435546875,-1.7486724853515625,-0.4376373291015625,-1.5958709716796875
1761479534301382400,1.92338232421875,-1.586212158203125,-0.67388916015625,-1.7770538330078125
1761479534311418400,1.93341845703125,-1.55877685546875,-0.669525146484375,-1.5908050537109375
1761479534321454300,1.943454345703125,-1.64959716796875,-0.501617431640625,-1.1411590576171875
1761479534331490300,1.953490234375,-1.8322906494140625,-0.3425140380859375,-0.7210693359375
1761479534341526300,1.9635263671875,-2.039520263671875,-0.226837158203125,-0.470703125
1761479534351562200,1.973562255859375,-2.211334228515625,-0.15106201171875,-0.39019775390625
1761479534361598200,1.98359814453125,-2.3081817626953125,-0.1533660888671875,-0.4854888916015625
1761479534371635200,1.99363525390625,-2.3794708251953125,-0.19134521484375,-0.71783447265625
1761479534381671200,2.003671142578125,-2.4826812744140625,-0.2211761474609375,-0.9377899169921875
1761479534391707100,2.01370703125,-2.5483551025390625,-0.134674072265625,-1.0583038330078125
1761479534401743000,2.0237431640625,-2.520172119140625,0.045928955078125,-1.0280914306640625
1761479534411779000,2.033779052734375,-2.3134613037109375,0.164276123046875,-0.8201751708984375
1761479534421815000,2.04381494140625,-1.9970550537109375,0.2348480224609375,-0.5193023681640625
1761479534431851300,2.053851318359375,-1.691497802734375,0.2467041015625,-0.2163848876953125
1761479534441887200,2.06388720703125,-1.3838043212890625,0.23126220703125,-0.0192718505859375
1761479534451923200,2.073923095703125,-1.1318206787109375,0.1865234375,0.0300750732421875
1761479534461959200,2.083959228515625,-0.934967041015625,0.136322021484375,-0.0023345947265625
1761479534471995100,2.0939951171875,-0.7287750244140625,0.1060333251953125,-0.095062255859375
1761479534482031000,2.104031005859375,-0.56976318359375,0.079864501953125,-0.2423248291015625
1761479534492067000,2.114067138671875,-0.484771728515625,0.06805419921875,-0.3461761474609375
1761479534502103000,2.12410302734375,-0.407684326171875,0.06878662109375,-0.3712615966796875
1761479534512139300,2.13413916015625,-0.3287506103515625,0.0666656494140625,-0.33599853515625
1761479534522176300,2.14417626953125,-0.2333984375,0.0677947998046875,-0.2720184326171875
1761479534532212200,2.154212158203125,-0.1285858154296875,0.07305908203125,-0.21820068359375
1761479534542248200,2.164248291015625,-0.0321044921875,0.0722808837890625,-0.1658172607421875
1761479534552284200,2.1742841796875,0.05364990234375,0.07025146484375,-0.1021881103515625
1761479534562320100,2.184320068359375,0.1613922119140625,0.070343017578125,-0.0435638427734375
1761479534572356400,2.1943564453125,0.287353515625,0.068634033203125,0.0207672119140625
1761479534582392300,2.204392333984375,0.3538360595703125,0.044464111328125,0.08160400390625
1761479534592428300,2.21442822265625,0.3931732177734375,0.0277862548828125,0.1253509521484375
1761479534602464300,2.22446435546875,0.4007110595703125,0.014678955078125,0.1246490478515625
1761479534612500200,2.234500244140625,0.3444366455078125,0.0040130615234375,0.095550537109375
1761479534622536200,2.2445361328125,0.249969482421875,0.016632080078125,0.061492919921875
1761479534632572200,2.254572265625,0.1180877685546875,0.0279083251953125,0.0287933349609375
1761479534642608000,2.264608154296875,-0.0011749267578125,0.016387939453125,0.0150604248046875
1761479534652644000,2.27464404296875,-0.0955963134765625,-0.0011749267578125,0.023040771484375
1761479534662680000,2.28468017578125,-0.16058349609375,-0.03466796875,0.0410003662109375
1761479534672717000,2.294717041015625,-0.1881866455078125,-0.0661773681640625,0.0479583740234375
1761479534682753000,2.3047529296875,-0.2197113037109375,-0.084991455078125,0.0579833984375
1761479534692789200,2.314789306640625,-0.3123626708984375,-0.087738037109375,0.06414794921875
1761479534702825200,2.3248251953125,-0.4244842529296875,-0.0831298828125,0.003692626953125
1761479534712861200,2.334861083984375,-0.503662109375,-0.041473388671875,-0.0826568603515625
1761479534722897400,2.3448974609375,-0.6107025146484375,-0.0186004638671875,-0.1392364501953125
1761479534732933400,2.354933349609375,-0.676727294921875,-0.002716064453125,-0.1415863037109375
1761479534742969300,2.36496923828125,-0.797119140625,-0.0127410888671875,-0.1625518798828125
1761479534753005300,2.37500537109375,-1.0027008056640625,-0.0350494384765625,-0.205841064453125
1761479534763041300,2.385041259765625,-1.2493896484375,-0.0106353759765625,-0.253936767578125
1761479534773077200,2.3950771484375,-1.5635223388671875,0.024627685546875,-0.3879547119140625
1761479534783113200,2.40511328125,-1.8865814208984375,0.0115509033203125,-0.6282196044921875
1761479534793149200,2.415149169921875,-2.1107025146484375,-0.107330322265625,-0.9412078857421875
1761479534803185200,2.42518505859375,-2.1158447265625,-0.37982177734375,-1.4268798828125
1761479534813221000,2.43522119140625,-2.04205322265625,-0.7661285400390625,-2.07928466796875
1761479534823257000,2.445257080078125,-2.027618408203125,-1.0636749267578125,-2.503662109375
1761479534833294000,2.455294189453125,-2.1192169189453125,-1.0345611572265625,-2.37188720703125
1761479534843330000,2.465330078125,-2.188018798828125,-0.7485504150390625,-1.7198638916015625
1761479534853366000,2.475365966796875,-2.236907958984375,-0.501129150390625,-0.903350830078125
1761479534863402200,2.48540234375,-2.3414764404296875,-0.31610107421875,-0.371856689453125
1761479534873438200,2.495438232421875,-2.45587158203125,-0.201416015625,-0.189697265625
1761479534883474200,2.50547412109375,-2.3762359619140625,-0.1708526611328125,-0.15570068359375
1761479534893510100,2.51551025390625,-2.12493896484375,-0.2144775390625,-0.1761627197265625
1761479534903546000,2.525546142578125,-1.8587188720703125,-0.3449249267578125,-0.31292724609375
1761479534913582000,2.53558203125,-1.6482391357421875,-0.446075439453125,-0.50738525390625
1761479534923618300,2.545618408203125,-1.5734405517578125,-0.4229278564453125,-0.6319732666015625
1761479534933654300,2.555654296875,-1.60382080078125,-0.28631591796875,-0.58221435546875
1761479534943690200,2.565690185546875,-1.6203765869140625,-0.1598968505859375,-0.37835693359375
1761479534953726200,2.575726318359375,-1.664154052734375,-0.0024261474609375,-0.259002685546875
1761479534963762200,2.58576220703125,-1.455474853515625,0.1927490234375,-0.2904052734375
1761479534973798400,2.59579833984375,-1.352630615234375,0.403350830078125,-0.2856292724609375
1761479534983834400,2.60583447265625,-1.1096038818359375,0.244720458984375,-0.16357421875
1761479534993871000,2.61587109375,-0.71917724609375,0.1643218994140625,-0.1952362060546875
1761479535003907300,2.6259072265625,-0.4782562255859375,0.2220001220703125,-0.2230682373046875
1761479535013943300,2.635943359375,-0.311920166015625,0.154876708984375,-0.2031097412109375
1761479535023979300,2.645979248046875,-0.1221771240234375,0.0501556396484375,-0.1797637939453125
1761479535034015200,2.65601513671875,0.04229736328125,0.000091552734375,-0.1479644775390625
1761479535044051200,2.66605126953125,0.164276123046875,-0.01434326171875,-0.0936737060546875
1761479535054087200,2.676087158203125,0.2562713623046875,-0.0225830078125,0.0250396728515625
1761479535064123100,2.686123046875,0.2621612548828125,-0.0305023193359375,0.13494873046875
1761479535074160000,2.69616015625,0.25665283203125,-0.0352630615234375,0.1357574462890625
1761479535084196000,2.706196044921875,0.290863037109375,-0.01177978515625,0.088958740234375
1761479535094232000,2.716232177734375,0.3083343505859375,0.00067138671875,0.0745086669921875
1761479535104268000,2.72626806640625,0.297637939453125,-0.022308349609375,0.091217041015625
1761479535114304000,2.736303955078125,0.25225830078125,-0.020904541015625,0.127899169921875
1761479535124340000,2.746340087890625,0.13812255859375,0.0011444091796875,0.176788330078125
1761479535134376000,2.7563759765625,0.0131683349609375,0.0095062255859375,0.2117919921875
1761479535144412200,2.766412109375,-0.1064300537109375,0.02166748046875,0.192169189453125
1761479535154449000,2.776448974609375,-0.231201171875,0.0207672119140625,0.095855712890625
1761479535164484900,2.78648486328125,-0.3395233154296875,0.0148773193359375,-0.0204010009765625
1761479535174521000,2.79652099609375,-0.448974609375,0.0058135986328125,-0.092681884765625
1761479535184557000,2.80655712890625,-0.555145263671875,-0.027374267578125,-0.142120361328125
1761479535194593300,2.81659326171875,-0.6200714111328125,-0.0455169677734375,-0.2292022705078125
1761479535204629200,2.826629150390625,-0.62298583984375,-0.0251922607421875,-0.3002777099609375
1761479535214665200,2.836665283203125,-0.58905029296875,0.023529052734375,-0.2402191162109375
1761479535224701200,2.846701171875,-0.5923919677734375,0.0205078125,-0.108917236328125
1761479535234737200,2.856737060546875,-0.5983123779296875,0.0036163330078125,0.0266876220703125
1761479535244773000,2.866773193359375,-0.6427001953125,0.0177764892578125,0.133758544921875
1761479535254809000,2.87680908203125,-0.72027587890625,-0.0206451416015625,0.1769561767578125
1761479535264845000,2.886844970703125,-0.8358306884765625,-0.092071533203125,0.0944366455078125
1761479535274881000,2.896881103515625,-1.02056884765625,-0.10809326171875,-0.086761474609375
1761479535284917000,2.9069169921875,-1.210601806640625,-0.10308837890625,-0.32830810546875
1761479535294953200,2.916953125,-1.4382476806640625,-0.123992919921875,-0.604705810546875
1761479535304990000,2.926989990234375,-1.683441162109375,-0.1709442138671875,-0.886016845703125
1761479535315026000,2.93702587890625,-1.8821258544921875,-0.305877685546875,-1.150482177734375
1761479535325062100,2.947062255859375,-2.0333709716796875,-0.5808563232421875,-1.387451171875
1761479535335098000,2.95709814453125,-2.1492919921875,-0.9321136474609375,-1.6866302490234375
1761479535345134000,2.967134033203125,-2.222900390625,-1.11041259765625,-2.0872344970703125
1761479535355170000,2.977170166015625,-2.2036590576171875,-0.9924774169921875,-2.139190673828125
1761479535365206000,2.9872060546875,-2.211273193359375,-0.7974090576171875,-1.68792724609375
1761479535375242000,2.997241943359375,-2.2239837646484375,-0.5309600830078125,-0.982177734375
1761479535385278000,3.00727783203125,-2.29913330078125,-0.3820343017578125,-0.5323944091796875
1761479535395314000,3.01731396484375,-2.25933837890625,-0.3537750244140625,-0.393798828125
1761479535405350000,3.027349853515625,-2.168548583984375,-0.3419189453125,-0.44476318359375
1761479535415385900,3.0373857421875,-2.068603515625,-0.3591156005859375,-0.5620880126953125
1761479535425422000,3.047422119140625,-1.87347412109375,-0.4013671875,-0.604095458984375
1761479535435458300,3.057458251953125,-1.6522674560546875,-0.354522705078125,-0.53302001953125
1761479535445494300,3.067494384765625,-1.487335205078125,-0.2247314453125,-0.323760986328125
1761479535455530200,3.0775302734375,-1.3392333984375,-0.0701141357421875,-0.0352783203125
1761479535465566200,3.087566162109375,-1.2814178466796875,0.0513153076171875,0.1240081787109375
1761479535475603200,3.097603271484375,-1.2602996826171875,0.1556396484375,0.1891632080078125
1761479535485639200,3.10763916015625,-1.188262939453125,0.15142822265625,0.25445556640625
1761479535495675100,3.117675048828125,-1.0149993896484375,0.0826416015625,0.253875732421875
1761479535505711000,3.127711181640625,-0.774017333984375,0.0691375732421875,0.0814971923828125
1761479535515747000,3.1377470703125,-0.56500244140625,-0.0125579833984375,-0.0536956787109375
1761479535525783000,3.147782958984375,-0.4442291259765625,-0.10052490234375,-0.1534881591796875
1761479535535819000,3.157819091796875,-0.33599853515625,-0.126007080078125,-0.27960205078125
1761479535545855000,3.16785498046875,-0.226104736328125,-0.0950927734375,-0.3236541748046875
1761479535555891000,3.177890869140625,-0.0913543701171875,-0.0420379638671875,-0.254364013671875
1761479535565927000,3.187927001953125,0.0125579833984375,-0.0121917724609375,-0.1160125732421875
1761479535575963100,3.197963134765625,0.0849761962890625,0.0457000732421875,0.037750244140625
1761479535585999000,3.2079990234375,0.1307373046875,0.0879364013671875,0.16497802734375
1761479535596035000,3.21803515625,0.1898956298828125,0.0686798095703125,0.2396087646484375
1761479535606071000,3.228071044921875,0.23577880859375,0.037872314453125,0.259521484375
1761479535616107000,3.23810693359375,0.2889862060546875,-0.00335693359375,0.2299346923828125
1761479535626143000,3.24814306640625,0.3441925048828125,-0.023345947265625,0.123992919921875
1761479535636179000,3.258178955078125,0.2800750732421875,0.0201416015625,-0.0451507568359375
1761479535646216200,3.26821630859375,0.1522979736328125,0.09368896484375,-0.1255340576171875
1761479535656252200,3.278252197265625,0.1467437744140625,0.131744384765625,-0.23480224609375
1761479535666288000,3.2882880859375,-0.1070098876953125,-0.0212860107421875,-0.185638427734375
1761479535676324000,3.298323974609375,-0.2110137939453125,-0.059844970703125,-0.1115875244140625
1761479535686360000,3.308360107421875,-0.1755828857421875,0.0251007080078125,-0.095916748046875
1761479535696396000,3.31839599609375,-0.2720947265625,0.052459716796875,-0.063690185546875
1761479535706432000,3.328431884765625,-0.3972625732421875,0.0253448486328125,-0.0379638671875
1761479535716468000,3.338468017578125,-0.5240020751953125,-0.02734375,-0.0494537353515625
1761479535726504200,3.348504150390625,-0.6512603759765625,-0.04052734375,-0.084930419921875
1761479535736540200,3.3585400390625,-0.7509765625,-0.0490875244140625,-0.1167144775390625
1761479535746576100,3.368576171875,-0.837799072265625,-0.11566162109375,-0.11517333984375
1761479535756612000,3.378612060546875,-0.9199371337890625,-0.1964263916015625,-0.106231689453125
1761479535766648000,3.38864794921875,-0.9913482666015625,-0.2369232177734375,-0.117767333984375
1761479535776684000,3.39868408203125,-1.089019775390625,-0.2461700439453125,-0.188751220703125
1761479535786720000,3.408719970703125,-1.2863616943359375,-0.2509002685546875,-0.2994384765625
1761479535796756000,3.418755859375,-1.61956787109375,-0.308502197265625,-0.3871917724609375
1761479535806793000,3.42879296875,-1.88397216796875,-0.3719482421875,-0.4447479248046875
1761479535816829000,3.438828857421875,-1.936248779296875,-0.5748291015625,-0.64019775390625
1761479535826865200,3.448865234375,-2.0222015380859375,-0.9085235595703125,-1.1252288818359375
1761479535836901000,3.458901123046875,-2.277557373046875,-1.0177001953125,-1.7764129638671875
1761479535846937000,3.46893701171875,-2.4843597412109375,-0.803955078125,-2.1159515380859375
1761479535856973000,3.47897314453125,-2.519012451171875,-0.5799560546875,-1.7830810546875
1761479535867009300,3.48900927734375,-2.535797119140625,-0.48895263671875,-0.978790283203125
1761479535877045200,3.499045166015625,-2.4941558837890625,-0.4386138916015625,-0.25604248046875
1761479535887081200,3.509081298828125,-2.416412353515625,-0.4811553955078125,0.1621551513671875
1761479535897117200,3.5191171875,-2.3499603271484375,-0.4456939697265625,0.1987152099609375
1761479535907153200,3.529153076171875,-2.1717987060546875,-0.3282470703125,0.026702880859375
1761479535917189000,3.539189208984375,-2.0178680419921875,-0.294830322265625,-0.17138671875
1761479535927225000,3.54922509765625,-1.96539306640625,-0.272003173828125,-0.3143463134765625
1761479535937261000,3.559260986328125,-1.8770751953125,-0.1347198486328125,-0.380462646484375
1761479535947297000,3.569297119140625,-1.7136993408203125,-0.007110595703125,-0.3483734130859375
1761479535957333000,3.5793330078125,-1.4990692138671875,0.083251953125,-0.2417755126953125
1761479535967369000,3.589368896484375,-1.2487030029296875,0.1577301025390625,-0.1364593505859375
1761479535977405200,3.5994052734375,-0.9914093017578125,0.167266845703125,-0.141204833984375
1761479535987442000,3.60944189453125,-0.70501708984375,0.1639862060546875,-0.18890380859375
1761479535997478000,3.619477783203125,-0.4442596435546875,0.1939544677734375,-0.224761962890625
1761479536007514000,3.62951416015625,-0.2479705810546875,0.1995849609375,-0.2112579345703125
1761479536017550000,3.639550048828125,-0.1652679443359375,0.212982177734375,-0.2075042724609375
1761479536027586000,3.6495859375,-0.1406402587890625,0.189239501953125,-0.191619873046875
1761479536037622000,3.6596220703125,-0.1536407470703125,0.2345733642578125,-0.2082977294921875
1761479536047658000,3.669657958984375,-0.1309814453125,0.2550506591796875,-0.11639404296875
1761479536057694200,3.679694091796875,-0.1029815673828125,0.182281494140625,0.052520751953125
1761479536067730200,3.689730224609375,-0.10174560546875,0.0819091796875,0.02862548828125
1761479536077766100,3.69976611328125,-0.0460357666015625,-0.013671875,-0.0885772705078125
1761479536087802000,3.709802001953125,0.0579071044921875,-0.0342254638671875,-0.172637939453125
1761479536097838000,3.719838134765625,0.151824951171875,-0.0179901123046875,-0.2188720703125
1761479536107874000,3.7298740234375,0.2396392822265625,-0.03021240234375,-0.1709442138671875
1761479536117910300,3.73991015625,0.2910308837890625,-0.083038330078125,-0.0401458740234375
1761479536127946200,3.7499462890625,0.235565185546875,-0.1110076904296875,0.066192626953125
1761479536137982200,3.759982177734375,0.0654144287109375,-0.09588623046875,0.1232757568359375
1761479536148018200,3.77001806640625,-0.20855712890625,-0.0588226318359375,0.105224609375
1761479536158055200,3.78005517578125,-0.5013580322265625,-0.0255126953125,0.0043487548828125
1761479536168091100,3.790091064453125,-0.6551971435546875,-0.000885009765625,-0.113433837890625
1761479536178127000,3.800127197265625,-0.6582489013671875,0.0199737548828125,-0.1815185546875
1761479536188163000,3.8101630859375,-0.608489990234375,-0.0056915283203125,-0.179931640625
1761479536198199000,3.820198974609375,-0.5246124267578125,-0.042236328125,-0.0753326416015625
1761479536208235000,3.830235107421875,-0.427337646484375,-0.0482635498046875,0.086578369140625
1761479536218271000,3.84027099609375,-0.4586181640625,-0.0971221923828125,0.2045135498046875
1761479536228307000,3.850306884765625,-0.5751800537109375,-0.156219482421875,0.214080810546875
1761479536238343200,3.86034326171875,-0.5974273681640625,-0.0889892578125,0.0779571533203125
1761479536248379100,3.870379150390625,-0.7441558837890625,0.02081298828125,-0.05419921875
1761479536258415000,3.8804150390625,-0.8973541259765625,0.0318145751953125,-0.1124420166015625
1761479536268451300,3.890451416015625,-0.92828369140625,-0.05194091796875,-0.121673583984375
1761479536278487300,3.9004873046875,-1.04248046875,-0.1129608154296875,-0.0984649658203125
1761479536288523300,3.910523193359375,-1.1934661865234375,-0.1807708740234375,-0.112518310546875
1761479536298559200,3.920559326171875,-1.3726043701171875,-0.2441864013671875,-0.2857666015625
1761479536308595200,3.93059521484375,-1.58941650390625,-0.2701416015625,-0.5825042724609375
1761479536318631200,3.940631103515625,-1.663421630859375,-0.3756256103515625,-0.954437255859375
1761479536328667100,3.950667236328125,-1.69097900390625,-0.608489990234375,-1.43719482421875
1761479536338704100,3.9607041015625,-1.8140869140625,-0.7778778076171875,-1.8545074462890625
1761479536348740000,3.970739990234375,-1.98907470703125,-0.6585540771484375,-1.9284515380859375
1761479536358776000,3.980776123046875,-2.2793426513671875,-0.4120330810546875,-1.5514373779296875
1761479536368812000,3.99081201171875,-2.6610565185546875,-0.3710479736328125,-0.9300079345703125
1761479536378848000,4.000847900390625,-2.8792572021484375,-0.3792572021484375,-0.3950042724609375
1761479536388884000,4.010884033203125,-2.8260650634765625,-0.33782958984375,-0.05975341796875
1761479536398918100,4.020918212890625,-2.576507568359375,-0.2864837646484375,0.06903076171875
1761479536408954000,4.0309541015625,-2.2630615234375,-0.23382568359375,0.0262908935546875
1761479536418990000,4.040989990234375,-1.9415740966796875,-0.208465576171875,-0.08013916015625
1761479536429026000,4.051026123046875,-1.6891021728515625,-0.170318603515625,-0.179107666015625
1761479536439062000,4.06106201171875,-1.5108795166015625,-0.0811920166015625,-0.240936279296875
1761479536449099000,4.07109912109375,-1.460205078125,0.0751190185546875,-0.230438232421875
1761479536459135000,4.081135009765625,-1.5133514404296875,0.1809844970703125,-0.0865325927734375
1761479536469171000,4.0911708984375,-1.522247314453125,0.2082672119140625,0.0831146240234375
1761479536479207000,4.10120703125,-1.406219482421875,0.2447967529296875,0.1491851806640625
1761479536489243100,4.1112431640625,-1.203155517578125,0.2580108642578125,0.0922698974609375
1761479536499279000,4.121279052734375,-0.92523193359375,0.19915771484375,-0.053955078125
1761479536509315000,4.131315185546875,-0.618072509765625,0.1397857666015625,-0.22552490234375
1761479536519351000,4.14135107421875,-0.3616943359375,0.105621337890625,-0.3943328857421875
1761479536529387300,4.15138720703125,-0.16009521484375,0.07794189453125,-0.5131683349609375
1761479536539423200,4.16142333984375,-0.00579833984375,0.056243896484375,-0.5485992431640625
1761479536549459200,4.171459228515625,0.0901336669921875,0.03985595703125,-0.5086212158203125
1761479536559495200,4.1814951171875,0.153472900390625,0.0374908447265625,-0.372589111328125
1761479536569531100,4.19153125,0.1923370361328125,0.0299072265625,-0.190643310546875
1761479536579567000,4.201567138671875,0.2048187255859375,0.0188140869140625,-0.0606231689453125
1761479536589603000,4.21160302734375,0.222808837890625,0.0175933837890625,0.03192138671875
1761479536599639300,4.221639404296875,0.2205047607421875,0.0270538330078125,0.1211700439453125
1761479536609675300,4.23167529296875,0.21636962890625,0.0286865234375,0.18658447265625
1761479536619711200,4.241711181640625,0.2057647705078125,0.00537109375,0.2200164794921875
1761479536629747200,4.251747314453125,0.174072265625,-0.0461273193359375,0.138336181640625
1761479536639784200,4.2617841796875,0.13116455078125,-0.051361083984375,0.0124664306640625
1761479536649820200,4.271820068359375,0.083099365234375,-0.0540618896484375,-0.029296875
1761479536659856100,4.281856201171875,0.01171875,-0.1116943359375,0.017120361328125
1761479536669892000,4.29189208984375,-0.1296844482421875,-0.1367034912109375,0.0824127197265625
1761479536679928000,4.301927978515625,-0.3088836669921875,-0.104583740234375,0.1321868896484375
1761479536689964000,4.311964111328125,-0.4661407470703125,-0.096282958984375,0.1099853515625
1761479536700000000,4.322,-0.5452728271484375,-0.097076416015625,0.0496826171875
1761479536710036000,4.332035888671875,-0.5777587890625,-0.05755615234375,-0.0117645263671875
1761479536720072000,4.342072021484375,-0.583831787109375,-0.0121307373046875,-0.03143310546875
1761479536730108000,4.35210791015625,-0.5470428466796875,-0.008819580078125,0.011749267578125
1761479536740144000,4.36214404296875,-0.4885406494140625,0.0255584716796875,0.0865325927734375
1761479536750180000,4.37218017578125,-0.502777099609375,0.0675506591796875,0.1913604736328125
1761479536760216300,4.38221630859375,-0.6737213134765625,0.0310211181640625,0.2627410888671875
1761479536770252300,4.392252197265625,-0.9402008056640625,0.0294189453125,0.1684112548828125
1761479536780288300,4.402288330078125,-1.3202667236328125,0.072174072265625,-0.0270538330078125
1761479536790324200,4.41232421875,-1.788055419921875,0.0929412841796875,-0.2275238037109375
1761479536800360200,4.422360107421875,-2.1823577880859375,0.0579833984375,-0.4048309326171875
1761479536810396200,4.432396240234375,-2.320159912109375,-0.2150421142578125,-0.63604736328125
1761479536820432100,4.44243212890625,-2.3360748291015625,-0.7931671142578125,-1.1263580322265625
1761479536830469000,4.45246923828125,-2.4818115234375,-1.151702880859375,-1.8843536376953125
1761479536840505000,4.462505126953125,-2.60491943359375,-0.9209747314453125,-2.36993408203125
1761479536850541000,4.472541015625,-2.6605224609375,-0.51776123046875,-2.0146942138671875
1761479536860577000,4.482576904296875,-2.617401123046875,-0.247589111328125,-0.9814910888671875
1761479536870613000,4.492613037109375,-2.4188079833984375,-0.1265869140625,-0.023895263671875
1761479536880649200,4.502649169921875,-2.23834228515625,-0.2559661865234375,0.4908599853515625
1761479536890685200,4.512685302734375,-2.01373291015625,-0.4252471923828125,0.40087890625
1761479536900721200,4.52272119140625,-1.8954925537109375,-0.4640655517578125,-0.1528472900390625
1761479536910757000,4.532757080078125,-2.0351104736328125,-0.4647216796875,-0.7115020751953125
1761479536920793000,4.54279296875,-2.276031494140625,-0.32513427734375,-1.06561279296875
1761479536930829000,4.5528291015625,-2.357391357421875,-0.1264190673828125,-1.0718994140625
1761479536940865000,4.562864990234375,-2.0960540771484375,-0.042327880859375,-0.751190185546875
1761479536950901000,4.57290087890625,-1.6947784423828125,0.0345916748046875,-0.382720947265625
1761479536960937000,4.58293701171875,-1.3437042236328125,0.0289306640625,-0.0589599609375
1761479536970974200,4.59297412109375,-1.0391693115234375,-0.018890380859375,0.1719970703125
1761479536981010200,4.60301025390625,-0.80328369140625,-0.0307769775390625,0.2421875
1761479536991046100,4.613046142578125,-0.63653564453125,-0.0114898681640625,0.16375732421875
1761479537001082000,4.62308203125,-0.5409088134765625,0.0412139892578125,0.0334930419921875
1761479537011118000,4.6331181640625,-0.512542724609375,0.1019744873046875,-0.0590362548828125
1761479537021154000,4.643154052734375,-0.5267791748046875,0.1712493896484375,-0.094329833984375
1761479537031190300,4.653190185546875,-0.5038909912109375,0.207366943359375,-0.1013031005859375
1761479537041226200,4.663226318359375,-0.37799072265625,0.221649169921875,-0.088134765625
1761479537051262200,4.67326220703125,-0.20013427734375,0.2053070068359375,-0.0541229248046875
1761479537061298200,4.683298095703125,-0.048828125,0.1416015625,0.0035247802734375
1761479537071334100,4.693334228515625,0.063140869140625,0.0869903564453125,0.0517730712890625
1761479537081369300,4.703369384765625,0.1789093017578125,0.046844482421875,0.0433807373046875
1761479537091405300,4.7134052734375,0.2769775390625,0.0125274658203125,-0.0114593505859375
1761479537101441300,4.723441162109375,0.3407440185546875,-0.0082550048828125,-0.07086181640625
1761479537111478500,4.733478515625,0.449371337890625,-0.051055908203125,-0.1212615966796875
1761479537121514500,4.743514404296875,0.4535675048828125,-0.04644775390625,-0.15252685546875
1761479537131550500,4.753550537109375,0.34613037109375,-0.0014495849609375,-0.130523681640625
1761479537141586400,4.76358642578125,0.1854248046875,0.0082550048828125,-0.0630340576171875
1761479537151622700,4.77362255859375,-0.003387451171875,0.0093994140625,-0.0380859375
1761479537161658600,4.78365869140625,-0.13323974609375,0.0454864501953125,-0.0568695068359375
1761479537171694600,4.793694580078125,-0.25048828125,0.05572509765625,-0.0579376220703125
1761479537181730600,4.80373046875,-0.3393707275390625,0.002532958984375,-0.0450439453125
1761479537191766500,4.8137666015625,-0.382568359375,-0.0298309326171875,-0.0360565185546875
1761479537201802500,4.823802490234375,-0.4164886474609375,-0.0191192626953125,0.0091094970703125
1761479537211838500,4.83383837890625,-0.4855804443359375,-0.0147705078125,0.1021270751953125
1761479537221874400,4.84387451171875,-0.5894622802734375,-0.041168212890625,0.168792724609375
1761479537231910400,4.853910400390625,-0.689697265625,-0.08026123046875,0.1477508544921875
1761479537241946400,4.8639462890625,-0.776123046875,-0.123046875,0.03564453125
1761479537251982300,4.873982421875,-0.8504791259765625,-0.1466217041015625,-0.10546875
1761479537262018600,4.8840185546875,-0.967071533203125,-0.1717681884765625,-0.2027740478515625
1761479537272054500,4.894054443359375,-1.0928497314453125,-0.185272216796875,-0.25604248046875
1761479537282090500,4.904090576171875,-1.2606048583984375,-0.1710205078125,-0.28460693359375
1761479537292127500,4.91412744140625,-1.375885009765625,-0.1687469482421875,-0.3537750244140625
1761479537302163500,4.92416357421875,-1.334747314453125,-0.1852264404296875,-0.501678466796875
1761479537312199400,4.934199462890625,-1.2062225341796875,-0.307647705078125,-0.69561767578125
1761479537322235400,4.9442353515625,-1.0982818603515625,-0.573150634765625,-0.907867431640625
1761479537332271400,4.954271240234375,-1.1191558837890625,-0.78216552734375,-1.1800537109375
1761479537342307600,4.9643076171875,-1.205963134765625,-0.9900970458984375,-1.461700439453125
1761479537352343600,4.974343505859375,-1.4368743896484375,-1.0607147216796875,-1.698394775390625
1761479537362379500,4.984379638671875,-1.8083038330078125,-0.827667236328125,-1.661163330078125
1761479537372415500,4.99441552734375,-2.2718048095703125,-0.5906829833984375,-1.2760772705078125
1761479537382451500,5.004451416015625,-2.691253662109375,-0.46759033203125,-0.7766876220703125
1761479537392487400,5.0144873046875,-2.8828582763671875,-0.4181671142578125,-0.33514404296875
1761479537402523400,5.0245234375,-2.936126708984375,-0.40997314453125,-0.12591552734375
1761479537412559600,5.0345595703125,-2.8965911865234375,-0.4426727294921875,-0.17730712890625
1761479537422595600,5.044595703125,-2.71881103515625,-0.4945526123046875,-0.3472137451171875
1761479537432631600,5.054631591796875,-2.545166015625,-0.4832763671875,-0.505096435546875
1761479537442667500,5.06466748046875,-2.4107818603515625,-0.34686279296875,-0.5176544189453125
1761479537452703500,5.074703369140625,-2.180206298828125,-0.20440673828125,-0.3842010498046875
1761479537462740500,5.084740478515625,-1.8115081787109375,-0.1024932861328125,-0.2592926025390625
1761479537472776400,5.0947763671875,-1.423614501953125,-0.0073394775390625,-0.191070556640625
1761479537482812400,5.1048125,-1.09429931640625,0.0413818359375,-0.1623687744140625
1761479537492848400,5.114848388671875,-0.853118896484375,0.084503173828125,-0.1669158935546875
1761479537502884400,5.12488427734375,-0.6659698486328125,0.157073974609375,-0.221893310546875
1761479537512920300,5.13492041015625,-0.4790191650390625,0.199005126953125,-0.28582763671875
1761479537522956300,5.144956298828125,-0.3257598876953125,0.2123870849609375,-0.3427581787109375
1761479537532992300,5.1549921875,-0.2287445068359375,0.219818115234375,-0.3561248779296875
1761479537543028500,5.165028564453125,-0.1754608154296875,0.2053070068359375,-0.3320159912109375
1761479537553064400,5.175064453125,-0.1446380615234375,0.1764678955078125,-0.325592041015625
1761479537563100400,5.185100341796875,-0.101593017578125,0.1494598388671875,-0.311553955078125
1761479537573136600,5.19513671875,-0.018402099609375,0.10784912109375,-0.266357421875
1761479537583172600,5.205172607421875,0.056121826171875,0.0563507080078125,-0.2185821533203125
1761479537593208600,5.21520849609375,0.1301422119140625,0.0331573486328125,-0.1528778076171875
1761479537603244500,5.22524462890625,0.202880859375,0.030487060546875,-0.050811767578125
1761479537613280500,5.235280517578125,0.2364959716796875,0.0032806396484375,0.0646514892578125
1761479537623316500,5.24531640625,0.2425384521484375,-0.0341033935546875,0.1413116455078125
1761479537633352400,5.2553525390625,0.21197509765625,-0.0549468994140625,0.17657470703125
1761479537643389400,5.265389404296875,0.17266845703125,0.0111083984375,0.1854705810546875
1761479537653425400,5.27542529296875,0.1054534912109375,-0.034515380859375,0.1255035400390625
1761479537663461400,5.28546142578125,-0.0250091552734375,-0.1488037109375,0.0645751953125
1761479537673497300,5.295497314453125,-0.1192474365234375,-0.163238525390625,-0.0004119873046875
1761479537683533300,5.305533203125,-0.2038421630859375,-0.1461334228515625,-0.0389404296875
1761479537693569500,5.315569580078125,-0.3204345703125,-0.132171630859375,-0.0589599609375
1761479537703605500,5.32560546875,-0.436920166015625,-0.0847930908203125,-0.0771942138671875
1761479537713641500,5.335641357421875,-0.4837188720703125,-0.018035888671875,-0.0640716552734375
1761479537723677400,5.345677490234375,-0.500030517578125,0.0132293701171875,0.002899169921875
1761479537733713400,5.35571337890625,-0.563934326171875,0.0009613037109375,0.0623779296875
1761479537743749400,5.365749267578125,-0.5832061767578125,0.0140533447265625,0.08349609375
1761479537753785300,5.375785400390625,-0.586944580078125,0.0562744140625,0.043975830078125
1761479537763821300,5.3858212890625,-0.622589111328125,0.0494384765625,-0.059844970703125
1761479537773857300,5.395857177734375,-0.6943817138671875,-0.0230865478515625,-0.1944427490234375
1761479537783893200,5.405893310546875,-0.82794189453125,-0.113555908203125,-0.2901458740234375
1761479537793929200,5.41592919921875,-1.0891876220703125,-0.177093505859375,-0.3379669189453125
1761479537803965700,5.425965576171875,-1.4203338623046875,-0.1767120361328125,-0.4347686767578125
1761479537814001700,5.436001708984375,-1.70947265625,-0.1077880859375,-0.7042388916015625
1761479537824038400,5.446038330078125,-1.90557861328125,-0.0533294677734375,-1.0722198486328125
1761479537834074600,5.45607470703125,-1.875,-0.2214202880859375,-1.371734619140625
1761479537844110600,5.466110595703125,-1.7732391357421875,-0.5461273193359375,-1.4955902099609375
1761479537854146600,5.476146484375,-1.664703369140625,-0.8729095458984375,-1.5389404296875
1761479537864182500,5.4861826171875,-1.6246795654296875,-1.046112060546875,-1.506744384765625
1761479537874218500,5.496218505859375,-1.8389129638671875,-0.8229827880859375,-1.186553955078125
1761479537884254500,5.50625439453125,-2.3162994384765625,-0.576080322265625,-0.5644989013671875
1761479537894290400,5.51629052734375,-2.81103515625,-0.4331207275390625,-0.087677001953125
1761479537904326400,5.526326416015625,-3.07037353515625,-0.270538330078125,0.167633056640625
1761479537914362400,5.5363623046875,-2.9885101318359375,-0.1090240478515625,0.308807373046875
1761479537924398300,5.5463984375,-2.72772216796875,-0.08807373046875,0.312255859375
1761479537934434300,5.556434326171875,-2.38067626953125,-0.142608642578125,0.1631011962890625
1761479537944470500,5.566470458984375,-2.0699005126953125,-0.16314697265625,-0.1149139404296875
1761479537954506500,5.576506591796875,-1.83856201171875,-0.1388092041015625,-0.3654937744140625
1761479537964542500,5.58654248046875,-1.7048492431640625,-0.05438232421875,-0.46588134765625
1761479537974578400,5.596578369140625,-1.5662841796875,0.0678253173828125,-0.422821044921875
1761479537984614400,5.606614501953125,-1.3914031982421875,0.1688079833984375,-0.337860107421875
1761479537994650400,5.616650390625,-1.165740966796875,0.2488250732421875,-0.2720489501953125
1761479538004687600,5.6266875,-0.930816650390625,0.2928619384765625,-0.182403564453125
1761479538014723600,5.6367236328125,-0.7260894775390625,0.28887939453125,-0.116241455078125
1761479538024759600,5.646759521484375,-0.5384979248046875,0.239990234375,-0.112762451171875
1761479538034795500,5.65679541015625,-0.3421630859375,0.1545257568359375,-0.1808013916015625
1761479538044831500,5.66683154296875,-0.161224365234375,0.078643798828125,-0.3344573974609375
1761479538054867500,5.676867431640625,0.0035247802734375,0.0214080810546875,-0.5113525390625
1761479538064903400,5.6869033203125,0.14739990234375,-0.0050811767578125,-0.585174560546875
1761479538074939600,5.696939697265625,0.2193145751953125,0.03277587890625,-0.5074462890625
1761479538084975600,5.7069755859375,0.2136383056640625,0.076019287109375,-0.31103515625
1761479538095011600,5.717011474609375,0.1729583740234375,0.0680389404296875,-0.0747833251953125
1761479538105047800,5.7270478515625,0.1526031494140625,0.0653228759765625,0.15216064453125
1761479538115083800,5.737083740234375,0.120361328125,0.0697479248046875,0.3114013671875
1761479538125119700,5.74711962890625,0.072235107421875,0.0236968994140625,0.3474273681640625
1761479538135155700,5.75715576171875,0.0701904296875,-0.0166015625,0.314453125
1761479538145191700,5.767191650390625,0.0750885009765625,-0.0400543212890625,0.2393951416015625
1761479538155227600,5.7772275390625,0.06573486328125,-0.081207275390625,0.1353759765625
1761479538165263600,5.787263671875,0.0375213623046875,-0.11004638671875,0.0664215087890625
1761479538175299600,5.797299560546875,-0.0107421875,-0.0941162109375,0.0355072021484375
1761479538185335600,5.80733544921875,-0.0576171875,-0.063995361328125,0.03375244140625
1761479538195372800,5.817372802734375,-0.119110107421875,-0.044586181640625,0.0360107421875
1761479538205408800,5.82740869140625,-0.1934967041015625,-0.0289154052734375,0.0052642822265625
1761479538215444700,5.83744482421875,-0.295562744140625,-0.0029754638671875,-0.035491943359375
1761479538225480700,5.847480712890625,-0.376434326171875,0.037841796875,-0.0582275390625
1761479538235516700,5.8575166015625,-0.4037933349609375,0.06640625,-0.061981201171875
1761479538245553000,5.867552978515625,-0.4061737060546875,0.0875396728515625,-0.0607757568359375
1761479538255588900,5.8775888671875,-0.3898468017578125,0.0800018310546875,-0.08319091796875
1761479538265624800,5.887624755859375,-0.3732452392578125,0.0624847412109375,-0.136688232421875
1761479538275660800,5.897660888671875,-0.457794189453125,-0.000885009765625,-0.2122344970703125
1761479538285696800,5.90769677734375,-0.74407958984375,-0.0807952880859375,-0.30108642578125
1761479538295732700,5.917732666015625,-1.1902008056640625,-0.122283935546875,-0.41534423828125
1761479538305768700,5.927768798828125,-1.68841552734375,-0.0929107666015625,-0.6313934326171875
1761479538315804700,5.9378046875,-2.1417236328125,-0.0312652587890625,-0.9640045166015625
1761479538325840600,5.947840576171875,-2.363677978515625,-0.0626373291015625,-1.2679901123046875
1761479538335876600,5.957876708984375,-2.2982330322265625,-0.3310699462890625,-1.4867706298828125
1761479538345912600,5.96791259765625,-2.033111572265625,-0.6203155517578125,-1.5659942626953125
1761479538355948800,5.97794873046875,-1.8990325927734375,-0.754150390625,-1.45721435546875
1761479538365984800,5.98798486328125,-1.9573516845703125,-0.728271484375,-1.1460418701171875
1761479538376020700,5.998020751953125,-2.16131591796875,-0.6192626953125,-0.742462158203125
1761479538386056700,6.008056640625,-2.4025726318359375,-0.4921722412109375,-0.34912109375
1761479538396093700,6.01809375,-2.5929107666015625,-0.390167236328125,-0.084625244140625
1761479538406129700,6.028129638671875,-2.6734466552734375,-0.2924041748046875,0.0778656005859375
1761479538416165600,6.03816552734375,-2.568084716796875,-0.2948150634765625,0.1559295654296875
1761479538426201900,6.048201904296875,-2.369415283203125,-0.3870086669921875,0.1295318603515625
1761479538436237800,6.05823779296875,-2.17449951171875,-0.369903564453125,-0.017120361328125
1761479538446273800,6.068273681640625,-2.012420654296875,-0.252044677734375,-0.244476318359375
1761479538456309800,6.078309814453125,-1.85882568359375,-0.152587890625,-0.445526123046875
1761479538466345700,6.088345703125,-1.7046356201171875,-0.0635833740234375,-0.553070068359375
1761479538476381700,6.098381591796875,-1.5572357177734375,0.037200927734375,-0.5164794921875
1761479538486417700,6.108417724609375,-1.4935150146484375,0.1097564697265625,-0.3824462890625
1761479538496454000,6.118453857421875,-1.466766357421875,0.1419219970703125,-0.239288330078125
1761479538506489900,6.12848974609375,-1.3986358642578125,0.2336578369140625,-0.128448486328125
1761479538516525800,6.13852587890625,-1.2608642578125,0.3197784423828125,-0.0361480712890625
1761479538526561800,6.148561767578125,-1.08612060546875,0.3047332763671875,0.01922607421875
1761479538536597800,6.15859765625,-0.818939208984375,0.2512359619140625,-0.023590087890625
1761479538546633700,6.1686337890625,-0.482330322265625,0.2143096923828125,-0.1283416748046875
1761479538556669700,6.178669677734375,-0.18231201171875,0.16973876953125,-0.229095458984375
1761479538566705700,6.18870556640625,-0.000152587890625,0.1089019775390625,-0.3098602294921875
1761479538576741600,6.19874169921875,0.07586669921875,0.0785675048828125,-0.37274169921875
1761479538586777600,6.208777587890625,0.143096923828125,0.0901031494140625,-0.39373779296875
1761479538596813600,6.2188134765625,0.2039337158203125,0.1294097900390625,-0.3365478515625
1761479538606850600,6.2288505859375,0.2632904052734375,0.1397857666015625,-0.197540283203125
1761479538616886500,6.238886474609375,0.3126068115234375,0.1248931884765625,-0.0190582275390625
1761479538626922500,6.248922607421875,0.3036041259765625,0.1035919189453125,0.1434326171875
1761479538636958700,6.258958740234375,0.2867279052734375,0.0799560546875,0.2403717041015625
1761479538646994700,6.26899462890625,0.295135498046875,0.0540771484375,0.210235595703125
1761479538657031000,6.279031005859375,0.2593994140625,0.0457763671875,0.0907135009765625
1761479538667067000,6.28906689453125,0.1914215087890625,-0.02520751953125,0.186614990234375
1761479538677102800,6.299102783203125,0.042022705078125,-0.1897125244140625,0.0572967529296875
1761479538687138800,6.309138916015625,-0.137298583984375,-0.0956573486328125,-0.06646728515625
1761479538697174800,6.3191748046875,-0.279693603515625,-0.0382232666015625,-0.18719482421875
1761479538707210800,6.329210693359375,-0.413360595703125,-0.032012939453125,-0.2501068115234375
1761479538717246700,6.339246826171875,-0.47998046875,-0.001953125,-0.23492431640625
1761479538727282700,6.34928271484375,-0.5056915283203125,0.0123443603515625,-0.1897430419921875
1761479538737318700,6.359318603515625,-0.5684814453125,0.00726318359375,-0.0938262939453125
1761479538747354600,6.369354736328125,-0.6234893798828125,0.00213623046875,0.0546112060546875
1761479538757390800,6.379390869140625,-0.6338958740234375,-0.0475616455078125,0.1774444580078125
1761479538767426800,6.3894267578125,-0.6177215576171875,-0.10833740234375,0.176513671875
1761479538777462800,6.399462890625,-0.600982666015625,-0.096893310546875,0.0315399169921875
1761479538787498800,6.409498779296875,-0.6153106689453125,-0.052093505859375,-0.1205596923828125
1761479538797534700,6.41953466796875,-0.65325927734375,-0.0632171630859375,-0.18218994140625
1761479538807570700,6.42957080078125,-0.73345947265625,-0.127166748046875,-0.17547607421875
1761479538817607700,6.439607666015625,-0.8856964111328125,-0.2251434326171875,-0.2206268310546875
1761479538827643600,6.4496435546875,-1.0688629150390625,-0.3315887451171875,-0.376129150390625
1761479538837679600,6.4596796875,-1.2480010986328125,-0.3356475830078125,-0.56494140625
1761479538847715600,6.469715576171875,-1.6021881103515625,-0.3457183837890625,-0.769256591796875
1761479538857751600,6.47975146484375,-1.99127197265625,-0.422698974609375,-0.93914794921875
1761479538867787500,6.48978759765625,-2.3089447021484375,-0.5264129638671875,-1.10211181640625
1761479538877823500,6.499823486328125,-2.5371246337890625,-0.6483306884765625,-1.2417144775390625
1761479538887859700,6.509859619140625,-2.684051513671875,-0.72900390625,-1.2947845458984375
1761479538897896000,6.51989599609375,-2.7596588134765625,-0.6118621826171875,-1.1909942626953125
1761479538907932000,6.529931884765625,-2.7624359130859375,-0.38018798828125,-0.8547210693359375
1761479538917968000,6.5399677734375,-2.7771453857421875,-0.2308197021484375,-0.40374755859375
1761479538928003800,6.55000390625,-2.729339599609375,-0.1565399169921875,-0.0299224853515625
1761479538938039800,6.560039794921875,-2.5761871337890625,-0.13482666015625,0.14935302734375
1761479538948075800,6.57007568359375,-2.292816162109375,-0.196258544921875,0.1471710205078125
1761479538958111700,6.58011181640625,-1.9383087158203125,-0.2677764892578125,0.0903472900390625
1761479538968147700,6.590147705078125,-1.692657470703125,-0.4924774169921875,0.0240020751953125
1761479538978183700,6.60018359375,-1.643341064453125,-0.2489776611328125,-0.196868896484375
1761479538988219600,6.6102197265625,-1.69036865234375,0.066375732421875,-0.35321044921875
1761479538998255600,6.620255615234375,-1.6738739013671875,0.1225128173828125,-0.244293212890625
1761479539008291800,6.630291748046875,-1.5025787353515625,0.123138427734375,-0.08465576171875
1761479539018327800,6.640327880859375,-1.18280029296875,0.1427001953125,0.01544189453125
1761479539028363800,6.65036376953125,-0.83563232421875,0.16717529296875,0.070098876953125
1761479539038399700,6.660399658203125,-0.502197265625,0.09149169921875,0.1080780029296875
