time,seconds_elapsed,z,y,x
1761479532469802800,0.091802734375,0.39088767766952515,-0.23391525447368622,0.22904770076274872
1761479532479839000,0.1018388671875,0.5554288625717163,-0.03036944940686226,0.1725296527147293
1761479532489875000,0.111875,0.6206954717636108,0.12115828692913055,0.18465156853199005
1761479532499911200,0.1219111328125,0.5861989259719849,0.08779436349868774,0.2628074884414673
1761479532509947100,0.131947021484375,0.5720500946044922,-0.05831250920891762,0.3316589891910553
1761479532519983000,0.141983154296875,0.5849473476409912,-0.19671791791915894,0.390766441822052
1761479532530019000,0.15201904296875,0.5893106460571289,-0.20314332842826843,0.4732693135738373
1761479532540056000,0.16205615234375,0.6056212186813354,-0.13065481185913086,0.5271444916725159
1761479532550092000,0.172092041015625,0.6425592303276062,-0.0020422483794391155,0.5334218144416809
1761479532560128000,0.1821279296875,0.6353183388710022,0.08503520488739014,0.518018901348114
1761479532570164000,0.1921640625,0.5730275511741638,0.17023877799510956,0.541928231716156
1761479532580200000,0.202199951171875,0.5301662087440491,0.21800939738750458,0.5687016844749451
1761479532590236000,0.21223583984375,0.5296533107757568,0.0727669894695282,0.5130448341369629
1761479532600272000,0.22227197265625,0.5214555263519287,-0.1941913664340973,0.4134812355041504
1761479532610307800,0.232307861328125,0.5088161826133728,-0.4308744966983795,0.3002593517303467
1761479532620343800,0.24234375,0.557704746723175,-0.6368704438209534,0.2050890028476715
1761479532630380000,0.252380126953125,0.6574286818504333,-0.7190646529197693,0.1961170732975006
1761479532640416000,0.262416015625,0.7467799782752991,-0.6368556022644043,0.2710237205028534
1761479532650452000,0.272451904296875,0.7385289669036865,-0.4147122800350189,0.37777388095855713
1761479532660488000,0.282488037109375,0.5680976510047913,-0.23722881078720093,0.47196048498153687
1761479532670524000,0.29252392578125,0.179849773645401,-0.15718403458595276,0.4565884470939636
1761479532680559900,0.302559814453125,-0.3122296631336212,-0.2886103391647339,0.27479225397109985
1761479532690595800,0.312595947265625,-0.6235960721969604,-0.5425011515617371,0.028942549601197243
1761479532700631800,0.3226318359375,-0.5743008255958557,-0.8729683756828308,-0.18871641159057617
1761479532710667800,0.332667724609375,-0.25168174505233765,-1.1553312540054321,-0.2404419183731079
1761479532720703700,0.342703857421875,0.13997696340084076,-1.3286455869674683,-0.03981336951255798
1761479532730740000,0.352739990234375,0.40671995282173157,-1.2021598815917969,0.38443246483802795
1761479532740776000,0.36277587890625,0.39523565769195557,-0.7170255780220032,0.7907572984695435
1761479532750812200,0.372812255859375,0.24154753983020782,-0.4494617283344269,0.8825333118438721
1761479532760848100,0.38284814453125,0.2512657344341278,-0.3466108739376068,0.7037297487258911
1761479532770884000,0.392884033203125,0.21575568616390228,-0.08527064323425293,0.29193228483200073
1761479532780920000,0.402920166015625,0.14650502800941467,-0.11541392654180527,-0.17947497963905334
1761479532790957000,0.41295703125,0.0728054940700531,-0.25789597630500793,-0.4855416715145111
1761479532800993000,0.422992919921875,-0.027520688250660896,-0.28977757692337036,-0.6330868005752563
1761479532811029000,0.433029052734375,-0.16779178380966187,-0.21731509268283844,-0.5819751024246216
1761479532821065000,0.44306494140625,-0.3363260328769684,-0.11271663010120392,-0.36781057715415955
1761479532831101000,0.453100830078125,-0.5162129998207092,0.05768865719437599,-0.24226169288158417
1761479532841137000,0.463136962890625,-0.721762478351593,0.22677768766880035,-0.24637486040592194
1761479532851172900,0.4731728515625,-0.8583805561065674,0.4768833816051483,-0.3154332637786865
1761479532861208800,0.483208740234375,-0.8442161083221436,0.8483157157897949,-0.3942638337612152
1761479532871244800,0.493244873046875,-0.6658492684364319,1.1699333190917969,-0.4271829128265381
1761479532881281000,0.503281005859375,-0.41323789954185486,1.2933852672576904,-0.4557524025440216
1761479532891317000,0.51331689453125,-0.11454201489686966,1.137601613998413,-0.48985499143600464
1761479532901353000,0.52335302734375,0.1771368384361267,0.8930381536483765,-0.5682346224784851
1761479532911389000,0.533388916015625,0.3613559305667877,0.6835730671882629,-0.6916316151618958
1761479532921425000,0.5434248046875,0.3790326714515686,0.5814049243927002,-0.8240267038345337
1761479532931460900,0.5534609375,0.24823738634586334,0.5775476098060608,-0.8383627533912659
1761479532941496800,0.563496826171875,0.08553525805473328,0.6462154388427734,-0.7361284494400024
1761479532951532800,0.57353271484375,-0.04351939633488655,0.7448346614837646,-0.5693152546882629
1761479532961569000,0.583569091796875,-0.042394235730171204,0.7058282494544983,-0.3802449107170105
1761479532971605000,0.59360498046875,0.040693726390600204,0.3734463155269623,-0.182891383767128
1761479532981641000,0.603640869140625,0.10421376675367355,-0.09579464048147202,-0.012961655855178833
1761479532991677000,0.613677001953125,0.06866215914487839,-0.530224084854126,0.11198853701353073
1761479533001713200,0.623713134765625,-0.0938393846154213,-0.742747962474823,0.16570104658603668
1761479533011749000,0.6337490234375,-0.27659082412719727,-0.6362378001213074,0.14281409978866577
1761479533021785000,0.64378515625,-0.3600795865058899,-0.32654210925102234,-0.004800132010132074
1761479533031822000,0.653822021484375,-0.3646993935108185,-0.07067517936229706,-0.19569630920886993
1761479533041858000,0.663858154296875,-0.35408127307891846,0.07720069587230682,-0.3237212002277374
1761479533051894000,0.67389404296875,-0.3104797303676605,0.18713386356830597,-0.38219544291496277
1761479533061930000,0.683929931640625,-0.22376589477062225,0.35304969549179077,-0.4715314209461212
1761479533071966000,0.693966064453125,-0.18069112300872803,0.4081805944442749,-0.5710932016372681
1761479533082002000,0.704001953125,-0.14841067790985107,0.35864901542663574,-0.5742785930633545
1761479533092038000,0.714037841796875,-0.13030649721622467,0.2355755865573883,-0.510580837726593
1761479533102073900,0.724073974609375,-0.1220996081829071,0.09633731096982956,-0.3997602164745331
1761479533112109800,0.73410986328125,-0.11297721415758133,-0.019586093723773956,-0.1968241184949875
1761479533122145800,0.744145751953125,-0.10306869447231293,-0.12491614371538162,0.11200865358114243
1761479533132181800,0.754181640625,-0.04925233870744705,-0.17985902726650238,0.4549558758735657
1761479533142218000,0.764218017578125,0.09728346019983292,-0.18600259721279144,0.7335215210914612
1761479533152254000,0.77425390625,0.36672237515449524,-0.20281459391117096,0.9299448132514954
1761479533162290000,0.7842900390625,0.6336907744407654,-0.3258499801158905,1.0464121103286743
1761479533172326000,0.794325927734375,0.8592740893363953,-0.4625636339187622,1.043235421180725
1761479533182361900,0.80436181640625,1.0335261821746826,-0.5380730628967285,0.8788647651672363
1761479533192397800,0.814397705078125,1.1159424781799316,-0.5931490659713745,0.561338484287262
1761479533202433800,0.824433837890625,1.1457850933074951,-0.7456650137901306,0.1271534413099289
1761479533212469800,0.8344697265625,1.107473611831665,-1.0192949771881104,-0.2496657371520996
1761479533222505700,0.844505615234375,0.9325389862060547,-1.1653629541397095,-0.4595043659210205
1761479533232541700,0.854541748046875,0.6516050696372986,-0.9952378273010254,-0.46520620584487915
1761479533242579000,0.864578857421875,0.3861936926841736,-0.5872624516487122,-0.46474602818489075
1761479533252615000,0.874614990234375,0.1762726753950119,0.039208926260471344,-0.6813984513282776
1761479533262651000,0.88465087890625,-0.30005016922950745,0.4804568588733673,-1.062774658203125
1761479533272686800,0.894686767578125,-0.9998048543930054,0.6732287406921387,-1.4728590250015259
1761479533282723000,0.90472314453125,-1.6452947854995728,0.706641435623169,-1.6987665891647339
1761479533292759000,0.914759033203125,-2.0036447048187256,0.7528632283210754,-1.6281954050064087
1761479533302795000,0.924794921875,-1.9286736249923706,0.7152253985404968,-1.3295409679412842
1761479533312831000,0.9348310546875,-1.4927945137023926,0.7267501950263977,-0.8698722124099731
1761479533322867000,0.944866943359375,-1.0039758682250977,0.7709493637084961,-0.3856501579284668
1761479533332903000,0.95490283203125,-0.6224945783615112,0.7463380098342896,-0.0972476601600647
1761479533342939000,0.96493896484375,-0.35133230686187744,0.7329441905021667,-0.1802230030298233
1761479533352974800,0.974974853515625,-0.24121643602848053,0.7439936399459839,-0.5379462838172913
1761479533363010800,0.9850107421875,-0.28125694394111633,0.7805406451225281,-0.8640158176422119
1761479533373046800,0.995046875,-0.35169729590415955,0.7653371691703796,-0.9766097068786621
1761479533383082800,1.005082763671875,-0.3205389380455017,0.6357712149620056,-0.8468535542488098
1761479533393119000,1.015118896484375,-0.20312601327896118,0.4394928216934204,-0.5991641283035278
1761479533403155000,1.025155029296875,-0.035814784467220306,0.12434737384319305,-0.2477533519268036
1761479533413191000,1.03519091796875,0.20307768881320953,-0.03692220523953438,0.2090323120355606
1761479533423228000,1.045227783203125,0.48417991399765015,-0.0848839059472084,0.7693230509757996
1761479533433263900,1.055263916015625,0.7391416430473328,-0.17187952995300293,1.2895973920822144
1761479533443299800,1.0652998046875,0.8743661642074585,-0.351826548576355,1.627313256263733
1761479533453335800,1.075335693359375,0.8728026151657104,-0.5412987470626831,1.7373933792114258
1761479533463371800,1.085371826171875,0.7881418466567993,-0.744503378868103,1.6450133323669434
1761479533473408000,1.095407958984375,0.6940486431121826,-0.9774165153503418,1.4109656810760498
1761479533483444000,1.10544384765625,0.6432649493217468,-1.0915504693984985,1.107180118560791
1761479533493480000,1.11547998046875,0.575557291507721,-1.0743131637573242,0.8587409853935242
1761479533503516000,1.125515869140625,0.48028531670570374,-1.0270843505859375,0.7033988833427429
1761479533513552000,1.1355517578125,0.41686585545539856,-0.8783114552497864,0.6054288744926453
1761479533523587800,1.145587890625,0.3960976302623749,-0.627081036567688,0.57059645652771
1761479533533623800,1.155623779296875,0.40087029337882996,-0.40351182222366333,0.5264173150062561
1761479533543660000,1.165659912109375,0.37234753370285034,-0.2823328375816345,0.3809490501880646
1761479533553696000,1.175696044921875,0.3338259756565094,-0.2466225028038025,0.14617197215557098
1761479533563732000,1.18573193359375,0.2856666147708893,-0.20684492588043213,-0.17784297466278076
1761479533573768000,1.195767822265625,0.15387235581874847,-0.1365547925233841,-0.5878960490226746
1761479533583804000,1.205803955078125,-0.014863574877381325,0.08341293036937714,-1.0009546279907227
1761479533593841000,1.2158408203125,-0.14024972915649414,0.3487039804458618,-1.323784589767456
1761479533603876900,1.225876953125,-0.21077395975589752,0.543022096157074,-1.3799290657043457
1761479533613912800,1.235912841796875,-0.2557621896266937,0.6744802594184875,-1.2221306562423706
1761479533623948800,1.24594873046875,-0.281503826379776,0.6638787388801575,-0.9512098431587219
1761479533633984800,1.25598486328125,-0.28201889991760254,0.5877141952514648,-0.5910868644714355
1761479533644020700,1.266020751953125,-0.28117987513542175,0.4505034387111664,-0.17932526767253876
1761479533654056700,1.276056640625,-0.2512243688106537,0.34352293610572815,0.2221129685640335
1761479533664092700,1.2860927734375,-0.11535058170557022,0.28281715512275696,0.5321401953697205
1761479533674129000,1.29612890625,0.07537756115198135,0.21844618022441864,0.7527929544448853
1761479533684164900,1.306164794921875,0.2982075810432434,-0.05531926453113556,0.8520815968513489
1761479533694200800,1.316200927734375,0.4916015565395355,-0.4226842224597931,0.8179236054420471
1761479533704237000,1.326237060546875,0.5814670324325562,-0.695950984954834,0.6866718530654907
1761479533714273000,1.33627294921875,0.5898647904396057,-0.8198193907737732,0.5137025117874146
1761479533724309000,1.34630908203125,0.5199817419052124,-0.7556416392326355,0.3164784014225006
1761479533734345000,1.356344970703125,0.4638870358467102,-0.6782554984092712,0.09046442061662674
1761479533744381000,1.366380859375,0.4934787452220917,-0.5986433625221252,-0.0379861555993557
1761479533754417000,1.3764169921875,0.4865151345729828,-0.5230077505111694,-0.004196233116090298
1761479533764454000,1.386453857421875,0.434479296207428,-0.5254651308059692,0.1156841516494751
1761479533774489900,1.39648974609375,0.1644992083311081,-0.4173935353755951,0.033472105860710144
1761479533784525800,1.40652587890625,-0.38595324754714966,-0.2949090003967285,-0.3184257745742798
1761479533794561800,1.416561767578125,-1.0745409727096558,-0.013386508449912071,-0.7825204133987427
1761479533804597800,1.42659765625,-1.6422638893127441,0.23806633055210114,-1.0510319471359253
1761479533814633700,1.4366337890625,-1.8911563158035278,0.4480227530002594,-1.023183822631836
1761479533824670000,1.446669921875,-1.7881784439086914,0.6547698378562927,-0.8259826898574829
1761479533834706000,1.456705810546875,-1.434658169746399,0.5933943390846252,-0.5698241591453552
1761479533844742000,1.466741943359375,-0.9336743950843811,0.39377954602241516,-0.32325541973114014
1761479533854777900,1.47677783203125,-0.39215898513793945,0.23864267766475677,-0.16799739003181458
1761479533864813800,1.486813720703125,0.07737144827842712,0.09992101788520813,-0.14000453054904938
1761479533874849800,1.496849853515625,0.4571467339992523,0.1246442049741745,-0.3387991189956665
1761479533884885800,1.5068857421875,0.6424598097801208,0.22558508813381195,-0.6124930381774902
1761479533894921700,1.516921630859375,0.685701847076416,0.19238506257534027,-0.7636204957962036
1761479533904957700,1.526957763671875,0.623178243637085,-0.004086811561137438,-0.6030685305595398
1761479533914995000,1.536994873046875,0.5609659552574158,-0.2384103685617447,-0.17771059274673462
1761479533925031000,1.547031005859375,0.4383847415447235,-0.3946645259857178,0.3568635880947113
1761479533935067000,1.55706689453125,0.5044777393341064,-0.34383144974708557,0.7604246139526367
1761479533945102800,1.567102783203125,0.6453312039375305,-0.32230591773986816,1.079749345779419
1761479533955138800,1.577138916015625,0.8386399745941162,-0.4727851450443268,1.3675981760025024
1761479533965175000,1.587175048828125,0.9454541802406311,-0.7097749710083008,1.5687849521636963
1761479533975211000,1.5972109375,0.8592665195465088,-0.9915727972984314,1.6788890361785889
1761479533985247000,1.6072470703125,0.68222975730896,-1.1676918268203735,1.6146479845046997
1761479533995283000,1.617282958984375,0.4667273163795471,-1.281904935836792,1.3740209341049194
1761479534005319000,1.62731884765625,0.29295679926872253,-1.2555125951766968,1.072608232498169
1761479534015355000,1.63735498046875,0.1497327834367752,-1.0766959190368652,0.7454071044921875
1761479534025390800,1.647390869140625,-0.007894491776823997,-0.8469437956809998,0.449997216463089
1761479534035426800,1.6574267578125,-0.09341658651828766,-0.5395731925964355,0.25147107243537903
1761479534045462800,1.667462890625,-0.09299110621213913,-0.13129334151744843,0.06390424817800522
1761479534055498800,1.677498779296875,-0.08827251940965652,0.1739286184310913,-0.0863819271326065
1761479534065534700,1.68753466796875,-0.07716605812311172,0.2464311122894287,-0.21910463273525238
1761479534075571200,1.6975712890625,-0.03038923069834709,0.17102369666099548,-0.38642996549606323
1761479534085607200,1.707607177734375,0.0013855448924005032,0.04199691861867905,-0.616355836391449
1761479534095643400,1.717643310546875,-0.006943491753190756,-0.0543953999876976,-0.8895101547241211
1761479534105679400,1.727679443359375,-0.08979769796133041,0.05404301732778549,-1.1498522758483887
1761479534115715300,1.73771533203125,-0.2596232295036316,0.29285159707069397,-1.352891445159912
1761479534125751300,1.747751220703125,-0.460873007774353,0.5976957082748413,-1.4450631141662598
1761479534135787300,1.757787353515625,-0.6103495359420776,0.7434760928153992,-1.3150702714920044
1761479534145823200,1.7678232421875,-0.7067847847938538,0.6737975478172302,-1.0283615589141846
1761479534155859200,1.777859130859375,-0.6981625556945801,0.4982541799545288,-0.6186394095420837
1761479534165895200,1.787895263671875,-0.5517383217811584,0.40738242864608765,-0.13377274572849274
1761479534175931100,1.79793115234375,-0.280435711145401,0.3932591676712036,0.2793698310852051
1761479534185967000,1.807967041015625,0.06211438775062561,0.37021753191947937,0.5920367240905762
1761479534196003000,1.818003173828125,0.32714420557022095,0.2505555748939514,0.7492276430130005
1761479534206039300,1.828039306640625,0.49667617678642273,0.119168221950531,0.7174827456474304
1761479534216075300,1.8380751953125,0.6344348788261414,-0.08099735528230667,0.5241966843605042
1761479534226112000,1.848112060546875,0.7465225458145142,-0.4519524872303009,0.2192191779613495
1761479534236148200,1.858148193359375,0.8202076554298401,-0.8679594993591309,0.022962583228945732
1761479534246184200,1.86818408203125,0.881269097328186,-1.0555895566940308,0.023633478209376335
1761479534256220200,1.87822021484375,0.8676925897598267,-0.8488494157791138,0.18836064636707306
1761479534266256100,1.888256103515625,0.7639456987380981,-0.32862815260887146,0.4340260326862335
1761479534276292400,1.898292236328125,0.5004698634147644,0.14972591400146484,0.5450950264930725
1761479534286328300,1.908328369140625,-0.1873067170381546,0.26155203580856323,0.4135357737541199
1761479534296364300,1.9183642578125,-0.9923211932182312,0.13694006204605103,0.020478487014770508
1761479534306400300,1.928400146484375,-1.480345368385315,0.0930970311164856,-0.4671095609664917
1761479534316436200,1.938436279296875,-1.460148572921753,0.34105250239372253,-0.8533754944801331
1761479534326472200,1.94847216796875,-1.1334258317947388,0.5524652004241943,-1.079747200012207
1761479534336508200,1.958508056640625,-0.7151922583580017,0.6241029500961304,-1.1810243129730225
1761479534346544400,1.96854443359375,-0.2866921126842499,0.628898561000824,-1.187572717666626
1761479534356580400,1.978580322265625,0.04672631621360779,0.6052928566932678,-1.2281275987625122
1761479534366617000,1.9886171875,0.1377859264612198,0.5357798337936401,-1.3782052993774414
1761479534376653300,1.9986533203125,-0.05823098123073578,0.551632821559906,-1.4676971435546875
1761479534386689300,2.008689208984375,-0.420497864484787,0.7470859289169312,-1.3263050317764282
1761479534396725200,2.018725341796875,-0.8318914771080017,0.916327714920044,-0.9209341406822205
1761479534406761200,2.02876123046875,-1.0725677013397217,1.0201956033706665,-0.4809991419315338
1761479534416797200,2.038797119140625,-1.0643057823181152,1.0087202787399292,-0.10934358090162277
1761479534426833200,2.048833251953125,-0.7559037208557129,0.8839807510375977,0.22884835302829742
1761479534436869000,2.058869140625,-0.294033020734787,0.6195470094680786,0.4767542779445648
1761479534446905000,2.068905029296875,0.10529837757349014,0.17715588212013245,0.6071314811706543
1761479534456941000,2.078941162109375,0.4212110638618469,-0.2354804277420044,0.6993244886398315
1761479534466977000,2.08897705078125,0.6351923942565918,-0.3649839162826538,0.7094864845275879
1761479534477013000,2.099012939453125,0.6570492386817932,-0.3208140432834625,0.6405470967292786
1761479534487049200,2.10904931640625,0.5484370589256287,-0.2250264585018158,0.611481249332428
1761479534497085200,2.119085205078125,0.389708936214447,-0.129392609000206,0.6690052151679993
1761479534507121200,2.12912109375,0.2381286472082138,-0.12591314315795898,0.7578418254852295
1761479534517157400,2.139157470703125,0.15466810762882233,-0.13490024209022522,0.8681305050849915
1761479534527194400,2.1491943359375,0.09836307168006897,-0.14434702694416046,1.012211799621582
1761479534537230300,2.159230224609375,0.061511844396591187,-0.2075025588274002,1.156655192375183
1761479534547266300,2.169266357421875,0.06741280853748322,-0.313753217458725,1.2871898412704468
1761479534557302300,2.17930224609375,0.09001612663269043,-0.3610096573829651,1.365679383277893
1761479534567338200,2.189338134765625,0.09681697189807892,-0.3673478662967682,1.3207215070724487
1761479534577374200,2.199374267578125,0.13176484405994415,-0.4215772747993469,1.1639173030853271
1761479534587410200,2.20941015625,0.17938171327114105,-0.4703943431377411,0.9019708037376404
1761479534597446100,2.219446044921875,0.16647683084011078,-0.4333042502403259,0.5954769253730774
1761479534607482000,2.229482177734375,0.09585974365472794,-0.3002542555332184,0.3159031867980957
1761479534617518000,2.23951806640625,0.015822172164916992,-0.1255229413509369,0.08370455354452133
1761479534627554300,2.24955419921875,-0.10826681554317474,0.045335233211517334,-0.047156959772109985
1761479534637590300,2.25959033203125,-0.1824859082698822,0.2297373116016388,-0.04747307673096657
1761479534647626200,2.269626220703125,-0.18793874979019165,0.2648443877696991,0.01769317500293255
1761479534657662200,2.279662109375,-0.16176334023475647,0.1482197642326355,0.1304870992898941
1761479534667698200,2.2896982421875,-0.08256407827138901,0.0036138773430138826,0.27769264578819275
1761479534677735200,2.299735107421875,0.09685575217008591,-0.14618626236915588,0.39965611696243286
1761479534687771400,2.309771484375,0.29870277643203735,-0.34336256980895996,0.5384100675582886
1761479534697807400,2.319807373046875,0.4632387161254883,-0.3339672088623047,0.7378382086753845
1761479534707843300,2.32984326171875,0.5425195693969727,-0.14212355017662048,0.9286677241325378
1761479534717879300,2.33987939453125,0.5534073710441589,-0.054678402841091156,1.0558525323867798
1761479534727915300,2.349915283203125,0.6065837144851685,-0.11199981719255447,1.0392425060272217
1761479534737951200,2.359951171875,0.664812445640564,-0.5333971381187439,0.8387424349784851
1761479534747987200,2.3699873046875,0.6940202116966248,-1.0242785215377808,0.5405700206756592
1761479534758023200,2.380023193359375,0.8187386989593506,-1.0231688022613525,0.2125743329524994
1761479534768059100,2.39005908203125,0.9880360960960388,-0.6599639058113098,0.0038157952949404716
1761479534778095400,2.400095458984375,1.054614782333374,-0.30203157663345337,-0.04247899726033211
1761479534788131300,2.41013134765625,1.0063761472702026,-0.07476255297660828,-0.02015899121761322
1761479534798167300,2.420167236328125,0.64732825756073,0.2498011440038681,-0.18401530385017395
1761479534808203300,2.430203369140625,-0.29997575283050537,0.4563370645046234,-0.5104702711105347
1761479534818239200,2.4402392578125,-1.4311391115188599,0.5077908635139465,-0.927220344543457
1761479534828276200,2.450276123046875,-2.258291006088257,0.5696347951889038,-1.127232313156128
1761479534838312200,2.460312255859375,-2.5030720233917236,0.7585416436195374,-1.1506584882736206
1761479534848348200,2.47034814453125,-2.2096669673919678,0.8911125063896179,-1.0935397148132324
1761479534858384100,2.480384033203125,-1.6669524908065796,0.6550877690315247,-0.9598669409751892
1761479534868420000,2.490420166015625,-1.1416772603988647,0.26541197299957275,-0.693152129650116
1761479534878456000,2.5004560546875,-0.6814707517623901,0.1837914139032364,-0.45925018191337585
1761479534888492000,2.510491943359375,-0.3031383752822876,0.36809641122817993,-0.5230643153190613
1761479534898528000,2.520528076171875,-0.1328720897436142,0.6483525037765503,-0.8957617282867432
1761479534908564000,2.53056396484375,-0.1905965805053711,0.9205203056335449,-1.4581115245819092
1761479534918600400,2.540600341796875,-0.35443904995918274,1.0387998819351196,-1.9172176122665405
1761479534928636400,2.550636474609375,-0.4378208816051483,0.8847984075546265,-2.0712218284606934
1761479534938672400,2.56067236328125,-0.3173213601112366,0.5752238035202026,-1.9802013635635376
1761479534948708400,2.570708251953125,-0.0973832756280899,0.396494060754776,-1.4802354574203491
1761479534958744300,2.580744384765625,0.04793583229184151,0.6035372614860535,-0.8570277094841003
1761479534968780300,2.5907802734375,0.036074522882699966,0.23147213459014893,-0.3220254182815552
1761479534978816300,2.600816162109375,0.16722536087036133,0.25469571352005005,0.2610452175140381
1761479534988852200,2.610852294921875,0.25233468413352966,0.5215650200843811,0.5755101442337036
1761479534998889200,2.62088916015625,0.17469260096549988,0.5179194211959839,0.7306305170059204
1761479535008925200,2.63092529296875,0.06011778116226196,0.3209283649921417,0.9016145467758179
1761479535018961200,2.640961181640625,-0.05691669136285782,0.08627565205097198,0.9774925708770752
1761479535028997000,2.6509970703125,-0.18587733805179596,-0.2421480417251587,0.907348096370697
1761479535039033000,2.661033203125,-0.29136595129966736,-0.45751041173934937,0.7637538909912109
1761479535049069000,2.671069091796875,-0.2331036776304245,-0.32619962096214294,0.6275355815887451
1761479535059105300,2.681105224609375,-0.0643407553434372,-0.20058788359165192,0.5491172075271606
1761479535069142000,2.69114208984375,0.05586359277367592,-0.1081293374300003,0.5006831884384155
1761479535079178000,2.701177978515625,0.08343396335840225,0.035642482340335846,0.42754054069519043
1761479535089214200,2.711214111328125,0.05153844133019447,0.14539961516857147,0.287574827671051
1761479535099250200,2.721250244140625,0.046079762279987335,0.2658535838127136,0.08474099636077881
1761479535109286100,2.7312861328125,0.06189807131886482,0.40272051095962524,-0.14294055104255676
1761479535119322000,2.741322021484375,0.13460582494735718,0.43732643127441406,-0.30914390087127686
1761479535129358000,2.751358154296875,0.2850828766822815,0.4381781220436096,-0.37510499358177185
1761479535139394000,2.76139404296875,0.41910219192504883,0.37968018651008606,-0.3430085778236389
1761479535149431000,2.77143115234375,0.45499980449676514,0.17675423622131348,-0.22237896919250488
1761479535159467000,2.781467041015625,0.3933420181274414,-0.10743328183889389,-0.044094983488321304
1761479535169503000,2.7915029296875,0.3063330054283142,-0.3119063079357147,0.2132624387741089
1761479535179539000,2.8015390625,0.2761383652687073,-0.333996444940567,0.5883681178092957
1761479535189575200,2.8115751953125,0.21025146543979645,-0.20640727877616882,1.0282301902770996
1761479535199611100,2.821611083984375,0.10043388605117798,-0.038934126496315,1.4204586744308472
1761479535209647000,2.831647216796875,0.05001014471054077,0.068313367664814,1.706641674041748
1761479535219683000,2.84168310546875,0.10622122138738632,-0.033936839550733566,1.8620326519012451
1761479535229719000,2.851718994140625,0.300743967294693,-0.26881715655326843,1.8932873010635376
1761479535239755300,2.86175537109375,0.6105455160140991,-0.633059561252594,1.767594337463379
1761479535249791200,2.871791259765625,1.0133956670761108,-0.925702691078186,1.4901096820831299
1761479535259827200,2.8818271484375,1.3892338275909424,-1.0106077194213867,1.1214125156402588
1761479535269863200,2.89186328125,1.6845372915267944,-0.9389631152153015,0.7846283912658691
1761479535279899100,2.901899169921875,1.834464430809021,-0.7408207058906555,0.465335875749588
1761479535289935000,2.91193505859375,1.7891494035720825,-0.4993305504322052,0.1599009782075882
1761479535299971000,2.92197119140625,1.566733956336975,-0.26354894042015076,-0.08183202892541885
1761479535310008000,2.932008056640625,1.1170779466629028,-0.11590426415205002,-0.28381282091140747
1761479535320044000,2.9420439453125,0.7127414345741272,0.02513860911130905,-0.4559193253517151
1761479535330080000,2.952080078125,0.24289406836032867,0.07070332020521164,-0.5235780477523804
1761479535340116000,2.962115966796875,-0.5082590579986572,-0.18037204444408417,-0.5003430247306824
1761479535350152000,2.97215185546875,-1.3341728448867798,-0.3413943350315094,-0.6001455187797546
1761479535360188000,2.98218798828125,-1.788338541984558,0.0927259549498558,-0.738121747970581
1761479535370223900,2.992223876953125,-1.6933567523956299,0.5853185057640076,-0.918968915939331
1761479535380260000,3.002260009765625,-1.3689357042312622,0.7146466374397278,-1.0271250009536743
1761479535390296000,3.012296142578125,-1.100789189338684,0.7103932499885559,-1.1200578212738037
1761479535400332000,3.02233203125,-1.0237698554992676,0.7853891849517822,-1.1807169914245605
1761479535410368000,3.032367919921875,-1.1608059406280518,0.8561708927154541,-1.201448917388916
1761479535420404200,3.042404296875,-1.4000507593154907,0.9328991770744324,-1.218170404434204
1761479535430440200,3.052440185546875,-1.6010169982910156,0.8946786522865295,-1.3071141242980957
1761479535440476200,3.06247607421875,-1.6577268838882446,0.7348607778549194,-1.372918725013733
1761479535450512100,3.07251220703125,-1.4652867317199707,0.6474365592002869,-1.4074167013168335
1761479535460548000,3.082548095703125,-1.0750463008880615,0.48782607913017273,-1.3443266153335571
1761479535470585000,3.092585205078125,-0.6103556156158447,0.20307078957557678,-1.0540375709533691
1761479535480621000,3.10262109375,-0.05192773789167404,-0.15734624862670898,-0.6365525126457214
1761479535490657000,3.112656982421875,0.4165395200252533,-0.3985558748245239,-0.2657516300678253
1761479535500693000,3.12269287109375,0.552581250667572,-0.4386681318283081,-0.05720029026269913
1761479535510729000,3.13272900390625,0.547313928604126,-0.33865368366241455,0.034560613334178925
1761479535520765200,3.14276513671875,0.46868354082107544,-0.22065752744674683,0.19399553537368774
1761479535530801200,3.15280126953125,0.2575731575489044,-0.3059633672237396,0.37706178426742554
1761479535540837000,3.162837158203125,0.022740960121154785,-0.35620391368865967,0.53669673204422
1761479535550873000,3.172873046875,-0.08886432647705078,-0.18833991885185242,0.766704797744751
1761479535560909000,3.182908935546875,-0.08853355795145035,0.002091818256303668,0.9629325866699219
1761479535570945000,3.192945068359375,-0.006813164334744215,0.12054742872714996,1.108616828918457
1761479535580981000,3.20298095703125,0.12682905793190002,0.1271512806415558,1.250160574913025
1761479535591017000,3.213016845703125,0.27082064747810364,0.03852059319615364,1.263157606124878
1761479535601053000,3.223052978515625,0.4226541221141815,-0.20865510404109955,1.1293002367019653
1761479535611089000,3.2330888671875,0.5769526958465576,-0.3743441700935364,0.901103675365448
1761479535621124900,3.243124755859375,0.5707821846008301,-0.21707862615585327,0.5386397242546082
1761479535631161000,3.2531611328125,0.44850867986679077,0.007887667044997215,0.21171066164970398
1761479535641198000,3.263197998046875,0.26836392283439636,0.22887171804904938,0.04468786343932152
1761479535651234000,3.273234130859375,0.01295563019812107,0.5394867658615112,-0.01333949901163578
1761479535661270000,3.28327001953125,-0.12597668170928955,0.03261208161711693,-0.05479080229997635
1761479535671306200,3.29330615234375,-0.19482994079589844,-0.2593541443347931,0.030493658035993576
1761479535681342200,3.30334228515625,-0.23320263624191284,-0.16544707119464874,0.07767102867364883
1761479535691378200,3.313378173828125,-0.18748489022254944,-0.10120172798633575,0.13829919695854187
1761479535701414100,3.3234140625,-0.08564801514148712,-0.06885284185409546,0.32670480012893677
1761479535711450000,3.3334501953125,0.08116696029901505,-0.06994780153036118,0.6019058227539062
1761479535721486000,3.343486083984375,0.2328081578016281,-0.10626240074634552,0.8508669137954712
1761479535731522000,3.35352197265625,0.3287498354911804,-0.0661470964550972,1.0088989734649658
1761479535741558000,3.36355810546875,0.41590285301208496,-0.07710999995470047,0.9463604092597961
1761479535751594000,3.373593994140625,0.493983656167984,-0.08664671331644058,0.66733717918396
1761479535761630000,3.3836298828125,0.5986661314964294,0.03708774223923683,0.26458197832107544
1761479535771666200,3.393666259765625,0.6569923758506775,0.2539677917957306,-0.17101968824863434
1761479535781702100,3.4037021484375,0.6156604290008545,0.36646851897239685,-0.5051761269569397
1761479535791738000,3.413738037109375,0.5888651013374329,0.029175514355301857,-0.5846357941627502
1761479535801774000,3.423774169921875,0.7422125339508057,-0.4332810640335083,-0.6493498086929321
1761479535811811000,3.43381103515625,1.0633593797683716,-0.36848893761634827,-0.8475184440612793
1761479535821847000,3.443846923828125,0.984520435333252,0.014460581354796886,-1.1637227535247803
1761479535831883300,3.45388330078125,0.16320669651031494,0.020311255007982254,-1.2410866022109985
1761479535841919200,3.463919189453125,-1.0016345977783203,-0.05328173562884331,-1.1222903728485107
1761479535851955200,3.473955078125,-1.8467235565185547,0.30499351024627686,-0.9457648992538452
1761479535861991200,3.4839912109375,-1.995902180671692,0.8374025821685791,-0.8000050187110901
1761479535872027100,3.494027099609375,-1.5215176343917847,1.2808845043182373,-0.738892138004303
1761479535882063000,3.50406298828125,-0.8263058662414551,1.3681893348693848,-0.7521272301673889
1761479535892099000,3.51409912109375,-0.29194846749305725,0.905869722366333,-0.90360426902771
1761479535902135000,3.524135009765625,-0.04766521602869034,0.5698115229606628,-1.1728596687316895
1761479535912171000,3.5341708984375,-0.022143308073282242,0.43021389842033386,-1.451114535331726
1761479535922207200,3.544207275390625,-0.09303399175405502,0.33853164315223694,-1.465415120124817
1761479535932243200,3.5542431640625,-0.19383493065834045,0.2014484852552414,-1.2483521699905396
1761479535942279200,3.564279052734375,-0.21909154951572418,0.11083310842514038,-0.9333744645118713
1761479535952315100,3.574315185546875,-0.0307872723788023,0.15634073317050934,-0.5317509770393372
1761479535962351000,3.58435107421875,0.2031804770231247,0.279552698135376,-0.14598330855369568
1761479535972387000,3.594386962890625,0.3251192569732666,0.28917253017425537,0.10657110810279846
1761479535982424000,3.604424072265625,0.35403957962989807,0.19639384746551514,0.18359717726707458
1761479535992460000,3.6144599609375,0.3120725452899933,0.04237515479326248,0.08153700828552246
1761479536002496000,3.62449609375,0.2583099901676178,-0.0739690288901329,-0.13455107808113098
1761479536012532000,3.634531982421875,0.1869376301765442,-0.3198932707309723,-0.33289891481399536
1761479536022568000,3.64456787109375,0.08371536433696747,-0.6197801232337952,-0.4714711904525757
1761479536032604000,3.65460400390625,-0.056928038597106934,-0.8161110281944275,-0.5207188725471497
1761479536042640000,3.664639892578125,0.005494860466569662,-0.48243188858032227,-0.3543431758880615
1761479536052675800,3.67467578125,0.34883373975753784,0.13617995381355286,-0.04675091803073883
1761479536062712300,3.68471240234375,0.5562024116516113,0.4236551523208618,0.37637612223625183
1761479536072748300,3.694748291015625,0.5771985650062561,0.3270042836666107,0.7086068987846375
1761479536082784300,3.7047841796875,0.4608091413974762,0.01704401709139347,0.8924648761749268
1761479536092820200,3.7148203125,0.2408294379711151,-0.3378470540046692,0.8876940608024597
1761479536102856200,3.724856201171875,0.02273944392800331,-0.4503245949745178,0.7361745834350586
1761479536112892200,3.73489208984375,-0.034914832562208176,-0.28683170676231384,0.4181729555130005
1761479536122928000,3.74492822265625,-0.006691714283078909,-0.08758252114057541,0.017826616764068604
1761479536132964000,3.754964111328125,0.08423217386007309,0.1234925240278244,-0.28438639640808105
1761479536143000000,3.765,0.2141028195619583,0.2778834402561188,-0.2959975004196167
1761479536153036000,3.7750361328125,0.22726935148239136,0.2735672891139984,0.012371944263577461
1761479536163073000,3.785072998046875,0.12268728762865067,0.2237110286951065,0.49648216366767883
1761479536173109000,3.79510888671875,-0.06897260993719101,0.16006065905094147,0.98092120885849
1761479536183145000,3.80514501953125,-0.28871214389801025,-0.07672712206840515,1.3582384586334229
1761479536193181000,3.815180908203125,-0.336881160736084,-0.25112032890319824,1.5618616342544556
1761479536203217200,3.825217041015625,-0.13889911770820618,-0.16485068202018738,1.5758073329925537
1761479536213253000,3.835253173828125,0.12090139836072922,-0.2585201859474182,1.549349308013916
1761479536223289000,3.8452890625,0.4297814965248108,-0.4115739166736603,1.596144199371338
1761479536233325000,3.855324951171875,0.6862375140190125,-0.20520076155662537,1.5713245868682861
1761479536243361300,3.865361328125,0.7812122106552124,-0.3022303581237793,1.6058235168457031
1761479536253397200,3.875397216796875,0.8248468637466431,-0.7389429211616516,1.5262819528579712
1761479536263433200,3.88543310546875,0.8890846967697144,-0.9313720464706421,1.2884361743927002
1761479536273469200,3.89546923828125,1.0440208911895752,-1.0237600803375244,0.951896607875824
1761479536283505200,3.905505126953125,1.3016388416290283,-0.951850175857544,0.544977068901062
1761479536293541000,3.915541015625,1.499781608581543,-0.679909348487854,0.15399391949176788
1761479536303577000,3.9255771484375,1.527120590209961,-0.40808019042015076,-0.21540090441703796
1761479536313613000,3.935613037109375,1.2696565389633179,0.061080653220415115,-0.6956585049629211
1761479536323649300,3.945649169921875,0.5304324626922607,0.5728792548179626,-1.280046820640564
1761479536333685200,3.955685302734375,-0.5825226306915283,0.7361863851547241,-1.8659887313842773
1761479536343722000,3.965721923828125,-1.6222007274627686,0.7985664010047913,-2.2514333724975586
1761479536353758200,3.97575830078125,-2.1769611835479736,1.014703392982483,-2.2259597778320312
1761479536363794200,3.985794189453125,-2.123018741607666,1.1483943462371826,-1.767781376838684
1761479536373830100,3.995830078125,-1.6995302438735962,1.1116907596588135,-1.1370905637741089
1761479536383866000,4.0058662109375,-1.1165941953659058,1.0540109872817993,-0.582364559173584
1761479536393900000,4.015900146484375,-0.5606392025947571,1.0037325620651245,-0.2562687397003174
1761479536403936300,4.025936279296875,-0.1912456899881363,0.9273006319999695,-0.19500964879989624
1761479536413972200,4.03597216796875,-0.04904899001121521,0.9628499150276184,-0.3123050034046173
1761479536424008200,4.04600830078125,-0.05808083713054657,1.0419577360153198,-0.5287778973579407
1761479536434045200,4.056045166015625,-0.17344287037849426,1.1343040466308594,-0.7920936942100525
1761479536444080000,4.066080078125,-0.3150665760040283,1.164050817489624,-0.903680145740509
1761479536454117000,4.0761171875,-0.3028739392757416,0.9351872205734253,-0.7254762053489685
1761479536464153000,4.086153076171875,-0.07162286341190338,0.5847495794296265,-0.35186293721199036
1761479536474189000,4.09618896484375,0.27989232540130615,0.2788020968437195,0.11743979156017303
1761479536484225000,4.10622509765625,0.5795685052871704,0.008304018527269363,0.5579943060874939
1761479536494261000,4.116260986328125,0.7515742778778076,-0.2097737193107605,0.8490634560585022
1761479536504297000,4.126296875,0.7603994607925415,-0.3538544774055481,0.925286591053009
1761479536514333000,4.1363330078125,0.5924201011657715,-0.40829095244407654,0.8864675164222717
1761479536524369200,4.146369140625,0.324552446603775,-0.4403146505355835,0.780579149723053
1761479536534405000,4.156405029296875,0.014556591399013996,-0.5084737539291382,0.6192207932472229
1761479536544441300,4.16644140625,-0.28007185459136963,-0.5103856921195984,0.4889589548110962
1761479536554477300,4.176477294921875,-0.45654529333114624,-0.3488084673881531,0.3954739272594452
1761479536564513300,4.18651318359375,-0.46241623163223267,-0.2020602971315384,0.3217717409133911
1761479536574549200,4.19654931640625,-0.419089138507843,-0.19346201419830322,0.29389363527297974
1761479536584585200,4.206585205078125,-0.3441499173641205,-0.30371367931365967,0.2651645243167877
1761479536594621200,4.21662109375,-0.24330398440361023,-0.494541198015213,0.16442427039146423
1761479536604657200,4.2266572265625,-0.14970292150974274,-0.5757156610488892,0.08964458853006363
1761479536614693000,4.236693115234375,-0.02226814441382885,-0.4380630552768707,0.03276811167597771
1761479536624729000,4.24672900390625,0.016504550352692604,-0.1961582899093628,-0.0657866895198822
1761479536634766000,4.25676611328125,-0.11475526541471481,0.042857635766267776,-0.17105096578598022
1761479536644802000,4.266802001953125,-0.3073076903820038,0.22652973234653473,-0.26108500361442566
1761479536654838000,4.276838134765625,-0.41666218638420105,0.2953842878341675,-0.38893982768058777
1761479536664874000,4.2868740234375,-0.40880027413368225,0.297504723072052,-0.40503010153770447
1761479536674910000,4.296909912109375,-0.3183881342411041,0.21762534976005554,-0.24474778771400452
1761479536684946200,4.3069462890625,-0.19630855321884155,0.04992157593369484,0.05736945569515228
1761479536694982100,4.316982177734375,-0.08559088408946991,-0.048344582319259644,0.4007301330566406
1761479536705018000,4.32701806640625,-0.003323973622173071,-0.015360798686742783,0.7564776539802551
1761479536715054000,4.33705419921875,0.03888855129480362,0.040362399071455,1.047558307647705
1761479536725090000,4.347090087890625,0.09258879721164703,-0.08504479378461838,1.1458710432052612
1761479536735126000,4.3571259765625,0.17445220053195953,-0.287118524312973,0.9552023410797119
1761479536745162000,4.367161865234375,0.3300095796585083,-0.445182204246521,0.5355461835861206
1761479536755198200,4.3771982421875,0.6171107888221741,-0.4938461482524872,0.012429818511009216
1761479536765234200,4.387234130859375,0.8526743054389954,-0.42209845781326294,-0.5441356897354126
1761479536775270100,4.397270263671875,0.9562131762504578,-0.2866703271865845,-0.9327440857887268
1761479536785306000,4.40730615234375,0.9636591076850891,-0.25530946254730225,-0.9369020462036133
1761479536795342000,4.417342041015625,1.0084387063980103,-0.38105088472366333,-0.6648379564285278
1761479536805378300,4.42737841796875,1.1807808876037598,-0.44847679138183594,-0.4550762176513672
1761479536815414300,4.437414306640625,1.163922667503357,-0.5923045873641968,-0.5247219800949097
1761479536825451000,4.447450927734375,0.46038389205932617,-0.9854944944381714,-0.530080258846283
1761479536835487200,4.4574873046875,-0.772344708442688,-0.8220657110214233,-0.41033804416656494
1761479536845523200,4.467523193359375,-1.8275692462921143,-0.008038578554987907,-0.11622251570224762
1761479536855559200,4.47755908203125,-2.031449794769287,0.7905199527740479,0.1977299302816391
1761479536865595100,4.48759521484375,-1.4818146228790283,1.0610166788101196,0.29839155077934265
1761479536875631000,4.497631103515625,-0.5623281002044678,0.6795804500579834,0.15393967926502228
1761479536885667000,4.5076669921875,0.1881493777036667,0.14439694583415985,-0.36763855814933777
1761479536895703000,4.517703125,0.3461762070655823,-0.15879158675670624,-1.0588411092758179
1761479536905739000,4.527739013671875,0.014062192291021347,-0.13242869079113007,-1.480553150177002
1761479536915775000,4.53777490234375,-0.5828109979629517,0.05790165066719055,-1.3269764184951782
1761479536925811000,4.54781103515625,-1.1303364038467407,0.18057963252067566,-0.7465870976448059
1761479536935847200,4.55784716796875,-1.3766942024230957,0.3637256920337677,-0.13194452226161957
1761479536945883100,4.567883056640625,-1.3602590560913086,0.413204550743103,0.28470727801322937
1761479536955919000,4.577919189453125,-1.1161023378372192,0.15981827676296234,0.4725840389728546
1761479536965955000,4.587955078125,-0.7081124782562256,-0.1367609202861786,0.46248558163642883
1761479536975992300,4.597992431640625,-0.26572132110595703,-0.36331844329833984,0.3262450695037842
1761479536986028300,4.6080283203125,0.06511413305997849,-0.47443804144859314,0.12769919633865356
1761479536996064300,4.618064208984375,0.20990630984306335,-0.4341232180595398,-0.06890931725502014
1761479537006100200,4.628100341796875,0.27852797508239746,-0.235346719622612,-0.11310181021690369
1761479537016136200,4.63813623046875,0.30244308710098267,-0.09848608821630478,0.03513835370540619
1761479537026172200,4.648172119140625,0.2747669816017151,-0.10881462693214417,0.3228609561920166
1761479537036208000,4.6582080078125,0.2354167103767395,-0.19245165586471558,0.6131801009178162
1761479537046244000,4.668244140625,0.2176337093114853,-0.2485106736421585,0.7947019338607788
1761479537056280000,4.678280029296875,0.25428345799446106,-0.2599460780620575,0.8765186071395874
1761479537066316000,4.68831591796875,0.3595006763935089,-0.26610037684440613,0.9525819420814514
1761479537076351500,4.6983515625,0.4655759036540985,-0.26988518238067627,0.9850508570671082
1761479537086387500,4.708387451171875,0.4953039884567261,-0.31921225786209106,0.9298184514045715
1761479537096423400,4.71842333984375,0.438824325799942,-0.4388238489627838,0.8012547492980957
1761479537106459400,4.72845947265625,0.3248429000377655,-0.3911498188972473,0.4493155777454376
1761479537116496600,4.73849658203125,0.15014497935771942,-0.31727781891822815,0.050694577395915985
1761479537126532600,4.74853271484375,-0.0003132275305688381,-0.21832247078418732,-0.29334214329719543
1761479537136568600,4.758568603515625,-0.0656093880534172,-0.08037509769201279,-0.4740176796913147
1761479537146604500,4.7686044921875,-0.11332470923662186,-0.04258084297180176,-0.4892783761024475
1761479537156640500,4.778640625,-0.17829325795173645,0.02196897566318512,-0.37822893261909485
1761479537166676500,4.788676513671875,-0.2356918305158615,0.07864318042993546,-0.18113315105438232
1761479537176712400,4.79871240234375,-0.27266624569892883,0.06349862366914749,0.03968803212046623
1761479537186748400,4.80874853515625,-0.3149718940258026,-0.03200739249587059,0.24443957209587097
1761479537196784400,4.818784423828125,-0.28147292137145996,-0.1325770765542984,0.4126015603542328
1761479537206820600,4.828820556640625,-0.1137358620762825,-0.15787097811698914,0.5809298753738403
1761479537216856600,4.838856689453125,0.14169283211231232,-0.2007778137922287,0.80925452709198
1761479537226892500,4.848892578125,0.372243732213974,-0.407151460647583,1.0404424667358398
1761479537236928500,4.858928466796875,0.5307479500770569,-0.7366329431533813,1.1552443504333496
1761479537246964500,4.868964599609375,0.5771623253822327,-0.8853318691253662,1.167604923248291
1761479537257000400,4.87900048828125,0.5494493842124939,-0.930178701877594,1.124463677406311
1761479537267036400,4.889036376953125,0.5275997519493103,-0.8447614908218384,1.0284825563430786
1761479537277072400,4.899072265625,0.6177191734313965,-0.7841670513153076,1.072225570678711
1761479537287109400,4.909109375,0.7824894785881042,-0.6935226321220398,1.1999870538711548
1761479537297145300,4.919145263671875,0.9406759738922119,-0.5056482553482056,1.2425771951675415
1761479537307181300,4.929181396484375,1.0283925533294678,-0.43537968397140503,0.9800382852554321
1761479537317217300,4.93921728515625,1.03031587600708,-0.4775291383266449,0.42083409428596497
1761479537327253200,4.949253173828125,0.7969964146614075,-0.6374844312667847,-0.2602238059043884
1761479537337289500,4.95928955078125,0.445239394903183,-0.4530380368232727,-1.0419901609420776
1761479537347325400,4.969325439453125,-0.20676849782466888,-0.18895819783210754,-1.784277319908142
1761479537357361700,4.979361572265625,-0.8556569814682007,0.3496040403842926,-2.311514377593994
1761479537367397600,4.989397705078125,-1.1947479248046875,1.1047388315200806,-2.4373793601989746
1761479537377433600,4.99943359375,-1.1934365034103394,1.6006767749786377,-2.1968841552734375
1761479537387469600,5.009469482421875,-0.8296716213226318,1.6916722059249878,-1.8380486965179443
1761479537397505500,5.019505615234375,-0.45166900753974915,1.347045660018921,-1.4259933233261108
1761479537407541500,5.02954150390625,-0.21029046177864075,0.7463507056236267,-1.0598819255828857
1761479537417577500,5.039577392578125,-0.09142744541168213,0.3970852494239807,-0.7937090992927551
1761479537427613400,5.049613525390625,-0.0817127674818039,0.41402268409729004,-0.5067220330238342
1761479537437649400,5.0596494140625,-0.07926079630851746,0.5564263463020325,-0.06120877340435982
1761479537447685400,5.069685302734375,0.0027464530430734158,0.6414262056350708,0.39849090576171875
1761479537457721300,5.079721435546875,0.15328799188137054,0.6199347972869873,0.711515486240387
1761479537467758300,5.08975830078125,0.3065425157546997,0.45653918385505676,0.8427757620811462
1761479537477794300,5.099794189453125,0.43302032351493835,0.19158218801021576,0.8194365501403809
1761479537487830500,5.10983056640625,0.5392135977745056,-0.04437708482146263,0.751065194606781
1761479537497866500,5.119866455078125,0.5959286689758301,-0.24757279455661774,0.6664093732833862
1761479537507902500,5.12990234375,0.5940511226654053,-0.34843897819519043,0.5361863970756531
1761479537517938400,5.1399384765625,0.5163963437080383,-0.31883111596107483,0.3654816448688507
1761479537527974400,5.149974365234375,0.4320726990699768,-0.18280109763145447,0.20273612439632416
1761479537538010400,5.16001025390625,0.37809544801712036,-0.06308716535568237,0.10038478672504425
1761479537548046300,5.17004638671875,0.24849510192871094,-0.049407847225666046,0.1202988401055336
1761479537558082300,5.180082275390625,0.0828791931271553,-0.12494635581970215,0.20068587362766266
1761479537568118500,5.190118408203125,-0.07475331425666809,-0.17626041173934937,0.2789207696914673
1761479537578154500,5.200154541015625,-0.2317885011434555,-0.2461552768945694,0.33280348777770996
1761479537588190500,5.2101904296875,-0.35394343733787537,-0.29251423478126526,0.353389710187912
1761479537598226400,5.220226318359375,-0.42582443356513977,-0.3139786422252655,0.30580905079841614
1761479537608262700,5.2302626953125,-0.4201093018054962,-0.3551764190196991,0.20617619156837463
1761479537618298600,5.240298583984375,-0.35702791810035706,-0.35547807812690735,0.0652434453368187
1761479537628334600,5.25033447265625,-0.25289300084114075,-0.30534327030181885,-0.08808059990406036
1761479537638370600,5.26037060546875,-0.17990514636039734,-0.16048851609230042,-0.2521728575229645
1761479537648407600,5.270407470703125,-0.11779969185590744,0.0595109649002552,-0.37908074259757996
1761479537658443500,5.280443603515625,-0.09330441802740097,0.1828974336385727,-0.41416633129119873
1761479537668479500,5.2904794921875,-0.12189105153083801,0.17136222124099731,-0.39843371510505676
1761479537678515500,5.300515380859375,-0.1626891940832138,0.08056073635816574,-0.344738632440567
1761479537688551400,5.310551513671875,-0.1897442489862442,-0.027203012257814407,-0.20570939779281616
1761479537698587400,5.32058740234375,-0.22242607176303864,-0.1301673948764801,0.05777794122695923
1761479537708623400,5.330623291015625,-0.21017420291900635,-0.1753798872232437,0.3082146942615509
1761479537718659300,5.340659423828125,-0.11980339884757996,-0.10988783091306686,0.5581260919570923
1761479537728695300,5.3506953125,0.0415056012570858,-0.013978613540530205,0.8526415824890137
1761479537738731300,5.360731201171875,0.286141574382782,0.03282091021537781,1.0826486349105835
1761479537748767500,5.370767578125,0.5155406594276428,-0.001437461469322443,1.1774795055389404
1761479537758803500,5.380803466796875,0.6465325355529785,-0.23811767995357513,1.004338026046753
1761479537768839400,5.39083935546875,0.6660023927688599,-0.5970156192779541,0.5870051980018616
1761479537778875400,5.40087548828125,0.6475611925125122,-0.809585690498352,-0.008871040306985378
1761479537788911400,5.410911376953125,0.7841406464576721,-0.7935601472854614,-0.5453307628631592
1761479537798947600,5.420947509765625,1.0282108783721924,-0.4670460820198059,-0.8025534152984619
1761479537808983600,5.430983642578125,1.1630496978759766,0.07919007539749146,-0.7083539366722107
1761479537819019500,5.44101953125,0.9272787570953369,0.5239050388336182,-0.41241100430488586
1761479537829056500,5.451056396484375,0.3249497711658478,0.6221655607223511,-0.38211116194725037
1761479537839092500,5.461092529296875,-0.43400299549102783,0.31224706768989563,-0.6229311227798462
1761479537849128400,5.47112841796875,-1.210976481437683,0.005557173863053322,-1.2045934200286865
1761479537859164400,5.481164306640625,-1.8587453365325928,0.08306955546140671,-1.9645785093307495
1761479537869200400,5.491200439453125,-2.1403861045837402,0.637636125087738,-2.5453712940216064
1761479537879236400,5.501236328125,-1.8029810190200806,1.406531810760498,-2.612823724746704
1761479537889272600,5.5112724609375,-1.4080649614334106,1.8061623573303223,-2.116609811782837
1761479537899308500,5.52130859375,-0.9486069679260254,1.6174089908599854,-1.369543194770813
1761479537909344500,5.531344482421875,-0.5230628848075867,1.1925899982452393,-0.6862442493438721
1761479537919380500,5.54138037109375,-0.12825103104114532,0.8264111280441284,-0.245870441198349
1761479537929416400,5.55141650390625,0.18037177622318268,0.6730354428291321,-0.06650228053331375
1761479537939452400,5.561452392578125,0.284623920917511,0.6201481819152832,-0.02371332049369812
1761479537949488400,5.57148828125,0.22789618372917175,0.4924309551715851,-0.002885802648961544
1761479537959524400,5.5815244140625,0.12658682465553284,0.2782224416732788,0.07543142139911652
1761479537969560300,5.591560302734375,0.0730423703789711,0.22251391410827637,0.29133468866348267
1761479537979596300,5.60159619140625,0.08781605213880539,0.17904029786586761,0.5699942111968994
1761479537989632300,5.61163232421875,0.1263410747051239,0.16772718727588654,0.790663480758667
1761479537999668500,5.62166845703125,0.23708638548851013,0.15495461225509644,0.9615246057510376
1761479538009705500,5.63170556640625,0.4096895754337311,-0.020942382514476776,1.1001237630844116
1761479538019741400,5.641741455078125,0.5714436769485474,-0.3597182631492615,1.1931507587432861
1761479538029777400,5.65177734375,0.6521052122116089,-0.6430684328079224,1.2062673568725586
1761479538039813600,5.661813720703125,0.5817460417747498,-0.7041319012641907,1.159883975982666
1761479538049849600,5.671849609375,0.3295987546443939,-0.626033365726471,1.0136476755142212
1761479538059885600,5.681885498046875,-0.04357969015836716,-0.4383828938007355,0.7649272084236145
1761479538069921500,5.691921630859375,-0.39297202229499817,-0.19234035909175873,0.517589807510376
1761479538079957800,5.701957763671875,-0.6116753220558167,0.02162249945104122,0.3368026614189148
1761479538089993700,5.71199365234375,-0.6886937022209167,0.09600938856601715,0.2149960696697235
1761479538100029700,5.72202978515625,-0.5530270338058472,0.11754406243562698,0.14293824136257172
1761479538110065700,5.732065673828125,-0.34538811445236206,0.0005157135892659426,0.09288252145051956
1761479538120101600,5.7421015625,-0.12790611386299133,-0.30778518319129944,0.09714657068252563
1761479538130137600,5.7521376953125,0.0455452986061573,-0.5031046271324158,0.08137746155261993
1761479538140173600,5.762173583984375,0.1531122326850891,-0.4638878107070923,0.04942534118890762
1761479538150209800,5.772209716796875,0.17160841822624207,-0.27714693546295166,-0.007593472488224506
1761479538160245800,5.782245849609375,0.18514496088027954,-0.1044565886259079,-0.10329465568065643
1761479538170281700,5.79228173828125,0.1851031482219696,-0.043314676731824875,-0.1699405312538147
1761479538180317700,5.802317626953125,0.1972724348306656,-0.07070255279541016,-0.19378136098384857
1761479538190353700,5.812353759765625,0.233159601688385,-0.09813018143177032,-0.1554454267024994
1761479538200391000,5.822390869140625,0.2849313020706177,-0.10686944425106049,-0.046970464289188385
1761479538210427000,5.832427001953125,0.33029797673225403,-0.1905938982963562,0.1555086076259613
1761479538220462800,5.842462890625,0.4128943383693695,-0.2781238555908203,0.3710661828517914
1761479538230498800,5.852498779296875,0.47075286507606506,-0.18000315129756927,0.5359224677085876
1761479538240534800,5.86253466796875,0.5503430962562561,-0.003563163336366415,0.6431546211242676
1761479538250570800,5.87257080078125,0.6508817076683044,-0.011413363739848137,0.5756168961524963
1761479538260606700,5.882606689453125,0.7677792906761169,-0.203983873128891,0.26580679416656494
1761479538270642700,5.892642578125,0.8884372711181641,-0.4766654670238495,-0.2527964115142822
1761479538280678700,5.9026787109375,1.0375399589538574,-0.7962995171546936,-0.7833237051963806
1761479538290714600,5.912714599609375,1.2345566749572754,-0.913870632648468,-1.0945571660995483
1761479538300750800,5.922750732421875,1.3623719215393066,-0.699073076248169,-1.025949478149414
1761479538310786800,5.932786865234375,1.2421444654464722,-0.22304503619670868,-0.5869688987731934
1761479538320822800,5.94282275390625,0.8011224865913391,0.2606952488422394,-0.07031279802322388
1761479538330858800,5.952858642578125,0.04887216165661812,0.4119793176651001,0.12778110802173615
1761479538340894700,5.962894775390625,-0.8342217803001404,0.4239019751548767,-0.13012726604938507
1761479538350930700,5.9729306640625,-1.6308236122131348,0.3562033474445343,-0.6146543025970459
1761479538360966700,5.982966552734375,-2.0983502864837646,0.3705701231956482,-1.0592750310897827
1761479538371002600,5.993002685546875,-2.1253161430358887,0.5465176701545715,-1.280892014503479
1761479538381038600,6.00303857421875,-1.7747350931167603,0.8487043380737305,-1.246225357055664
1761479538391074600,6.013074462890625,-1.3938692808151245,1.05940842628479,-0.9556961059570312
1761479538401111600,6.023111572265625,-0.971494197845459,0.9854363799095154,-0.5630536079406738
1761479538411147500,6.0331474609375,-0.5542474389076233,0.7704300284385681,-0.3160044252872467
1761479538421183500,6.04318359375,-0.13568037748336792,0.5840620994567871,-0.32592007517814636
1761479538431219700,6.0532197265625,0.15430909395217896,0.599383533000946,-0.43651074171066284
1761479538441255700,6.063255615234375,0.2336433380842209,0.7638902068138123,-0.5483094453811646
1761479538451292000,6.0732919921875,0.13824038207530975,0.9491288065910339,-0.6407759785652161
1761479538461328000,6.083327880859375,-0.06653562933206558,1.0541166067123413,-0.725118100643158
1761479538471363800,6.09336376953125,-0.23905573785305023,1.046886920928955,-0.7746316194534302
1761479538481399800,6.10339990234375,-0.308098703622818,0.7910281419754028,-0.7289900779724121
1761479538491435800,6.113435791015625,-0.2607271671295166,0.40745997428894043,-0.5352344512939453
1761479538501471700,6.1234716796875,-0.107013039290905,0.15981797873973846,-0.1694750338792801
1761479538511507700,6.1335078125,0.16769495606422424,0.04638676345348358,0.265351802110672
1761479538521543700,6.143543701171875,0.46537524461746216,-0.17572848498821259,0.730989933013916
1761479538531579600,6.15357958984375,0.6723819971084595,-0.44302329421043396,1.0420691967010498
1761479538541615600,6.16361572265625,0.7316609621047974,-0.5339108109474182,1.0998706817626953
1761479538551651800,6.17365185546875,0.6767300367355347,-0.46258604526519775,0.9360980987548828
1761479538561687800,6.183687744140625,0.5017387866973877,-0.3804265558719635,0.7260125279426575
1761479538571723800,6.193723876953125,0.23535771667957306,-0.38965892791748047,0.5563387870788574
1761479538581759700,6.203759765625,-0.05900496244430542,-0.3916437029838562,0.4787907600402832
1761479538591796700,6.213796630859375,-0.30214062333106995,-0.3414950370788574,0.4754199981689453
1761479538601831700,6.223831787109375,-0.4502080976963043,-0.2225874364376068,0.453978568315506
1761479538611868700,6.23386865234375,-0.4575485587120056,-0.04267732426524162,0.3604497015476227
1761479538621904600,6.243904541015625,-0.3428684175014496,0.01223298441618681,0.2667398154735565
1761479538631940600,6.253940673828125,-0.19349835813045502,-0.08672342449426651,0.14910343289375305
1761479538641976600,6.2639765625,-0.06897426396608353,-0.23077110946178436,-0.03555111959576607
1761479538652012500,6.274012451171875,-0.07075964659452438,-0.3418680727481842,-0.26954230666160583
1761479538662048800,6.284048828125,0.12157149612903595,-0.1590702384710312,-0.44648247957229614
1761479538672084700,6.294084716796875,0.2770121991634369,-0.11082015186548233,-0.5303923487663269
1761479538682120700,6.30412060546875,0.28818079829216003,-0.13571445643901825,-0.4460117518901825
1761479538692156700,6.31415673828125,0.19314800202846527,-0.10188698768615723,-0.22828765213489532
1761479538702193000,6.32419287109375,0.008934548124670982,0.050113506615161896,0.12648051977157593
1761479538712228900,6.334228759765625,-0.19346916675567627,0.13371625542640686,0.5010778307914734
1761479538722264800,6.344264892578125,-0.3881206512451172,0.01973300613462925,0.7727943062782288
1761479538732300800,6.35430078125,-0.4753303825855255,-0.24365361034870148,0.9732336401939392
1761479538742336800,6.364336669921875,-0.39961791038513184,-0.49360349774360657,1.1762022972106934
1761479538752372700,6.374372802734375,-0.1264452189207077,-0.6346306204795837,1.3657221794128418
1761479538762408700,6.38440869140625,0.23876260221004486,-0.6335108876228333,1.5012978315353394
1761479538772444700,6.394444580078125,0.4314849078655243,-0.6248068809509277,1.5453917980194092
1761479538782480600,6.404480712890625,0.4691195785999298,-0.610052764415741,1.4643715620040894
1761479538792516600,6.4145166015625,0.4960840940475464,-0.5298141241073608,1.2508963346481323
1761479538802552600,6.424552490234375,0.6412011384963989,-0.5182350873947144,0.9258821606636047
1761479538812588800,6.4345888671875,0.8067528009414673,-0.6151954531669617,0.4566667377948761
1761479538822625500,6.44462548828125,0.9043076634407043,-0.6314584612846375,-0.06132584437727928
1761479538832661500,6.45466162109375,0.8718607425689697,-0.24633552134037018,-0.5865834951400757
1761479538842697700,6.46469775390625,0.747100293636322,0.1554643213748932,-1.0450228452682495
1761479538852733700,6.474733642578125,0.4998827874660492,0.4906708300113678,-1.3274601697921753
1761479538862769700,6.484769775390625,0.07655325531959534,0.6032618284225464,-1.4738919734954834
1761479538872805600,6.4948056640625,-0.4508218765258789,0.6180250644683838,-1.467207431793213
1761479538882841600,6.504841552734375,-0.9971214532852173,0.5715627670288086,-1.3203328847885132
1761479538892877800,6.5148779296875,-1.4291359186172485,0.7240961194038391,-1.088584303855896
1761479538902913800,6.524913818359375,-1.6226712465286255,1.1572459936141968,-0.8750568628311157
1761479538912949800,6.53494970703125,-1.5891287326812744,1.634069800376892,-0.6311488747596741
1761479538922985700,6.54498583984375,-1.3269933462142944,2.112489700317383,-0.3507734537124634
1761479538933021700,6.555021728515625,-0.9267662167549133,2.3593857288360596,-0.037066906690597534
1761479538943057700,6.5650576171875,-0.6048789620399475,2.0149707794189453,0.17270196974277496
1761479538953094000,6.575093994140625,-0.5375047326087952,0.9328652024269104,0.02661321684718132
1761479538963129900,6.5851298828125,-0.31564247608184814,0.16107581555843353,-0.473808228969574
1761479538973165800,6.595165771484375,-0.23253744840621948,0.18589967489242554,-0.5527940988540649
1761479538983201800,6.605201904296875,-0.3635096848011017,0.307894229888916,-0.3674044609069824
1761479538993237800,6.61523779296875,-0.3779381513595581,0.3085506856441498,0.15076227486133575
1761479539003273700,6.625273681640625,-0.19676800072193146,0.014934789389371872,0.678047776222229
1761479539013309700,6.635309814453125,0.0496327169239521,-0.37614908814430237,1.0880067348480225
1761479539023345700,6.645345703125,0.31405073404312134,-0.9529537558555603,1.3838424682617188
1761479539033381600,6.655381591796875,0.570288360118866,-1.6588352918624878,1.3852832317352295
