time,seconds_elapsed,z,y,x
1761479532459766800,0.081766845703125,0.24940796196460724,-0.31152379512786865,0.20809701085090637
1761479532469802800,0.091802734375,0.38478896021842957,-0.2374058961868286,0.2276962697505951
1761479532479839000,0.1018388671875,0.5493307709693909,-0.03386209160089493,0.17118053138256073
1761479532489875000,0.111875,0.6145973801612854,0.11766564846038818,0.18330244719982147
1761479532499911200,0.1219111328125,0.5800985097885132,0.08430901914834976,0.26144999265670776
1761479532509947100,0.131947021484375,0.5659496784210205,-0.0617978535592556,0.3303014934062958
1761479532519983000,0.141983154296875,0.5788474082946777,-0.2002047300338745,0.3894106149673462
1761479532530019000,0.15201904296875,0.5832107067108154,-0.206630140542984,0.47191348671913147
1761479532540056000,0.16205615234375,0.5995215177536011,-0.13414235413074493,0.5257894992828369
1761479532550092000,0.172092041015625,0.6364595293998718,-0.005529787857085466,0.532066822052002
1761479532560128000,0.1821279296875,0.6292194724082947,0.08154492825269699,0.5166670680046082
1761479532570164000,0.1921640625,0.5669286847114563,0.166748508810997,0.5405763983726501
1761479532580200000,0.202199951171875,0.524067223072052,0.21451948583126068,0.5673494338989258
1761479532590236000,0.21223583984375,0.5235543251037598,0.0692770779132843,0.5116925835609436
1761479532600272000,0.22227197265625,0.5153557658195496,-0.19767872989177704,0.4121260344982147
1761479532610307800,0.232307861328125,0.5027164220809937,-0.43436184525489807,0.298904150724411
1761479532620343800,0.24234375,0.5516051054000854,-0.6403581500053406,0.20373421907424927
1761479532630380000,0.252380126953125,0.6513290405273438,-0.7225523591041565,0.19476228952407837
1761479532640416000,0.262416015625,0.7406812906265259,-0.6403464078903198,0.2696724832057953
1761479532650452000,0.272451904296875,0.7324302792549133,-0.41820311546325684,0.376422643661499
1761479532660488000,0.282488037109375,0.5619972944259644,-0.24071434140205383,0.47060319781303406
1761479532670524000,0.29252392578125,0.1737494170665741,-0.16066956520080566,0.4552311599254608
1761479532680559900,0.302559814453125,-0.318329781293869,-0.2920965850353241,0.2734358012676239
1761479532690595800,0.312595947265625,-0.6296961903572083,-0.5459874272346497,0.027586087584495544
1761479532700631800,0.3226318359375,-0.5804005265235901,-0.8764559030532837,-0.19007140398025513
1761479532710667800,0.332667724609375,-0.2577814757823944,-1.1588188409805298,-0.24179691076278687
1761479532720703700,0.342703857421875,0.1338781714439392,-1.3321360349655151,-0.04116501286625862
1761479532730740000,0.352739990234375,0.4006211757659912,-1.2056503295898438,0.3830808103084564
1761479532740776000,0.36277587890625,0.38913604617118835,-0.7205134630203247,0.7894027233123779
1761479532750812200,0.372812255859375,0.2354479432106018,-0.4529496431350708,0.8811787366867065
1761479532760848100,0.38284814453125,0.24516607820987701,-0.3500986099243164,0.7023749351501465
1761479532770884000,0.392884033203125,0.2096560299396515,-0.08875836431980133,0.2905775010585785
1761479532780920000,0.402920166015625,0.14040611684322357,-0.11890401691198349,-0.1808270364999771
1761479532790957000,0.41295703125,0.0667065903544426,-0.26138606667518616,-0.48689374327659607
1761479532800993000,0.422992919921875,-0.03362081199884415,-0.29326382279396057,-0.6344432830810547
1761479532811029000,0.433029052734375,-0.17389190196990967,-0.22080135345458984,-0.5833315849304199
1761479532821065000,0.44306494140625,-0.34242552518844604,-0.11620490252971649,-0.36916473507881165
1761479532831101000,0.453100830078125,-0.5223124623298645,0.05420038849115372,-0.24361585080623627
1761479532841137000,0.463136962890625,-0.7278613448143005,0.2232874184846878,-0.247726708650589
1761479532851172900,0.4731728515625,-0.8644794225692749,0.47339311242103577,-0.31678512692451477
1761479532861208800,0.483208740234375,-0.8503153920173645,0.844826877117157,-0.39561736583709717
1761479532871244800,0.493244873046875,-0.6719485521316528,1.1664445400238037,-0.42853644490242004
1761479532881281000,0.503281005859375,-0.4193362891674042,1.2898935079574585,-0.45710256695747375
1761479532891317000,0.51331689453125,-0.12064039707183838,1.1341098546981812,-0.4912051558494568
1761479532901353000,0.52335302734375,0.17103752493858337,0.8895493149757385,-0.5695881247520447
1761479532911389000,0.533388916015625,0.3552566170692444,0.680084228515625,-0.6929851174354553
1761479532921425000,0.5434248046875,0.37293389439582825,0.5779144763946533,-0.8253783583641052
1761479532931460900,0.5534609375,0.2421385943889618,0.5740571618080139,-0.8397144079208374
1761479532941496800,0.563496826171875,0.07943623512983322,0.6427257061004639,-0.7374809384346008
1761479532951532800,0.57353271484375,-0.049618419259786606,0.7413449287414551,-0.5706677436828613
1761479532961569000,0.583569091796875,-0.04849296808242798,0.7023376226425171,-0.3815963566303253
1761479532971605000,0.59360498046875,0.03459499403834343,0.3699556887149811,-0.18424281477928162
1761479532981641000,0.603640869140625,0.09811538457870483,-0.09928636997938156,-0.014311827719211578
1761479532991677000,0.613677001953125,0.06256377696990967,-0.5337158441543579,0.11063836514949799
1761479533001713200,0.623713134765625,-0.09993857890367508,-0.7462371587753296,0.16434793174266815
1761479533011749000,0.6337490234375,-0.28269001841545105,-0.639726996421814,0.14146098494529724
1761479533021785000,0.64378515625,-0.3661779761314392,-0.3300338387489319,-0.006150304339826107
1761479533031822000,0.653822021484375,-0.3707977831363678,-0.0741669088602066,-0.19704648852348328
1761479533041858000,0.663858154296875,-0.3601802885532379,0.07371097058057785,-0.3250736892223358
1761479533051894000,0.67389404296875,-0.31657874584198,0.1836441308259964,-0.38354793190956116
1761479533061930000,0.683929931640625,-0.22986462712287903,0.34955906867980957,-0.47288286685943604
1761479533071966000,0.693966064453125,-0.1867898553609848,0.4046899676322937,-0.5724446177482605
1761479533082002000,0.704001953125,-0.15450888872146606,0.3551567494869232,-0.5756281614303589
1761479533092038000,0.714037841796875,-0.13640470802783966,0.2320833057165146,-0.5119304060935974
1761479533102073900,0.724073974609375,-0.12819711863994598,0.09284285455942154,-0.40110722184181213
1761479533112109800,0.73410986328125,-0.11907472461462021,-0.023080551996827126,-0.19817113876342773
1761479533122145800,0.744145751953125,-0.10916829854249954,-0.12840405106544495,0.1106540784239769
1761479533132181800,0.754181640625,-0.05535193905234337,-0.1833469271659851,0.45360130071640015
1761479533142218000,0.764218017578125,0.09118583798408508,-0.1894966959953308,0.7321740984916687
1761479533152254000,0.77425390625,0.360624760389328,-0.20630869269371033,0.9285973906517029
1761479533162290000,0.7842900390625,0.6275920271873474,-0.3293406069278717,1.045060634613037
1761479533172326000,0.794325927734375,0.8531753420829773,-0.4660542607307434,1.041883945465088
1761479533182361900,0.80436181640625,1.027427077293396,-0.5415626168251038,0.8775120973587036
1761479533192397800,0.814397705078125,1.109843373298645,-0.5966386198997498,0.5599858164787292
1761479533202433800,0.824433837890625,1.1396859884262085,-0.7491543889045715,0.12580053508281708
1761479533212469800,0.8344697265625,1.1013745069503784,-1.0227843523025513,-0.2510186433792114
1761479533222505700,0.844505615234375,0.9264413118362427,-1.1688568592071533,-0.4608520269393921
1761479533232541700,0.854541748046875,0.6455073952674866,-0.9987317323684692,-0.46655386686325073
1761479533242579000,0.864578857421875,0.38009461760520935,-0.5907520055770874,-0.46609872579574585
1761479533252615000,0.874614990234375,0.17017360031604767,0.0357193797826767,-0.6827511191368103
1761479533262651000,0.88465087890625,-0.30614739656448364,0.47696149349212646,-1.0641206502914429
1761479533272686800,0.894686767578125,-1.0059020519256592,0.6697333455085754,-1.4742050170898438
1761479533282723000,0.90472314453125,-1.6513934135437012,0.7031504511833191,-1.700117588043213
1761479533292759000,0.914759033203125,-2.0097432136535645,0.7493722438812256,-1.6295464038848877
1761479533302795000,0.924794921875,-1.9347718954086304,0.7117332816123962,-1.3308907747268677
1761479533312831000,0.9348310546875,-1.4988927841186523,0.7232580780982971,-0.8712219595909119
1761479533322867000,0.944866943359375,-1.0100741386413574,0.7674572467803955,-0.3869999051094055
1761479533332903000,0.95490283203125,-0.628592848777771,0.742845892906189,-0.09859741479158401
1761479533342939000,0.96493896484375,-0.35743004083633423,0.7294504642486572,-0.1815708577632904
1761479533352974800,0.974974853515625,-0.2473141849040985,0.7404999136924744,-0.5392941236495972
1761479533363010800,0.9850107421875,-0.28735533356666565,0.7770488858222961,-0.8653659820556641
1761479533373046800,0.995046875,-0.35779568552970886,0.7618454098701477,-0.9779598712921143
1761479533383082800,1.005082763671875,-0.3266364336013794,0.6322767734527588,-0.8482005596160889
1761479533393119000,1.015118896484375,-0.20922352373600006,0.4359983503818512,-0.6005111336708069
1761479533403155000,1.025155029296875,-0.041912294924259186,0.12085291743278503,-0.24910037219524384
1761479533413191000,1.03519091796875,0.19698017835617065,-0.0404166653752327,0.20768529176712036
1761479533423228000,1.045227783203125,0.4780818819999695,-0.0883767306804657,0.7679741382598877
1761479533433263900,1.055263916015625,0.7330436110496521,-0.17537234723567963,1.2882485389709473
1761479533443299800,1.0652998046875,0.8682682514190674,-0.3553197383880615,1.6259647607803345
1761479533453335800,1.075335693359375,0.8667047023773193,-0.5447919368743896,1.7360448837280273
1761479533463371800,1.085371826171875,0.7820441722869873,-0.7479972839355469,1.6436656713485718
1761479533473408000,1.095407958984375,0.6879509687423706,-0.9809104204177856,1.4096180200576782
1761479533483444000,1.10544384765625,0.6371668577194214,-1.0950430631637573,1.1058310270309448
1761479533493480000,1.11547998046875,0.5694591999053955,-1.077805757522583,0.857391893863678
1761479533503516000,1.125515869140625,0.47418782114982605,-1.030578851699829,0.7020518779754639
1761479533513552000,1.1355517578125,0.4107683598995209,-0.8818058967590332,0.6040818691253662
1761479533523587800,1.145587890625,0.39000022411346436,-0.6305758357048035,0.5692498683929443
1761479533533623800,1.155623779296875,0.39477288722991943,-0.4070066511631012,0.5250707268714905
1761479533543660000,1.165659912109375,0.3662504255771637,-0.285828560590744,0.3796035051345825
1761479533553696000,1.175696044921875,0.32772886753082275,-0.250118225812912,0.14482642710208893
1761479533563732000,1.18573193359375,0.27956798672676086,-0.21033592522144318,-0.17919398844242096
1761479533573768000,1.195767822265625,0.14777374267578125,-0.14004579186439514,-0.5892470479011536
1761479533583804000,1.205803955078125,-0.020960675552487373,0.07991719990968704,-1.0023001432418823
1761479533593841000,1.2158408203125,-0.1463468223810196,0.3452082574367523,-1.3251301050186157
1761479533603876900,1.225876953125,-0.2168705314397812,0.5395247340202332,-1.3812726736068726
1761479533613912800,1.235912841796875,-0.2618587613105774,0.6709828972816467,-1.2234742641448975
1761479533623948800,1.24594873046875,-0.28760167956352234,0.6603853702545166,-0.9525581002235413
1761479533633984800,1.25598486328125,-0.2881167531013489,0.584220826625824,-0.5924351215362549
1761479533644020700,1.266020751953125,-0.2872765064239502,0.4470062553882599,-0.18066911399364471
1761479533654056700,1.276056640625,-0.25732100009918213,0.34002575278282166,0.22076912224292755
1761479533664092700,1.2860927734375,-0.12144680321216583,0.2793187201023102,0.5307978391647339
1761479533674129000,1.29612890625,0.06928133964538574,0.21494773030281067,0.7514505982398987
1761479533684164900,1.306164794921875,0.29211094975471497,-0.058816444128751755,0.8507377505302429
1761479533694200800,1.316200927734375,0.4855049252510071,-0.4261814057826996,0.8165797591209412
1761479533704237000,1.326237060546875,0.5753690004348755,-0.6994438171386719,0.6853229403495789
1761479533714273000,1.33627294921875,0.583766758441925,-0.8233122229576111,0.5123535990715027
1761479533724309000,1.34630908203125,0.5138859748840332,-0.7591415047645569,0.31513771414756775
1761479533734345000,1.356344970703125,0.457791268825531,-0.6817553639411926,0.08912374824285507
1761479533744381000,1.366380859375,0.48738163709640503,-0.6021391153335571,-0.039331693202257156
1761479533754417000,1.3764169921875,0.48041802644729614,-0.5265035033226013,-0.005541771650314331
1761479533764454000,1.386453857421875,0.4283822476863861,-0.5289610624313354,0.11433882266283035
1761479533774489900,1.39648974609375,0.15840215981006622,-0.4208894371986389,0.0321267768740654
1761479533784525800,1.40652587890625,-0.3920505940914154,-0.2984040081501007,-0.3197721540927887
1761479533794561800,1.416561767578125,-1.0806382894515991,-0.016881512477993965,-0.783866822719574
1761479533804597800,1.42659765625,-1.648362159729004,0.23457442224025726,-1.0523818731307983
1761479533814633700,1.4366337890625,-1.8972545862197876,0.4445308446884155,-1.024533748626709
1761479533824670000,1.446669921875,-1.7942755222320557,0.6512739062309265,-0.8273280262947083
1761479533834706000,1.456705810546875,-1.4407552480697632,0.589898407459259,-0.5711694955825806
1761479533844742000,1.466741943359375,-0.9397709369659424,0.39028200507164,-0.32459884881973267
1761479533854777900,1.47677783203125,-0.39825549721717834,0.23514513671398163,-0.1693408191204071
1761479533864813800,1.486813720703125,0.07127364724874496,0.09642747044563293,-0.1413525938987732
1761479533874849800,1.496849853515625,0.45104894042015076,0.1211506575345993,-0.3401471972465515
1761479533884885800,1.5068857421875,0.6363628506660461,0.2220889925956726,-0.6138381361961365
1761479533894921700,1.516921630859375,0.6796048879623413,0.18888896703720093,-0.7649655938148499
1761479533904957700,1.526957763671875,0.617081344127655,-0.007583084981888533,-0.6044134497642517
1761479533914995000,1.536994873046875,0.5548690557479858,-0.24190664291381836,-0.17905549705028534
1761479533925031000,1.547031005859375,0.4322875142097473,-0.3981598913669586,0.3555176258087158
1761479533935067000,1.55706689453125,0.49838051199913025,-0.3473268151283264,0.7590786814689636
1761479533945102800,1.567102783203125,0.6392340064048767,-0.325801283121109,1.078403353691101
1761479533955138800,1.577138916015625,0.8325427770614624,-0.4762805104255676,1.3662521839141846
1761479533965175000,1.587175048828125,0.9393587112426758,-0.7132757902145386,1.5674452781677246
1761479533975211000,1.5972109375,0.8531710505485535,-0.9950736165046692,1.6775493621826172
1761479533985247000,1.6072470703125,0.6761329174041748,-1.171188235282898,1.613303303718567
1761479533995283000,1.617282958984375,0.4606304466724396,-1.2854013442993164,1.3726762533187866
1761479534005319000,1.62731884765625,0.2868613302707672,-1.2590134143829346,1.0712685585021973
1761479534015355000,1.63735498046875,0.14363732933998108,-1.080196738243103,0.7440674901008606
1761479534025390800,1.647390869140625,-0.013991182669997215,-0.8504408001899719,0.4486531615257263
1761479534035426800,1.6574267578125,-0.09951327741146088,-0.5430701971054077,0.25012701749801636
1761479534045462800,1.667462890625,-0.09908849745988846,-0.1347881704568863,0.062557652592659
1761479534055498800,1.677498779296875,-0.09436991065740585,0.17043378949165344,-0.08772852271795273
1761479534065534700,1.68753466796875,-0.08326239883899689,0.2429330199956894,-0.22044742107391357
1761479534075571200,1.6975712890625,-0.036485571414232254,0.16752561926841736,-0.3877727687358856
1761479534085607200,1.707607177734375,-0.004712196998298168,0.03850318491458893,-0.6177036762237549
1761479534095643400,1.717643310546875,-0.013041233643889427,-0.05788913369178772,-0.890857994556427
1761479534105679400,1.727679443359375,-0.09589403867721558,0.05054493248462677,-1.1511950492858887
1761479534115715300,1.73771533203125,-0.26571956276893616,0.28935351967811584,-1.354234218597412
1761479534125751300,1.747751220703125,-0.4669695794582367,0.5941983461380005,-1.4464067220687866
1761479534135787300,1.757787353515625,-0.6164461374282837,0.7399787306785583,-1.3164138793945312
1761479534145823200,1.7678232421875,-0.7128810882568359,0.6702992916107178,-1.0297040939331055
1761479534155859200,1.777859130859375,-0.7042588591575623,0.49475592374801636,-0.6199820041656494
1761479534165895200,1.787895263671875,-0.55783611536026,0.40388888120651245,-0.13512080907821655
1761479534175931100,1.79793115234375,-0.28653350472450256,0.3897656202316284,0.27802175283432007
1761479534185967000,1.807967041015625,0.05601746216416359,0.3667212724685669,0.5906918048858643
1761479534196003000,1.818003173828125,0.32104727625846863,0.24705931544303894,0.7478827238082886
1761479534206039300,1.828039306640625,0.49057984352111816,0.11567013710737228,0.7161399722099304
1761479534216075300,1.8380751953125,0.6283385157585144,-0.0844954401254654,0.5228539109230042
1761479534226112000,1.848112060546875,0.7404256463050842,-0.4554487466812134,0.21787427365779877
1761479534236148200,1.858148193359375,0.8141107559204102,-0.8714557886123657,0.021617677062749863
1761479534246184200,1.86818408203125,0.875171959400177,-1.0590851306915283,0.022287728264927864
1761479534256220200,1.87822021484375,0.8615954518318176,-0.8523449897766113,0.1870148926973343
1761479534266256100,1.888256103515625,0.7578487992286682,-0.33212441205978394,0.4326811134815216
1761479534276292400,1.898292236328125,0.4943729639053345,0.14622963964939117,0.5437501072883606
1761479534286328300,1.908328369140625,-0.19340381026268005,0.25805631279945374,0.4121902287006378
1761479534296364300,1.9183642578125,-0.9984182715415955,0.13344433903694153,0.0191329475492239
1761479534306400300,1.928400146484375,-1.486443042755127,0.08960311859846115,-0.4684572219848633
1761479534316436200,1.938436279296875,-1.466246247291565,0.3375585973262787,-0.8547231554985046
1761479534326472200,1.94847216796875,-1.1395224332809448,0.5489680171012878,-1.081091046333313
1761479534336508200,1.958508056640625,-0.7212889194488525,0.6206057667732239,-1.1823681592941284
1761479534346544400,1.96854443359375,-0.2927889823913574,0.6254020929336548,-1.1889173984527588
1761479534356580400,1.978580322265625,0.04062945023179054,0.6017963886260986,-1.229472279548645
1761479534366617000,1.9886171875,0.13168959319591522,0.532281756401062,-1.3795480728149414
1761479534376653300,1.9986533203125,-0.06432732194662094,0.5481347441673279,-1.4690399169921875
1761479534386689300,2.008689208984375,-0.42659419775009155,0.743587851524353,-1.3276478052139282
1761479534396725200,2.018725341796875,-0.8379878401756287,0.9128296375274658,-0.9222769141197205
1761479534406761200,2.02876123046875,-1.0786646604537964,1.0166995525360107,-0.48234426975250244
1761479534416797200,2.038797119140625,-1.07040274143219,1.0052242279052734,-0.1106886938214302
1761479534426833200,2.048833251953125,-0.7620012164115906,0.8804863095283508,0.22750133275985718
1761479534436869000,2.058869140625,-0.3001305162906647,0.6160525679588318,0.47540727257728577
1761479534446905000,2.068905029296875,0.09920168668031693,0.17365887761116028,0.6057873964309692
1761479534456941000,2.078941162109375,0.4151143729686737,-0.23897743225097656,0.6979804039001465
1761479534466977000,2.08897705078125,0.6290959119796753,-0.3684816360473633,0.7081432938575745
1761479534477013000,2.099012939453125,0.6509527564048767,-0.324311763048172,0.6392039060592651
1761479534487049200,2.10904931640625,0.5423418283462524,-0.2285279780626297,0.6101424694061279
1761479534497085200,2.119085205078125,0.3836137056350708,-0.1328941285610199,0.6676664352416992
1761479534507121200,2.12912109375,0.23203137516975403,-0.1294083297252655,0.7564956545829773
1761479534517157400,2.139157470703125,0.14857083559036255,-0.13839542865753174,0.8667843341827393
1761479534527194400,2.1491943359375,0.09226708114147186,-0.14784619212150574,1.0108702182769775
1761479534537230300,2.159230224609375,0.05541585385799408,-0.21100172400474548,1.1553136110305786
1761479534547266300,2.169266357421875,0.0613163523375988,-0.31725093722343445,1.2858465909957886
1761479534557302300,2.17930224609375,0.08391966670751572,-0.36450737714767456,1.3643361330032349
1761479534567338200,2.189338134765625,0.0907200500369072,-0.37084412574768066,1.3193765878677368
1761479534577374200,2.199374267578125,0.12566791474819183,-0.4250735342502594,1.1625723838806152
1761479534587410200,2.20941015625,0.17328444123268127,-0.4738895297050476,0.9006246328353882
1761479534597446100,2.219446044921875,0.160379558801651,-0.43679943680763245,0.5941307544708252
1761479534607482000,2.229482177734375,0.08976317197084427,-0.3037516176700592,0.31455954909324646
1761479534617518000,2.23951806640625,0.009725597687065601,-0.1290203034877777,0.08236091583967209
1761479534627554300,2.24955419921875,-0.11436385661363602,0.041839323937892914,-0.04850228875875473
1761479534637590300,2.25959033203125,-0.18858295679092407,0.22624139487743378,-0.04881840571761131
1761479534647626200,2.269626220703125,-0.1940363198518753,0.2613501250743866,0.016345949843525887
1761479534657662200,2.279662109375,-0.16786091029644012,0.1447254866361618,0.12913987040519714
1761479534667698200,2.2896982421875,-0.08865983039140701,0.00011398329661460593,0.2763519585132599
1761479534677735200,2.299735107421875,0.0907600000500679,-0.14968615770339966,0.3983154296875
1761479534687771400,2.309771484375,0.29260656237602234,-0.34686100482940674,0.537067711353302
1761479534697807400,2.319807373046875,0.45714250206947327,-0.33746564388275146,0.736495852470398
1761479534707843300,2.32984326171875,0.5364232063293457,-0.1456216424703598,0.9273249506950378
1761479534717879300,2.33987939453125,0.547311007976532,-0.05817648768424988,1.0545097589492798
1761479534727915300,2.349915283203125,0.6004863381385803,-0.11549463868141174,1.037895917892456
1761479534737951200,2.359951171875,0.6587150692939758,-0.5368919372558594,0.8373958468437195
1761479534747987200,2.3699873046875,0.6879235506057739,-1.0277756452560425,0.5392261743545532
1761479534758023200,2.380023193359375,0.8126420378684998,-1.0266659259796143,0.21123048663139343
1761479534768059100,2.39005908203125,0.981939435005188,-0.6634610891342163,0.0024719461798667908
1761479534778095400,2.400095458984375,1.048518180847168,-0.30552875995635986,-0.04382284730672836
1761479534788131300,2.41013134765625,1.0002795457839966,-0.0782599151134491,-0.021502628922462463
1761479534798167300,2.420167236328125,0.6412316560745239,0.24630378186702728,-0.1853589415550232
1761479534808203300,2.430203369140625,-0.3060730993747711,0.4528420567512512,-0.511816680431366
1761479534818239200,2.4402392578125,-1.4372364282608032,0.5042958855628967,-0.9285667538642883
1761479534828276200,2.450276123046875,-2.2643871307373047,0.566136360168457,-1.1285747289657593
1761479534838312200,2.460312255859375,-2.5091681480407715,0.7550432085990906,-1.152000904083252
1761479534848348200,2.47034814453125,-2.2157630920410156,0.8876137137413025,-1.0948816537857056
1761479534858384100,2.480384033203125,-1.6730486154556274,0.6515889763832092,-0.9612088799476624
1761479534868420000,2.490420166015625,-1.1477739810943604,0.2619149684906006,-0.694496214389801
1761479534878456000,2.5004560546875,-0.6875674724578857,0.18029440939426422,-0.4605942368507385
1761479534888492000,2.510491943359375,-0.3092358708381653,0.3646019399166107,-0.5244113206863403
1761479534898528000,2.520528076171875,-0.13896960020065308,0.6448580622673035,-0.8971087336540222
1761479534908564000,2.53056396484375,-0.19669309258460999,0.9170227646827698,-1.459454894065857
1761479534918600400,2.540600341796875,-0.36053556203842163,1.0353022813796997,-1.9185609817504883
1761479534928636400,2.550636474609375,-0.44391804933547974,0.8813028335571289,-2.0725674629211426
1761479534938672400,2.56067236328125,-0.323418527841568,0.5717282295227051,-1.9815471172332764
1761479534948708400,2.570708251953125,-0.10348031669855118,0.3929981589317322,-1.4815807342529297
1761479534958744300,2.580744384765625,0.041838791221380234,0.6000413298606873,-0.8583730459213257
1761479534968780300,2.5907802734375,0.02997707389295101,0.22797749936580658,-0.3233722150325775
1761479534978816300,2.600816162109375,0.16112791001796722,0.2512010633945465,0.25969842076301575
1761479534988852200,2.610852294921875,0.24623827636241913,0.5180671215057373,0.5741671323776245
1761479534998889200,2.62088916015625,0.16859620809555054,0.5144215226173401,0.7292875051498413
1761479535008925200,2.63092529296875,0.05402062460780144,0.31743282079696655,0.9002687931060791
1761479535018961200,2.640961181640625,-0.06301385164260864,0.08278010040521622,0.9761468172073364
1761479535028997000,2.6509970703125,-0.1919744908809662,-0.24564358592033386,0.9060023427009583
1761479535039033000,2.661033203125,-0.2974631190299988,-0.46100595593452454,0.7624081373214722
1761479535049069000,2.671069091796875,-0.23920060694217682,-0.3296958804130554,0.6261906623840332
1761479535059105300,2.681105224609375,-0.07043767720460892,-0.20408415794372559,0.5477722883224487
1761479535069142000,2.69114208984375,0.04976649209856987,-0.1116250678896904,0.49933764338493347
1761479535079178000,2.701177978515625,0.0773368626832962,0.03214675188064575,0.4261949956417084
1761479535089214200,2.711214111328125,0.04544151574373245,0.1419033408164978,0.2862299084663391
1761479535099250200,2.721250244140625,0.039982836693525314,0.26235732436180115,0.08339609205722809
1761479535109286100,2.7312861328125,0.055800680071115494,0.3992256820201874,-0.1442871391773224
1761479535119322000,2.741322021484375,0.12850843369960785,0.4338316023349762,-0.3104904890060425
1761479535129358000,2.751358154296875,0.2789858281612396,0.4346822202205658,-0.3764503300189972
1761479535139394000,2.76139404296875,0.41300514340400696,0.37618428468704224,-0.34435391426086426
1761479535149431000,2.77143115234375,0.44890403747558594,0.1732543408870697,-0.22371964156627655
1761479535159467000,2.781467041015625,0.3872462511062622,-0.11093317717313766,-0.04543565958738327
1761479535169503000,2.7915029296875,0.30023491382598877,-0.3153989613056183,0.2119133174419403
1761479535179539000,2.8015390625,0.27004027366638184,-0.3374890983104706,0.5870190262794495
1761479535189575200,2.8115751953125,0.20415553450584412,-0.20990662276744843,1.0268888473510742
1761479535199611100,2.821611083984375,0.09433795511722565,-0.0424334779381752,1.4191173315048218
1761479535209647000,2.831647216796875,0.04391339421272278,0.06481654942035675,1.7052973508834839
1761479535219683000,2.84168310546875,0.10012447088956833,-0.03743365779519081,1.860688328742981
1761479535229719000,2.851718994140625,0.29464733600616455,-0.2723143398761749,1.8919434547424316
1761479535239755300,2.86175537109375,0.6044488549232483,-0.6365567445755005,1.766250491142273
1761479535249791200,2.871791259765625,1.0072977542877197,-0.9291960597038269,1.4887614250183105
1761479535259827200,2.8818271484375,1.3831359148025513,-1.0141011476516724,1.1200642585754395
1761479535269863200,2.89186328125,1.678439974784851,-0.9424580931663513,0.7832819819450378
1761479535279899100,2.901899169921875,1.8283671140670776,-0.7443156838417053,0.4639894962310791
1761479535289935000,2.91193505859375,1.78305184841156,-0.5028250217437744,0.15855395793914795
1761479535299971000,2.92197119140625,1.5606364011764526,-0.26704341173171997,-0.0831790417432785
1761479535310008000,2.932008056640625,1.110980749130249,-0.11939962953329086,-0.28515878319740295
1761479535320044000,2.9420439453125,0.7066442370414734,0.021643243730068207,-0.45726528763771057
1761479535330080000,2.952080078125,0.2367965579032898,0.06720886379480362,-0.5249250531196594
1761479535340116000,2.962115966796875,-0.5143565535545349,-0.1838665008544922,-0.5016900300979614
1761479535350152000,2.97215185546875,-1.3402706384658813,-0.3448878824710846,-0.6014935970306396
1761479535360188000,2.98218798828125,-1.7944363355636597,0.08923240751028061,-0.7394698262214661
1761479535370223900,2.992223876953125,-1.6994539499282837,0.58182293176651,-0.9203146696090698
1761479535380260000,3.002260009765625,-1.375032901763916,0.7111510634422302,-1.028470754623413
1761479535390296000,3.012296142578125,-1.1068861484527588,0.706896960735321,-1.1214027404785156
1761479535400332000,3.02233203125,-1.0298668146133423,0.7818928956985474,-1.1820619106292725
1761479535410368000,3.032367919921875,-1.1669026613235474,0.8526738882064819,-1.202793002128601
1761479535420404200,3.042404296875,-1.4061474800109863,0.9294021725654602,-1.2195144891738892
1761479535430440200,3.052440185546875,-1.6071149110794067,0.8911852836608887,-1.308462381362915
1761479535440476200,3.06247607421875,-1.6638247966766357,0.7313674092292786,-1.3742669820785522
1761479535450512100,3.07251220703125,-1.4713839292526245,0.6439411640167236,-1.4087626934051514
1761479535460548000,3.082548095703125,-1.0811434984207153,0.4843307137489319,-1.345672607421875
1761479535470585000,3.092585205078125,-0.6164528131484985,0.19957542419433594,-1.055383563041687
1761479535480621000,3.10262109375,-0.05802495405077934,-0.16084161400794983,-0.6378984451293945
1761479535490657000,3.112656982421875,0.4104408025741577,-0.4020465016365051,-0.26710307598114014
1761479535500693000,3.12269287109375,0.546482503414154,-0.4421587586402893,-0.05855172500014305
1761479535510729000,3.13272900390625,0.5412161350250244,-0.34214723110198975,0.03321254625916481
1761479535520765200,3.14276513671875,0.4625857472419739,-0.22415107488632202,0.19264747202396393
1761479535530801200,3.15280126953125,0.25147536396980286,-0.3094569146633148,0.3757137060165405
1761479535540837000,3.162837158203125,0.016643159091472626,-0.35969746112823486,0.535348653793335
1761479535550873000,3.172873046875,-0.09496113657951355,-0.19183655083179474,0.7653602957725525
1761479535560909000,3.182908935546875,-0.09463036805391312,-0.0014048174489289522,0.9615880846977234
1761479535570945000,3.192945068359375,-0.012910205870866776,0.11705151945352554,1.1072715520858765
1761479535580981000,3.20298095703125,0.12073200941085815,0.12365536391735077,1.2488152980804443
1761479535591017000,3.213016845703125,0.26472407579421997,0.03502323105931282,1.261813998222351
1761479535601053000,3.223052978515625,0.41655755043029785,-0.21215246617794037,1.1279566287994385
1761479535611089000,3.2330888671875,0.5708557367324829,-0.3778402507305145,0.8997585773468018
1761479535621124900,3.243124755859375,0.5646852254867554,-0.22057472169399261,0.5372946262359619
1761479535631161000,3.2531611328125,0.44241204857826233,0.00439048744738102,0.21036681532859802
1761479535641198000,3.263197998046875,0.2622672915458679,0.22537453472614288,0.04334401339292526
1761479535651234000,3.273234130859375,0.006858705077320337,0.5359904766082764,-0.014684404246509075
1761479535661270000,3.28327001953125,-0.13207361102104187,0.02911580726504326,-0.05613570660352707
1761479535671306200,3.29330615234375,-0.2009275108575821,-0.2628484070301056,0.029146432876586914
1761479535681342200,3.30334228515625,-0.2393002063035965,-0.16894134879112244,0.07632379978895187
1761479535691378200,3.313378173828125,-0.19358304142951965,-0.1046941876411438,0.13694986701011658
1761479535701414100,3.3234140625,-0.09174616634845734,-0.0723453015089035,0.3253554701805115
1761479535711450000,3.3334501953125,0.07506944984197617,-0.0734422579407692,0.6005588173866272
1761479535721486000,3.343486083984375,0.22671064734458923,-0.10975685715675354,0.8495199084281921
1761479535731522000,3.35352197265625,0.3226526081562042,-0.06964246183633804,1.007552981376648
1761479535741558000,3.36355810546875,0.40980562567710876,-0.08060536533594131,0.945014476776123
1761479535751594000,3.373593994140625,0.4878860414028168,-0.09014081209897995,0.6659897565841675
1761479535761630000,3.3836298828125,0.5925685167312622,0.03359364718198776,0.26323455572128296
1761479535771666200,3.393666259765625,0.6508951783180237,0.25047242641448975,-0.17236565053462982
1761479535781702100,3.4037021484375,0.6095632314682007,0.362973153591156,-0.5065220594406128
1761479535791738000,3.413738037109375,0.5827678442001343,0.025680329650640488,-0.5859819650650024
1761479535801774000,3.423774169921875,0.7361152768135071,-0.4367762506008148,-0.6506959795951843
1761479535811811000,3.43381103515625,1.0572621822357178,-0.37198448181152344,-0.8488641977310181
1761479535821847000,3.443846923828125,0.9784232974052429,0.010965033434331417,-1.165068507194519
1761479535831883300,3.45388330078125,0.15710918605327606,0.016816796734929085,-1.2424336671829224
1761479535841919200,3.463919189453125,-1.0077321529388428,-0.056776195764541626,-1.1236374378204346
1761479535851955200,3.473955078125,-1.8528205156326294,0.3014972507953644,-0.9471098184585571
1761479535861991200,3.4839912109375,-2.0019991397857666,0.8339062929153442,-0.801349937915802
1761479535872027100,3.494027099609375,-1.5276144742965698,1.277388095855713,-0.7402368187904358
1761479535882063000,3.50406298828125,-0.8324027061462402,1.3646929264068604,-0.7534719109535217
1761479535892099000,3.51409912109375,-0.29804661870002747,0.9023772478103638,-0.9049535989761353
1761479535902135000,3.524135009765625,-0.053763363510370255,0.5663190484046936,-1.1742089986801147
1761479535912171000,3.5341708984375,-0.028241224586963654,0.4267207086086273,-1.4524630308151245
1761479535922207200,3.544207275390625,-0.09913191199302673,0.3350384533405304,-1.4667636156082153
1761479535932243200,3.5542431640625,-0.1999320238828659,0.1979527622461319,-1.2496976852416992
1761479535942279200,3.564279052734375,-0.22518864274024963,0.10733737796545029,-0.934719979763031
1761479535952315100,3.574315185546875,-0.03688478097319603,0.15284627676010132,-0.5330979824066162
1761479535962351000,3.58435107421875,0.19708296656608582,0.27605822682380676,-0.14733032882213593
1761479535972387000,3.594386962890625,0.31902140378952026,0.2856791615486145,0.10522282868623734
1761479535982424000,3.604424072265625,0.34794172644615173,0.19290047883987427,0.18224890530109406
1761479535992460000,3.6144599609375,0.3059745728969574,0.03888215124607086,0.0801883116364479
1761479536002496000,3.62449609375,0.2522120177745819,-0.07746203243732452,-0.13589978218078613
1761479536012532000,3.634531982421875,0.1808403581380844,-0.3233884572982788,-0.33424508571624756
1761479536022568000,3.64456787109375,0.07761809229850769,-0.6232752799987793,-0.4728173613548279
1761479536032604000,3.65460400390625,-0.06302583962678909,-0.8196045756340027,-0.5220669507980347
1761479536042640000,3.664639892578125,-0.0006029396899975836,-0.48592543601989746,-0.35569125413894653
1761479536052675800,3.67467578125,0.34273576736450195,0.13268694281578064,-0.048099618405103683
1761479536062712300,3.68471240234375,0.5501044392585754,0.4201621413230896,0.3750274181365967
1761479536072748300,3.694748291015625,0.5711013078689575,0.3235090970993042,0.7072607278823853
1761479536082784300,3.7047841796875,0.4547118544578552,0.013548832386732101,0.8911187052726746
1761479536092820200,3.7148203125,0.2347312867641449,-0.34133949875831604,0.8863447308540344
1761479536102856200,3.724856201171875,0.016641294583678246,-0.4538170397281647,0.7348252534866333
1761479536112892200,3.73489208984375,-0.041013214737176895,-0.2903234362602234,0.41682279109954834
1761479536122928000,3.74492822265625,-0.012790096923708916,-0.09107425063848495,0.016476444900035858
1761479536132964000,3.754964111328125,0.07813501358032227,0.11999697983264923,-0.2857321500778198
1761479536143000000,3.765,0.20800566673278809,0.2743878960609436,-0.29734325408935547
1761479536153036000,3.7750361328125,0.22117125988006592,0.27007463574409485,0.011022823862731457
1761479536163073000,3.785072998046875,0.11658919602632523,0.22021839022636414,0.49513304233551025
1761479536173109000,3.79510888671875,-0.0750710517168045,0.15656910836696625,0.9795708060264587
1761479536183145000,3.80514501953125,-0.29481059312820435,-0.08021867275238037,1.3568880558013916
1761479536193181000,3.815180908203125,-0.3429797291755676,-0.2546115219593048,1.5605108737945557
1761479536203217200,3.825217041015625,-0.14499767124652863,-0.16834187507629395,1.5744565725326538
1761479536213253000,3.835253173828125,0.1148030161857605,-0.26201191544532776,1.5479991436004639
1761479536223289000,3.8452890625,0.4236831068992615,-0.4150656461715698,1.5947940349578857
1761479536233325000,3.855324951171875,0.6801391243934631,-0.2086924910545349,1.569974422454834
1761479536243361300,3.865361328125,0.7751138210296631,-0.30572208762168884,1.604473352432251
1761479536253397200,3.875397216796875,0.8187486529350281,-0.7424352169036865,1.5249323844909668
1761479536263433200,3.88543310546875,0.8829864859580994,-0.934864342212677,1.2870866060256958
1761479536273469200,3.89546923828125,1.0379228591918945,-1.0272529125213623,0.9505476951599121
1761479536283505200,3.905505126953125,1.2955408096313477,-0.9553430080413818,0.5436281561851501
1761479536293541000,3.915541015625,1.49368417263031,-0.6834041476249695,0.15264733135700226
1761479536303577000,3.9255771484375,1.521023154258728,-0.4115750193595886,-0.2167474925518036
1761479536313613000,3.935613037109375,1.2635583877563477,0.05758819356560707,-0.6970078349113464
1761479536323649300,3.945649169921875,0.5243343114852905,0.5693867802619934,-1.2813961505889893
1761479536333685200,3.955685302734375,-0.5886198282241821,0.7326909899711609,-1.8673347234725952
1761479536343722000,3.965721923828125,-1.6282979249954224,0.795071005821228,-2.252779245376587
1761479536353758200,3.97575830078125,-2.183058977127075,1.0112099647521973,-2.2273080348968506
1761479536363794200,3.985794189453125,-2.1291165351867676,1.144900918006897,-1.7691296339035034
1761479536373830100,3.995830078125,-1.7056273221969604,1.1081950664520264,-1.1384360790252686
1761479536383866000,4.0058662109375,-1.12269127368927,1.0505152940750122,-0.5837100744247437
1761479536393900000,4.015900146484375,-0.5667374730110168,1.000240445137024,-0.2576184868812561
1761479536403936300,4.025936279296875,-0.19734396040439606,0.9238085150718689,-0.19635939598083496
1761479536413972200,4.03597216796875,-0.055147141218185425,0.9593574404716492,-0.3136543333530426
1761479536424008200,4.04600830078125,-0.06417898833751678,1.0384652614593506,-0.530127227306366
1761479536434045200,4.056045166015625,-0.17954020202159882,1.1308090686798096,-0.7934401035308838
1761479536444080000,4.066080078125,-0.32116392254829407,1.1605558395385742,-0.9050265550613403
1761479536454117000,4.0761171875,-0.30897197127342224,0.9316943883895874,-0.7268251180648804
1761479536464153000,4.086153076171875,-0.07772089540958405,0.5812567472457886,-0.3532118499279022
1761479536474189000,4.09618896484375,0.2737945318222046,0.2753085494041443,0.11609172075986862
1761479536484225000,4.10622509765625,0.5734707117080688,0.004810467828065157,0.5566462278366089
1761479536494261000,4.116260986328125,0.7454763054847717,-0.21326673030853271,0.8477147817611694
1761479536504297000,4.126296875,0.7543014883995056,-0.3573474884033203,0.9239379167556763
1761479536514333000,4.1363330078125,0.5863226056098938,-0.41178542375564575,0.8851205110549927
1761479536524369200,4.146369140625,0.31845495104789734,-0.4438091218471527,0.7792321443557739
1761479536534405000,4.156405029296875,0.00845873262733221,-0.511967122554779,0.6178725361824036
1761479536544441300,4.16644140625,-0.28616970777511597,-0.5138790607452393,0.48761066794395447
1761479536554477300,4.176477294921875,-0.4626440703868866,-0.35229891538619995,0.39412227272987366
1761479536564513300,4.18651318359375,-0.468515008687973,-0.20555076003074646,0.3204200863838196
1761479536574549200,4.19654931640625,-0.42518776655197144,-0.19695301353931427,0.29254263639450073
1761479536584585200,4.206585205078125,-0.3502485454082489,-0.3072046935558319,0.2638135254383087
1761479536594621200,4.21662109375,-0.24940183758735657,-0.4980345666408539,0.1630759984254837
1761479536604657200,4.2266572265625,-0.15580077469348907,-0.57920902967453,0.0882963091135025
1761479536614693000,4.236693115234375,-0.028365595266222954,-0.44155770540237427,0.03142130747437477
1761479536624729000,4.24672900390625,0.010407100431621075,-0.19965292513370514,-0.06713349372148514
1761479536634766000,4.25676611328125,-0.12085318565368652,0.03936444967985153,-0.17239946126937866
1761479536644802000,4.266802001953125,-0.3134056031703949,0.22303654253482819,-0.2624334990978241
1761479536654838000,4.276838134765625,-0.42276057600975037,0.29189255833625793,-0.3902899920940399
1761479536664874000,4.2868740234375,-0.41489866375923157,0.29401299357414246,-0.4063802659511566
1761479536674910000,4.296909912109375,-0.3244848847389221,0.2141285389661789,-0.2460920661687851
1761479536684946200,4.3069462890625,-0.20240530371665955,0.046424757689237595,0.0560251846909523
1761479536694982100,4.316982177734375,-0.09168943762779236,-0.051835767924785614,0.39937934279441833
1761479536705018000,4.32701806640625,-0.00942253042012453,-0.018851984292268753,0.7551268339157104
1761479536715054000,4.33705419921875,0.0327901691198349,0.03687066584825516,1.046208143234253
1761479536725090000,4.347090087890625,0.08649041503667831,-0.08853652328252792,1.144520878791809
1761479536735126000,4.3571259765625,0.16835492849349976,-0.29061371088027954,0.9538561701774597
1761479536745162000,4.367161865234375,0.32391229271888733,-0.4486773908138275,0.5342000126838684
1761479536755198200,4.3771982421875,0.6110122203826904,-0.49733734130859375,0.011079016141593456
1761479536765234200,4.387234130859375,0.8465757369995117,-0.4255896508693695,-0.5454865097999573
1761479536775270100,4.397270263671875,0.9501149654388428,-0.290162593126297,-0.9340936541557312
1761479536785306000,4.40730615234375,0.9575608968734741,-0.25880172848701477,-0.9382516145706177
1761479536795342000,4.417342041015625,1.002340316772461,-0.3845426142215729,-0.66618812084198
1761479536805378300,4.42737841796875,1.1746824979782104,-0.4519685208797455,-0.45642638206481934
1761479536815414300,4.437414306640625,1.157824993133545,-0.595798671245575,-0.5260694026947021
1761479536825451000,4.447450927734375,0.45428627729415894,-0.9889885783195496,-0.5314276814460754
1761479536835487200,4.4574873046875,-0.7784428000450134,-0.8255583643913269,-0.4116871654987335
1761479536845523200,4.467523193359375,-1.8336673974990845,-0.011531220749020576,-0.1175716370344162
1761479536855559200,4.47755908203125,-2.0375478267669678,0.7870269417762756,0.19638122618198395
1761479536865595100,4.48759521484375,-1.487912654876709,1.0575237274169922,0.2970428466796875
1761479536875631000,4.497631103515625,-0.5684248208999634,0.6760836243629456,0.1525954008102417
1761479536885667000,4.5076669921875,0.1820526272058487,0.1409001350402832,-0.36898282170295715
1761479536895703000,4.517703125,0.3400784730911255,-0.16228531301021576,-1.0601890087127686
1761479536905739000,4.527739013671875,0.007964449934661388,-0.1359224170446396,-1.4819010496139526
1761479536915775000,4.53777490234375,-0.5889077186584473,0.05440465360879898,-1.3283205032348633
1761479536925811000,4.54781103515625,-1.1364331245422363,0.1770826280117035,-0.747931182384491
1761479536935847200,4.55784716796875,-1.3827917575836182,0.3602314293384552,-0.13329175114631653
1761479536945883100,4.567883056640625,-1.366356611251831,0.4097102880477905,0.2833600640296936
1761479536955919000,4.577919189453125,-1.1221998929977417,0.15632382035255432,0.47123703360557556
1761479536965955000,4.587955078125,-0.7142099738121033,-0.1402553766965866,0.4611385762691498
1761479536975992300,4.597992431640625,-0.27181899547576904,-0.3668123483657837,0.3248974084854126
1761479536986028300,4.6080283203125,0.05901644751429558,-0.477931946516037,0.12635155022144318
1761479536996064300,4.618064208984375,0.2038085162639618,-0.437616765499115,-0.07025738805532455
1761479537006100200,4.628100341796875,0.2724301815032959,-0.2388402670621872,-0.1144498810172081
1761479537016136200,4.63813623046875,0.2963451147079468,-0.1019790917634964,0.033789653331041336
1761479537026172200,4.648172119140625,0.2686690092086792,-0.11230763047933578,0.32151225209236145
1761479537036208000,4.6582080078125,0.22931867837905884,-0.19594447314739227,0.6118311882019043
1761479537046244000,4.668244140625,0.21153567731380463,-0.2520034909248352,0.7933530211448669
1761479537056280000,4.678280029296875,0.24818584322929382,-0.26344016194343567,0.8751711845397949
1761479537066316000,4.68831591796875,0.3534030616283417,-0.2695944607257843,0.9512345194816589
1761479537076351500,4.6983515625,0.4594767689704895,-0.2733745574951172,0.9836979508399963
1761479537086387500,4.708387451171875,0.48920485377311707,-0.322701632976532,0.9284655451774597
1761479537096423400,4.71842333984375,0.43272665143013,-0.44231775403022766,0.7999070882797241
1761479537106459400,4.72845947265625,0.3187452256679535,-0.39464372396469116,0.44796791672706604
1761479537116496600,4.73849658203125,0.14404718577861786,-0.32077136635780334,0.04934651032090187
1761479537126532600,4.74853271484375,-0.006411027628928423,-0.2218160182237625,-0.29469022154808044
1761479537136568600,4.758568603515625,-0.07170747965574265,-0.08386773616075516,-0.4753668010234833
1761479537146604500,4.7686044921875,-0.1194228008389473,-0.04607348516583443,-0.4906274974346161
1761479537156640500,4.778640625,-0.18439088761806488,0.01847488060593605,-0.37957635521888733
1761479537166676500,4.788676513671875,-0.24178946018218994,0.07514908164739609,-0.182480588555336
1761479537176712400,4.79871240234375,-0.27876317501068115,0.06000234931707382,0.03834312781691551
1761479537186748400,4.80874853515625,-0.32106882333755493,-0.03550366684794426,0.24309466779232025
1761479537196784400,4.818784423828125,-0.2875702679157257,-0.1360720843076706,0.4112551808357239
1761479537206820600,4.828820556640625,-0.11983319371938705,-0.16136598587036133,0.579583466053009
1761479537216856600,4.838856689453125,0.1355953812599182,-0.20427244901657104,0.8079077005386353
1761479537226892500,4.848892578125,0.3661462962627411,-0.41064611077308655,1.0390956401824951
1761479537236928500,4.858928466796875,0.5246499180793762,-0.7401257753372192,1.1538954973220825
1761479537246964500,4.868964599609375,0.571064293384552,-0.8888247013092041,1.166256070137024
1761479537257000400,4.87900048828125,0.5433517098426819,-0.9336726069450378,1.1231160163879395
1761479537267036400,4.889036376953125,0.5215020775794983,-0.8482553958892822,1.027134895324707
1761479537277072400,4.899072265625,0.6116204857826233,-0.7876578569412231,1.0708743333816528
1761479537287109400,4.909109375,0.776390790939331,-0.6970134377479553,1.1986358165740967
1761479537297145300,4.919145263671875,0.9345791339874268,-0.5091447234153748,1.2412325143814087
1761479537307181300,4.929181396484375,1.0222957134246826,-0.4388761520385742,0.9786936044692993
1761479537317217300,4.93921728515625,1.0242176055908203,-0.4810212254524231,0.41948434710502625
1761479537327253200,4.949253173828125,0.7908981442451477,-0.6409765481948853,-0.26157355308532715
1761479537337289500,4.95928955078125,0.4391414225101471,-0.4565310478210449,-1.0433388948440552
1761479537347325400,4.969325439453125,-0.21286647021770477,-0.19245120882987976,-1.7856260538101196
1761479537357361700,4.979361572265625,-0.8617541790008545,0.34610867500305176,-2.3128602504730225
1761479537367397600,4.989397705078125,-1.2008451223373413,1.101243495941162,-2.438725233078003
1761479537377433600,4.99943359375,-1.1995338201522827,1.597181797027588,-2.198230504989624
1761479537387469600,5.009469482421875,-0.8357689380645752,1.688177227973938,-1.8393950462341309
1761479537397505500,5.019505615234375,-0.4577670395374298,1.343552827835083,-1.427342176437378
1761479537407541500,5.02954150390625,-0.2163884937763214,0.7428578734397888,-1.0612307786941528
1761479537417577500,5.039577392578125,-0.09752628952264786,0.39359498023986816,-0.795060932636261
1761479537427613400,5.049613525390625,-0.08781161159276962,0.4105324149131775,-0.5080738663673401
1761479537437649400,5.0596494140625,-0.08535830676555634,0.5529319047927856,-0.06255578994750977
1761479537447685400,5.069685302734375,-0.0033510555513203144,0.637931764125824,0.3971439003944397
1761479537457721300,5.079721435546875,0.14718972146511078,0.6164426803588867,0.7101657390594482
1761479537467758300,5.08975830078125,0.30044424533843994,0.45304709672927856,0.8414260149002075
1761479537477794300,5.099794189453125,0.42692309617996216,0.18808682262897491,0.8180906176567078
1761479537487830500,5.10983056640625,0.5331164002418518,-0.047872450202703476,0.7497192621231079
1761479537497866500,5.119866455078125,0.5898305177688599,-0.2510652542114258,0.6650600433349609
1761479537507902500,5.12990234375,0.5879529714584351,-0.3519314229488373,0.5348370671272278
1761479537517938400,5.1399384765625,0.5102992057800293,-0.32232666015625,0.36413589119911194
1761479537527974400,5.149974365234375,0.4259755313396454,-0.18629664182662964,0.2013903707265854
1761479537538010400,5.16001025390625,0.37199753522872925,-0.06658035516738892,0.09903629869222641
1761479537548046300,5.17004638671875,0.24239718914031982,-0.05290103331208229,0.11895035207271576
1761479537558082300,5.180082275390625,0.07678133249282837,-0.12843972444534302,0.19933760166168213
1761479537568118500,5.190118408203125,-0.08085117489099503,-0.17975378036499023,0.27757248282432556
1761479537578154500,5.200154541015625,-0.23788659274578094,-0.24964791536331177,0.3314543664455414
1761479537588190500,5.2101904296875,-0.3600415289402008,-0.2960068881511688,0.3520405888557434
1761479537598226400,5.220226318359375,-0.43192264437675476,-0.317470908164978,0.30445951223373413
1761479537608262700,5.2302626953125,-0.4262075126171112,-0.3586686849594116,0.20482665300369263
1761479537618298600,5.240298583984375,-0.3631265461444855,-0.3589690923690796,0.0638924315571785
1761479537628334600,5.25033447265625,-0.25899162888526917,-0.3088342845439911,-0.08943161368370056
1761479537638370600,5.26037060546875,-0.18600235879421234,-0.16398388147354126,-0.25351881980895996
1761479537648407600,5.270407470703125,-0.12389691174030304,0.05601559951901436,-0.38042670488357544
1761479537658443500,5.280443603515625,-0.09940169006586075,0.17940224707126617,-0.4155125021934509
1761479537668479500,5.2904794921875,-0.1279883235692978,0.1678670346736908,-0.39977988600730896
1761479537678515500,5.300515380859375,-0.168786883354187,0.0770668238401413,-0.3460862934589386
1761479537688551400,5.310551513671875,-0.1958419382572174,-0.030696926638484,-0.20705704391002655
1761479537698587400,5.32058740234375,-0.22852398455142975,-0.13366058468818665,0.05642945319414139
1761479537708623400,5.330623291015625,-0.21627211570739746,-0.17887307703495026,0.30686619877815247
1761479537718659300,5.340659423828125,-0.12590067088603973,-0.11338301748037338,0.5567799210548401
1761479537728695300,5.3506953125,0.035408325493335724,-0.017473798245191574,0.8512954115867615
1761479537738731300,5.360731201171875,0.28004390001296997,0.029326995834708214,1.081300973892212
1761479537748767500,5.370767578125,0.5094429850578308,-0.0049313753843307495,1.1761318445205688
1761479537758803500,5.380803466796875,0.6404356360435486,-0.2416139543056488,1.002993106842041
1761479537768839400,5.39083935546875,0.6599054932594299,-0.600511908531189,0.5856602787971497
1761479537778875400,5.40087548828125,0.6414628028869629,-0.813077449798584,-0.010221212171018124
1761479537788911400,5.410911376953125,0.7780422568321228,-0.7970519065856934,-0.5466809272766113
1761479537798947600,5.420947509765625,1.0221142768859863,-0.4705432653427124,-0.8038972616195679
1761479537808983600,5.430983642578125,1.1569530963897705,0.07569289952516556,-0.7096977829933167
1761479537819019500,5.44101953125,0.9211815595626831,0.5204096436500549,-0.41375696659088135
1761479537829056500,5.451056396484375,0.3188525438308716,0.6186701655387878,-0.38345712423324585
1761479537839092500,5.461092529296875,-0.44010040163993835,0.30875223875045776,-0.6242777109146118
1761479537849128400,5.47112841796875,-1.217073917388916,0.0020623519085347652,-1.2059400081634521
1761479537859164400,5.481164306640625,-1.8648425340652466,0.07957419008016586,-1.9659245014190674
1761479537869200400,5.491200439453125,-2.1464834213256836,0.6341407299041748,-2.5467171669006348
1761479537879236400,5.501236328125,-1.809078335762024,1.4030365943908691,-2.6141698360443115
1761479537889272600,5.5112724609375,-1.414162278175354,1.8026671409606934,-2.1179559230804443
1761479537899308500,5.52130859375,-0.9547054171562195,1.6139174699783325,-1.3708935976028442
1761479537909344500,5.531344482421875,-0.5291613340377808,1.1890984773635864,-0.6875946521759033
1761479537919380500,5.54138037109375,-0.13434848189353943,0.8229165077209473,-0.24721725285053253
1761479537929416400,5.55141650390625,0.17427432537078857,0.6695408225059509,-0.06784908473491669
1761479537939452400,5.561452392578125,0.2785266935825348,0.61665278673172,-0.025059280917048454
1761479537949488400,5.57148828125,0.22179897129535675,0.48893558979034424,-0.004231763072311878
1761479537959524400,5.5815244140625,0.12048966437578201,0.27472689747810364,0.07408567517995834
1761479537969560300,5.591560302734375,0.06694521009922028,0.2190183699131012,0.2899889349937439
1761479537979596300,5.60159619140625,0.08171883225440979,0.17554493248462677,0.5686482787132263
1761479537989632300,5.61163232421875,0.1202438548207283,0.1642318218946457,0.7893175482749939
1761479537999668500,5.62166845703125,0.23098847270011902,0.1514614224433899,0.9601761102676392
1761479538009705500,5.63170556640625,0.40359166264533997,-0.02443556860089302,1.0987752676010132
1761479538019741400,5.641741455078125,0.5653464794158936,-0.3632136285305023,1.1918047666549683
1761479538029777400,5.65177734375,0.6460080146789551,-0.6465638279914856,1.2049213647842407
1761479538039813600,5.661813720703125,0.5756481289863586,-0.7076250910758972,1.1585354804992676
1761479538049849600,5.671849609375,0.3235008418560028,-0.6295265555381775,1.0122991800308228
1761479538059885600,5.681885498046875,-0.049678072333335876,-0.441874623298645,0.7635770440101624
1761479538069921500,5.691921630859375,-0.3990704119205475,-0.19583208858966827,0.5162396430969238
1761479538079957800,5.701957763671875,-0.6177729368209839,0.018128404393792152,0.3354552388191223
1761479538089993700,5.71199365234375,-0.694791316986084,0.09251528978347778,0.21364863216876984
1761479538100029700,5.72202978515625,-0.5591245293617249,0.11404960602521896,0.14159122109413147
1761479538110065700,5.732065673828125,-0.35148561000823975,-0.0029787456151098013,0.09153550863265991
1761479538120101600,5.7421015625,-0.13400466740131378,-0.311276376247406,0.09579576551914215
1761479538130137600,5.7521376953125,0.039446741342544556,-0.5065957903862,0.08002665638923645
1761479538140173600,5.762173583984375,0.1470150202512741,-0.46738317608833313,0.04807937890291214
1761479538150209800,5.772209716796875,0.16551120579242706,-0.2806423008441925,-0.00893943291157484
1761479538160245800,5.782245849609375,0.17904751002788544,-0.10795123130083084,-0.10464145988225937
1761479538170281700,5.79228173828125,0.1790056973695755,-0.04680931568145752,-0.17128732800483704
1761479538180317700,5.802317626953125,0.19117474555969238,-0.0741964653134346,-0.19512900710105896
1761479538190353700,5.812353759765625,0.2270619124174118,-0.10162409394979477,-0.15679307281970978
1761479538200391000,5.822390869140625,0.2788335084915161,-0.11036299169063568,-0.0483185313642025
1761479538210427000,5.832427001953125,0.32420018315315247,-0.1940874457359314,0.1541605442762375
1761479538220462800,5.842462890625,0.40679624676704407,-0.2816165089607239,0.3697170615196228
1761479538230498800,5.852498779296875,0.4646547734737396,-0.18349578976631165,0.5345733761787415
1761479538240534800,5.86253466796875,0.544244647026062,-0.0070547135546803474,0.6418042182922363
1761479538250570800,5.87257080078125,0.6447832584381104,-0.014904913492500782,0.5742664933204651
1761479538260606700,5.882606689453125,0.7616808414459229,-0.2074754238128662,0.2644564211368561
1761479538270642700,5.892642578125,0.88233882188797,-0.4801570177078247,-0.2541467845439911
1761479538280678700,5.9026787109375,1.0314422845840454,-0.7997936010360718,-0.7846711277961731
1761479538290714600,5.912714599609375,1.2284590005874634,-0.9173647165298462,-1.0959045886993408
1761479538300750800,5.922750732421875,1.3562744855880737,-0.7025676965713501,-1.0272963047027588
1761479538310786800,5.932786865234375,1.2360470294952393,-0.22653967142105103,-0.5883157253265381
1761479538320822800,5.94282275390625,0.7950246930122375,0.2572017014026642,-0.07166086882352829
1761479538330858800,5.952858642578125,0.04277436062693596,0.4084857702255249,0.12643304467201233
1761479538340894700,5.962894775390625,-0.8403202891349792,0.4204106032848358,-0.13147786259651184
1761479538350930700,5.9729306640625,-1.6369221210479736,0.3527119755744934,-0.6160048842430115
1761479538360966700,5.982966552734375,-2.104447603225708,0.3670749366283417,-1.0606212615966797
1761479538371002600,5.993002685546875,-2.131413459777832,0.5430225133895874,-1.282238245010376
1761479538381038600,6.00303857421875,-1.7808339595794678,0.8452140688896179,-1.24757719039917
1761479538391074600,6.013074462890625,-1.399968147277832,1.0559180974960327,-0.9570479393005371
1761479538401111600,6.023111572265625,-0.9775921106338501,0.9819431900978088,-0.5644021034240723
1761479538411147500,6.0331474609375,-0.5603453516960144,0.7669368386268616,-0.31735292077064514
1761479538421183500,6.04318359375,-0.14177817106246948,0.5805685520172119,-0.32726815342903137
1761479538431219700,6.0532197265625,0.1482113003730774,0.5958899855613708,-0.43785881996154785
1761479538441255700,6.063255615234375,0.22754554450511932,0.7603966593742371,-0.5496575236320496
1761479538451292000,6.0732919921875,0.1321425884962082,0.9456352591514587,-0.6421240568161011
1761479538461328000,6.083327880859375,-0.07263372093439102,1.0506240129470825,-0.7264671921730042
1761479538471363800,6.09336376953125,-0.24515382945537567,1.0433943271636963,-0.7759807109832764
1761479538481399800,6.10339990234375,-0.3141970932483673,0.7875363826751709,-0.7303402423858643
1761479538491435800,6.113435791015625,-0.2668255567550659,0.4039682447910309,-0.5365846157073975
1761479538501471700,6.1234716796875,-0.11311217397451401,0.15632861852645874,-0.1708279401063919
1761479538511507700,6.1335078125,0.16159582138061523,0.04289739951491356,0.2639988958835602
1761479538521543700,6.143543701171875,0.4592762291431427,-0.17921821773052216,0.7296374440193176
1761479538531579600,6.15357958984375,0.6662829518318176,-0.44651302695274353,1.0407167673110962
1761479538541615600,6.16361572265625,0.7255617380142212,-0.5373998284339905,1.0985174179077148
1761479538551651800,6.17365185546875,0.6706308126449585,-0.46607503294944763,0.9347447752952576
1761479538561687800,6.183687744140625,0.495640367269516,-0.3839181065559387,0.7246621251106262
1761479538571723800,6.193723876953125,0.22925928235054016,-0.3931504786014557,0.5549883842468262
1761479538581759700,6.203759765625,-0.06510363519191742,-0.3951345384120941,0.4774395227432251
1761479538591796700,6.213796630859375,-0.30823931097984314,-0.34498587250709534,0.4740687608718872
1761479538601831700,6.223831787109375,-0.45630815625190735,-0.22607387602329254,0.45262232422828674
1761479538611868700,6.23386865234375,-0.46364861726760864,-0.04616376757621765,0.35909345746040344
1761479538621904600,6.243904541015625,-0.3489673137664795,0.008742891252040863,0.26538774371147156
1761479538631940600,6.253940673828125,-0.19959726929664612,-0.09021351486444473,0.14775137603282928
1761479538641976600,6.2639765625,-0.07507264614105225,-0.2342628389596939,-0.03690129145979881
1761479538652012500,6.274012451171875,-0.0768580287694931,-0.34535980224609375,-0.270892471075058
1761479538662048800,6.284048828125,0.11547253280878067,-0.16256015002727509,-0.4478347599506378
1761479538672084700,6.294084716796875,0.2709132432937622,-0.11431006342172623,-0.5317445993423462
1761479538682120700,6.30412060546875,0.28208228945732117,-0.13920582830905914,-0.44736233353614807
1761479538692156700,6.31415673828125,0.1870495080947876,-0.10537835210561752,-0.2296382486820221
1761479538702193000,6.32419287109375,0.002835467690601945,0.04662396013736725,0.12512782216072083
1761479538712228900,6.334228759765625,-0.1995682418346405,0.1302267163991928,0.4997251331806183
1761479538722264800,6.344264892578125,-0.39421921968460083,0.01624182052910328,0.7714434862136841
1761479538732300800,6.35430078125,-0.48142895102500916,-0.24714480340480804,0.9718828201293945
1761479538742336800,6.364336669921875,-0.4057168662548065,-0.49709340929985046,1.1748499870300293
1761479538752372700,6.374372802734375,-0.13254418969154358,-0.6381205320358276,1.3643698692321777
1761479538762408700,6.38440869140625,0.23266386985778809,-0.6370015144348145,1.4999463558197021
1761479538772444700,6.394444580078125,0.4253861904144287,-0.6282975077629089,1.544040322303772
1761479538782480600,6.404480712890625,0.463020384311676,-0.6135419607162476,1.4630184173583984
1761479538792516600,6.4145166015625,0.4899848997592926,-0.5333033204078674,1.2495431900024414
1761479538802552600,6.424552490234375,0.6351029276847839,-0.5217273831367493,0.9245325922966003
1761479538812588800,6.4345888671875,0.8006545901298523,-0.6186877489089966,0.4553171992301941
1761479538822625500,6.44462548828125,0.8982080817222595,-0.634946346282959,-0.06268042325973511
1761479538832661500,6.45466162109375,0.8657611608505249,-0.2498234212398529,-0.5879380702972412
1761479538842697700,6.46469775390625,0.7410022020339966,0.15197168290615082,-1.0463719367980957
1761479538852733700,6.474733642578125,0.49378469586372375,0.48717817664146423,-1.3288092613220215
1761479538862769700,6.484769775390625,0.07045312970876694,0.5997755527496338,-1.4752484560012817
1761479538872805600,6.4948056640625,-0.4569219946861267,0.6145387887954712,-1.4685639142990112
1761479538882841600,6.504841552734375,-1.003220796585083,0.568074107170105,-1.3216866254806519
1761479538892877800,6.5148779296875,-1.4352352619171143,0.7206074595451355,-1.0899380445480347
1761479538902913800,6.524913818359375,-1.628770351409912,1.1537564992904663,-0.8764095306396484
1761479538912949800,6.53494970703125,-1.595227837562561,1.6305803060531616,-0.6325015425682068
1761479538922985700,6.54498583984375,-1.3330937623977661,2.109004497528076,-0.3521311581134796
1761479538933021700,6.555021728515625,-0.9328666925430298,2.355900526046753,-0.038424622267484665
1761479538943057700,6.5650576171875,-0.6109786629676819,2.0114831924438477,0.171346977353096
1761479538953094000,6.575093994140625,-0.5436044335365295,0.9293776750564575,0.025258218869566917
1761479538963129900,6.5851298828125,-0.32174235582351685,0.15758882462978363,-0.47516384720802307
1761479538973165800,6.595165771484375,-0.23863734304904938,0.18241268396377563,-0.5541497468948364
1761479538983201800,6.605201904296875,-0.3696102797985077,0.3044094443321228,-0.3687625825405121
1761479538993237800,6.61523779296875,-0.3840387463569641,0.30506590008735657,0.1494041383266449
1761479539003273700,6.625273681640625,-0.2028665542602539,0.011443602852523327,0.6766969561576843
1761479539013309700,6.635309814453125,0.043534159660339355,-0.37964028120040894,1.0866559743881226
1761479539023345700,6.645345703125,0.307951420545578,-0.9564425945281982,1.3824889659881592
1761479539033381600,6.655381591796875,0.564189076423645,-1.662324070930481,1.38392972946167
