time,seconds_elapsed,z,y,x
1761505485762553000,0.078552978515625,-1.01806640625,0.059326171875,-0.16168212890625
1761505485772589000,0.088589111328125,-1.0146636962890625,0.057342529296875,-0.1670989990234375
1761505485782625300,0.098625244140625,-1.0231781005859375,0.0543365478515625,-0.1663055419921875
1761505485792661200,0.1086611328125,-1.03192138671875,0.043243408203125,-0.1552734375
1761505485802697200,0.118697265625,-1.0208892822265625,0.0291900634765625,-0.1448822021484375
1761505485812733200,0.128733154296875,-1.0070343017578125,0.0266571044921875,-0.1530303955078125
1761505485822770200,0.138770263671875,-0.9934539794921875,0.0345458984375,-0.17742919921875
1761505485832806100,0.14880615234375,-0.969482421875,0.045318603515625,-0.1998748779296875
1761505485842842000,0.158842041015625,-0.9512481689453125,0.050445556640625,-0.2113800048828125
1761505485852878000,0.168878173828125,-0.9611663818359375,0.0490875244140625,-0.209716796875
1761505485862914000,0.1789140625,-0.9925384521484375,0.037506103515625,-0.1974029541015625
1761505485872950000,0.188949951171875,-1.0163726806640625,0.03143310546875,-0.1855621337890625
1761505485882986000,0.198986083984375,-1.0145721435546875,0.0307159423828125,-0.179779052734375
1761505485893023000,0.20902294921875,-1.011474609375,0.0369415283203125,-0.1858978271484375
1761505485903059000,0.219058837890625,-1.0123443603515625,0.0481719970703125,-0.2005615234375
1761505485913095000,0.229094970703125,-1.0101165771484375,0.052581787109375,-0.203948974609375
1761505485923131000,0.239130859375,-1.0123138427734375,0.0487518310546875,-0.198883056640625
1761505485933167000,0.2491669921875,-0.9985198974609375,0.0429840087890625,-0.1864471435546875
1761505485943203000,0.259203125,-0.99249267578125,0.041595458984375,-0.180450439453125
1761505485953240000,0.269239990234375,-0.9940032958984375,0.035858154296875,-0.1871795654296875
1761505485963276000,0.279276123046875,-0.9984893798828125,0.0330047607421875,-0.189697265625
1761505485973312300,0.289312255859375,-0.99591064453125,0.03753662109375,-0.1942596435546875
1761505485983348200,0.29934814453125,-0.991607666015625,0.0465850830078125,-0.198822021484375
1761505485993384200,0.30938427734375,-0.986480712890625,0.047943115234375,-0.194610595703125
1761505486003420200,0.319420166015625,-0.983062744140625,0.0395050048828125,-0.1832427978515625
1761505486013456100,0.3294560546875,-0.9872589111328125,0.0300140380859375,-0.1712799072265625
1761505486023493000,0.3394931640625,-0.9904022216796875,0.024688720703125,-0.1699371337890625
1761505486033529000,0.349529052734375,-0.9840545654296875,0.0263214111328125,-0.1744842529296875
1761505486043565000,0.35956494140625,-0.9873809814453125,0.0365753173828125,-0.1907196044921875
1761505486053601000,0.36960107421875,-0.971221923828125,0.0455322265625,-0.2014007568359375
1761505486063637000,0.379636962890625,-0.9526824951171875,0.0474395751953125,-0.193634033203125
1761505486073673000,0.3896728515625,-0.97662353515625,0.048675537109375,-0.180511474609375
1761505486083709000,0.399708984375,-1.007598876953125,0.0421600341796875,-0.16925048828125
1761505486093745000,0.409744873046875,-1.0126190185546875,0.0326385498046875,-0.1565093994140625
1761505486103782100,0.4197822265625,-1.014984130859375,0.0327911376953125,-0.1626434326171875
1761505486113818000,0.429818115234375,-1.00946044921875,0.040313720703125,-0.1749725341796875
1761505486123854000,0.43985400390625,-0.994384765625,0.04071044921875,-0.1792755126953125
1761505486133890000,0.44989013671875,-0.9946441650390625,0.0315399169921875,-0.1778106689453125
1761505486143926000,0.459926025390625,-0.988372802734375,0.023193359375,-0.175750732421875
1761505486153962200,0.469962158203125,-0.9804229736328125,0.021697998046875,-0.168853759765625
1761505486163999000,0.4799990234375,-0.9929046630859375,0.0228271484375,-0.1652374267578125
1761505486174035200,0.49003515625,-0.9968109130859375,0.0194854736328125,-0.1631622314453125
1761505486184071200,0.5000712890625,-0.9955291748046875,0.020599365234375,-0.1682891845703125
1761505486194107100,0.510107177734375,-0.9948577880859375,0.023193359375,-0.178253173828125
1761505486204143000,0.52014306640625,-0.98846435546875,0.0177459716796875,-0.1807708740234375
1761505486214179000,0.530178955078125,-0.9899749755859375,0.010040283203125,-0.176116943359375
1761505486224215000,0.540215087890625,-0.9813690185546875,0.0014801025390625,-0.1673583984375
1761505486234252000,0.550251953125,-0.979339599609375,0.002349853515625,-0.16656494140625
1761505486244288000,0.5602880859375,-0.9879150390625,0.0107879638671875,-0.1742095947265625
1761505486254324200,0.57032421875,-1.0034027099609375,0.0164947509765625,-0.180999755859375
1761505486264360200,0.580360107421875,-1.0209197998046875,0.017303466796875,-0.1844635009765625
1761505486274396200,0.590396240234375,-1.0210723876953125,0.0128173828125,-0.1832427978515625
1761505486284432100,0.60043212890625,-1.0203704833984375,0.012908935546875,-0.17987060546875
1761505486294468000,0.610468017578125,-1.012451171875,0.0175933837890625,-0.180206298828125
1761505486304505000,0.620505126953125,-0.991241455078125,0.020416259765625,-0.1797637939453125
1761505486314541000,0.630541015625,-0.982330322265625,0.02166748046875,-0.175628662109375
1761505486324577000,0.640576904296875,-0.9806365966796875,0.011993408203125,-0.1708221435546875
1761505486334613000,0.650613037109375,-0.97735595703125,-0.00299072265625,-0.164825439453125
1761505486344649000,0.66064892578125,-0.9872894287109375,-0.004608154296875,-0.1634979248046875
1761505486354685200,0.670685302734375,-1.003021240234375,-0.0029296875,-0.167266845703125
1761505486364721200,0.68072119140625,-1.0144500732421875,0.0037689208984375,-0.173980712890625
1761505486374757000,0.690757080078125,-1.0107269287109375,0.011749267578125,-0.1843414306640625
1761505486384794000,0.700794189453125,-1.01507568359375,0.0170745849609375,-0.1932525634765625
1761505486394830000,0.710830078125,-1.0077056884765625,0.021453857421875,-0.1998443603515625
1761505486404866000,0.720865966796875,-0.99609375,0.0196075439453125,-0.1927642822265625
1761505486414902000,0.730902099609375,-0.9949798583984375,0.0125579833984375,-0.184722900390625
1761505486424938200,0.740938232421875,-1.004852294921875,0.0062255859375,-0.1812744140625
1761505486434974200,0.75097412109375,-0.9986114501953125,0.0037841796875,-0.1747283935546875
1761505486445011200,0.76101123046875,-0.99017333984375,0.0053863525390625,-0.1704559326171875
1761505486455047200,0.771047119140625,-0.9865570068359375,0.0053863525390625,-0.17376708984375
1761505486465083100,0.781083251953125,-0.9807281494140625,0.004974365234375,-0.174072265625
1761505486475119000,0.791119140625,-0.9793701171875,0.0078277587890625,-0.17169189453125
1761505486485155000,0.801155029296875,-0.99810791015625,0.0108795166015625,-0.1738739013671875
1761505486495191000,0.81119091796875,-1.0172119140625,0.0177001953125,-0.1819305419921875
1761505486505227000,0.82122705078125,-1.01300048828125,0.023651123046875,-0.186553955078125
1761505486515264000,0.831263916015625,-1.0039825439453125,0.0240020751953125,-0.1849365234375
1761505486525300000,0.841300048828125,-0.9897613525390625,0.0224609375,-0.183563232421875
1761505486535336000,0.8513359375,-0.9793243408203125,0.0171661376953125,-0.18035888671875
1761505486545372000,0.861371826171875,-0.984222412109375,0.0165863037109375,-0.175048828125
1761505486555408100,0.871408203125,-0.984161376953125,0.01727294921875,-0.16766357421875
1761505486565444000,0.881444091796875,-0.9939422607421875,0.01202392578125,-0.1588592529296875
1761505486575480000,0.89147998046875,-1.009246826171875,0.0037994384765625,-0.1539306640625
1761505486585517000,0.90151708984375,-1.010772705078125,0.0043487548828125,-0.1577911376953125
1761505486595553000,0.911552978515625,-1.0113983154296875,0.01434326171875,-0.1722869873046875
1761505486605589000,0.921589111328125,-1.001617431640625,0.016693115234375,-0.1905364990234375
1761505486615625000,0.931625,-0.985565185546875,0.01654052734375,-0.1952362060546875
1761505486625661000,0.941660888671875,-0.9903411865234375,0.012847900390625,-0.1915283203125
1761505486635697000,0.95169677734375,-0.999237060546875,0.008056640625,-0.18524169921875
1761505486645734000,0.96173388671875,-1.0154571533203125,0.01092529296875,-0.1760711669921875
1761505486655769900,0.971769775390625,-1.03277587890625,0.013885498046875,-0.166900634765625
1761505486665805800,0.981805908203125,-1.031341552734375,0.0084075927734375,-0.1567840576171875
1761505486675841800,0.991841796875,-1.0133056640625,0.00244140625,-0.1523284912109375
1761505486685877800,1.001877685546875,-0.99359130859375,0.003570556640625,-0.1490631103515625
1761505486695913700,1.011913818359375,-0.9821929931640625,0.0029754638671875,-0.1479949951171875
1761505486705949700,1.02194970703125,-0.98150634765625,0.0023193359375,-0.146636962890625
1761505486715986700,1.031986572265625,-0.9857025146484375,0.0070953369140625,-0.1491546630859375
1761505486726022700,1.042022705078125,-0.9796142578125,0.0063323974609375,-0.15472412109375
1761505486736059000,1.052058837890625,-0.983062744140625,0.00128173828125,-0.15972900390625
1761505486746094800,1.0620947265625,-0.98663330078125,-0.0016326904296875,-0.1642913818359375
1761505486756130800,1.072130859375,-0.99237060546875,0.00152587890625,-0.163787841796875
1761505486766167000,1.0821669921875,-1.0015106201171875,0.0043182373046875,-0.1608123779296875
1761505486776203800,1.092203857421875,-1.017059326171875,0.0042724609375,-0.1546630859375
1761505486786239700,1.10223974609375,-1.015869140625,0.0010223388671875,-0.14849853515625
1761505486796276000,1.11227587890625,-1.0026397705078125,0.0000152587890625,-0.1422882080078125
1761505486806312000,1.12231201171875,-0.9925384521484375,0.0046844482421875,-0.14422607421875
1761505486816348000,1.132347900390625,-0.9816436767578125,0.00433349609375,-0.1452484130859375
1761505486826384000,1.1423837890625,-0.9842987060546875,0.0022430419921875,-0.1500244140625
1761505486836419800,1.152419921875,-0.9977569580078125,0.0025787353515625,-0.15936279296875
1761505486846456800,1.162456787109375,-1.0098419189453125,0.002471923828125,-0.1668853759765625
1761505486856492800,1.172492919921875,-1.021575927734375,0.003204345703125,-0.171478271484375
1761505486866528800,1.18252880859375,-1.0203094482421875,0.0035858154296875,-0.1688690185546875
1761505486876564700,1.192564697265625,-1.0058441162109375,-0.00042724609375,-0.1625823974609375
1761505486886600700,1.2026005859375,-1.0016326904296875,-0.0075225830078125,-0.153350830078125
1761505486896636700,1.21263671875,-1.0088348388671875,-0.01300048828125,-0.1476898193359375
1761505486906672600,1.222672607421875,-1.01678466796875,-0.0146026611328125,-0.149810791015625
1761505486916710000,1.2327099609375,-1.021026611328125,-0.0064544677734375,-0.1603546142578125
1761505486926745900,1.242745849609375,-1.012115478515625,-0.00152587890625,-0.1693878173828125
1761505486936781800,1.25278173828125,-1.0016937255859375,0.0001220703125,-0.169586181640625
1761505486946817800,1.26281787109375,-0.9882965087890625,-0.0033111572265625,-0.1712188720703125
1761505486956853800,1.272853759765625,-0.974884033203125,-0.00787353515625,-0.1746673583984375
1761505486966890000,1.282889892578125,-0.9745025634765625,-0.006195068359375,-0.1752471923828125
1761505486976926700,1.2929267578125,-0.992889404296875,-0.0052490234375,-0.175048828125
1761505486986962700,1.302962646484375,-1.0178070068359375,-0.0074462890625,-0.176422119140625
1761505486996999000,1.3129990234375,-1.025299072265625,-0.0074005126953125,-0.175750732421875
1761505487007035000,1.323034912109375,-1.0258331298828125,-0.0015106201171875,-0.1703033447265625
1761505487017070800,1.33307080078125,-1.0166168212890625,-0.001068115234375,-0.1692657470703125
1761505487027106800,1.34310693359375,-0.9990692138671875,-0.00335693359375,-0.1681976318359375
1761505487037142800,1.353142822265625,-0.9758758544921875,-0.0055694580078125,-0.1655426025390625
1761505487047180000,1.363179931640625,-0.9633026123046875,-0.0084686279296875,-0.16180419921875
1761505487057216000,1.373216064453125,-0.9652252197265625,-0.0059051513671875,-0.16412353515625
1761505487067252000,1.383251953125,-0.9776458740234375,-0.0021514892578125,-0.167755126953125
1761505487077288000,1.393287841796875,-0.996917724609375,0.0006866455078125,-0.1693115234375
1761505487087324000,1.403323974609375,-1.0142822265625,0.002655029296875,-0.172119140625
1761505487097360000,1.41335986328125,-1.0201263427734375,0.0075225830078125,-0.172271728515625
1761505487107396900,1.42339697265625,-1.0264434814453125,0.0090789794921875,-0.16546630859375
1761505487117432800,1.433432861328125,-1.0256805419921875,0.0017547607421875,-0.1608734130859375
1761505487127468800,1.44346875,-1.0105438232421875,-0.006561279296875,-0.1563568115234375
1761505487137504800,1.4535048828125,-0.9972381591796875,-0.008453369140625,-0.156982421875
1761505487147540700,1.463540771484375,-0.9869384765625,-0.007537841796875,-0.16424560546875
1761505487157576700,1.47357666015625,-0.980926513671875,-0.005157470703125,-0.172943115234375
1761505487167613700,1.48361376953125,-0.9740753173828125,-0.0014495849609375,-0.17889404296875
1761505487177649700,1.493649658203125,-0.9753875732421875,-0.0011138916015625,-0.1832733154296875
1761505487187685600,1.503685546875,-0.9868621826171875,0.000030517578125,-0.17913818359375
1761505487197721600,1.5137216796875,-1.0083160400390625,-0.0037078857421875,-0.168731689453125
1761505487207757800,1.5237578125,-1.033935546875,-0.00653076171875,-0.1598358154296875
1761505487217794000,1.5337939453125,-1.0415802001953125,-0.006866455078125,-0.1549835205078125
1761505487227830000,1.543830078125,-1.0359954833984375,-0.0063018798828125,-0.1528167724609375
1761505487237866800,1.55386669921875,-1.0245208740234375,-0.0032806396484375,-0.1548614501953125
1761505487247903000,1.563903076171875,-1.0071868896484375,-0.0028076171875,-0.161102294921875
1761505487257939000,1.57393896484375,-0.9884033203125,-0.009033203125,-0.1647491455078125
1761505487267975000,1.583974853515625,-0.971710205078125,-0.0157012939453125,-0.1666717529296875
1761505487278011000,1.594010986328125,-0.9636688232421875,-0.0201568603515625,-0.1684417724609375
1761505487288046800,1.604046875,-0.982574462890625,-0.020843505859375,-0.1692047119140625
1761505487298083800,1.614083740234375,-1.0024871826171875,-0.0185089111328125,-0.168243408203125
1761505487308119800,1.624119873046875,-1.0233917236328125,-0.012298583984375,-0.16754150390625
1761505487318155800,1.63415576171875,-1.0262603759765625,-0.0086212158203125,-0.1713714599609375
1761505487328191700,1.644191650390625,-1.0096588134765625,-0.0135955810546875,-0.168670654296875
1761505487338227700,1.654227783203125,-0.9913177490234375,-0.015045166015625,-0.1623382568359375
1761505487348263700,1.664263671875,-0.97100830078125,-0.0175628662109375,-0.1554412841796875
1761505487358299600,1.674299560546875,-0.9605865478515625,-0.0205535888671875,-0.1552276611328125
1761505487368337000,1.6843369140625,-0.9698944091796875,-0.0164794921875,-0.1552581787109375
1761505487378372900,1.694372802734375,-0.9923553466796875,-0.0115509033203125,-0.154541015625
1761505487388408800,1.704408935546875,-1.00360107421875,-0.007293701171875,-0.1593780517578125
1761505487398444800,1.71444482421875,-1.0102691650390625,-0.0080108642578125,-0.164276123046875
1761505487408480800,1.724480712890625,-1.016998291015625,-0.0073394775390625,-0.1664886474609375
1761505487418517000,1.73451708984375,-1.01495361328125,-0.0077362060546875,-0.1674041748046875
1761505487428553700,1.7445537109375,-1.00909423828125,-0.004852294921875,-0.166595458984375
1761505487438589700,1.754589599609375,-1.0081024169921875,-0.00567626953125,-0.1663665771484375
1761505487448626000,1.7646259765625,-1.0024871826171875,-0.00927734375,-0.1676177978515625
1761505487458662000,1.774661865234375,-0.998443603515625,-0.011932373046875,-0.1629486083984375
1761505487468697900,1.78469775390625,-0.9925994873046875,-0.0162506103515625,-0.15802001953125
1761505487478733800,1.79473388671875,-0.994964599609375,-0.018096923828125,-0.153778076171875
1761505487488769800,1.804769775390625,-0.998931884765625,-0.014678955078125,-0.153839111328125
1761505487498806800,1.814806884765625,-1.0014190673828125,-0.0080718994140625,-0.15765380859375
1761505487508843000,1.824843017578125,-1.0086822509765625,-0.0055084228515625,-0.1627044677734375
1761505487518879000,1.83487890625,-1.01202392578125,-0.00726318359375,-0.169708251953125
1761505487528915000,1.8449150390625,-1.0000457763671875,-0.008544921875,-0.1732330322265625
1761505487538951000,1.854950927734375,-0.9869232177734375,-0.0119781494140625,-0.1677703857421875
1761505487548987000,1.86498681640625,-0.97802734375,-0.0208587646484375,-0.1625213623046875
1761505487559023900,1.87502392578125,-0.978851318359375,-0.0212860107421875,-0.1613311767578125
1761505487569059800,1.885059814453125,-0.9885406494140625,-0.016082763671875,-0.1650848388671875
1761505487579095800,1.895095703125,-1.0024871826171875,-0.012847900390625,-0.1697998046875
1761505487589131800,1.9051318359375,-1.00933837890625,-0.0094146728515625,-0.1765899658203125
1761505487599168000,1.91516796875,-1.0100860595703125,-0.0051727294921875,-0.1858978271484375
1761505487609204000,1.925203857421875,-1.01007080078125,-0.000335693359375,-0.1867218017578125
1761505487619240000,1.935239990234375,-1.007568359375,-0.00146484375,-0.178375244140625
1761505487629277000,1.94527685546875,-1.00921630859375,-0.0077972412109375,-0.168365478515625
1761505487639313000,1.95531298828125,-1.0056610107421875,-0.0122833251953125,-0.160552978515625
1761505487649348900,1.965348876953125,-1.008636474609375,-0.01837158203125,-0.15606689453125
1761505487659385000,1.975385009765625,-1.006439208984375,-0.0223236083984375,-0.1585845947265625
1761505487669421300,1.98542138671875,-0.9925994873046875,-0.020965576171875,-0.16668701171875
1761505487679457300,1.995457275390625,-0.9854278564453125,-0.019073486328125,-0.17578125
1761505487689493200,2.0054931640625,-0.9821014404296875,-0.01776123046875,-0.178802490234375
1761505487699530200,2.0155302734375,-0.9824676513671875,-0.016265869140625,-0.1786346435546875
1761505487709566200,2.025566162109375,-1.0018768310546875,-0.0142822265625,-0.1766815185546875
1761505487719602200,2.035602294921875,-1.0340423583984375,-0.01055908203125,-0.173919677734375
1761505487729638100,2.04563818359375,-1.0358734130859375,-0.0098876953125,-0.1678009033203125
1761505487739674000,2.055674072265625,-1.0312042236328125,-0.0097503662109375,-0.1530303955078125
1761505487749710000,2.0657099609375,-1.018341064453125,-0.0102081298828125,-0.1494140625
1761505487759747000,2.0757470703125,-0.9984283447265625,-0.014556884765625,-0.153076171875
1761505487769783000,2.085782958984375,-0.9819488525390625,-0.0162811279296875,-0.15789794921875
1761505487779819000,2.095819091796875,-0.9777374267578125,-0.023223876953125,-0.1570281982421875
1761505487789855000,2.10585498046875,-0.9756622314453125,-0.0296630859375,-0.1553955078125
1761505487799891000,2.115890869140625,-0.9788665771484375,-0.02752685546875,-0.155059814453125
1761505487809927000,2.125927001953125,-0.994232177734375,-0.0213470458984375,-0.1597137451171875
1761505487819964200,2.135964111328125,-1.018157958984375,-0.0153961181640625,-0.1661224365234375
1761505487830000000,2.146000244140625,-1.033477783203125,-0.0117950439453125,-0.168365478515625
1761505487840036000,2.1560361328125,-1.0240020751953125,-0.010650634765625,-0.167022705078125
1761505487850072000,2.166072021484375,-1.009857177734375,-0.01287841796875,-0.1660919189453125
1761505487860108000,2.17610791015625,-0.9905548095703125,-0.01470947265625,-0.162567138671875
1761505487870144300,2.186144287109375,-0.980072021484375,-0.01995849609375,-0.155426025390625
1761505487880180200,2.19618017578125,-0.974212646484375,-0.0226898193359375,-0.1497802734375
1761505487890217000,2.206217041015625,-0.978851318359375,-0.02313232421875,-0.148712158203125
1761505487900253200,2.216253173828125,-0.9880218505859375,-0.025360107421875,-0.15155029296875
1761505487910289200,2.2262890625,-0.9957275390625,-0.0252227783203125,-0.15472412109375
1761505487920325000,2.2363251953125,-0.9983978271484375,-0.01739501953125,-0.160369873046875
1761505487930361000,2.246361083984375,-1.0057525634765625,-0.01092529296875,-0.166290283203125
1761505487940397000,2.25639697265625,-1.0169677734375,-0.007293701171875,-0.1719818115234375
1761505487950433000,2.26643310546875,-1.01873779296875,-0.0128936767578125,-0.1724395751953125
1761505487960470300,2.27647021484375,-1.01397705078125,-0.0185089111328125,-0.167816162109375
1761505487970506200,2.28650634765625,-1.0018768310546875,-0.020416259765625,-0.16375732421875
1761505487980542200,2.296542236328125,-0.9956817626953125,-0.022369384765625,-0.1616363525390625
1761505487990578200,2.306578125,-1.0085296630859375,-0.0225830078125,-0.1613311767578125
1761505488000614100,2.3166142578125,-1.0197906494140625,-0.022064208984375,-0.1623687744140625
1761505488010650000,2.326650146484375,-1.0164031982421875,-0.019287109375,-0.15924072265625
1761505488020686000,2.33668603515625,-1.0040283203125,-0.0179290771484375,-0.1525115966796875
1761505488030723000,2.34672314453125,-0.9897613525390625,-0.0172576904296875,-0.1499786376953125
1761505488040759000,2.356759033203125,-0.976226806640625,-0.0169830322265625,-0.151763916015625
1761505488050795000,2.366794921875,-0.9774017333984375,-0.016387939453125,-0.1565093994140625
1761505488060831000,2.3768310546875,-0.985565185546875,-0.0182342529296875,-0.15985107421875
1761505488070867000,2.386866943359375,-1.011199951171875,-0.020233154296875,-0.16131591796875
1761505488080903200,2.396903076171875,-1.0344390869140625,-0.0192718505859375,-0.161163330078125
1761505488090939100,2.406939208984375,-1.0350799560546875,-0.016876220703125,-0.1599884033203125
1761505488100975900,2.416975830078125,-1.01800537109375,-0.0155029296875,-0.159332275390625
1761505488111012000,2.42701220703125,-0.99664306640625,-0.01678466796875,-0.1618499755859375
1761505488121048000,2.437048095703125,-0.973480224609375,-0.014373779296875,-0.1642913818359375
1761505488131084000,2.447083984375,-0.977783203125,-0.0156097412109375,-0.1640777587890625
1761505488141120300,2.457120361328125,-0.9925384521484375,-0.0190582275390625,-0.16156005859375
1761505488151156200,2.46715625,-1.0135345458984375,-0.016693115234375,-0.1598052978515625
1761505488161192200,2.477192138671875,-1.0238037109375,-0.018707275390625,-0.1607513427734375
1761505488171229200,2.487229248046875,-1.0231170654296875,-0.0203399658203125,-0.1607666015625
1761505488181265200,2.49726513671875,-1.00848388671875,-0.0179443359375,-0.1630096435546875
1761505488191301000,2.507301025390625,-0.98291015625,-0.0156707763671875,-0.1664581298828125
1761505488201337000,2.517337158203125,-0.9735870361328125,-0.018035888671875,-0.169647216796875
1761505488211373000,2.527373046875,-0.9701080322265625,-0.02471923828125,-0.16973876953125
1761505488221409000,2.537408935546875,-0.9690399169921875,-0.0269775390625,-0.166656494140625
1761505488231446000,2.547446044921875,-0.974639892578125,-0.02459716796875,-0.1627349853515625
1761505488241482000,2.55748193359375,-0.9838104248046875,-0.0235137939453125,-0.1571044921875
1761505488251518000,2.56751806640625,-0.997589111328125,-0.0202484130859375,-0.157257080078125
1761505488261554000,2.577553955078125,-1.0191497802734375,-0.013946533203125,-0.15985107421875
1761505488271590000,2.58758984375,-1.0298919677734375,-0.00750732421875,-0.16986083984375
1761505488281626000,2.597626220703125,-1.0339508056640625,-0.0025482177734375,-0.180389404296875
1761505488291662000,2.607662109375,-1.0257568359375,-0.00518798828125,-0.1782989501953125
1761505488301698000,2.617697998046875,-1.0105133056640625,-0.0147705078125,-0.167327880859375
1761505488311735000,2.627735107421875,-1.0027618408203125,-0.0237579345703125,-0.1586761474609375
1761505488321771300,2.637771240234375,-0.99920654296875,-0.0319976806640625,-0.1539459228515625
1761505488331807200,2.64780712890625,-1.00323486328125,-0.034515380859375,-0.1516876220703125
1761505488341843200,2.65784326171875,-1.00665283203125,-0.03277587890625,-0.1535186767578125
1761505488351879200,2.667879150390625,-1.004547119140625,-0.0294036865234375,-0.15911865234375
1761505488361915100,2.6779150390625,-0.99151611328125,-0.0248870849609375,-0.163818359375
1761505488371952000,2.6879521484375,-0.980987548828125,-0.0201568603515625,-0.1646881103515625
1761505488381988000,2.697988037109375,-0.97918701171875,-0.0155487060546875,-0.163970947265625
1761505488392024000,2.708024169921875,-0.9815521240234375,-0.0157012939453125,-0.1631011962890625
1761505488402060000,2.71806005859375,-0.994903564453125,-0.0186309814453125,-0.1614227294921875
1761505488412096000,2.728095947265625,-1.0267333984375,-0.0210418701171875,-0.1600799560546875
1761505488422132000,2.738132080078125,-1.034515380859375,-0.0240631103515625,-0.1583099365234375
1761505488432168000,2.74816796875,-1.023590087890625,-0.026336669921875,-0.155792236328125
1761505488442205200,2.758205078125,-1.012603759765625,-0.0298004150390625,-0.1566314697265625
1761505488452241200,2.7682412109375,-0.9959564208984375,-0.0278167724609375,-0.159423828125
1761505488462277000,2.778277099609375,-0.984466552734375,-0.0251617431640625,-0.1613616943359375
1761505488472313000,2.78831298828125,-0.9875640869140625,-0.024261474609375,-0.16070556640625
1761505488482349000,2.79834912109375,-0.9891357421875,-0.028594970703125,-0.156280517578125
1761505488492385000,2.808385009765625,-0.999053955078125,-0.0295257568359375,-0.1526336669921875
1761505488502421200,2.818421142578125,-1.0093536376953125,-0.026885986328125,-0.1494140625
1761505488512457200,2.828457275390625,-1.010345458984375,-0.0260009765625,-0.1485595703125
1761505488522494000,2.838493896484375,-1.0114288330078125,-0.0265960693359375,-0.1521148681640625
1761505488532530200,2.8485302734375,-1.0170135498046875,-0.02752685546875,-0.155792236328125
1761505488542566100,2.858566162109375,-1.013427734375,-0.0295867919921875,-0.15887451171875
1761505488552602000,2.86860205078125,-1.0157928466796875,-0.0310821533203125,-0.1610870361328125
1761505488562638000,2.87863818359375,-1.0164642333984375,-0.029327392578125,-0.1594696044921875
1761505488572674000,2.888674072265625,-1.015350341796875,-0.026153564453125,-0.1583099365234375
1761505488582710000,2.8987099609375,-1.0139007568359375,-0.0227203369140625,-0.1576385498046875
1761505488592746800,2.908746826171875,-1.0022430419921875,-0.024078369140625,-0.15350341796875
1761505488602782700,2.91878271484375,-0.9881134033203125,-0.0262298583984375,-0.1537628173828125
1761505488612818700,2.928818603515625,-0.98529052734375,-0.027984619140625,-0.153228759765625
1761505488622854700,2.938854736328125,-0.984619140625,-0.0272064208984375,-0.1512298583984375
1761505488632890600,2.948890625,-0.994659423828125,-0.028167724609375,-0.1540069580078125
1761505488642926600,2.958926513671875,-1.0081787109375,-0.0253448486328125,-0.164154052734375
1761505488652962600,2.968962646484375,-1.01611328125,-0.0223388671875,-0.17236328125
1761505488662999800,2.978999755859375,-1.01092529296875,-0.0189971923828125,-0.1751708984375
1761505488673035800,2.989035888671875,-0.992645263671875,-0.0187225341796875,-0.173583984375
1761505488683071700,2.99907177734375,-0.9786224365234375,-0.024139404296875,-0.1699371337890625
1761505488693108000,3.00910791015625,-0.96990966796875,-0.0315704345703125,-0.1652984619140625
1761505488703144000,3.01914404296875,-0.9655609130859375,-0.03350830078125,-0.1617889404296875
1761505488713180000,3.029179931640625,-0.97308349609375,-0.0281524658203125,-0.1601409912109375
1761505488723216000,3.0392158203125,-0.9915924072265625,-0.0241851806640625,-0.16119384765625
1761505488733251800,3.049251953125,-1.012908935546875,-0.023956298828125,-0.1608428955078125
1761505488743288800,3.059288818359375,-1.0280303955078125,-0.0267486572265625,-0.1587066650390625
1761505488753324800,3.06932470703125,-1.0260162353515625,-0.0257568359375,-0.1583709716796875
1761505488763360800,3.07936083984375,-1.0135040283203125,-0.0238800048828125,-0.1558685302734375
1761505488773396700,3.089396728515625,-0.991912841796875,-0.025360107421875,-0.1512451171875
1761505488783432700,3.0994326171875,-0.977294921875,-0.027618408203125,-0.149017333984375
1761505488793468700,3.10946875,-0.9765777587890625,-0.0325469970703125,-0.1445770263671875
1761505488803504600,3.119504638671875,-0.9924774169921875,-0.0351409912109375,-0.1447906494140625
1761505488813541600,3.129541748046875,-1.0127410888671875,-0.03289794921875,-0.1511077880859375
1761505488823577600,3.13957763671875,-1.0196685791015625,-0.0250396728515625,-0.1521148681640625
1761505488833613600,3.149613525390625,-1.01861572265625,-0.0217437744140625,-0.1563720703125
1761505488843649800,3.15964990234375,-1.0093231201171875,-0.0258636474609375,-0.154571533203125
1761505488853685800,3.169685791015625,-0.9985198974609375,-0.0302734375,-0.144775390625
1761505488863721700,3.1797216796875,-0.9949493408203125,-0.0306396484375,-0.1445465087890625
1761505488873758000,3.189758056640625,-0.9949951171875,-0.029022216796875,-0.1508331298828125
1761505488883794000,3.1997939453125,-0.997222900390625,-0.026702880859375,-0.1572418212890625
1761505488893830700,3.20983056640625,-1.00885009765625,-0.023712158203125,-0.158935546875
1761505488903867000,3.219866943359375,-1.0118560791015625,-0.0269927978515625,-0.1605682373046875
1761505488913902800,3.22990283203125,-1.004058837890625,-0.032257080078125,-0.157684326171875
1761505488923938800,3.239938720703125,-0.9993438720703125,-0.0337982177734375,-0.1520233154296875
1761505488933974800,3.249974853515625,-1.002655029296875,-0.0332794189453125,-0.1522979736328125
1761505488944010800,3.2600107421875,-1.0106048583984375,-0.031341552734375,-0.152923583984375
1761505488954046700,3.270046630859375,-1.0107574462890625,-0.030548095703125,-0.1554718017578125
1761505488964083700,3.280083740234375,-1.0100250244140625,-0.0309906005859375,-0.16046142578125
1761505488974119700,3.29011962890625,-1.005218505859375,-0.0294189453125,-0.159454345703125
1761505488984155600,3.30015576171875,-1.0039825439453125,-0.0293426513671875,-0.158447265625
1761505488994191600,3.310191650390625,-0.9953460693359375,-0.032318115234375,-0.1583709716796875
1761505489004227600,3.3202275390625,-0.9884490966796875,-0.0295562744140625,-0.159332275390625
1761505489014263800,3.330263916015625,-0.9825286865234375,-0.02545166015625,-0.158843994140625
1761505489024299800,3.3402998046875,-0.993255615234375,-0.0201263427734375,-0.1503143310546875
1761505489034335700,3.350335693359375,-1.0074920654296875,-0.02197265625,-0.148834228515625
1761505489044372700,3.360372802734375,-1.019073486328125,-0.0235595703125,-0.14892578125
1761505489054408700,3.37040869140625,-1.016357421875,-0.0241546630859375,-0.1510009765625
1761505489064444700,3.380444580078125,-0.9966583251953125,-0.0234375,-0.151947021484375
1761505489074481000,3.39048095703125,-0.9802093505859375,-0.023284912109375,-0.154205322265625
1761505489084516900,3.400516845703125,-0.9749908447265625,-0.027435302734375,-0.1556396484375
1761505489094552800,3.410552734375,-0.9920501708984375,-0.026885986328125,-0.1562957763671875
1761505489104588800,3.4205888671875,-1.0052490234375,-0.02325439453125,-0.1515045166015625
1761505489114625800,3.430625732421875,-1.00689697265625,-0.02227783203125,-0.1448516845703125
1761505489124661800,3.440661865234375,-1.013275146484375,-0.02923583984375,-0.1481475830078125
1761505489134697700,3.45069775390625,-1.0041046142578125,-0.031158447265625,-0.15576171875
1761505489144733700,3.460733642578125,-0.9930572509765625,-0.02716064453125,-0.162567138671875
1761505489154769700,3.470769775390625,-1.0024261474609375,-0.0273895263671875,-0.1686859130859375
1761505489164805600,3.4808056640625,-1.0118408203125,-0.0308990478515625,-0.16644287109375
1761505489174841600,3.490841552734375,-1.0127410888671875,-0.0304107666015625,-0.163360595703125
1761505489184877600,3.500877685546875,-1.0121612548828125,-0.0294952392578125,-0.162445068359375
1761505489194914800,3.510914794921875,-1.00604248046875,-0.0313262939453125,-0.1580657958984375
1761505489204950800,3.52095068359375,-0.99951171875,-0.033203125,-0.1529693603515625
1761505489214986800,3.53098681640625,-0.9940948486328125,-0.0323333740234375,-0.1544342041015625
1761505489225022700,3.541022705078125,-0.9934844970703125,-0.0290985107421875,-0.15753173828125
1761505489235058700,3.55105859375,-0.9936370849609375,-0.029937744140625,-0.1565704345703125
1761505489245094700,3.5610947265625,-1.0021514892578125,-0.0303802490234375,-0.158233642578125
1761505489255131000,3.571130859375,-1.0099029541015625,-0.030792236328125,-0.1595916748046875
1761505489265166800,3.581166748046875,-1.009002685546875,-0.0273284912109375,-0.156158447265625
1761505489275203600,3.59120361328125,-1.0130615234375,-0.0255126953125,-0.1579437255859375
1761505489285239800,3.60123974609375,-1.0099639892578125,-0.027862548828125,-0.159210205078125
1761505489295275800,3.61127587890625,-0.999053955078125,-0.03106689453125,-0.1537628173828125
1761505489305311700,3.621311767578125,-1.00494384765625,-0.0354461669921875,-0.1516571044921875
1761505489315347700,3.63134765625,-1.0206756591796875,-0.0372161865234375,-0.15484619140625
1761505489325383700,3.6413837890625,-1.0189666748046875,-0.0362548828125,-0.1551666259765625
1761505489335419600,3.651419677734375,-1.0107269287109375,-0.034027099609375,-0.151763916015625
1761505489345455600,3.66145556640625,-0.9861907958984375,-0.0352630615234375,-0.1416015625
1761505489355492900,3.671492919921875,-0.9658355712890625,-0.03765869140625,-0.133544921875
1761505489365528800,3.68152880859375,-0.9627685546875,-0.0420074462890625,-0.13262939453125
1761505489375564800,3.691564697265625,-0.9804840087890625,-0.039947509765625,-0.1386871337890625
1761505489385600800,3.701600830078125,-1.0074920654296875,-0.0309906005859375,-0.1497650146484375
1761505489395636700,3.71163671875,-1.011627197265625,-0.02642822265625,-0.1548004150390625
1761505489405672700,3.721672607421875,-1.0030059814453125,-0.0279541015625,-0.1491241455078125
1761505489415708700,3.731708740234375,-0.994110107421875,-0.033477783203125,-0.1380157470703125
1761505489425745000,3.741744873046875,-0.987762451171875,-0.037322998046875,-0.136444091796875
1761505489435781600,3.75178173828125,-0.988861083984375,-0.038421630859375,-0.1424102783203125
1761505489445817600,3.761817626953125,-0.9948883056640625,-0.03509521484375,-0.149749755859375
1761505489455853800,3.771853759765625,-1.01519775390625,-0.0264434814453125,-0.1561737060546875
1761505489465889800,3.781889892578125,-1.03936767578125,-0.01397705078125,-0.17059326171875
1761505489475925800,3.79192578125,-1.042694091796875,-0.0087738037109375,-0.177490234375
1761505489485961700,3.801961669921875,-1.034881591796875,-0.0110321044921875,-0.170501708984375
1761505489495997700,3.811997802734375,-1.02679443359375,-0.0207061767578125,-0.1657257080078125
1761505489506033700,3.82203369140625,-1.02008056640625,-0.028076171875,-0.161895751953125
1761505489516071000,3.83207080078125,-1.0092926025390625,-0.028778076171875,-0.159881591796875
1761505489526107000,3.84210693359375,-0.9959259033203125,-0.030303955078125,-0.1551055908203125
1761505489536142800,3.852142822265625,-0.993011474609375,-0.034820556640625,-0.1541290283203125
1761505489546178800,3.8621787109375,-0.992584228515625,-0.036865234375,-0.151885986328125
1761505489556214800,3.87221484375,-0.984100341796875,-0.0316162109375,-0.150360107421875
1761505489566250800,3.882250732421875,-0.9806365966796875,-0.022430419921875,-0.1538543701171875
1761505489576286700,3.89228662109375,-0.9857635498046875,-0.0187530517578125,-0.1571044921875
1761505489586322700,3.90232275390625,-0.9927978515625,-0.017364501953125,-0.1579742431640625
1761505489596358700,3.912358642578125,-0.9969329833984375,-0.0201263427734375,-0.1527557373046875
1761505489606395000,3.922394775390625,-1.01171875,-0.0269622802734375,-0.1529388427734375
1761505489616430800,3.932430908203125,-1.0182037353515625,-0.035491943359375,-0.1504669189453125
1761505489626466800,3.942466796875,-1.011383056640625,-0.03704833984375,-0.150665283203125
1761505489636502800,3.952502685546875,-1.0060882568359375,-0.0352325439453125,-0.1568145751953125
1761505489646538800,3.962538818359375,-0.99578857421875,-0.0346221923828125,-0.1595916748046875
1761505489656574700,3.97257470703125,-0.991241455078125,-0.0367889404296875,-0.1595001220703125
1761505489666610700,3.982610595703125,-0.9982147216796875,-0.033935546875,-0.1577301025390625
1761505489676647700,3.992647705078125,-1.00677490234375,-0.024505615234375,-0.1560211181640625
1761505489686683600,4.00268359375,-1.015350341796875,-0.0173492431640625,-0.1577911376953125
1761505489696719600,4.0127197265625,-1.0200958251953125,-0.0191802978515625,-0.15728759765625
1761505489706753800,4.02275390625,-1.010650634765625,-0.0264739990234375,-0.153167724609375
1761505489716789800,4.032789794921875,-0.9900665283203125,-0.035675048828125,-0.147705078125
1761505489726826800,4.04282666015625,-0.98553466796875,-0.0404510498046875,-0.1471710205078125
1761505489736862700,4.05286279296875,-0.9943389892578125,-0.0427093505859375,-0.15191650390625
1761505489746898700,4.062898681640625,-0.9951629638671875,-0.0399322509765625,-0.1612548828125
1761505489756934700,4.0729345703125,-0.9881439208984375,-0.034332275390625,-0.164459228515625
1761505489766970600,4.082970703125,-0.988128662109375,-0.0332489013671875,-0.16094970703125
1761505489777006600,4.093006591796875,-0.99102783203125,-0.0333251953125,-0.1581878662109375
1761505489787042600,4.10304248046875,-0.9981689453125,-0.02972412109375,-0.1571502685546875
1761505489797078500,4.11307861328125,-1.0112762451171875,-0.027618408203125,-0.157257080078125
1761505489807115800,4.12311572265625,-1.0320587158203125,-0.031036376953125,-0.156005859375
1761505489817151700,4.13315185546875,-1.0375518798828125,-0.0304107666015625,-0.1550445556640625
1761505489827187700,4.143187744140625,-1.0261383056640625,-0.0294952392578125,-0.1526336669921875
1761505489837223700,4.1532236328125,-1.010223388671875,-0.0349273681640625,-0.147216796875
1761505489847259600,4.163259765625,-0.99017333984375,-0.0405731201171875,-0.1382598876953125
1761505489857296000,4.1732958984375,-0.9702911376953125,-0.0375213623046875,-0.13800048828125
1761505489867331800,4.183331787109375,-0.9533233642578125,-0.0340423583984375,-0.1396026611328125
1761505489877367800,4.193367919921875,-0.9460906982421875,-0.0373992919921875,-0.1405029296875
1761505489887403800,4.20340380859375,-0.957794189453125,-0.0384674072265625,-0.1424713134765625
1761505489897440800,4.213440673828125,-0.985687255859375,-0.035797119140625,-0.1506195068359375
1761505489907476700,4.223476806640625,-1.02105712890625,-0.03094482421875,-0.1577606201171875
1761505489917512700,4.2335126953125,-1.0593719482421875,-0.02606201171875,-0.1627349853515625
1761505489927548700,4.243548583984375,-1.059326171875,-0.0249176025390625,-0.1639556884765625
1761505489937584600,4.253584716796875,-1.0411529541015625,-0.02447509765625,-0.1630706787109375
1761505489947620600,4.26362060546875,-1.0206146240234375,-0.0291290283203125,-0.1531982421875
1761505489957656600,4.273656494140625,-1.008514404296875,-0.0366668701171875,-0.1482696533203125
1761505489967692500,4.283692626953125,-1.0038604736328125,-0.0406341552734375,-0.150909423828125
1761505489977729800,4.293729736328125,-1.0105438232421875,-0.0415191650390625,-0.1503448486328125
1761505489987765800,4.303765869140625,-1.0102081298828125,-0.0434722900390625,-0.1467132568359375
1761505489997801700,4.3138017578125,-0.9905548095703125,-0.0455322265625,-0.143768310546875
1761505490007837700,4.323837646484375,-0.9776611328125,-0.04205322265625,-0.1496124267578125
1761505490017873700,4.333873779296875,-0.9712371826171875,-0.03619384765625,-0.157379150390625
1761505490027909600,4.34390966796875,-0.97869873046875,-0.030609130859375,-0.163299560546875
1761505490037945900,4.35394580078125,-1.0033721923828125,-0.0266876220703125,-0.16748046875
1761505490047981800,4.36398193359375,-1.0120849609375,-0.0247802734375,-0.16778564453125
1761505490058017800,4.374017822265625,-1.0081787109375,-0.026580810546875,-0.1620635986328125
1761505490068054800,4.3840546875,-1.009735107421875,-0.031280517578125,-0.1533355712890625
1761505490078090800,4.3940908203125,-0.9971466064453125,-0.035919189453125,-0.149993896484375
1761505490088126700,4.404126708984375,-0.9872283935546875,-0.0372161865234375,-0.1449127197265625
1761505490098162700,4.41416259765625,-0.9781341552734375,-0.0369720458984375,-0.143768310546875
1761505490108198700,4.42419873046875,-0.98443603515625,-0.0355987548828125,-0.1456451416015625
1761505490118234600,4.434234619140625,-1.004364013671875,-0.0357208251953125,-0.1492767333984375
1761505490128270600,4.4442705078125,-1.008819580078125,-0.035736083984375,-0.14996337890625
1761505490138306600,4.454306640625,-1.0165863037109375,-0.0299224853515625,-0.1575469970703125
1761505490148343800,4.46434375,-1.028411865234375,-0.0271453857421875,-0.1622772216796875
1761505490158379800,4.4743798828125,-1.03289794921875,-0.0322113037109375,-0.162872314453125
1761505490168415700,4.484415771484375,-1.0219268798828125,-0.0356903076171875,-0.1612396240234375
1761505490178451700,4.49445166015625,-0.9971923828125,-0.0393829345703125,-0.15582275390625
1761505490188487700,4.50448779296875,-0.97991943359375,-0.0445404052734375,-0.153656005859375
1761505490198523600,4.514523681640625,-0.9819488525390625,-0.045318603515625,-0.1490020751953125
1761505490208559900,4.524559814453125,-0.9903564453125,-0.0453033447265625,-0.147369384765625
1761505490218595800,4.534595947265625,-0.9927978515625,-0.0431060791015625,-0.1474761962890625
1761505490228631800,4.5446318359375,-0.999176025390625,-0.0369110107421875,-0.148681640625
1761505490238668800,4.554668701171875,-1.0128936767578125,-0.032135009765625,-0.1514739990234375
1761505490248704800,4.564704833984375,-1.0201873779296875,-0.026763916015625,-0.154998779296875
1761505490258740700,4.57474072265625,-1.02593994140625,-0.0234375,-0.16046142578125
1761505490268776700,4.584776611328125,-1.0219268798828125,-0.0268402099609375,-0.1614990234375
1761505490278812700,4.594812744140625,-1.013427734375,-0.0350189208984375,-0.1547698974609375
1761505490288848600,4.6048486328125,-1.004974365234375,-0.0400848388671875,-0.1513519287109375
1761505490298884600,4.614884521484375,-0.9961700439453125,-0.0423736572265625,-0.152557373046875
1761505490308920600,4.624920654296875,-0.983489990234375,-0.045013427734375,-0.1490020751953125
1761505490318956500,4.63495654296875,-0.9698486328125,-0.0424957275390625,-0.146087646484375
1761505490328993800,4.644993896484375,-0.9638671875,-0.038848876953125,-0.1446075439453125
1761505490339029800,4.65502978515625,-0.9717559814453125,-0.0380401611328125,-0.142791748046875
1761505490349065700,4.665065673828125,-0.9912109375,-0.0368804931640625,-0.1386260986328125
1761505490359101700,4.675101806640625,-1.0107421875,-0.0330963134765625,-0.1398773193359375
1761505490369137700,4.6851376953125,-1.0235137939453125,-0.0311279296875,-0.1446075439453125
1761505490379173600,4.695173583984375,-1.0252227783203125,-0.0334014892578125,-0.14678955078125
1761505490389209900,4.7052099609375,-1.0175628662109375,-0.038238525390625,-0.1512298583984375
1761505490399245800,4.715245849609375,-1.010498046875,-0.041717529296875,-0.1500244140625
1761505490409282600,4.725282470703125,-1.0018463134765625,-0.042694091796875,-0.1468353271484375
1761505490419318800,4.73531884765625,-0.9900360107421875,-0.0434112548828125,-0.1477203369140625
1761505490429354800,4.745354736328125,-0.9872589111328125,-0.0420074462890625,-0.1500701904296875
1761505490439390700,4.755390625,-0.9885406494140625,-0.039520263671875,-0.1527099609375
1761505490449426700,4.7654267578125,-0.989959716796875,-0.0387115478515625,-0.1478729248046875
1761505490459462700,4.775462646484375,-0.9874267578125,-0.040863037109375,-0.145111083984375
1761505490469498600,4.78549853515625,-0.993560791015625,-0.040496826171875,-0.1464996337890625
1761505490479534600,4.79553466796875,-1.0131072998046875,-0.033599853515625,-0.1524505615234375
1761505490489570600,4.805570556640625,-1.0344390869140625,-0.030853271484375,-0.1579742431640625
1761505490499607800,4.81560791015625,-1.0320281982421875,-0.0327301025390625,-0.162811279296875
1761505490509643800,4.825643798828125,-1.009552001953125,-0.032745361328125,-0.1661224365234375
1761505490519679700,4.8356796875,-0.9918365478515625,-0.0402069091796875,-0.16412353515625
1761505490529715700,4.8457158203125,-0.9772491455078125,-0.048431396484375,-0.1608123779296875
1761505490539751700,4.855751708984375,-0.9740447998046875,-0.048095703125,-0.155548095703125
1761505490549787600,4.86578759765625,-0.990447998046875,-0.0388641357421875,-0.1551666259765625
1761505490559824000,4.875823974609375,-1.0116119384765625,-0.0319366455078125,-0.154327392578125
1761505490569859800,4.88585986328125,-1.025482177734375,-0.0337982177734375,-0.1453399658203125
1761505490579896600,4.895896484375,-1.0296630859375,-0.038330078125,-0.13818359375
1761505490589932800,4.905932861328125,-1.0157318115234375,-0.03851318359375,-0.1433563232421875
1761505490599969300,4.91596923828125,-1.0071258544921875,-0.038238525390625,-0.1437835693359375
1761505490610005500,4.926005615234375,-1.004852294921875,-0.03948974609375,-0.1385650634765625
1761505490620041500,4.93604150390625,-0.9995574951171875,-0.038909912109375,-0.1378326416015625
1761505490630077400,4.946077392578125,-1.004364013671875,-0.0371856689453125,-0.1413116455078125
1761505490640113400,4.956113525390625,-1.0176544189453125,-0.035003662109375,-0.1467437744140625
1761505490650149400,4.9661494140625,-1.0122528076171875,-0.0334014892578125,-0.1492156982421875
1761505490660185600,4.976185546875,-1.00335693359375,-0.0308685302734375,-0.152099609375
1761505490670222600,4.98622265625,-1.0059967041015625,-0.0302734375,-0.15045166015625
1761505490680258600,4.996258544921875,-1.020294189453125,-0.0340576171875,-0.14996337890625
1761505490690294500,5.00629443359375,-1.023895263671875,-0.034210205078125,-0.1503448486328125
1761505490700330500,5.01633056640625,-1.0147247314453125,-0.0298004150390625,-0.150299072265625
1761505490710366500,5.026366455078125,-0.993988037109375,-0.0312957763671875,-0.148895263671875
1761505490720402400,5.03640234375,-0.970428466796875,-0.03546142578125,-0.1455535888671875
1761505490730438400,5.0464384765625,-0.9617919921875,-0.0352630615234375,-0.1487274169921875
1761505490740474400,5.056474365234375,-0.961029052734375,-0.03436279296875,-0.154083251953125
1761505490750510300,5.06651025390625,-0.96063232421875,-0.0347900390625,-0.1524200439453125
1761505490760547300,5.07654736328125,-0.9602203369140625,-0.0330810546875,-0.1481781005859375
1761505490770583300,5.086583251953125,-0.9815521240234375,-0.028106689453125,-0.148193359375
1761505490780619300,5.096619384765625,-1.0053863525390625,-0.0207977294921875,-0.1575469970703125
1761505490790655500,5.106655517578125,-1.045379638671875,-0.012664794921875,-0.1680145263671875
1761505490800691500,5.11669140625,-1.0709381103515625,-0.0080108642578125,-0.169708251953125
1761505490810727400,5.1267275390625,-1.0516357421875,-0.016510009765625,-0.156097412109375
1761505490820763400,5.136763427734375,-1.0332183837890625,-0.0309906005859375,-0.1390838623046875
1761505490830799400,5.14679931640625,-1.013214111328125,-0.048675537109375,-0.1256103515625
1761505490840835600,5.156835693359375,-0.988189697265625,-0.0565338134765625,-0.1214752197265625
1761505490850872600,5.16687255859375,-0.9787445068359375,-0.05279541015625,-0.1266937255859375
1761505490860908500,5.176908447265625,-0.9733428955078125,-0.048370361328125,-0.1377410888671875
1761505490870944500,5.186944580078125,-0.969329833984375,-0.0426483154296875,-0.14569091796875
1761505490880980500,5.19698046875,-0.974029541015625,-0.04083251953125,-0.1474151611328125
1761505490891016400,5.207016357421875,-0.9957275390625,-0.04248046875,-0.14422607421875
1761505490901052400,5.217052490234375,-1.0205078125,-0.0446624755859375,-0.13836669921875
1761505490911088400,5.22708837890625,-1.0354766845703125,-0.0439910888671875,-0.133331298828125
1761505490921124400,5.237124267578125,-1.02703857421875,-0.041290283203125,-0.1349639892578125
1761505490931161300,5.247161376953125,-1.0198516845703125,-0.0388031005859375,-0.139251708984375
1761505490941197300,5.257197265625,-1.022308349609375,-0.03521728515625,-0.1432647705078125
1761505490951233300,5.2672333984375,-1.02984619140625,-0.033416748046875,-0.1463623046875
1761505490961269500,5.27726953125,-1.0337371826171875,-0.0373077392578125,-0.1462249755859375
1761505490971305500,5.287305419921875,-1.0343780517578125,-0.037445068359375,-0.1457977294921875
1761505490981341400,5.297341552734375,-1.013275146484375,-0.0396270751953125,-0.14727783203125
1761505490991377400,5.30737744140625,-0.9876556396484375,-0.040557861328125,-0.14739990234375
1761505491001413400,5.317413330078125,-0.970611572265625,-0.040374755859375,-0.152130126953125
1761505491011449600,5.32744970703125,-0.9633331298828125,-0.04345703125,-0.155609130859375
1761505491021486600,5.337486572265625,-0.976226806640625,-0.0390167236328125,-0.1559600830078125
1761505491031522600,5.3475224609375,-0.9864959716796875,-0.0345306396484375,-0.156768798828125
1761505491041558500,5.35755859375,-0.9913787841796875,-0.0343017578125,-0.15582275390625
1761505491051594500,5.367594482421875,-0.9931640625,-0.0370941162109375,-0.1495208740234375
1761505491061630500,5.37763037109375,-0.9871673583984375,-0.03594970703125,-0.1435089111328125
1761505491071666400,5.38766650390625,-0.9877777099609375,-0.0343475341796875,-0.1412506103515625
1761505491081702400,5.397702392578125,-1.0009613037109375,-0.0354156494140625,-0.14312744140625
1761505491091738400,5.40773828125,-1.0196685791015625,-0.0362396240234375,-0.1483612060546875
1761505491101774300,5.4177744140625,-1.0300750732421875,-0.037261962890625,-0.149871826171875
1761505491111811300,5.427811279296875,-1.026519775390625,-0.03704833984375,-0.153717041015625
1761505491121847300,5.437847412109375,-1.0111083984375,-0.0416717529296875,-0.156280517578125
1761505491131883300,5.44788330078125,-0.9946746826171875,-0.0454864501953125,-0.1557769775390625
1761505491141919500,5.45791943359375,-0.9858856201171875,-0.0423431396484375,-0.1565704345703125
1761505491151955500,5.46795556640625,-0.98779296875,-0.0393218994140625,-0.1547393798828125
1761505491161991400,5.477991455078125,-0.998443603515625,-0.0413665771484375,-0.1464996337890625
1761505491172027400,5.48802734375,-1.0150604248046875,-0.042938232421875,-0.1399383544921875
1761505491182063400,5.4980634765625,-1.035675048828125,-0.0460052490234375,-0.137176513671875
1761505491192099600,5.508099609375,-1.0404815673828125,-0.046600341796875,-0.142822265625
1761505491202136600,5.518136474609375,-1.024383544921875,-0.0410919189453125,-0.1488189697265625
1761505491212172500,5.528172607421875,-1.004913330078125,-0.0387115478515625,-0.1493377685546875
1761505491222208500,5.53820849609375,-0.9943695068359375,-0.040191650390625,-0.14691162109375
1761505491232244500,5.548244384765625,-0.9952545166015625,-0.039947509765625,-0.1491546630859375
1761505491242280400,5.558280517578125,-0.9995574951171875,-0.0432586669921875,-0.152923583984375
1761505491252316400,5.56831640625,-0.9902496337890625,-0.0455322265625,-0.1504669189453125
1761505491262352400,5.578352294921875,-0.979949951171875,-0.0476226806640625,-0.1466522216796875
1761505491272388400,5.588388427734375,-0.97857666015625,-0.04730224609375,-0.14324951171875
1761505491282424600,5.598424560546875,-0.98193359375,-0.0416717529296875,-0.142303466796875
1761505491292461300,5.60846142578125,-0.994110107421875,-0.037353515625,-0.1431884765625
1761505491302497300,5.618497314453125,-1.0181427001953125,-0.034637451171875,-0.1476593017578125
1761505491312533500,5.628533447265625,-1.0378875732421875,-0.0324554443359375,-0.1524658203125
1761505491322569500,5.638569580078125,-1.03289794921875,-0.0315399169921875,-0.1462554931640625
1761505491332605400,5.64860546875,-1.017425537109375,-0.0323638916015625,-0.140533447265625
1761505491342641400,5.658641357421875,-1.00543212890625,-0.0380706787109375,-0.1373138427734375
1761505491352677400,5.668677490234375,-0.9822235107421875,-0.044525146484375,-0.13677978515625
1761505491362713600,5.678713623046875,-0.9586639404296875,-0.0517578125,-0.1412811279296875
1761505491372749600,5.68874951171875,-0.94207763671875,-0.0561370849609375,-0.1421356201171875
1761505491382785500,5.69878564453125,-0.934600830078125,-0.0560455322265625,-0.1502838134765625
1761505491392822500,5.708822509765625,-0.947662353515625,-0.05145263671875,-0.1644744873046875
1761505491402858500,5.7188583984375,-0.9733428955078125,-0.0458526611328125,-0.1708526611328125
1761505491412894500,5.72889453125,-1.007476806640625,-0.04217529296875,-0.170257568359375
1761505491422930400,5.738930419921875,-1.03753662109375,-0.0350341796875,-0.1656494140625
1761505491432966400,5.74896630859375,-1.0654144287109375,-0.027435302734375,-0.157501220703125
1761505491443002400,5.75900244140625,-1.0677337646484375,-0.0267181396484375,-0.1457977294921875
1761505491453038300,5.769038330078125,-1.0579833984375,-0.030548095703125,-0.1388702392578125
1761505491463074600,5.779074462890625,-1.0395355224609375,-0.0360565185546875,-0.138275146484375
1761505491473110500,5.789110595703125,-1.0207366943359375,-0.0413360595703125,-0.1368560791015625
1761505491483147300,5.799147216796875,-1.0079803466796875,-0.0449371337890625,-0.13897705078125
1761505491493183500,5.80918359375,-1.00244140625,-0.0467987060546875,-0.14141845703125
1761505491503219500,5.819219482421875,-1.0068206787109375,-0.0476226806640625,-0.14398193359375
1761505491513255400,5.82925537109375,-1.0043792724609375,-0.0442352294921875,-0.1445770263671875
1761505491523291400,5.83929150390625,-0.9962310791015625,-0.0379486083984375,-0.14581298828125
1761505491533327400,5.849327392578125,-0.9923095703125,-0.0362396240234375,-0.1490936279296875
1761505491543363600,5.859363525390625,-0.9923553466796875,-0.038543701171875,-0.147308349609375
1761505491553399600,5.869399658203125,-0.99462890625,-0.0392913818359375,-0.144683837890625
1761505491563435500,5.879435546875,-0.9925537109375,-0.0412445068359375,-0.1396942138671875
1761505491573472500,5.889472412109375,-0.9996795654296875,-0.04071044921875,-0.1342010498046875
1761505491583508500,5.899508544921875,-0.99835205078125,-0.043792724609375,-0.133148193359375
1761505491593544400,5.90954443359375,-0.99322509765625,-0.0424041748046875,-0.13189697265625
1761505491603580200,5.919580078125,-0.9883880615234375,-0.042144775390625,-0.13720703125
1761505491613616000,5.9296162109375,-0.98590087890625,-0.0444183349609375,-0.139404296875
1761505491623652000,5.939652099609375,-1.0105743408203125,-0.04144287109375,-0.1395416259765625
1761505491633688600,5.9496884765625,-1.0446929931640625,-0.03497314453125,-0.1469573974609375
1761505491643724500,5.959724609375,-1.0411834716796875,-0.034271240234375,-0.14849853515625
1761505491653760500,5.969760498046875,-1.0170135498046875,-0.037261962890625,-0.145233154296875
1761505491663796500,5.97979638671875,-0.99481201171875,-0.0433502197265625,-0.1373748779296875
1761505491673833500,5.98983349609375,-0.987091064453125,-0.0461883544921875,-0.1359710693359375
1761505491683869400,5.999869384765625,-1.0079498291015625,-0.0517578125,-0.1384124755859375
1761505491693905400,6.009905517578125,-1.0313568115234375,-0.05731201171875,-0.13720703125
1761505491703941400,6.01994140625,-1.0337066650390625,-0.0494232177734375,-0.136199951171875
1761505491713977300,6.029977294921875,-1.0237884521484375,-0.03759765625,-0.1431121826171875
1761505491724013300,6.040013427734375,-0.9966583251953125,-0.0377655029296875,-0.1468963623046875
1761505491734049300,6.05004931640625,-0.9734954833984375,-0.0505828857421875,-0.1477813720703125
1761505491744085200,6.060085205078125,-0.9655609130859375,-0.0611419677734375,-0.14984130859375
1761505491754121200,6.070121337890625,-0.976165771484375,-0.0596466064453125,-0.150787353515625
1761505491764157200,6.0801572265625,-0.99884033203125,-0.050506591796875,-0.1541290283203125
1761505491774194200,6.090194091796875,-1.007293701171875,-0.042144775390625,-0.1587982177734375
1761505491784230100,6.100230224609375,-1.00640869140625,-0.0379180908203125,-0.15789794921875
1761505491794266000,6.11026611328125,-0.99896240234375,-0.0411224365234375,-0.154510498046875
1761505491804302300,6.12030224609375,-1.001617431640625,-0.0489959716796875,-0.15130615234375
1761505491814338600,6.130338623046875,-1.0133056640625,-0.0531158447265625,-0.151763916015625
1761505491824374500,6.14037451171875,-1.01171875,-0.0521392822265625,-0.1566162109375
1761505491834410500,6.150410400390625,-1.003448486328125,-0.04754638671875,-0.1551513671875
1761505491844446500,6.160446533203125,-0.991485595703125,-0.044464111328125,-0.1489410400390625
1761505491854482400,6.170482421875,-0.9862060546875,-0.0437469482421875,-0.14593505859375
1761505491864518400,6.180518310546875,-0.98095703125,-0.0476531982421875,-0.148681640625
1761505491874555400,6.190555419921875,-0.9712371826171875,-0.0499420166015625,-0.1517333984375
1761505491884591400,6.20059130859375,-0.9722442626953125,-0.04937744140625,-0.153289794921875
1761505491894627300,6.21062744140625,-0.9854888916015625,-0.0476531982421875,-0.1490020751953125
1761505491904663300,6.220663330078125,-0.996307373046875,-0.0447998046875,-0.1412200927734375
1761505491914699300,6.23069921875,-1.007354736328125,-0.0446319580078125,-0.1343536376953125
1761505491924735200,6.2407353515625,-1.0153656005859375,-0.04449462890625,-0.1286163330078125
1761505491934771200,6.250771240234375,-1.012542724609375,-0.044647216796875,-0.127960205078125
1761505491944807200,6.26080712890625,-1.0176239013671875,-0.0423736572265625,-0.1320037841796875
1761505491954843400,6.270843505859375,-1.0163116455078125,-0.0438079833984375,-0.137176513671875
1761505491964879400,6.28087939453125,-1.0107879638671875,-0.0463104248046875,-0.145355224609375
1761505491974916000,6.290916015625,-1.0025787353515625,-0.0511474609375,-0.1525726318359375
1761505491984952600,6.30095263671875,-0.9919281005859375,-0.051605224609375,-0.1562042236328125
1761505491994988500,6.310988525390625,-0.9922943115234375,-0.0500335693359375,-0.15966796875
1761505492005024500,6.3210244140625,-0.9909210205078125,-0.0513916015625,-0.1569366455078125
1761505492015060500,6.331060546875,-0.988372802734375,-0.057647705078125,-0.15185546875
1761505492025096400,6.341096435546875,-0.9986572265625,-0.05938720703125,-0.14959716796875
1761505492035132400,6.35113232421875,-1.006103515625,-0.056396484375,-0.1480712890625
1761505492045168400,6.36116845703125,-1.0175933837890625,-0.04730224609375,-0.144989013671875
1761505492055204400,6.371204345703125,-1.0240325927734375,-0.04339599609375,-0.1466217041015625
1761505492065240300,6.381240234375,-1.0175628662109375,-0.0447845458984375,-0.1507415771484375
1761505492075277300,6.39127734375,-1.0115203857421875,-0.0439453125,-0.1501922607421875
1761505492085313300,6.401313232421875,-1.011016845703125,-0.045684814453125,-0.153839111328125
1761505492095349200,6.411349365234375,-1.0045013427734375,-0.051055908203125,-0.15924072265625
1761505492105385200,6.42138525390625,-0.994873046875,-0.0538177490234375,-0.15771484375
1761505492115421200,6.431421142578125,-0.9850006103515625,-0.0525970458984375,-0.160003662109375
1761505492125457400,6.44145751953125,-0.980743408203125,-0.051483154296875,-0.1634674072265625
1761505492135493400,6.451493408203125,-0.98846435546875,-0.05084228515625,-0.1657867431640625
1761505492145529300,6.461529296875,-1.0073394775390625,-0.0429840087890625,-0.164642333984375
1761505492155565300,6.4715654296875,-1.0293426513671875,-0.0345916748046875,-0.163360595703125
1761505492165601300,6.481601318359375,-1.037384033203125,-0.035858154296875,-0.1589813232421875
1761505492175637200,6.49163720703125,-1.02618408203125,-0.0389862060546875,-0.1502685546875
1761505492185674500,6.501674560546875,-1.005218505859375,-0.0442962646484375,-0.14422607421875
1761505492195710500,6.51171044921875,-0.9925994873046875,-0.049407958984375,-0.1396942138671875
1761505492205746400,6.521746337890625,-0.9898681640625,-0.05340576171875,-0.1375274658203125
1761505492215782400,6.531782470703125,-0.9848785400390625,-0.0512237548828125,-0.14031982421875
1761505492225818400,6.541818359375,-0.9808502197265625,-0.0479888916015625,-0.14361572265625
1761505492235854300,6.551854248046875,-0.9880828857421875,-0.0462799072265625,-0.1465606689453125
1761505492245890300,6.561890380859375,-0.9939727783203125,-0.04376220703125,-0.1493377685546875
1761505492255926300,6.57192626953125,-0.9986419677734375,-0.0417327880859375,-0.149627685546875
1761505492265962200,6.581962158203125,-1.0090484619140625,-0.0407867431640625,-0.1469268798828125
1761505492275998500,6.59199853515625,-1.0121002197265625,-0.0465240478515625,-0.15020751953125
1761505492286035200,6.60203515625,-1.007781982421875,-0.05572509765625,-0.1471405029296875
1761505492296071200,6.6120712890625,-1.0167236328125,-0.05596923828125,-0.143524169921875
1761505492306107400,6.622107421875,-1.02117919921875,-0.0542755126953125,-0.1429443359375
1761505492316143400,6.632143310546875,-1.01885986328125,-0.0548858642578125,-0.1446533203125
1761505492326179300,6.642179443359375,-1.01336669921875,-0.0505828857421875,-0.1449737548828125
1761505492336215300,6.65221533203125,-1.0045013427734375,-0.0474090576171875,-0.1466522216796875
1761505492346251300,6.662251220703125,-0.99041748046875,-0.0493621826171875,-0.146484375
1761505492356287200,6.672287353515625,-0.97601318359375,-0.0530853271484375,-0.1434478759765625
1761505492366323200,6.6823232421875,-0.9732513427734375,-0.05987548828125,-0.14111328125
1761505492376359200,6.692359130859375,-0.9872894287109375,-0.06353759765625,-0.14117431640625
1761505492386395100,6.70239501953125,-1.004913330078125,-0.061187744140625,-0.1452789306640625
1761505492396431400,6.712431396484375,-1.019378662109375,-0.054840087890625,-0.1485595703125
1761505492406468400,6.72246826171875,-1.027984619140625,-0.0531768798828125,-0.1529388427734375
1761505492416504300,6.73250439453125,-1.0251312255859375,-0.0567626953125,-0.1531524658203125
1761505492426540300,6.742540283203125,-1.018890380859375,-0.056640625,-0.1516571044921875
1761505492436576300,6.752576171875,-1.0102996826171875,-0.055755615234375,-0.151336669921875
1761505492446612500,6.762612548828125,-1.0061187744140625,-0.0550994873046875,-0.1521759033203125
1761505492456648400,6.7726484375,-1.007537841796875,-0.057769775390625,-0.1478271484375
1761505492466684400,6.782684326171875,-1.007537841796875,-0.0549163818359375,-0.1463165283203125
1761505492476720400,6.792720458984375,-1.004547119140625,-0.05133056640625,-0.143280029296875
1761505492486756400,6.80275634765625,-0.9957122802734375,-0.053009033203125,-0.144561767578125
1761505492496792300,6.812792236328125,-0.9857025146484375,-0.0525665283203125,-0.1455535888671875
1761505492506828300,6.822828369140625,-0.9805908203125,-0.045166015625,-0.149749755859375
1761505492516865300,6.832865234375,-0.9942626953125,-0.04144287109375,-0.1553955078125
1761505492526901200,6.8429013671875,-1.010711669921875,-0.0458526611328125,-0.1524658203125
1761505492536937200,6.852937255859375,-1.0160980224609375,-0.0501708984375,-0.1540374755859375
1761505492546973200,6.86297314453125,-1.0100250244140625,-0.04833984375,-0.1531524658203125
1761505492557009200,6.873009033203125,-0.9957427978515625,-0.044403076171875,-0.1498260498046875
1761505492567045400,6.88304541015625,-0.978973388671875,-0.042205810546875,-0.14825439453125
1761505492577081300,6.893081298828125,-0.96893310546875,-0.045318603515625,-0.1464080810546875
1761505492587117300,6.903117431640625,-0.9769744873046875,-0.0481109619140625,-0.142181396484375
1761505492597153500,6.913153564453125,-0.99652099609375,-0.046783447265625,-0.1407470703125
1761505492607189000,6.92318896484375,-1.0123291015625,-0.0435638427734375,-0.1418304443359375
1761505492617225000,6.933224853515625,-1.0211181640625,-0.0438079833984375,-0.1448211669921875
1761505492627262200,6.94326220703125,-1.0176849365234375,-0.0435333251953125,-0.144561767578125
1761505492637298200,6.953298095703125,-1.0048675537109375,-0.0427398681640625,-0.14642333984375
1761505492647334100,6.963334228515625,-0.9947509765625,-0.042144775390625,-0.1464691162109375
1761505492657370000,6.9733701171875,-0.9883270263671875,-0.0443878173828125,-0.14459228515625
1761505492667406000,6.983406005859375,-0.9974212646484375,-0.0517425537109375,-0.1452789306640625
1761505492677442000,6.993442138671875,-1.0074615478515625,-0.05926513671875,-0.1492462158203125
1761505492687478000,7.00347802734375,-1.0029449462890625,-0.0604400634765625,-0.155792236328125
1761505492697514000,7.013513916015625,-0.9975128173828125,-0.0578460693359375,-0.1581573486328125
1761505492707550000,7.023550048828125,-0.9952545166015625,-0.05712890625,-0.1565399169921875
1761505492717586000,7.0335859375,-1.0016326904296875,-0.06158447265625,-0.1536865234375
1761505492727622100,7.0436220703125,-1.0071563720703125,-0.0649261474609375,-0.1547698974609375
1761505492737658000,7.053658203125,-1.0084381103515625,-0.06365966796875,-0.152008056640625
1761505492747694800,7.06369482421875,-1.0120849609375,-0.0615081787109375,-0.1447906494140625
1761505492757731000,7.07373095703125,-1.0157928466796875,-0.0581207275390625,-0.140960693359375
1761505492767767000,7.08376708984375,-1.0134735107421875,-0.0534210205078125,-0.1451568603515625
1761505492777803000,7.093802978515625,-1.0109100341796875,-0.0508880615234375,-0.1501922607421875
1761505492787839000,7.1038388671875,-1.0041351318359375,-0.0500335693359375,-0.1511077880859375
1761505492797875000,7.113875,-1.008941650390625,-0.055694580078125,-0.151336669921875
1761505492807911000,7.123910888671875,-1.0128936767578125,-0.0608367919921875,-0.1524505615234375
1761505492817947000,7.13394677734375,-1.0116729736328125,-0.0617523193359375,-0.1507720947265625
1761505492827982800,7.14398291015625,-1.0043792724609375,-0.0589141845703125,-0.1505584716796875
1761505492838018800,7.154018798828125,-0.995208740234375,-0.0592041015625,-0.145416259765625
1761505492848054800,7.1640546875,-0.9920806884765625,-0.059600830078125,-0.140625
1761505492858092000,7.174092041015625,-0.986785888671875,-0.050872802734375,-0.1396331787109375
1761505492868128000,7.1841279296875,-0.9937286376953125,-0.0411224365234375,-0.1377410888671875
1761505492878164000,7.1941640625,-0.99554443359375,-0.0375213623046875,-0.1331634521484375
1761505492888200000,7.204199951171875,-0.9953460693359375,-0.0377960205078125,-0.132080078125
1761505492898236200,7.214236083984375,-1.003875732421875,-0.04229736328125,-0.1416168212890625
1761505492908272000,7.224272216796875,-0.99737548828125,-0.0477142333984375,-0.142608642578125
1761505492918308000,7.23430810546875,-0.994659423828125,-0.0506744384765625,-0.1374053955078125
1761505492928344000,7.244343994140625,-0.996368408203125,-0.05377197265625,-0.13787841796875
1761505492938380000,7.254380126953125,-1.0067901611328125,-0.05291748046875,-0.136993408203125
1761505492948416000,7.264416015625,-1.0121002197265625,-0.0473480224609375,-0.1305389404296875
1761505492958452000,7.274451904296875,-1.016876220703125,-0.042388916015625,-0.1276092529296875
1761505492968488000,7.284488037109375,-1.01678466796875,-0.042510986328125,-0.12823486328125
1761505492978524000,7.29452392578125,-1.0089874267578125,-0.045654296875,-0.1314697265625
1761505492988561000,7.304560791015625,-1.0046539306640625,-0.0439453125,-0.1417388916015625
1761505492998596900,7.314596923828125,-1.0019378662109375,-0.0467681884765625,-0.15631103515625
1761505493008632800,7.3246328125,-0.995635986328125,-0.054931640625,-0.1650238037109375
1761505493018668800,7.334668701171875,-0.995819091796875,-0.055999755859375,-0.17315673828125
1761505493028704800,7.344704833984375,-1.0108489990234375,-0.05438232421875,-0.1788482666015625
1761505493038741000,7.354740966796875,-1.010711669921875,-0.052764892578125,-0.1784515380859375
1761505493048777200,7.364777099609375,-1.0032196044921875,-0.050323486328125,-0.168853759765625
1761505493058813200,7.374813232421875,-0.9959869384765625,-0.0513153076171875,-0.1580963134765625
1761505493068849200,7.38484912109375,-0.984466552734375,-0.05548095703125,-0.15185546875
1761505493078885000,7.394885009765625,-0.9869842529296875,-0.0587615966796875,-0.1463623046875
1761505493088921000,7.404921142578125,-0.9975433349609375,-0.0587615966796875,-0.1443023681640625
1761505493098957000,7.41495703125,-1.0006866455078125,-0.0572357177734375,-0.1430511474609375
1761505493108994000,7.424994140625,-1.0019073486328125,-0.0524139404296875,-0.1423797607421875
1761505493119030000,7.435030029296875,-0.99822998046875,-0.0470123291015625,-0.1417388916015625
1761505493129066000,7.44506591796875,-1.0048828125,-0.0405731201171875,-0.145538330078125
1761505493139102000,7.45510205078125,-1.01397705078125,-0.0414886474609375,-0.15277099609375
1761505493149138000,7.465137939453125,-1.0201873779296875,-0.0496673583984375,-0.1608123779296875
1761505493159174000,7.475173828125,-1.018218994140625,-0.0586395263671875,-0.158935546875
1761505493169209900,7.4852099609375,-1.0090484619140625,-0.0621490478515625,-0.153076171875
1761505493179245800,7.495245849609375,-0.9991455078125,-0.060211181640625,-0.1460723876953125
1761505493189282000,7.505281982421875,-1.0007171630859375,-0.060272216796875,-0.140838623046875
1761505493199318000,7.515318115234375,-1.0035858154296875,-0.0598297119140625,-0.1463470458984375
1761505493209354000,7.52535400390625,-0.999420166015625,-0.052154541015625,-0.147369384765625
1761505493219390000,7.535389892578125,-0.989654541015625,-0.0462799072265625,-0.143280029296875
1761505493229426000,7.545426025390625,-0.990081787109375,-0.04620361328125,-0.1387939453125
1761505493239463200,7.555463134765625,-0.99676513671875,-0.047393798828125,-0.1374969482421875
1761505493249499100,7.5654990234375,-1.0027618408203125,-0.0468902587890625,-0.1385345458984375
1761505493259535000,7.57553515625,-1.0123443603515625,-0.047210693359375,-0.139984130859375
1761505493269571000,7.585571044921875,-1.012237548828125,-0.049163818359375,-0.143096923828125
1761505493279607000,7.59560693359375,-1.008544921875,-0.048126220703125,-0.14447021484375
1761505493289643000,7.60564306640625,-0.99993896484375,-0.0503997802734375,-0.1461639404296875
1761505493299679000,7.615678955078125,-0.9918975830078125,-0.057861328125,-0.1510467529296875
1761505493309715000,7.62571484375,-0.985687255859375,-0.058441162109375,-0.1512451171875
1761505493319751000,7.6357509765625,-1.001068115234375,-0.0592041015625,-0.1521148681640625
1761505493329787100,7.645787109375,-1.0103912353515625,-0.0649871826171875,-0.15106201171875
1761505493339823000,7.655822998046875,-0.99407958984375,-0.06170654296875,-0.149749755859375
1761505493349859000,7.665859130859375,-0.98388671875,-0.0506439208984375,-0.150115966796875
1761505493359895000,7.67589501953125,-0.9756317138671875,-0.0452728271484375,-0.144927978515625
1761505493369932000,7.68593212890625,-0.9795379638671875,-0.043426513671875,-0.1317901611328125
1761505493379968000,7.695968017578125,-0.9994049072265625,-0.0390625,-0.1189727783203125
1761505493390004000,7.70600390625,-1.02215576171875,-0.038818359375,-0.11785888671875
1761505493400040000,7.7160400390625,-1.0411834716796875,-0.044708251953125,-0.127044677734375
1761505493410076000,7.726075927734375,-1.0417938232421875,-0.052276611328125,-0.1373138427734375
1761505493420112000,7.73611181640625,-1.0273590087890625,-0.054168701171875,-0.1451416015625
1761505493430147800,7.74614794921875,-1.006561279296875,-0.04864501953125,-0.15087890625
1761505493440184000,7.75618408203125,-0.9986724853515625,-0.04498291015625,-0.154296875
1761505493450220000,7.766219970703125,-0.9925079345703125,-0.0513153076171875,-0.1509857177734375
1761505493460256000,7.776256103515625,-0.98126220703125,-0.0563507080078125,-0.145050048828125
1761505493470292000,7.7862919921875,-0.9810791015625,-0.0537567138671875,-0.1381072998046875
1761505493480328200,7.796328125,-0.9947052001953125,-0.0515289306640625,-0.140594482421875
1761505493490364200,7.8063642578125,-1.0248260498046875,-0.048309326171875,-0.142608642578125
1761505493500401000,7.81640087890625,-1.040679931640625,-0.046112060546875,-0.1409912109375
1761505493510437000,7.82643701171875,-1.03375244140625,-0.04351806640625,-0.145355224609375
1761505493520473000,7.83647314453125,-1.0125579833984375,-0.04083251953125,-0.1457977294921875
1761505493530509000,7.846509033203125,-0.9898834228515625,-0.0447998046875,-0.143646240234375
1761505493540545000,7.856544921875,-0.9789276123046875,-0.054229736328125,-0.146636962890625
1761505493550581000,7.8665810546875,-0.9850006103515625,-0.0586395263671875,-0.1482391357421875
1761505493560617000,7.876616943359375,-0.998626708984375,-0.0599517822265625,-0.1544036865234375
1761505493570653000,7.88665283203125,-1.0062255859375,-0.052947998046875,-0.155426025390625
1761505493580689000,7.89668896484375,-1.0056610107421875,-0.0438079833984375,-0.1555938720703125
1761505493590724900,7.906724853515625,-1.003265380859375,-0.0405731201171875,-0.1514434814453125
1761505493600761600,7.91676171875,-1.0015411376953125,-0.042999267578125,-0.1469879150390625
1761505493610797600,7.926797607421875,-1.00555419921875,-0.0454254150390625,-0.147979736328125
1761505493620833500,7.93683349609375,-1.0061187744140625,-0.048309326171875,-0.14813232421875
1761505493630869800,7.946869873046875,-1.0081787109375,-0.0494537353515625,-0.1407470703125
1761505493640906800,7.95690673828125,-1.01898193359375,-0.0511474609375,-0.136199951171875
1761505493650942700,7.966942626953125,-1.017913818359375,-0.0546417236328125,-0.1287689208984375
1761505493660978700,7.976978759765625,-1.0121612548828125,-0.0509796142578125,-0.1288299560546875
1761505493671015000,7.987014892578125,-1.0011138916015625,-0.04364013671875,-0.1412200927734375
1761505493681051000,7.99705078125,-0.9928436279296875,-0.0449371337890625,-0.1526336669921875
1761505493691086800,8.0070869140625,-0.9894866943359375,-0.0487213134765625,-0.149017333984375
1761505493701122800,8.017122802734375,-0.9865570068359375,-0.051666259765625,-0.1465911865234375
1761505493711158800,8.02715869140625,-0.9844512939453125,-0.05828857421875,-0.13775634765625
1761505493721194800,8.03719482421875,-0.99456787109375,-0.058624267578125,-0.1257476806640625
1761505493731230700,8.047230712890626,-1.0107269287109375,-0.0512847900390625,-0.12335205078125
1761505493741266700,8.0572666015625,-1.0240020751953125,-0.040069580078125,-0.1222076416015625
1761505493751302700,8.067302734375,-1.039520263671875,-0.0345611572265625,-0.12994384765625
1761505493761338600,8.077338623046876,-1.0446929931640625,-0.0426788330078125,-0.1454620361328125
1761505493771374600,8.08737451171875,-1.0390625,-0.0484619140625,-0.1638031005859375
1761505493781411600,8.09741162109375,-0.980316162109375,-0.0382080078125,-0.18310546875
1761505493791447600,8.107447509765626,-0.94970703125,0.00213623046875,-0.16461181640625
1761505493801483500,8.1174833984375,-1.05615234375,-0.0924072265625,-0.0740814208984375
1761505493811519700,8.127519775390626,-1.0709686279296875,-0.1277008056640625,-0.0583648681640625
1761505493821556000,8.137555908203124,-0.9886627197265625,-0.098876953125,-0.091827392578125
1761505493831592000,8.147592041015624,-0.93011474609375,-0.0656585693359375,-0.1386566162109375
1761505493841628000,8.1576279296875,-0.9358978271484375,-0.0576019287109375,-0.146026611328125
1761505493851664000,8.167663818359374,-0.96533203125,-0.0677032470703125,-0.136474609375
1761505493861699800,8.177699951171874,-0.9747161865234375,-0.068878173828125,-0.1352081298828125
1761505493871735800,8.18773583984375,-0.9459075927734375,-0.054840087890625,-0.138336181640625
1761505493881771800,8.197771728515624,-0.969970703125,0.0201873779296875,-0.1553192138671875
