time,seconds_elapsed,z,y,x
1761505485791405300,0.1074052734375,-0.4708265369236469,-0.13438227655868976,0.10829261693656445
1761505485801441300,0.117441162109375,-0.38154432540535926,-0.2540568133290857,0.24172698165327308
1761505485811477200,0.127477294921875,-0.24516426262557506,-0.2696722060142085,0.20812369499802588
1761505485821514200,0.13751416015625,-0.12093874801993369,-0.18051687227860092,0.0065500061653554435
1761505485831550200,0.14755029296875,0.10125672695040702,-0.05491086309999227,-0.20907529663443564
1761505485841586200,0.157586181640625,0.3008943331539631,0.013893245067633687,-0.33168080882281065
1761505485851622100,0.1676220703125,0.24180618436932563,0.018287936362624168,-0.33830694896429775
1761505485861658000,0.177658203125,-0.048670215144753455,-0.08635350112263113,-0.22884455759599803
1761505485871694000,0.187694091796875,-0.3120487643748522,-0.1535677097503096,-0.11169891824871302
1761505485881730000,0.19772998046875,-0.3120686381191015,-0.1579809596152976,-0.04402954973205924
1761505485891767000,0.20776708984375,-0.27205051598548885,-0.10224062342122196,-0.08582228032276033
1761505485901803000,0.217802978515625,-0.28952362883388993,0.02678264685496688,-0.21847075535878538
1761505485911839000,0.2278388671875,-0.26121698728203774,0.09281097016632556,-0.2616257142134011
1761505485921875000,0.237875,-0.2896890485286712,0.08082659092731774,-0.20580679635778068
1761505485931911000,0.247910888671875,-0.17469313456118105,0.038486090260744094,-0.08368672959879041
1761505485941947000,0.25794677734375,-0.09077800303399562,0.04139204083532095,0.0022882570676505563
1761505485951982800,0.26798291015625,-0.10614975968897342,0.007107493917644024,-0.05557765644565224
1761505485962020000,0.27802001953125,-0.14854980852305888,-0.01891688191592693,-0.0866166455708444
1761505485972056000,0.28805615234375,-0.1331120008945465,0.03136011083833873,-0.12756927207559346
1761505485982092000,0.298092041015625,-0.09059563220441341,0.1312641080055386,-0.17855930847004056
1761505485992128300,0.308128173828125,-0.03964344360232353,0.16973622453985734,-0.14938859743475913
1761505486002164200,0.318164306640625,0.00010696750581264495,0.10561061131097375,-0.047752515777945516
1761505486012200200,0.3282001953125,-0.02788637031316757,0.022257113988231866,0.07869827366173267
1761505486022236200,0.338236083984375,-0.0796294170320034,-0.02792546021454036,0.10756342587918043
1761505486032273200,0.348273193359375,-0.009271686214208602,-0.011821662957966326,0.08083163242861628
1761505486042309000,0.35830908203125,-0.048157004925608635,0.090611779621616,-0.06360299586057662
1761505486052345000,0.368344970703125,0.08713058644235133,0.1945420183639042,-0.18675299018919467
1761505486062381000,0.378381103515625,0.2908142531663179,0.21699542210921643,-0.13807488399893045
1761505486072417000,0.3884169921875,0.11724223158955574,0.2278792744941078,-0.011434563336521387
1761505486082453000,0.398452880859375,-0.2188333050608635,0.1715381045963615,0.08925941516458988
1761505486092489000,0.408489013671875,-0.28250527450442314,0.07586136973537504,0.21573037060946224
1761505486102526200,0.418526123046875,-0.3044751142501831,0.06762419593436643,0.17352993600070477
1761505486112562200,0.428562255859375,-0.27014731271266934,0.14795023519471287,0.04827507834732532
1761505486122598100,0.43859814453125,-0.12059738723635673,0.17935257773958146,-0.0049742812812328336
1761505486132634000,0.448634033203125,-0.10174830985963344,0.10372202108539641,0.010233224722743033
1761505486142670000,0.458670166015625,-0.0643535219669342,0.025340046831220386,0.03343392143771052
1761505486152706000,0.4687060546875,0.03341770095527172,0.0052457186337560415,0.09637173138782382
1761505486162742000,0.478741943359375,-0.07538345002532004,0.021808584769442675,0.13609218574911355
1761505486172779000,0.488779052734375,-0.13159984276592732,-0.0052649347908794875,0.15066212450191377
1761505486182815000,0.49881494140625,-0.11380699644386767,-0.0005564648389816284,0.10931874511390924
1761505486192851000,0.508850830078125,-0.11201368328630923,0.03370250924602151,0.004816021979600191
1761505486202887200,0.51888720703125,-0.05125438641905784,-0.00914184928946197,-0.02974617283567786
1761505486212923100,0.528923095703125,-0.0591249736636877,-0.08038717659674584,0.01144552312195301
1761505486222959000,0.538958984375,0.006749474260210991,-0.1676144283466041,0.10265125004872679
1761505486232995000,0.5489951171875,0.050908349460363385,-0.1765550011766143,0.12005158992186188
1761505486243032000,0.559031982421875,-0.02674830619394779,-0.10132708877287805,0.051010640791058534
1761505486253068000,0.569068115234375,-0.16932020935118197,-0.04715588332535699,-0.025019728835672137
1761505486263104300,0.579104248046875,-0.34747312897741794,-0.030255145271122455,-0.06415010834932326
1761505486273140200,0.58914013671875,-0.3727349960058927,-0.0671489979043603,-0.05887187568545341
1761505486283176200,0.59917626953125,-0.3534972115725279,-0.07258563600033521,-0.023639964915066956
1761505486293212200,0.609212158203125,-0.30479484772384163,-0.01789908317551017,-0.026115999639779328
1761505486303248100,0.619248046875,-0.09103694623112678,0.01964738814756274,-0.03528378708809614
1761505486313285000,0.62928515625,0.01474339562356472,0.045811537778005,-0.006937982569634914
1761505486323321000,0.639321044921875,0.03344341991841793,-0.02823255340233445,0.0270157249584794
1761505486333357000,0.649357177734375,0.07136135490238667,-0.18094445004090665,0.07881985421478747
1761505486343393000,0.65939306640625,-0.00696866996884346,-0.21144189790161325,0.0987709014840424
1761505486353429000,0.669428955078125,-0.16033084720969198,-0.19816601754734292,0.07274038817062974
1761505486363465000,0.67946484375,-0.2919453030228615,-0.13846249507702887,0.02558437698110938
1761505486373501200,0.689501220703125,-0.2636374924272299,-0.05176211674548685,-0.06699906803965568
1761505486383538000,0.699537841796875,-0.2996908025830984,0.006455825075879692,-0.1491021817088127
1761505486393574000,0.709573974609375,-0.2500578798860311,0.055565308420732616,-0.2232666113331914
1761505486403610000,0.719610107421875,-0.12500292871892452,0.053381160181527956,-0.17681012671515345
1761505486413646000,0.72964599609375,-0.0943956090092659,-0.0112334878064692,-0.10361293468773364
1761505486423682000,0.73968212890625,-0.1875315733462572,-0.07202668694332241,-0.08729629839807748
1761505486433718000,0.749718017578125,-0.14638766205310821,-0.10164565320275723,-0.03994461850598454
1761505486443754200,0.759754150390625,-0.05250818587243557,-0.08375563011653721,-0.005303951627016067
1761505486453791200,0.769791259765625,-0.017210077998042105,-0.07725020287842489,-0.039888066013157364
1761505486463827200,0.7798271484375,0.041541970700025556,-0.08487425888292491,-0.05390753127634525
1761505486473863200,0.78986328125,0.06854103678464889,-0.05568878866992891,-0.02729410350844264
1761505486483899100,0.799899169921875,-0.09449380868673324,-0.031775267510488626,-0.03423047864288092
1761505486493935000,0.80993505859375,-0.30283377678394313,0.038164822417125106,-0.10125848051607608
1761505486503971000,0.81997119140625,-0.2876297779113054,0.10816876222803257,-0.14032953105792403
1761505486514007000,0.830007080078125,-0.19913900903165338,0.1249103550646454,-0.1269990709722042
1761505486524044000,0.8400439453125,-0.06710077484846115,0.11946158813945948,-0.1083376251220703
1761505486534080000,0.850080078125,0.053472062468528744,0.06945566741153597,-0.09358663071393966
1761505486544116000,0.860115966796875,0.01760112314224243,0.05427862961106002,-0.05348346064537763
1761505486554152000,0.87015185546875,0.011911971589922904,0.06249824948906898,-0.0076480305351316925
1761505486564188000,0.88018798828125,-0.05375847819447517,0.015808467571809887,0.06879296571910382
1761505486574224000,0.890223876953125,-0.22033727988302707,-0.07009623033739626,0.11985942835062742
1761505486584261000,0.90026123046875,-0.24327216526865958,-0.08093859993442892,0.10196779782921075
1761505486594296800,0.910296875,-0.2568511932879686,0.021587270168960095,-0.018144728499650955
1761505486604332800,0.920332763671875,-0.17817396241426467,0.059375660489127034,-0.19254662502929568
1761505486614369000,0.930369140625,-0.010620178213715553,0.06395407432056963,-0.25645386453345415
1761505486624405000,0.940405029296875,-0.03359481108784675,0.03054784460738301,-0.22891148535236716
1761505486634441000,0.95044091796875,-0.12103987030684947,-0.020817893231660126,-0.18462474598884582
1761505486644477000,0.960476806640625,-0.2604869194418192,-0.005686375073343515,-0.11082535028457641
1761505486654514000,0.970513916015625,-0.4422445855617523,0.03507745086103677,-0.03459536643251777
1761505486664550000,0.9805498046875,-0.44971009913682936,-0.004832461657747626,0.05235138787552714
1761505486674585900,0.9905859375,-0.29074469506144524,-0.05975538965486921,0.10180573913529514
1761505486684621800,1.000621826171875,-0.08771452381014823,-0.04201017273366451,0.12745733613371849
1761505486694657800,1.01065771484375,0.03235036398470401,-0.032398440910130735,0.1441119722060859
1761505486704693800,1.02069384765625,0.06056757368743419,-0.04284808486253023,0.15610387716442345
1761505486714729700,1.030729736328125,0.006468319231271743,0.008549290223792194,0.13862228874862192
1761505486724766700,1.0407666015625,0.06461188064217567,0.012460618448629975,0.08267419155538082
1761505486734802700,1.050802734375,0.04255786974430084,-0.034899829271808264,0.03843041455075145
1761505486744838700,1.060838623046875,0.005375263297557831,-0.07510624051913618,-0.011200023928284645
1761505486754875000,1.070875,-0.04824585225284099,-0.051638417300581926,-0.008099135303497314
1761505486764910800,1.080910888671875,-0.13093524137735366,-0.028532120870798823,0.01104337206184864
1761505486774946800,1.09094677734375,-0.28262510149180886,-0.026659239671006797,0.06895970058813691
1761505486784983800,1.10098388671875,-0.2998480389714241,-0.056843000206351274,0.12063275081068277
1761505486795019800,1.111019775390625,-0.17050561974346637,-0.07180778349563478,0.18653452513292432
1761505486805055700,1.1210556640625,-0.06949322294294834,-0.02469919164441526,0.17712401496991514
1761505486815092000,1.131092041015625,0.03772854989171028,-0.012644231387227773,0.17029840673357247
1761505486825128000,1.1411279296875,0.036141572961211205,-0.033477687514200806,0.14318185174912212
1761505486835164000,1.151163818359375,-0.09613280806541442,-0.03230265695203561,0.061342503582686184
1761505486845201000,1.161200927734375,-0.21503099016845226,-0.03240187497623265,-0.006105038876831531
1761505486855236900,1.17123681640625,-0.33479309562444687,-0.025813217300921676,-0.05576470345035195
1761505486865272800,1.18127294921875,-0.34478374376296994,-0.01758694848641753,-0.0407828228957951
1761505486875308800,1.191308837890625,-0.20663433322310445,-0.048928505321335976,0.008906506163626909
1761505486885344800,1.2013447265625,-0.14240531441867352,-0.11709785468280315,0.08463511636480689
1761505486895380700,1.211380615234375,-0.2067547447323799,-0.17904694585651157,0.14349807809144258
1761505486905416700,1.221416748046875,-0.28477789561152456,-0.2026919522728771,0.13118147122338414
1761505486915454000,1.231453857421875,-0.34229952573180195,-0.12333024626635014,0.04574775182679295
1761505486925490000,1.241489990234375,-0.26467677234709264,-0.05871748884133994,-0.042457039718329904
1761505486935526000,1.25152587890625,-0.16839724928736685,-0.02984656447023153,-0.03805091371387243
1761505486945561900,1.261561767578125,-0.036976270219683645,-0.04529898514598608,-0.0357635334290564
1761505486955597800,1.271597900390625,0.09268588248193263,-0.09199168967269361,-0.06630261020809411
1761505486965633800,1.2816337890625,0.12432488332688808,-0.08399681846126913,-0.08348580019921063
1761505486975669800,1.291669677734375,-0.03353928150832653,-0.07096702182255685,-0.09718260937929153
1761505486985706800,1.301706787109375,-0.27996026619672776,-0.09685746907815336,-0.12496858805790542
1761505486995742700,1.31174267578125,-0.3781470841825008,-0.10291136228963732,-0.14082432883754373
1761505487005778700,1.32177880859375,-0.382436305809021,-0.04092873417250812,-0.09402312243506313
1761505487015814700,1.331814697265625,-0.3133873195022344,-0.01578384458720684,-0.07707534863501787
1761505487025851000,1.341850830078125,-0.14392799394130706,-0.02521495914682746,-0.05938917755782604
1761505487035886800,1.351886962890625,0.07408814951777458,-0.033686654089763755,-0.0262697288967669
1761505487045923800,1.361923828125,0.22232991500496863,-0.057159080418199296,0.026471827340126035
1761505487055960000,1.3719599609375,0.2117524068892002,-0.03636215690933168,0.015223288094997406
1761505487065996000,1.38199609375,0.10685118595659732,-0.0015354659389704465,-0.01988163529485464
1761505487076032000,1.392031982421875,-0.07978431533277035,0.02214782894445816,-0.0397796372026205
1761505487086068000,1.40206787109375,-0.26047581352591515,0.035479382725432516,-0.07035889986157418
1761505487096104000,1.41210400390625,-0.3200309953004122,0.07562836469709873,-0.0925087723493576
1761505487106141000,1.422140869140625,-0.38117432304918764,0.1008677276328206,-0.04179214606881142
1761505487116177000,1.432177001953125,-0.39024902538657186,0.040390316446870564,0.001739244882762432
1761505487126212900,1.442212890625,-0.25255904905200005,-0.03804368025548756,0.044152153198421
1761505487136248800,1.452248779296875,-0.11432722092568874,-0.05682188435308635,0.05376534632667899
1761505487146284800,1.462284912109375,-0.013109656941890716,-0.04279306673966348,-0.004525222339481115
1761505487156320800,1.47232080078125,0.04776420621573925,-0.01385046537183225,-0.08119009047746657
1761505487166356700,1.482356689453125,0.11134148311316966,0.02340688681155443,-0.12993117890134454
1761505487176393700,1.492393798828125,0.11579144825935363,0.028384241399285384,-0.18066534083858132
1761505487186429700,1.5024296875,0.013003273957967758,0.036239334247261286,-0.1527685952618718
1761505487196465700,1.512465576171875,-0.1811316431760788,-0.0014664192907512187,-0.07081891858875751
1761505487206501600,1.522501708984375,-0.436875752004981,-0.037984351283684374,0.017210077998042105
1761505487216537600,1.53253759765625,-0.540812511819601,-0.03801408883482218,0.06329305312857031
1761505487226573800,1.54257373046875,-0.4940495916008949,-0.026587998782412612,0.09114157564938068
1761505487236610800,1.55261083984375,-0.3887888897061348,0.009096987234428524,0.08156988357529044
1761505487246646800,1.562646728515625,-0.22470775005221366,0.03387092918206472,0.03397065866291523
1761505487256682800,1.572682861328125,-0.04222878392040729,-0.011415201048925518,-0.00257087340131402
1761505487266719000,1.582718994140625,0.1275917761683464,-0.07519406036648434,-0.017506576726585624
1761505487276755000,1.5927548828125,0.22156360680758952,-0.12021795946471392,-0.036625557085871695
1761505487286791000,1.602791015625,0.07127835279405116,-0.13953231626562773,-0.0483937362909317
1761505487296827000,1.612826904296875,-0.13734160128831863,-0.1229303602285683,-0.04583996015489101
1761505487306863900,1.62286376953125,-0.3388391561448574,-0.06786634782690089,-0.03576864799559116
1761505487316899800,1.63289990234375,-0.4030301810264587,-0.015113174217450431,-0.07552972662821411
1761505487326935800,1.642935791015625,-0.24801029970645902,-0.048115723067149514,-0.0582668955296278
1761505487336971800,1.6529716796875,-0.07056757417619228,-0.059926937696337695,-0.00007101940959692001
1761505487347007700,1.6630078125,0.13048574404418467,-0.07383994691036641,0.07415157014280557
1761505487357043700,1.673043701171875,0.2487514734625816,-0.1066491605784744,0.08330079902112483
1761505487367081000,1.6830810546875,0.18602233782708644,-0.07517872123345733,0.08737024041712284
1761505487377117000,1.693116943359375,-0.03685936584174633,-0.03013765637129545,0.10279080464988946
1761505487387153000,1.70315283203125,-0.16110475419163703,0.01549706353507936,0.07051730529367924
1761505487397188900,1.71318896484375,-0.22975685013532637,0.0076738956287503235,0.023766660034656523
1761505487407224800,1.723224853515625,-0.29893618482351303,0.014228724099695682,0.004992547590285539
1761505487417260800,1.7332607421875,-0.2922363949239254,0.011319713918352499,-0.007219137598574161
1761505487427296800,1.743296875,-0.23061317470371723,0.03634404586390592,-0.007605506567656993
1761505487437333800,1.753333740234375,-0.2162310136079788,0.03911635098829865,-0.013104250114411116
1761505487447369700,1.76336962890625,-0.16602350589334963,0.005266249965131283,-0.03568374619111418
1761505487457405700,1.77340576171875,-0.12148819859623908,-0.017858970360830426,-0.001403144796192646
1761505487467442000,1.78344189453125,-0.06464461386799812,-0.05810606981157325,0.049289223825931545
1761505487477478000,1.793477783203125,-0.07856091101765632,-0.07683708289973437,0.09705153034552931
1761505487487513900,1.803513916015625,-0.12070084761083125,-0.05279188905148766,0.10768398351892829
1761505487497550800,1.81355078125,-0.14391454993784428,0.017480355439940466,0.07315276836380362
1761505487507586800,1.8235869140625,-0.207569568246603,0.0490600912451744,0.024808278042078018
1761505487517623000,1.833623046875,-0.25498072324097154,0.03446969422623515,-0.04776128360629082
1761505487527659000,1.843658935546875,-0.15186580120325088,0.027274129299493504,-0.10423968828395008
1761505487537695000,1.853695068359375,-0.01575344944894314,0.0023639526523649692,-0.0661668549992144
1761505487547731000,1.86373095703125,0.08048281899094581,-0.08326583730559796,-0.015380670613795519
1761505487557767000,1.873766845703125,0.08605740425288677,-0.10262304686754942,0.0018250234700739382
1761505487567804000,1.883803955078125,-0.0020738836646080018,-0.05553399996701627,-0.028817221422493457
1761505487577839900,1.89383984375,-0.13889993664622305,-0.022691906942613423,-0.06423004171773791
1761505487587875800,1.903875732421875,-0.2222615259438753,0.004072510135918856,-0.1225745325282216
1761505487597912000,1.913912109375,-0.22893851948976515,0.043772807625168934,-0.2119901611678302
1761505487607948000,1.923947998046875,-0.2320510985523462,0.09241952316332608,-0.2433944764740765
1761505487617984000,1.93398388671875,-0.20275661500692366,0.0893169540381059,-0.1748681988671422
1761505487628021000,1.94402099609375,-0.2175853508263826,0.027234884134493768,-0.09211977303177117
1761505487638057000,1.954056884765625,-0.18619068013131618,-0.016992087865807116,-0.018368454252928493
1761505487648093000,1.964093017578125,-0.204458742749691,-0.06907199272303842,0.028304303464293478
1761505487658129000,1.97412890625,-0.2014256586641073,-0.11206965125724673,0.017475889327377078
1761505487668164900,1.984164794921875,-0.07158113513290881,-0.09761877230685204,-0.048335868623852724
1761505487678201000,1.994201171875,0.012285481077432632,-0.07734958986598066,-0.1310394324041903
1761505487688237300,2.0042373046875,0.04103343665599823,-0.06399915557131171,-0.16281433458849787
1761505487698274000,2.014274169921875,0.047241059124469756,-0.05536226012930274,-0.161138364200294
1761505487708310000,2.02431005859375,-0.10635434235036373,-0.04150247893985361,-0.15376944286748767
1761505487718346200,2.03434619140625,-0.4389379452317953,-0.00834112736582756,-0.13276260293498635
1761505487728382200,2.04438232421875,-0.485679238140583,0.00879819608409889,-0.09210501385405659
1761505487738418200,2.054418212890625,-0.4392682000994682,0.014579510298743843,0.052021571399271486
1761505487748454100,2.0644541015625,-0.3276689428329468,0.0221131937392056,0.1044166522860527
1761505487758490000,2.074489990234375,-0.1384416714847088,-0.01057918861620128,0.07804536271095275
1761505487768527000,2.084527099609375,0.03645429217219352,-0.02117648827782832,0.02978051349669695
1761505487778563000,2.09456298828125,0.08810907608568667,-0.08010645995922386,0.03377075217664242
1761505487788599000,2.10459912109375,0.10768763678073882,-0.15236991480048745,0.049828737530112265
1761505487798635000,2.114635009765625,0.08925298542380332,-0.1425970741311088,0.05534019442796707
1761505487808671000,2.1246708984375,-0.04527881914079189,-0.0881430148879066,0.0174260588362813
1761505487818707000,2.13470703125,-0.2770955244153738,-0.030399266449548303,-0.0443459222048521
1761505487828744200,2.144744140625,-0.45095571528375145,0.0112476624622941,-0.07120192655697465
1761505487838780200,2.1547802734375,-0.3838607856541872,0.03370864672586322,-0.06047945701256394
1761505487848816000,2.164816162109375,-0.24661095430254934,0.0209905463848263,-0.05093099968358874
1761505487858852000,2.17485205078125,-0.055315059986710546,0.012503288546577096,-0.0277272342287004
1761505487868888000,2.18488818359375,0.056660044854879375,-0.0340609307622537,0.03526844338849187
1761505487878924000,2.194924072265625,0.12627718643844127,-0.0630340185998939,0.09142872202768922
1761505487888960000,2.2049599609375,0.09080196843147277,-0.07116276359036565,0.10793357436582446
1761505487898997000,2.2149970703125,0.0008943184912204742,-0.09287994374930858,0.08569806942120194
1761505487909033000,2.225032958984375,-0.07653378910422325,-0.10127583350967616,0.05971914016455412
1761505487919069000,2.23506884765625,-0.11062076762318611,-0.035157859153486785,0.01086319318935275
1761505487929105200,2.245105224609375,-0.17072481545209883,0.027980039945989847,-0.0433873063057661
1761505487939141000,2.25514111328125,-0.287744344201684,0.07136449670754373,-0.10139335894212126
1761505487949177000,2.265177001953125,-0.31320144154131413,0.025984226486273108,-0.1139738774433732
1761505487959213000,2.275213134765625,-0.2766097867250442,-0.03085248097660951,-0.06997238476201892
1761505487969250300,2.285250244140625,-0.16679507478773592,-0.05062517600427381,-0.027577596624940633
1761505487979286300,2.295286376953125,-0.07969546800553798,-0.0686937065957114,-0.006248685131222009
1761505487989322200,2.305322265625,-0.19268880997896193,-0.07053356230873614,-0.005264058008044958
1761505487999358200,2.315358154296875,-0.31423662980794903,-0.06507484937827103,-0.01487213656976819
1761505488009394200,2.325394287109375,-0.30223464184701443,-0.034777682463172824,0.002707505393028259
1761505488019430100,2.33543017578125,-0.18184242179393767,-0.01474609903730452,0.07290463882163166
1761505488029467100,2.345467041015625,-0.04754968668222427,-0.0018741233088076113,0.09884119024127722
1761505488039503000,2.355503173828125,0.09495324289202689,0.00024104221425950525,0.08436594403460622
1761505488049539000,2.3655390625,0.10045359387397766,0.005512297148071229,0.0347528950817883
1761505488059575000,2.375574951171875,0.03362286813855171,-0.009329535614978521,-0.008017302238941192
1761505488069611000,2.385611083984375,-0.20092355436086654,-0.03841532657947391,-0.01932137106359005
1761505488079647000,2.39564697265625,-0.44543607507944105,-0.02906310420865193,-0.016759996142983437
1761505488089683000,2.405682861328125,-0.4852922846496105,0.001356273447163403,-0.0012485387563705443
1761505488099720000,2.415719970703125,-0.32650632879436015,0.025626955747511237,0.00906111220344901
1761505488109756000,2.425755859375,-0.1287333474189043,0.020004677152633665,-0.007961626528948546
1761505488119791900,2.4357919921875,0.11858429384827614,0.04002824166882783,-0.03949965121746063
1761505488129828000,2.445828125,0.10374679020047187,0.03670417528003454,-0.04830576574653387
1761505488139864000,2.455864013671875,-0.030839374899864196,-0.0035774566279724238,-0.02914791468158364
1761505488149900300,2.465900390625,-0.23404022654294968,0.014179003206454217,-0.01172331715002656
1761505488159936300,2.475936279296875,-0.3536322361290455,0.004294281394127756,-0.01937500094696879
1761505488169973200,2.48597314453125,-0.3588286357283592,-0.009349354560300708,-0.020114859528839586
1761505488180009200,2.49600927734375,-0.23857962353825568,0.01662047807443887,-0.036412498857080935
1761505488190045200,2.506045166015625,0.013044775012135504,0.04556505220364779,-0.06691416623517871
1761505488200081200,2.5160810546875,0.1281014792561531,0.03651278089378029,-0.10437982740700244
1761505488210117000,2.5261171875,0.1649398023098707,-0.03220631587151438,-0.11041472365707158
1761505488220153000,2.536153076171875,0.17737024481594563,-0.06509438519580289,-0.08482742406651377
1761505488230189000,2.54618896484375,0.1353857910454273,-0.05060439807772636,-0.05264905564785003
1761505488240226000,2.55622607421875,0.04434124602973461,-0.04561871861964464,0.011710165407508612
1761505488250262000,2.566261962890625,-0.07929740859866141,-0.02520215446418151,0.023751024074107407
1761505488260298000,2.576298095703125,-0.29351532881855963,0.030195085646957158,0.015067805272340773
1761505488270334000,2.586333984375,-0.41683191188573837,0.09116318469299003,-0.0630189123623073
1761505488280370000,2.596369873046875,-0.46418987538814543,0.14655249722599983,-0.17055413506031036
1761505488290406000,2.606406005859375,-0.4007920467108488,0.13579524862915276,-0.16822364628612993
1761505488300441900,2.61644189453125,-0.2478068860888481,0.04743734888155013,-0.07590791229084133
1761505488310479000,2.62647900390625,-0.1634159537434578,-0.042984132332354784,0.003001958294957876
1761505488320515000,2.63651513671875,-0.11684241861701011,-0.12407441569715738,0.037952714036405086
1761505488330551000,2.646551025390625,-0.15142156456708908,-0.15766984783951193,0.05413140316009521
1761505488340587300,2.656587158203125,-0.18617080638706682,-0.14118238502759486,0.045806642407178876
1761505488350623200,2.666623291015625,-0.1795896744310856,-0.10378832778725773,-0.0017865911558270454
1761505488360659200,2.6766591796875,-0.06092179395258426,-0.055814972332865,-0.043235915136337275
1761505488370695200,2.686695068359375,0.04913666361272335,-0.003937047187983989,-0.050032005017250775
1761505488380732200,2.696732177734375,0.08117723099589347,0.04339640292767435,-0.040054070229828355
1761505488390768000,2.70676806640625,0.05432955608069896,0.046929362826794385,-0.036668957836180925
1761505488400804000,2.71680419921875,-0.04244330345392227,0.013710764640197158,-0.027246903365850447
1761505488410840000,2.726840087890625,-0.35535949831306934,-0.010064590157568455,-0.016145809767395256
1761505488420876000,2.7368759765625,-0.4698673365026712,-0.03773759171469137,0.0005621639274060726
1761505488430912000,2.746912109375,-0.3732295015245676,-0.05206816875366494,0.03087707656174898
1761505488440948000,2.756947998046875,-0.2672866625845432,-0.082809069981426,0.032916619565337896
1761505488450985200,2.766985107421875,-0.11090309169590473,-0.06238746432466432,0.0074910864077508445
1761505488461021200,2.777021240234375,0.019640520015358924,-0.035708917164988814,-0.016811434069275856
1761505488471057200,2.78705712890625,-0.003964811977744102,-0.023126973891630768,-0.018724428083747625
1761505488481093000,2.797093017578125,-0.015042670831084251,-0.06394121483899652,0.011942074467241763
1761505488491129000,2.807129150390625,-0.10009411291182041,-0.08565985630266368,0.052288113380968566
1761505488501165000,2.8171650390625,-0.2103051306903362,-0.06047352046212181,0.07837284109964966
1761505488511201000,2.827200927734375,-0.22612112398147582,-0.04888075262289494,0.09472045704945921
1761505488521238000,2.837238037109375,-0.23310908317267892,-0.050105819172132755,0.06600961861088872
1761505488531274000,2.84727392578125,-0.29208208114504813,-0.0549819555748254,0.032270138355344535
1761505488541310000,2.85731005859375,-0.2658990076184273,-0.07043041246151552,0.004681728075444698
1761505488551346200,2.86734619140625,-0.2740712081581354,-0.08236001103967427,-0.01706482430845499
1761505488561382100,2.877382080078125,-0.291882759180665,-0.0627933965107426,-0.004912029699981212
1761505488571418000,2.887418212890625,-0.27639994336664675,-0.03276632437445223,0.003494564117491245
1761505488581454000,2.8974541015625,-0.26795652467012404,0.008829605002515017,-0.00158726919144392
1761505488591490000,2.907489990234375,-0.16813246087133885,0.006003021540772169,0.030773470056802033
1761505488601526800,2.91752685546875,-0.0167266783952713,-0.011215404160507023,0.027748861538618802
1761505488611562800,2.927562744140625,0.01847030719220638,-0.027983948936127125,0.023303426437079906
1761505488621598700,2.9375986328125,0.03158814744055271,-0.01952734196446836,0.04010448524281382
1761505488631634700,2.947634765625,-0.05513327367901802,-0.024803857595287263,0.02719020474255085
1761505488641670700,2.957670654296875,-0.1876701050341129,-0.0013831979867070913,-0.06705562053248286
1761505488651706600,2.96770654296875,-0.28054829521775243,0.035654721026029436,-0.14651684139072893
1761505488661742600,2.97774267578125,-0.24645664052367208,0.0777419227849692,-0.17870500055104493
1761505488671779600,2.987779541015625,-0.0774374599456787,0.09603658114932477,-0.1634571625366807
1761505488681815800,2.99781591796875,0.07191957330703735,0.053845498890802264,-0.13109919976741075
1761505488691851800,3.007851806640625,0.1596031174570322,-0.01764642358869314,-0.08956146685108542
1761505488701887700,3.0178876953125,0.21408406470716,-0.050977176912873984,-0.05756050082594156
1761505488711923700,3.027923828125,0.1572545085042715,-0.01060706300381571,-0.04724529690816998
1761505488721960000,3.0379599609375,-0.014421908584237099,0.02795808384250849,-0.06280117795839905
1761505488731996000,3.047995849609375,-0.22075229042470454,0.029083726871572433,-0.06713920716270803
1761505488742032600,3.05803271484375,-0.38834114593863484,0.00020049100816249847,-0.0448697999484837
1761505488752068900,3.06806884765625,-0.384167075124383,0.007758687835372984,-0.03648454117998481
1761505488762104800,3.078104736328125,-0.2793693145662546,0.03269992634104565,-0.011984744565188884
1761505488772140800,3.088140869140625,-0.06651800652444362,0.02367719165291637,0.03860942437946796
1761505488782176800,3.0981767578125,0.0898030205219984,0.0032046412602066993,0.06033215749636292
1761505488792212700,3.108212646484375,0.11485504419207572,-0.04919113374631852,0.09690174661129712
1761505488802248700,3.118248779296875,-0.019637012884020803,-0.0866368115760386,0.1025656175918877
1761505488812285700,3.12828564453125,-0.22591069610118863,-0.08047353970594703,0.03532368070706725
1761505488822321700,3.13832177734375,-0.30818975085914135,-0.00886047506481409,0.020604835002869366
1761505488832357600,3.148357666015625,-0.3095417499899864,0.034702224340476095,-0.020927052694559096
1761505488842393600,3.1583935546875,-0.22507775240838526,0.003306950857210904,-0.018409955307096243
1761505488852429800,3.168429931640625,-0.11297463727295398,-0.04319636857723817,0.07544701678082347
1761505488862465800,3.1784658203125,-0.07508885099291801,-0.04613974681906402,0.09419760221913456
1761505488872501800,3.188501708984375,-0.06814648450911044,-0.0302439662899822,0.03556406533420086
1761505488882537700,3.198537841796875,-0.08730828109681606,-0.010277063864469528,-0.032620851489156485
1761505488892574700,3.20857470703125,-0.1890162589460611,0.023875856030173597,-0.05565978177115321
1761505488902610700,3.218610595703125,-0.24126433257758617,0.0011851911965757608,-0.0736819068044424
1761505488912646700,3.228646728515625,-0.16904256145358085,-0.049545280946232374,-0.05371171644330024
1761505488922683000,3.238682861328125,-0.11294950283169745,-0.06863868847284466,0.0038528760358691213
1761505488932718800,3.24871875,-0.13456862944364548,-0.06509900657199323,0.008538403503596782
1761505488942754800,3.2587548828125,-0.2153203285038471,-0.047214536443725225,-0.003369914824515581
1761505488952790800,3.268790771484375,-0.22567162664830684,-0.03619918489996344,-0.02305792724341154
1761505488962827800,3.278827880859375,-0.218173964369297,-0.03688826314266771,-0.07574117742180823
1761505488972863700,3.28886376953125,-0.17419979808628558,-0.0215893525281921,-0.07441255916655064
1761505488982899700,3.298899658203125,-0.16088029778599738,-0.0112240258583799,-0.060338002715259784
1761505488992935700,3.308935791015625,-0.08282382915914058,-0.04078680495116859,-0.06106193307563662
1761505489002971600,3.3189716796875,-0.014467501291632651,-0.019496106575988232,-0.06571326601281761
1761505489013007600,3.329007568359375,0.05188625458180904,0.017511508630029857,-0.07555266911238431
1761505489023043600,3.339043701171875,-0.03010930705964565,0.07006899527059868,0.0010169219575822354
1761505489033079800,3.349079833984375,-0.1742985822856426,0.05573580614943057,0.020908055733144283
1761505489043116800,3.35911669921875,-0.2914028667092323,0.038007257235236465,0.022554800026863813
1761505489053152800,3.36915283203125,-0.2930979801893234,0.03600536109460518,0.00702989863678813
1761505489063188700,3.379188720703125,-0.10934183372855186,0.0463334062276408,-0.00021495792493224142
1761505489073224700,3.389224609375,0.05821545760333538,0.05360982697140425,-0.01632277376949787
1761505489083260700,3.3992607421875,0.12994506129622457,0.01174580297647044,-0.03286182063817978
1761505489093296600,3.409296630859375,-0.012122399470210075,0.0052484220474958414,-0.042538872782886025
1761505489103332900,3.419332763671875,-0.16374328600168228,0.03340590091962367,-0.009708762457221746
1761505489113368800,3.429368896484375,-0.1797889963954687,0.051662492295913395,0.06241553964167833
1761505489123405600,3.439405517578125,-0.24253216055631635,-0.014690459859929977,0.04310907388627529
1761505489133441800,3.44944189453125,-0.17647358823716638,-0.0465561821328476,-0.026803397382050752
1761505489143477800,3.459477783203125,-0.0520054970473051,-0.009388042602874338,-0.0982011387720704
1761505489153513700,3.469513671875,-0.12443594248592853,-0.0059718044186010955,-0.16173311522305012
1761505489163549700,3.4795498046875,-0.2261310608536005,-0.042431211157329375,-0.15611074529662727
1761505489173585700,3.489585693359375,-0.2406301263272762,-0.04664645423218607,-0.12298881241753697
1761505489183621600,3.49962158203125,-0.238735690882802,-0.03434698116201907,-0.11888809910044074
1761505489193659000,3.509658935546875,-0.18299392991662025,-0.04674615174699574,-0.07781389204263686
1761505489203694800,3.51969482421875,-0.11785071887671947,-0.06630893035102635,-0.020131664533168076
1761505489213730800,3.529730712890625,-0.06431669708788394,-0.05673424260225147,-0.022808044135570523
1761505489223766800,3.539766845703125,-0.050294016954302787,-0.02600347917601466,-0.05325681228265166
1761505489233802800,3.549802734375,-0.05381166968643665,-0.03112140671163797,-0.04583879111111164
1761505489243838700,3.559838623046875,-0.12147709268033503,-0.04034552745707333,-0.06115472592562437
1761505489253874700,3.569874755859375,-0.21178221750557422,-0.0477355281105265,-0.08006050192564726
1761505489263910700,3.57991064453125,-0.20547581083774566,-0.019505422393605112,-0.049367842020094393
1761505489273947600,3.58994775390625,-0.233267488604784,0.0023438597124069926,-0.05866305524036288
1761505489283983600,3.599983642578125,-0.22890870887339113,-0.013621990378201007,-0.0781206199042499
1761505489294019600,3.61001953125,-0.11456102968156337,-0.0470439108508639,-0.027968495638668534
1761505489304055800,3.620055908203125,-0.1456815596103668,-0.08487597591597586,0.00037906244546175
1761505489314091800,3.630091796875,-0.3122036626756191,-0.10590075336396694,-0.024619915863126514
1761505489324127700,3.640127685546875,-0.309148951280117,-0.09311227293414995,-0.03471343985423445
1761505489334163700,3.650163818359375,-0.23972119478881357,-0.06326117841927334,-0.010819207917153835
1761505489344199700,3.66019970703125,-0.013226561319828033,-0.0655443757193163,0.07854761314466595
1761505489354237000,3.67023681640625,0.2033294464588165,-0.08528674867395311,0.15958382823467254
1761505489364273000,3.68027294921875,0.2540425656080246,-0.13205576983988285,0.17422580931037662
1761505489374308900,3.690308837890625,0.11067746624648571,-0.13139111365238204,0.12559548778459428
1761505489384344800,3.7003447265625,-0.16487199777066708,-0.0527723532339558,0.019797902534157037
1761505489394380800,3.710380859375,-0.2350923659443855,0.0018412804851308463,-0.03682371000647545
1761505489404416800,3.720416748046875,-0.15940788714587686,-0.004239628597442061,0.01005801428630948
1761505489414452700,3.73045263671875,-0.07093991461992263,-0.05958619796726852,0.1264509355701506
1761505489424488700,3.74048876953125,-0.00395487510561943,-0.1026938470814377,0.15618395666331053
1761505489434525700,3.750525634765625,-0.0035147301226854323,-0.12841480125533417,0.10718757830411195
1761505489444561700,3.760561767578125,-0.05642740514278412,-0.10352089075641706,0.037445787427574394
1761505489454597600,3.77059765625,-0.23424247111678123,-0.04126556491144001,-0.01760287670791149
1761505489464633600,3.780633544921875,-0.48979076511263847,0.08266741475472227,-0.13804770373106
1761505489474669600,3.790669677734375,-0.5448661711245775,0.1448042105202563,-0.2195753555998206
1761505489484705800,3.800705810546875,-0.4738771566659212,0.13599468019139022,-0.1589380776770413
1761505489494741800,3.81074169921875,-0.39263270565271374,0.05418236616235226,-0.10959434718489647
1761505489504777700,3.82077783203125,-0.32460195647776124,-0.01931240230584517,-0.08297010576203465
1761505489514815000,3.83081494140625,-0.22629414246082305,-0.024423005051538348,-0.07351970198005438
1761505489524851000,3.840850830078125,-0.0898076966971159,-0.027702282450534403,-0.04033288717120886
1761505489534887000,3.850886962890625,-0.045021629509329794,-0.06514686430171132,-0.03091419370174408
1761505489544923000,3.8609228515625,-0.05179390012323856,-0.08908688987558708,-0.012508768439292908
1761505489554958800,3.870958740234375,0.02951367925405502,-0.041142924912460146,0.010540975497663021
1761505489564994800,3.880994873046875,0.07148527354300022,0.04993797005824745,-0.0156276311121881
1761505489575030800,3.89103076171875,0.032329905718564984,0.09643235726756974,-0.04749021157994866
1761505489585066800,3.901066650390625,-0.04385492381751537,0.11134394906489178,-0.06118892045617103
1761505489595103700,3.911103759765625,-0.07947334968745708,0.0908075579220429,-0.012952712814509867
1761505489605138700,3.921138671875,-0.21317864030003547,0.03285745499031618,-0.009263210646808146
1761505489615174700,3.931174560546875,-0.2983481558024883,-0.05346382436314597,0.009116934043914079
1761505489625211000,3.9412109375,-0.239684954431653,-0.07248396572414785,0.013803192164003848
1761505489635246800,3.951246826171875,-0.1834223844617605,-0.05672995001962408,-0.042537996000051495
1761505489645282800,3.96128271484375,-0.09359598306417465,-0.04296624961579218,-0.07615954896435141
1761505489655318800,3.97131884765625,-0.026729016971588134,-0.06637757514044643,-0.07719649079665541
1761505489665354800,3.981354736328125,-0.0944260041475296,-0.04769532396430149,-0.06284092544689775
1761505489675390700,3.991390625,-0.1689928770929575,0.03679711426049471,-0.046916941736638546
1761505489685427700,4.001427734375,-0.26054478710889817,0.11919745731055736,-0.06282821209579706
1761505489695463700,4.011463623046875,-0.3098077074497938,0.11001918500084429,-0.06438304032236337
1761505489705499600,4.021499755859375,-0.24441373651921747,0.053917906539887185,-0.027965865290164947
1761505489715535600,4.03153564453125,-0.039165304696559905,-0.034658421731367704,0.02975669422969222
1761505489725571600,4.041571533203125,0.028291443982720373,-0.08351970246881246,0.03953267670422792
1761505489735607600,4.051607666015625,-0.05324351440966129,-0.1068139226861298,0.004532236602157354
1761505489745643500,4.0616435546875,-0.0797036513119936,-0.08731346872858703,-0.0861075270049274
1761505489755679500,4.071679443359375,-0.006676409024000168,-0.032677038655802605,-0.1315653559744358
1761505489765716700,4.081716796875,0.0006412205129861831,-0.019878109897207466,-0.1015853743828833
1761505489775752700,4.091752685546875,-0.022807459613680837,-0.02824181442102417,-0.0722290776476264
1761505489785788700,4.10178857421875,-0.08821136741638183,-0.0028039515048265454,-0.06568652413636446
1761505489795824600,4.11182470703125,-0.2022235310435295,0.019529278193227945,-0.06514569525793194
1761505489805860900,4.12186083984375,-0.4109650656789541,-0.009419095328263937,-0.05173047949820757
1761505489815896800,4.131896728515625,-0.49085751756131646,-0.0073734513774514196,-0.04057195662409067
1761505489825932800,4.141932861328125,-0.39193186390697954,0.018188914701249448,-0.020229571949690578
1761505489835968800,4.15196875,-0.23767069199979304,-0.02000551740285009,0.02583484461084008
1761505489846005800,4.162005859375,-0.04900982236266136,-0.07073416291475296,0.11306143877357244
1761505489856041700,4.172041748046875,0.15193535930812357,-0.046068837007321416,0.12954057214856146
1761505489866077700,4.18207763671875,0.32249300149977206,-0.006435439874976873,0.10519289735555648
1761505489876113700,4.19211376953125,0.4128606701672077,-0.04011931748576462,0.09526260110214352
1761505489886149600,4.202149658203125,0.3232914584010839,-0.06378620694037526,0.08268471294939518
1761505489896185600,4.212185546875,0.062383683198690414,-0.05306676960326731,0.012739946846663951
1761505489906221600,4.2222216796875,-0.2731225291311741,-0.01808919892013073,-0.051502808222174644
1761505489916257500,4.232257568359375,-0.6710147627472877,0.03381860990636051,-0.09441840536296367
1761505489926293500,4.24229345703125,-0.7206687282323837,0.053111796055082226,-0.10111308069601654
1761505489936330800,4.252330810546875,-0.5500204851478337,0.06653364248499274,-0.09538593522086738
1761505489946366700,4.26236669921875,-0.34808103174269195,0.03818630359657109,-0.015124942287057637
1761505489956402700,4.272402587890625,-0.21214637464284897,-0.03390000457949936,0.04448547680601477
1761505489966438700,4.282438720703125,-0.16127485006153583,-0.07349102387484163,0.010397913765162229
1761505489976475000,4.292474853515625,-0.20726620138585566,-0.08089801219571381,0.005170826766639948
1761505489986510800,4.3025107421875,-0.23360300416946408,-0.09378321273196488,0.03432195631861686
1761505489996546800,4.312546875,-0.04925590607821941,-0.11474844201244414,0.06976181075125933
1761505490006582800,4.322582763671875,0.09225801245868205,-0.08546192257776856,0.01958864369764924
1761505490016618800,4.33261865234375,0.15910510480701923,-0.03222454564794898,-0.060240387559682126
1761505490026655700,4.34265576171875,0.11128069283664226,0.020101488590613007,-0.1234717736288905
1761505490036691700,4.352691650390625,-0.1204331365853548,0.060313964252546426,-0.16533479297682643
1761505490046727700,4.362727783203125,-0.23788754962086675,0.08479286420978606,-0.17331673164144157
1761505490056763600,4.372763671875,-0.19873978058099745,0.07430946411825716,-0.12140563487932085
1761505490066799600,4.382799560546875,-0.2168324866324663,0.03674052523504943,-0.036317367919534445
1761505490076835600,4.392835693359375,-0.10796996085345745,-0.006559650776535272,0.00025280571728944777
1761505490086871600,4.40287158203125,-0.0003039513826370239,-0.020675854412466287,0.046247810303419824
1761505490096907500,4.412907470703125,0.08505202660262584,-0.02035414817743003,0.06491641654670238
1761505490106944800,4.42294482421875,0.06061199735105037,-0.0145157608801499,0.04737330720201134
1761505490116980700,4.432980712890625,-0.14261691134274004,-0.019167751404456795,0.012740385238081216
1761505490127016700,4.4430166015625,-0.20478841309547424,-0.028411490165814755,0.00790171303525567
1761505490137052700,4.453052734375,-0.26281799273788925,0.022335019796341657,-0.05321195022761822
1761505490147088600,4.463088623046875,-0.3885077346771955,0.05993902999293059,-0.108443569714576
1761505490157124900,4.473124755859375,-0.4412017985105514,0.018069252110645175,-0.11438406567946076
1761505490167160800,4.483160888671875,-0.35876258475482464,-0.013846739044785498,-0.10867664781808853
1761505490177196800,4.49319677734375,-0.11785773313939571,-0.03924534766282886,-0.058255205091834066
1761505490187232800,4.503232666015625,0.06639174979627133,-0.08937515049874782,-0.043390959567576645
1761505490197269800,4.513269775390625,0.07249941902160643,-0.10359773711860179,-0.0033685996502637863
1761505490207305700,4.5233056640625,-0.013044775012135504,-0.10113784981109201,0.01927431705147028
1761505490217341700,4.533341796875,-0.04318097007870674,-0.08944153026584535,0.01765957533121109
1761505490227377700,4.543377685546875,-0.09366787925660609,-0.031539449460618194,0.013592764283716677
1761505490237413600,4.55341357421875,-0.2300824288278818,0.015325214099511503,-0.008279314175993204
1761505490247449600,4.56344970703125,-0.30809681187868115,0.06810578717254102,-0.04252689008414745
1761505490257485600,4.573485595703125,-0.3684761695176363,0.11264891244992613,-0.08949439296424389
1761505490267521500,4.583521484375,-0.34325112736821173,0.09491444525159895,-0.11403685967698693
1761505490277558800,4.593558837890625,-0.25935411601960656,0.027784919232688842,-0.04966609431430697
1761505490287594800,4.6035947265625,-0.1784609626621008,-0.022678974395804106,-0.009622691608965396
1761505490297630700,4.613630615234375,-0.09577624971270561,-0.038803924038261176,-0.021190818197280168
1761505490307666700,4.623666748046875,0.025801380732655525,-0.0618442425597459,0.012341156787425278
1761505490317702700,4.63370263671875,0.16099427955448625,-0.04659954635053873,0.037220600369572636
1761505490327739600,4.64373974609375,0.2401169161081314,-0.011929178453050552,0.05037073545232415
1761505490337775600,4.653775634765625,0.1773801816880703,-0.00915467223841697,0.05485562578141689
1761505490347811600,4.6638115234375,-0.0019710078120231626,-0.009645707158371805,0.09413242802843451
1761505490357847800,4.673847900390625,-0.19940730457901953,0.022366328250057993,0.08648235166668891
1761505490367883800,4.6838837890625,-0.3349403951406479,0.04629610642455518,0.04096636276915669
1761505490377919700,4.693919677734375,-0.36885493970215316,0.03309665230736136,0.026962971857935187
1761505490387955700,4.703955810546875,-0.30010289051532746,-0.005814531497657299,-0.012221622060984372
1761505490397991700,4.71399169921875,-0.2290185989886522,-0.039035906163230535,-0.002444616673141718
1761505490408028700,4.724028564453125,-0.15103402655422687,-0.04691113305035978,0.030403467700630425
1761505490418064600,4.734064697265625,-0.03141162182986736,-0.05196611488498747,0.024363456884026528
1761505490428100900,4.744100830078125,0.010918868899345397,-0.047325595602765676,-0.005824614500254392
1761505490438136800,4.75413671875,-0.0010129764348268508,-0.028484591934643685,-0.050476972305774685
1761505490448172800,4.7641728515625,-0.01376958215534687,-0.023796105324849486,-0.019856208592653274
1761505490458208800,4.774208740234375,0.010349544578790663,-0.046857722362689674,0.00974646411910653
1761505490468244700,4.78424462890625,-0.03508125025331974,-0.05982135843001306,0.0027254794411361214
1761505490478280700,4.79428076171875,-0.20838030010759828,-0.0011233049415051936,-0.047128246399760244
1761505490488316700,4.804316650390625,-0.43853520964980125,0.036136714123003184,-0.09288418153300881
1761505490498353700,4.814353759765625,-0.44544484290778635,0.023206322738155722,-0.13416940099298955
1761505490508389600,4.8243896484375,-0.23924597849249837,0.03436046169809997,-0.16418460002839563
1761505490518425600,4.834425537109375,-0.05454056848287582,-0.026338958208076656,-0.15126564335301518
1761505490528461600,4.844461669921875,0.09155775523483753,-0.11171670963373034,-0.12299684959352016
1761505490538497800,4.854497802734375,0.14755319870114325,-0.12826788533162325,-0.07643573555722832
1761505490548533800,4.86453369140625,0.00907704042494297,-0.055517633354105055,-0.07683335657268762
1761505490558569700,4.87456982421875,-0.20245324814617632,0.016596951068378985,-0.08021744605302811
1761505490568605700,4.884605712890625,-0.3439022847533226,-0.001260411857254803,-0.0058317748934030526
1761505490578642700,4.894642578125,-0.4090829051941633,-0.0488723501207307,0.07691957355141639
1761505490588678700,4.9046787109375,-0.2833253587156534,-0.05423983197063207,0.03449818966835737
1761505490598715600,4.914715576171875,-0.18630816903114317,-0.041634179028123615,0.019339783503115177
1761505490608751600,4.924751708984375,-0.16431962458491325,-0.05273340946305543,0.0755471161544323
1761505490618787600,4.93478759765625,-0.11461188308596611,-0.04750763763878494,0.08912161412909626
1761505490628823600,4.944823486328125,-0.14017887054085731,-0.02831296169478446,0.06125657886490225
1761505490638859500,4.954859619140625,-0.27758593828082084,-0.00952967956326902,0.00693140669837594
1761505490648895500,4.9648955078125,-0.24783552766144273,0.007224106034636497,-0.02028904705196619
1761505490658931500,4.974931396484375,-0.1483224295079708,0.031075339080207046,-0.05496580815762281
1761505490668968400,4.984968505859375,-0.159019764611125,0.04387234987635165,-0.04427665636092424
1761505490679004400,4.99500439453125,-0.2940513353914022,0.013421499370038508,-0.039794688641279934
1761505490689040400,5.005040283203125,-0.3510252685010433,0.00723228934109211,-0.043712446606904265
1761505490699076400,5.015076416015625,-0.2738789004564285,0.06053513272255659,-0.03936871831417083
1761505490709112300,5.0251123046875,-0.0836988584280014,0.0629196167062968,-0.03305544351413846
1761505490719148300,5.035148193359375,0.15565701017975805,0.02470426967833191,0.0035736207030713555
1761505490729184500,5.0451845703125,0.26027532251775265,0.021221797857433555,-0.02520283031761646
1761505490739220500,5.055220458984375,0.2702987038820982,0.028164018210768697,-0.08218611577749252
1761505490749256400,5.06525634765625,0.27350714453458785,0.01499379018805921,-0.07803308775126934
1761505490759293400,5.07529345703125,0.2864876221388578,0.017517244251072407,-0.03583557575196027
1761505490769329700,5.08532958984375,0.10619067622125149,0.04759637536816299,-0.017046704129874704
1761505490779365600,5.09536572265625,-0.13499649946689604,0.10784450784288346,-0.09655205639079213
1761505490789401600,5.105401611328125,-0.495589806780219,0.17321118890773504,-0.19072920034378765
1761505490799437600,5.1154375,-0.808608877491951,0.23179365319255738,-0.22927666540294883
1761505490809473500,5.1254736328125,-0.6460439876198768,0.1694237427908927,-0.11059358735531567
1761505490819509500,5.135509521484375,-0.45373862400054926,0.043944136470928784,0.04840864159911871
1761505490829545500,5.14554541015625,-0.2689695011049509,-0.12173811823669821,0.1836206835128367
1761505490839581400,5.15558154296875,-0.01765080750286579,-0.21198402368798852,0.23385449471250175
1761505490849618400,5.165618408203125,0.09378186102509498,-0.18110223441850393,0.18597192281410097
1761505490859654400,5.175654296875,0.14636486569941043,-0.13448420256320387,0.08108677623346447
1761505490869690400,5.1856904296875,0.19299451492726802,-0.08602974906098097,-0.008031623025238514
1761505490879726300,5.195726318359375,0.16188392187058925,-0.06708108376730233,-0.036606998515874144
1761505490889762300,5.20576220703125,-0.032415830436348915,-0.09067015874534845,-0.011094517727196216
1761505490899798300,5.21579833984375,-0.27910861780345436,-0.11382219401299953,0.047929187519103286
1761505490909834500,5.22583447265625,-0.44992403414845467,-0.11214158398229628,0.10994330675303936
1761505490919870500,5.235870361328125,-0.3905833719074726,-0.08267240145709365,0.10407806798145175
1761505490929907500,5.245907470703125,-0.3075678195685148,-0.0564664585115388,0.06369988036379218
1761505490939943700,5.255943603515625,-0.3201069831460714,-0.02018218914400786,0.020351152502745388
1761505490949979600,5.265979736328125,-0.39264264252483844,0.007323182494938373,-0.015129472331702708
1761505490960015600,5.276015625,-0.43241643450856204,-0.02527768565211445,-0.0272729145899415
1761505490970051600,5.286051513671875,-0.45252866368889805,-0.021757402571476996,-0.020205022030323743
1761505490980087600,5.296087646484375,-0.2733434784054756,-0.029905601181089876,-0.036028175714612004
1761505490990123500,5.30612353515625,-0.013530512702465056,-0.031626177896000446,-0.039990795735269785
1761505491000159500,5.316159423828125,0.16175649609863757,-0.019374599088169634,-0.07889598819091916
1761505491010195500,5.326195556640625,0.2524374684989452,-0.04912913789339363,-0.12241685774847864
1761505491020232400,5.336232421875,0.14601006091237068,-0.013912863083556293,-0.12810133312568067
1761505491030268400,5.346268310546875,0.031183073770999905,0.03532722437102347,-0.13731339810714124
1761505491040304400,5.356304443359375,-0.01685702677667141,0.04522774654068053,-0.13036153314262627
1761505491050340400,5.36634033203125,-0.04493336670398712,0.021029270960018037,-0.07439312381371856
1761505491060376300,5.376376220703125,0.009338906231522559,0.02379804155360907,-0.008445464523136615
1761505491070412300,5.386412353515625,0.01881985128223896,0.03986384488735348,0.019414310044050215
1761505491080448500,5.396448486328125,-0.09795008662045002,0.02910692508406937,0.010688567274808883
1761505491090484500,5.406484375,-0.2793272289901972,0.01785232142433524,-0.03637742754369974
1761505491100520400,5.4165205078125,-0.40076340513825415,0.008321911208704114,-0.04860328738838434
1761505491110557400,5.426557373046875,-0.3853162451595068,0.0157937083940953,-0.07406608381643891
1761505491120593700,5.43659375,-0.24423604186475276,-0.017661986484006045,-0.09799874806776643
1761505491130629600,5.446629638671875,-0.07784545622467995,-0.059619150388799606,-0.08961655803918837
1761505491140665600,5.45666552734375,0.018003858724236488,-0.0377516385063529,-0.0984920845426619
1761505491150701600,5.46670166015625,0.01528407837152481,-0.0046263446263968945,-0.09584536942616105
1761505491160737500,5.476737548828125,-0.07957330293059349,-0.026955994127877057,-0.02716390125751495
1761505491170773500,5.4867734375,-0.2326660155802965,-0.046518370873108505,0.03814531399905682
1761505491180809500,5.4968095703125,-0.43909225901067256,-0.07329539170488715,0.07485840323790907
1761505491190845400,5.506845458984375,-0.5179278953164815,-0.08382902414631098,0.033380291554331774
1761505491200882400,5.51688232421875,-0.37692660247683524,-0.023193244060873985,-0.021824586056172848
1761505491210918400,5.52691845703125,-0.18351123178899287,0.01653448029141873,-0.032678865286707874
1761505491220954400,5.536954345703125,-0.06623100627660751,0.006713672294467688,-0.007309446230530738
1761505491230990300,5.546990234375,-0.06004091946482658,0.013508447001129388,-0.02565890352204442
1761505491241026300,5.5570263671875,-0.10760346562862395,-0.011469232791103422,-0.0730263655051589
1761505491251062300,5.567062255859375,-0.0313403101593256,-0.034494865200109776,-0.06440437537133693
1761505491261098500,5.577098388671875,0.07492635390758513,-0.05196151177510619,-0.03076894001215696
1761505491271134500,5.587134521484375,0.10142799186408519,-0.05978120908271521,-0.001022767176479101
1761505491281170400,5.59717041015625,0.07403203541636466,-0.011721819312684238,0.014179916521906852
1761505491291207400,5.60720751953125,-0.03253156577050686,0.030287878496944903,0.008780395565927027
1761505491301243600,5.61724365234375,-0.25543314318358895,0.05392535919398069,-0.02265226905196905
1761505491311279600,5.627279541015625,-0.47132513409554955,0.07986888834368437,-0.07353767602816223
1761505491321315600,5.637315673828125,-0.4512637583196163,0.09406257766261696,-0.022755291035026312
1761505491331351600,5.6473515625,-0.29693595091700553,0.10133775629736483,0.03977569167986512
1761505491341387500,5.657387451171875,-0.18494564850628376,0.05537555800229311,0.06843728414922952
1761505491351423500,5.667423583984375,0.030120412975549696,-0.001369498254917562,0.08222747070118784
1761505491361459500,5.67745947265625,0.269745161652565,-0.06669628570079802,0.037007249879837036
1761505491371495400,5.687495361328125,0.4389116417467594,-0.1177908784482628,0.02967617633938789
1761505491381531400,5.697531494140625,0.5297463434040546,-0.13160272884275764,-0.028559301138669252
1761505491391568400,5.707568359375,0.4239847062498331,-0.10528678618408739,-0.16499124023616313
1761505491401604400,5.717604248046875,0.1865507456153631,-0.06440448496919125,-0.22963468506038187
1761505491411640300,5.727640380859375,-0.14554945766329763,-0.04859660191927105,-0.23006650060638784
1761505491421676300,5.73767626953125,-0.44607612654864787,0.004977057760208845,-0.19312544783055782
1761505491431712500,5.74771240234375,-0.7286825233399867,0.06933781318552791,-0.11767302422225474
1761505491441748500,5.75774853515625,-0.7856839289784431,0.08504764268845319,-0.010510288098454475
1761505491451784400,5.767784423828125,-0.6932727717846632,0.055592671351693566,0.07255933251529932
1761505491461820400,5.7778203125,-0.5275438649237155,0.009141337832808493,0.0809694334641099
1761505491471856400,5.7878564453125,-0.33512861118912696,-0.036491884236223994,0.0971811480745673
1761505491481893600,5.7978935546875,-0.20643968743383884,-0.06840615835860371,0.07920520027056335
1761505491491929600,5.8079296875,-0.13754033873081206,-0.08457538553420453,0.05464242142215371
1761505491501965600,5.817965576171875,-0.17322072392106055,-0.09491155917476862,0.030326456941664217
1761505491512001500,5.82800146484375,-0.1656558416247368,-0.05793715211860835,0.017330781768262384
1761505491522037500,5.83803759765625,-0.08225918101370334,0.0035413624012842772,0.007550853770971298
1761505491532073500,5.848073486328125,-0.041432665106654165,0.034820516957901414,-0.027148119166493415
1761505491542109400,5.858109375,-0.03369417980909347,0.01497380684595555,-0.020479601188004015
1761505491552145400,5.8681455078125,-0.05900573119819164,0.009989296431653201,0.005370294861495494
1761505491562181400,5.878181396484375,-0.03798749308884144,-0.005349836595356464,0.048488282706588504
1761505491572218400,5.88821826171875,-0.10167933627665042,0.0009369520565494895,0.11071838277876377
1761505491582254300,5.89825439453125,-0.10230009852349757,-0.021402524719201028,0.12275821853205561
1761505491592290300,5.908290283203125,-0.05224222841262817,-0.01679371574949473,0.1384364107877016
1761505491602326300,5.918326171875,-0.007128828966617584,-0.007727306316420436,0.08839256920218468
1761505491612362500,5.928362548828125,0.032495909935235975,-0.036882417923770845,0.056021016298979515
1761505491622398500,5.9383984375,-0.16730068622231484,-0.021995376045815647,0.059280748747289176
1761505491632434400,5.948434326171875,-0.5258323848307133,0.04462324130889028,-0.0030265082143247127
1761505491642470400,5.958470458984375,-0.5385872369855642,0.06561079201903194,-0.021973346877098083
1761505491652506400,5.96850634765625,-0.31391338920295236,0.05196794151589274,0.007990121971070767
1761505491662542300,5.978542236328125,-0.08551905959248542,-0.0036849355904385447,0.08169219478070736
1761505491672579300,5.988579345703125,0.01683598398864269,-0.029980164254643022,0.10349354609176516
1761505491682615300,5.998615234375,-0.15320844798386096,-0.07917769120912999,0.07374722712561488
1761505491692651300,6.0086513671875,-0.4078337819159031,-0.1411739094601944,0.07702128036022186
1761505491702687200,6.018687255859375,-0.4477192175805568,-0.07341682612746954,0.09422288279086351
1761505491712723200,6.02872314453125,-0.37262101423740385,0.05908529924042522,0.031601883704960344
1761505491722759200,6.03875927734375,-0.1178314296543598,0.08113572994172573,-0.019080255784094332
1761505491732795100,6.048795166015625,0.12970716088712214,-0.02931527060512453,-0.03604381167516112
1761505491742831000,6.0588310546875,0.22484394365251062,-0.14386186990253627,-0.06332154857069254
1761505491752867300,6.068867431640625,0.14965455489456653,-0.14718096785526721,-0.07923822575733065
1761505491762903600,6.078903564453125,-0.07595745052099227,-0.06460143231339752,-0.10614026120826602
1761505491772940300,6.088940185546875,-0.1810562398523092,0.02341795619484037,-0.1475090672984719
1761505491782976500,6.0989765625,-0.1800631371617317,0.07481244520433247,-0.1457367969289422
1761505491793012500,6.109012451171875,-0.11015665724277496,0.05278144985586405,-0.10974413091912864
1761505491803048400,6.11904833984375,-0.1136146887421608,-0.022287308197095988,-0.07761354716494678
1761505491813084400,6.12908447265625,-0.2349707853913307,-0.06703136287406086,-0.07769114244580268
1761505491823120400,6.139120361328125,-0.23614976604282856,-0.058253743787109846,-0.12562149900868536
1761505491833156400,6.14915625,-0.158892923361063,-0.01022880427595228,-0.12745441352427006
1761505491843192300,6.1591923828125,-0.04195581219792366,0.027926994584500788,-0.07040040091574191
1761505491853228300,6.169228271484375,0.02163841583430767,0.04062569610532373,-0.03576061081960797
1761505491863264300,6.17926416015625,0.06439794563055037,0.008758475995063781,-0.05959785187244415
1761505491873301200,6.18930126953125,0.16224515639841555,-0.020716917075216768,-0.09394172776192426
1761505491883337200,6.199337158203125,0.1716407612532377,-0.016283976129069924,-0.11253536907285451
1761505491893373200,6.209373291015625,0.04783551788628101,-0.00827138659786433,-0.07879559655636549
1761505491903409200,6.2194091796875,-0.062490650704503055,0.02102335267588496,-0.0022708675414323805
1761505491913445000,6.229445068359375,-0.16741700607836246,0.016683094981871545,0.06869403538927435
1761505491923481300,6.2394814453125,-0.25951135240793227,0.017915595918893815,0.13270371235460043
1761505491933517300,6.249517333984375,-0.2368096912562847,0.01492054228875786,0.15110694565996527
1761505491943553500,6.259553466796875,-0.2779179467141628,0.03630114743709564,0.12422756043225526
1761505491953589500,6.269589599609375,-0.2793172921180725,0.0290639261925593,0.08011237824335694
1761505491963625500,6.27962548828125,-0.22920389242768285,0.008145020271837711,0.01132744970023632
1761505491973662500,6.289662353515625,-0.15442074638307093,-0.036268560341745616,-0.06285276201516389
1761505491983698400,6.299698486328125,-0.0451782813757658,-0.046496633965335786,-0.09470788982883095
1761505491993734400,6.309734375,-0.03780862939059734,-0.03305664909053593,-0.13712079814448952
1761505492003770400,6.319770263671875,-0.031200024905800816,-0.041299467181041834,-0.11918708204701542
1761505492013806300,6.329806396484375,0.005464110624790191,-0.10617905884869396,-0.0731067372649908
1761505492023842300,6.33984228515625,-0.08765724066495895,-0.1345729037599638,-0.04169380026087165
1761505492033878300,6.349878173828125,-0.16498597953915595,-0.11412256519906222,-0.02839855761900544
1761505492043914200,6.359914306640625,-0.2728331907957792,-0.03177285635769367,0.010297229869663714
1761505492053950200,6.3699501953125,-0.35200726527571674,0.017518851686269044,0.007456599616259336
1761505492063986200,6.379986083984375,-0.2991927899330854,0.005422682635858655,-0.03517477375566959
1761505492074023200,6.390023193359375,-0.2328659220665693,0.014518354696035385,-0.03021846652254462
1761505492084059100,6.40005908203125,-0.22917583537697792,0.0055359702846035355,-0.05759001918137073
1761505492094095000,6.41009521484375,-0.17086743879318236,-0.04155117691978812,-0.11424480333924293
1761505492104131300,6.42013134765625,-0.08059621623754501,-0.07173146685641259,-0.09703779408112168
1761505492114167600,6.43016748046875,0.017071546310186383,-0.060656311416812235,-0.11420534811168909
1761505492124203500,6.44020361328125,0.06974982805252075,-0.05046195739973336,-0.14496829677447676
1761505492134239500,6.450239501953125,0.008355155891180037,-0.05327091387324035,-0.16684329784363508
1761505492144275500,6.460275390625,-0.1611409945487976,0.0110998149568215,-0.15938260657414793
1761505492154311400,6.4703115234375,-0.38593233123123644,0.09986081561259925,-0.1456931039176881
1761505492164347400,6.480347412109375,-0.48591713854968543,0.09884027692582457,-0.11143208400607109
1761505492174383400,6.49038330078125,-0.39994332092702384,0.07483348799236118,-0.027611937285959717
1761505492184420400,6.50042041015625,-0.1946902129292488,0.029948125148564576,0.02880582324564457
1761505492194456300,6.510456298828125,-0.05415946021080017,-0.015841419993340967,0.07461509600132703
1761505492204492300,6.5204921875,-0.021282442003488538,-0.058896535202674564,0.09635784899294376
1761505492214528300,6.5305283203125,0.022659575575590132,-0.04310384972188622,0.0750698540315032
1761505492224564200,6.540564208984375,0.06834288386404513,-0.01023278633132577,0.03839943489059806
1761505492234600200,6.55060009765625,0.01252045887708664,0.0007450827462598681,0.013791355595737695
1761505492244636400,6.560636474609375,-0.05522504361569881,0.022985008137673138,-0.01478694250434637
1761505492254672400,6.57067236328125,-0.09687748895287514,0.039749388194829226,-0.020458120008558033
1761505492264708400,6.580708251953125,-0.19273907886147498,0.05589559982102364,0.014422785367071627
1761505492274744300,6.590744384765625,-0.24348200862705707,0.007367606158554554,-0.011655220349878072
1761505492284781300,6.60078125,-0.1942576667308807,-0.08608834738042205,0.010194207886606453
1761505492294817500,6.610817626953125,-0.27093232561051844,-0.10266776279211044,0.048174102190881966
1761505492304853500,6.620853515625,-0.3288216199994087,-0.08031970085110515,0.055142626029253
1761505492314889500,6.630889404296875,-0.3067085723906755,-0.08943283550273627,0.03488689672499895
1761505492324925400,6.640925537109375,-0.2563981888234615,-0.049953861747123296,0.0261880419626832
1761505492334961400,6.65096142578125,-0.17725509400367737,-0.009726992233656346,0.008634411223977803
1761505492344997400,6.660997314453125,-0.04106032466292381,-0.020614333483576774,-0.0018896131388843058
1761505492355033300,6.671033447265625,0.10344693047106265,-0.054083910756558176,0.027196049961447713
1761505492365069300,6.6810693359375,0.14983926381170748,-0.11789930725879967,0.04916384388059378
1761505492375105300,6.691105224609375,0.03073065382838249,-0.16488591669816524,0.0545754936657846
1761505492385141200,6.701141357421875,-0.14526011932790278,-0.15056352296564726,0.023587796336412427
1761505492395177500,6.711177490234375,-0.292871185696125,-0.08715860696043819,-0.00006458966881036758
1761505492405214200,6.721214111328125,-0.3908785554617643,-0.060882667518593364,-0.03935337461456656
1761505492415250200,6.731250244140625,-0.37178047176003454,-0.09196524005718529,-0.04517214389592409
1761505492425286400,6.741286376953125,-0.31530396677851674,-0.09356726842634379,-0.030125527542084453
1761505492435322400,6.751322265625,-0.23072364934086798,-0.07882021954096853,-0.031888737822324036
1761505492445358300,6.7613583984375,-0.17931670270860195,-0.06682246936373412,-0.05354015926867723
1761505492455394300,6.771394287109375,-0.18809037627279757,-0.08628346809372306,-0.01787628682181239
1761505492465430300,6.78143017578125,-0.19103344398736952,-0.06363097984604538,-0.0033862814374268054
1761505492475466200,6.79146630859375,-0.16939444363117218,-0.016082462207600474,0.025659488043934104
1761505492485502200,6.801502197265625,-0.08829378500282764,-0.025596140484139322,0.019973259101063012
1761505492495538200,6.8115380859375,0.008961889612674712,-0.02775689871460199,0.007117723050713539
1761505492505574100,6.82157421875,0.0752332278996706,0.03926408889591693,-0.02898161820396781
1761505492515611400,6.831611328125,-0.03636895197629928,0.08441716276519,-0.09778305949047207
1761505492525647400,6.8416474609375,-0.2042319482564926,0.0501732766514644,-0.07791998276561499
1761505492535683300,6.851683349609375,-0.27483050209283827,0.006909450594894588,-0.08822831855118274
1761505492545719300,6.86171923828125,-0.22738836743831634,0.022248145230486988,-0.08290960774645209
1761505492555755300,6.87175537109375,-0.09623685296177864,0.06728847944028675,-0.0517692040733993
1761505492565791500,6.88179150390625,0.07100304298400878,0.09643116995748131,-0.03617152970805764
1761505492575827500,6.891827392578125,0.1835275984019041,0.07206687282323837,-0.02341112459525466
1761505492585863400,6.901863525390625,0.13120178335905075,0.033706272105686365,0.01645312215089798
1761505492595899400,6.9118994140625,-0.057232291784882545,0.0381459350535646,0.033847616805136205
1761505492605935000,6.92193505859375,-0.21938743181228637,0.0655166839947924,0.032601416136324404
1761505492615971000,6.93197119140625,-0.3194230925351381,0.06989526440519839,0.0076150050483644
1761505492626008000,6.942008056640625,-0.30377894867956634,0.07262399524934589,0.01602437534481287
1761505492636044000,6.9520439453125,-0.1809299831241369,0.08303615673556923,0.005301759669929742
1761505492646080000,6.962080078125,-0.079969608771801,0.09032244128622115,-0.0008905190989375114
1761505492656116000,6.972115966796875,-0.005449497577548027,0.07574172541107982,0.016214929480850696
1761505492666152000,6.98215185546875,-0.07677811925411224,0.005327770894020796,0.008433920215815306
1761505492676188000,6.99218798828125,-0.1896358521491289,-0.07142594457119703,-0.02161620400249958
1761505492686224000,7.002223876953125,-0.15390285998880862,-0.09240498318132012,-0.08731631827279925
1761505492696260000,7.012260009765625,-0.09825053087174891,-0.07393668528310954,-0.11296250844374299
1761505492706296000,7.022296142578125,-0.07162848140597343,-0.059473056448996066,-0.10411036281585692
1761505492716332000,7.03233203125,-0.1202677168905735,-0.10484649507068097,-0.07572904859259724
1761505492726368000,7.042367919921875,-0.18641338297128676,-0.14483118985872714,-0.08875570342615247
1761505492736404000,7.052404052734375,-0.19345394913256167,-0.14271525715067981,-0.07429696996286511
1761505492746441000,7.06244091796875,-0.2293582062065601,-0.11702471638135611,-0.009093407037854193
1761505492756477200,7.072477294921875,-0.2702589563935995,-0.08948317745048552,0.04317220225036144
1761505492766513200,7.08251318359375,-0.2516331663787365,-0.0367990504892543,0.013012480177730322
1761505492776549000,7.092549072265625,-0.23144378030896184,-0.009972089568525553,-0.03215250332504511
1761505492786585000,7.102585205078125,-0.1625304030805826,0.007270465927012264,-0.04794803835004568
1761505492796621000,7.11262109375,-0.19665771360993384,-0.04252056994121522,-0.04556567325815558
1761505492806657000,7.122656982421875,-0.24315818350017068,-0.0981795479947701,-0.06456263467296958
1761505492816693000,7.13269287109375,-0.23454934510886669,-0.10980645556561648,-0.05307940988913178
1761505492826729000,7.14272900390625,-0.17213117511868475,-0.08165621015187352,-0.05776698318347335
1761505492836765000,7.152764892578125,-0.07506956177055835,-0.07795983985196799,-0.01504617796242237
1761505492846801200,7.16280126953125,-0.04290039957165718,-0.08466507311165332,0.03393412604480982
1761505492856838000,7.172837890625,0.013107903376221657,-0.010032076127454638,0.045587446698546405
1761505492866873900,7.182873779296875,-0.04369359577596187,0.09375997798684983,0.06282762757390738
1761505492876910000,7.19291015625,-0.07692834137976169,0.13540825860556213,0.10469488470554351
1761505492886946000,7.202946044921875,-0.061978025007247924,0.14084942674618214,0.13409341314733028
1761505492896982000,7.21298193359375,-0.15411504143476484,0.10173669248707592,0.051346740877628326
1761505492907018000,7.22301806640625,-0.10238719228506088,0.04789192424863577,0.02558276954591274
1761505492917054000,7.233053955078125,-0.06582300999760628,0.015761084766127167,0.07749152822047471
1761505492927090000,7.24308984375,-0.07749708117842674,-0.020943784633651374,0.07304580085799098
1761505492937126000,7.2531259765625,-0.16635492980480193,-0.0235936780879274,0.06771247700601815
1761505492947161900,7.263161865234375,-0.23239888907670975,0.02293620055988431,0.1202319149248302
1761505492957197800,7.27319775390625,-0.2697165200799703,0.06794548204429447,0.15260229878425596
1761505492967233800,7.28323388671875,-0.28778058455884453,0.07695800586566329,0.15035378920510412
1761505492977269800,7.293269775390625,-0.2089899564385414,0.045394956333748994,0.12823606542125343
1761505492987307000,7.30330712890625,-0.16631109066307545,0.0586618496639654,0.04335252725332975
1761505492997343000,7.313343017578125,-0.14137889398038386,0.045057541072927414,-0.09521072478443383
1761505493007379000,7.32337890625,-0.08283844220638274,-0.03648936348557472,-0.18711013306379318
1761505493017415200,7.333415283203125,-0.0639876112639904,-0.05513977648504078,-0.2642687760680914
1761505493027451100,7.343451171875,-0.20883038196265696,-0.04143098460622131,-0.3289784179963171
1761505493037487000,7.353487060546875,-0.22804887717366218,-0.02747771644704044,-0.3357530266977846
1761505493047523000,7.363523193359375,-0.15204583394527435,-0.00030179595816880465,-0.26049261853024364
1761505493057559000,7.37355908203125,-0.08649754923582076,-0.0007657236754894256,-0.15152604785487056
1761505493067595000,7.383594970703125,0.02700140417218208,-0.042300168656185265,-0.09294117241725325
1761505493077631000,7.393630859375,0.02594225050806999,-0.07939557174351065,-0.03340732569172978
1761505493087667000,7.4036669921875,-0.0814244837552309,-0.08310618976447731,-0.005502835199981928
1761505493097703000,7.413702880859375,-0.11806816101968287,-0.07367744982503355,0.014656886383891106
1761505493107740000,7.423739990234375,-0.13885609750449657,-0.02827657520715147,0.02882277438044548
1761505493117776000,7.43377587890625,-0.10155775572359561,0.020777999612689016,0.041363253132253884
1761505493127811800,7.443811767578125,-0.15204174229204653,0.08428107876274735,0.01761252131909132
1761505493137847800,7.453847900390625,-0.24602818597853182,0.08978902852926403,-0.04554565338343382
1761505493147883800,7.4638837890625,-0.31357085937559603,0.014559015499986708,-0.12998510104566813
1761505493157920000,7.473919921875,-0.3033294513463974,-0.07574515947718173,-0.12813786574378608
1761505493167956200,7.483956298828125,-0.22096447187066076,-0.11761427977234125,-0.07652151414453982
1761505493177992200,7.4939921875,-0.11412497635185719,-0.09980024453178048,-0.014632628725469112
1761505493188028200,7.504028076171875,-0.11636427971124648,-0.09520042258612811,0.044866585078090424
1761505493198064000,7.514064208984375,-0.15111176796555517,-0.09947137790359556,-0.003193681474775076
1761505493208100000,7.52410009765625,-0.12080138537585734,-0.030231326004117726,-0.023124270477890965
1761505493218136000,7.534135986328125,-0.024187515795230864,0.03365582056008279,0.011715572234988212
1761505493228172000,7.544172119140625,-0.009077624946832657,0.039463301262445745,0.0486813210606575
1761505493238209000,7.554208984375,-0.0779343035519123,0.024651991501823067,0.0656442924298346
1761505493248245000,7.564244873046875,-0.13117197274267672,0.025929281428642568,0.0558595421269536
1761505493258281000,7.574281005859375,-0.22663667228817938,0.025057795823737978,0.04649170206189155
1761505493268317000,7.58431689453125,-0.2382084521383047,0.003032134237512946,0.016840075641870497
1761505493278353000,7.594352783203125,-0.20603402924239633,0.01137059472221881,0.002596884625405073
1761505493288388900,7.604388916015625,-0.12453238859772682,0.0012967252796515821,-0.011432809770852327
1761505493298424800,7.6144248046875,-0.045108723270893096,-0.07532532662991434,-0.06202800162881612
1761505493308461000,7.6244609375,0.027044658792018887,-0.09557184971440583,-0.07806801293417812
1761505493318497000,7.6344970703125,-0.09344634546041489,-0.09138181414604186,-0.09034896396696566
1761505493328533000,7.644532958984375,-0.22373744371533394,-0.15217994518633932,-0.08938421058803796
1761505493338569000,7.65456884765625,-0.07050853746533393,-0.13493315190710126,-0.078184771181643
1761505493348605000,7.66460498046875,0.03665010700523853,-0.030620288789086042,-0.08734832084625958
1761505493358641000,7.674640869140625,0.12360767496824264,0.026448811790719628,-0.053090369674563404
1761505493368678100,7.68467822265625,0.1076888058245182,0.0360605436142534,0.0644764176942408
1761505493378714000,7.694714111328125,-0.07516250075101852,0.07057999526634812,0.1972786219872534
1761505493388750000,7.70475,-0.2985042231470346,0.07686470155902206,0.23223916847035286
1761505493398786000,7.7147861328125,-0.49890638398230075,0.027051453858986496,0.16006708170697093
1761505493408822000,7.724822021484375,-0.5296043045848607,-0.04182235854398459,0.06772898974940181
1761505493418858000,7.73485791015625,-0.4051543335735798,-0.06414342288020998,-0.0049319034442305565
1761505493428894000,7.74489404296875,-0.19867548317313194,-0.011121771060302854,-0.0648531420521438
1761505493438930000,7.754929931640625,-0.10284604196846485,0.036347251601144666,-0.10797872868180275
1761505493448966100,7.764966064453125,-0.04906944359540939,-0.015733100780658423,-0.09141133250147104
1761505493459002000,7.775002197265625,0.0638221915692091,-0.0778552834989503,-0.04464738936945796
1761505493469038000,7.7850380859375,0.08371464051902294,-0.06554759058970958,0.019376316121220587
1761505493479074000,7.795073974609375,-0.03061784110367298,-0.047677843106538054,0.0045003801591694354
1761505493489110000,7.805110107421875,-0.3149386405974626,-0.01950297470819205,-0.022632249177247283
1761505493499147000,7.81514697265625,-0.5026894096523523,0.0004856646250933408,0.00003536357432603836
1761505493509183000,7.825182861328125,-0.457799297568202,0.03096099198553711,-0.04172916383519768
1761505493519219000,7.835218994140625,-0.2593143685311079,0.0654384676594287,-0.0590608223862946
1761505493529255000,7.8452548828125,-0.0330482831209898,0.04172353781200945,-0.03932677886858582
1761505493539291000,7.855290771484375,0.09624094461500644,-0.0473730149410665,-0.07423574129492044
1761505493549326800,7.865326904296875,0.055152562901377676,-0.09748765674047172,-0.08760741017386317
1761505493559362800,7.87536279296875,-0.07823591684699058,-0.11848149106092751,-0.14372282675802706
1761505493569399000,7.88539892578125,-0.1635989090949297,-0.05965886134468019,-0.15924699749574064
1761505493579435000,7.89543505859375,-0.16609364852011202,0.0327661051787436,-0.15875789880454538
1761505493589471000,7.905470947265625,-0.1411637899249792,0.07267744246963412,-0.12865005304962396
1761505493599507700,7.9155078125,-0.12091945879757404,0.0481021329332143,-0.08932985005229711
1761505493609543700,7.925543701171875,-0.15164660549461842,0.020289412378147242,-0.10378040020912885
1761505493619580000,7.935579833984375,-0.16365385415256023,-0.009026223553158342,-0.12470993712171911
1761505493629615900,7.945615966796875,-0.17151801165640354,-0.02427362317610532,-0.06142945121377706
1761505493639652600,7.955652587890625,-0.2807844420611858,-0.035976664723083376,-0.011714110930263996
1761505493649688800,7.965688720703125,-0.2829220386117697,-0.06400876364987343,0.06620806379243731
1761505493659724800,7.975724853515625,-0.23704700714349744,-0.03620411680340767,0.09218860048428178
1761505493669760800,7.9857607421875,-0.12692425217032433,0.047438773653656244,-0.01284545304775238
1761505493679796700,7.995796630859375,-0.044538229906558986,0.04631166931986808,-0.14159136768728495
1761505493689832700,8.005832763671876,0.00032090251743793486,0.0026749913629144427,-0.1283884795039892
1761505493699868700,8.01586865234375,0.02073474499285221,-0.0255318430762738,-0.11332286618873476
1761505493709904600,8.025904541015626,0.05693301657736301,-0.09549684824943543,-0.05109349676892161
1761505493719940600,8.035940673828126,-0.02881049942076206,-0.11543101744912564,0.0709248631812632
1761505493729976600,8.0459765625,-0.18766952051222324,-0.04880860070213675,0.10245981912985444
1761505493740012500,8.056012451171876,-0.3159258980691433,0.05791274832971394,0.11954188683405517
1761505493750048500,8.066048583984376,-0.47343175098598,0.13260796036254613,0.06419745462238788
1761505493760085000,8.0760849609375,-0.5380173281431198,0.06661127429846674,-0.08076908858641982
1761505493770121000,8.086120849609374,-0.510094132950902,-0.00005173018723726272,-0.2619331727273762
1761505493780157000,8.096156982421874,-0.0014046061009168624,0.053486821646243334,-0.5009565945103764
1761505493790193000,8.10619287109375,0.4584691596537828,0.4922993504000827,-0.4388222098976373
1761505493800228900,8.116228759765624,-0.5155027139961719,-0.31866905929744244,0.3778892369639128
1761505493810264800,8.126264892578124,-0.8409194939881562,-0.7922577544108033,0.6740136523023247
1761505493820300800,8.13630078125,-0.08847674035429955,-0.540587251696363,0.3882530292637646
1761505493830336800,8.146336669921874,0.5601631089776754,-0.20736900417320428,-0.07288987964391708
1761505493840372700,8.156372802734374,0.5667851574659347,-0.10676168104223907,-0.20864055847898125
1761505493850409700,8.16640966796875,0.29444647218883035,-0.2209862453110516,-0.11159867274463176
1761505493860445700,8.17644580078125,0.1414735865265131,-0.28258918992821125,-0.11570786162912845
1761505493870481700,8.186481689453124,0.42818157341778273,-0.21628281686045228,-0.13394348328262567
1761505493880517600,8.196517578125,0.2688473360300064,0.4595922453995794,-0.3215271521423012
