time,seconds_elapsed,z,y,x
1761505485791405300,0.1074052734375,0.08240357786417007,-0.16639690101146698,0.26521363854408264
1761505485801441300,0.117441162109375,0.13233518600463867,-0.23328591883182526,0.28619614243507385
1761505485811477200,0.127477294921875,0.15165378153324127,-0.2634414732456207,0.2727019190788269
1761505485821514200,0.13751416015625,0.1316196173429489,-0.2313288152217865,0.23017871379852295
1761505485831550200,0.14755029296875,0.07990844547748566,-0.11116715520620346,0.167056143283844
1761505485841586200,0.157586181640625,0.03763902187347412,0.012319361791014671,0.0884779840707779
1761505485851622100,0.1676220703125,0.006367107853293419,0.062285613268613815,0.03666550666093826
1761505485861658000,0.177658203125,-0.0035007023252546787,0.040321193635463715,0.028393728658556938
1761505485871694000,0.187694091796875,0.0017308364622294903,0.004180161748081446,0.04873059317469597
1761505485881730000,0.19772998046875,0.012760317884385586,-0.03448893874883652,0.07346390187740326
1761505485891767000,0.20776708984375,0.00698921550065279,-0.07004470378160477,0.10008267313241959
1761505485901803000,0.217802978515625,-0.023264294490218163,-0.09661506116390228,0.13072793185710907
1761505485911839000,0.2278388671875,-0.05999975651502609,-0.10264182090759277,0.16096854209899902
1761505485921875000,0.237875,-0.07165880501270294,-0.09543956816196442,0.18511834740638733
1761505485931911000,0.247910888671875,-0.05435359477996826,-0.05825755000114441,0.17788372933864594
1761505485941947000,0.25794677734375,-0.024412740021944046,-0.03396392986178398,0.16001605987548828
1761505485951982800,0.26798291015625,-0.006812810432165861,-0.00947638414800167,0.14732687175273895
1761505485962020000,0.27802001953125,-0.011430731043219566,0.003101992653682828,0.1343572735786438
1761505485972056000,0.28805615234375,-0.03288879618048668,0.013903242535889149,0.1233845204114914
1761505485982092000,0.298092041015625,-0.049825966358184814,0.031416188925504684,0.1144338995218277
1761505485992128300,0.308128173828125,-0.06081428378820419,0.031842634081840515,0.11190053820610046
1761505486002164200,0.318164306640625,-0.05092330276966095,0.00978446938097477,0.10940968245267868
1761505486012200200,0.3282001953125,-0.03880701959133148,-0.038995757699012756,0.10824103653430939
1761505486022236200,0.338236083984375,-0.029741086065769196,-0.056675948202610016,0.11561106145381927
1761505486032273200,0.348273193359375,-0.0387096107006073,-0.0680471882224083,0.10637778788805008
1761505486042309000,0.35830908203125,-0.05892326682806015,-0.038918860256671906,0.07677914947271347
1761505486052345000,0.368344970703125,-0.08142102509737015,0.04828179255127907,0.038531508296728134
1761505486062381000,0.378381103515625,-0.07876639068126678,0.11010787636041641,-0.011339109390974045
1761505486072417000,0.3884169921875,-0.05935998633503914,0.08060102164745331,-0.038310758769512177
1761505486082453000,0.398452880859375,-0.020291946828365326,0.06729213893413544,-0.012546272948384285
1761505486092489000,0.408489013671875,0.010376639664173126,0.056751661002635956,0.03594347462058067
1761505486102526200,0.418526123046875,0.008804840967059135,0.023531660437583923,0.08069656789302826
1761505486112562200,0.428562255859375,-0.020238332450389862,0.003075071843340993,0.10836789757013321
1761505486122598100,0.43859814453125,-0.040726833045482635,-0.009494515135884285,0.12092496454715729
1761505486132634000,0.448634033203125,-0.0427633561193943,-0.030144909396767616,0.11415319889783859
1761505486142670000,0.458670166015625,-0.027667492628097534,-0.011064959689974785,0.09115174412727356
1761505486152706000,0.4687060546875,0.005821062717586756,0.01008635200560093,0.0567953959107399
1761505486162742000,0.478741943359375,0.04253140464425087,0.028974022716283798,0.04746847599744797
1761505486172779000,0.488779052734375,0.060643672943115234,0.05270060896873474,0.051598262041807175
1761505486182815000,0.49881494140625,0.05175324156880379,0.026921208947896957,0.05511416494846344
1761505486192851000,0.508850830078125,0.024888470768928528,-0.0015366764273494482,0.05246333032846451
1761505486202887200,0.51888720703125,0.006045007612556219,-0.02529872953891754,0.04049747809767723
1761505486212923100,0.528923095703125,0.0018062442541122437,-0.03998049721121788,0.021267736330628395
1761505486222959000,0.538958984375,0.021379413083195686,-0.014363816007971764,-0.004763598088175058
1761505486232995000,0.5489951171875,0.039155058562755585,0.00545482337474823,-0.04018054157495499
1761505486243032000,0.559031982421875,0.042778827250003815,0.013423800468444824,-0.05264467000961304
1761505486253068000,0.569068115234375,0.02896505407989025,0.016208257526159286,-0.020493846386671066
1761505486263104300,0.579104248046875,0.014139236882328987,0.002998179057613015,0.02587764710187912
1761505486273140200,0.58914013671875,0.015093334019184113,0.0018522931495681405,0.05699571594595909
1761505486283176200,0.59917626953125,0.01682279072701931,0.0016115433536469936,0.07322607934474945
1761505486293212200,0.609212158203125,0.01394973136484623,0.04510055109858513,0.08350116014480591
1761505486303248100,0.619248046875,0.009536074474453926,0.10244906693696976,0.07701370120048523
1761505486313285000,0.62928515625,0.018850209191441536,0.12193837016820908,0.05199182406067848
1761505486323321000,0.639321044921875,0.03307788074016571,0.10837408900260925,0.027001256123185158
1761505486333357000,0.649357177734375,0.04984523355960846,0.05141173303127289,0.0024748765863478184
1761505486343393000,0.65939306640625,0.05075177177786827,-0.03887688368558884,-0.006779341958463192
1761505486353429000,0.669428955078125,0.04616495966911316,-0.10769254714250565,0.009603549726307392
1761505486363465000,0.67946484375,0.041262347251176834,-0.10957087576389313,0.03941444307565689
1761505486373501200,0.689501220703125,0.028006117790937424,-0.08721606433391571,0.0598069466650486
1761505486383538000,0.699537841796875,0.010998370125889778,-0.049703046679496765,0.05684497952461243
1761505486393574000,0.709573974609375,-0.0037299441173672676,0.04067336395382881,0.04380699247121811
1761505486403610000,0.719610107421875,-0.0011477433145046234,0.1284056007862091,0.029440036043524742
1761505486413646000,0.72964599609375,0.011085066944360733,0.15406934916973114,0.01636568270623684
1761505486423682000,0.73968212890625,0.028653673827648163,0.15872429311275482,0.02370269224047661
1761505486433718000,0.749718017578125,0.035553738474845886,0.1567021757364273,0.03714778274297714
1761505486443754200,0.759754150390625,0.023951679468154907,0.11791670322418213,0.032582856714725494
1761505486453791200,0.769791259765625,0.004316846374422312,0.0665663331747055,0.01803538389503956
1761505486463827200,0.7798271484375,-0.00858510471880436,0.024912629276514053,0.005375514272600412
1761505486473863200,0.78986328125,-0.005439207889139652,-0.01862417161464691,-0.006107913795858622
1761505486483899100,0.799899169921875,-0.007129516452550888,-0.08705329895019531,0.01181942131370306
1761505486493935000,0.80993505859375,-0.016048379242420197,-0.10985787212848663,0.06205977499485016
1761505486503971000,0.81997119140625,-0.021286817267537117,-0.07968692481517792,0.09484169632196426
1761505486514007000,0.830007080078125,-0.02345694787800312,-0.047465045005083084,0.07028268277645111
1761505486524044000,0.8400439453125,-0.02038712054491043,0.03391316905617714,0.024468857795000076
1761505486534080000,0.850080078125,-0.024215497076511383,0.1338442713022232,-0.013282901607453823
1761505486544116000,0.860115966796875,-0.027062149718403816,0.19192780554294586,-0.03304515779018402
1761505486554152000,0.87015185546875,-0.03068370744585991,0.1823122501373291,-0.05127133056521416
1761505486564188000,0.88018798828125,-0.02220313623547554,0.08514788746833801,-0.04320434853434563
1761505486574224000,0.890223876953125,-0.0066150096245110035,-0.011382989585399628,-0.005289817228913307
1761505486584261000,0.90026123046875,-0.003993660677224398,-0.07640859484672546,0.03957619145512581
1761505486594296800,0.910296875,-0.02214203216135502,-0.09730537980794907,0.0656697154045105
1761505486604332800,0.920332763671875,-0.053176648914813995,-0.05042149871587753,0.05714759603142738
1761505486614369000,0.930369140625,-0.07248978316783905,0.021661441773176193,0.012174032628536224
1761505486624405000,0.940405029296875,-0.08892069011926651,0.09083012491464615,-0.03314870968461037
1761505486634441000,0.95044091796875,-0.09444396197795868,0.15705378353595734,-0.04390916973352432
1761505486644477000,0.960476806640625,-0.09772977232933044,0.1616639792919159,-0.01808502897620201
1761505486654514000,0.970513916015625,-0.08937528729438782,0.1187908947467804,0.03295774385333061
1761505486664550000,0.9805498046875,-0.06441400945186615,0.07450465857982635,0.08216044306755066
1761505486674585900,0.9905859375,-0.03277866914868355,0.040446020662784576,0.10657604783773422
1761505486684621800,1.000621826171875,-0.013951986096799374,0.022887004539370537,0.10567909479141235
1761505486694657800,1.01065771484375,-0.00633451621979475,0.023953238502144814,0.07954208552837372
1761505486704693800,1.02069384765625,-0.0027067577466368675,0.0093641746789217,0.051000189036130905
1761505486714729700,1.030729736328125,0.0006453967653214931,-0.0003838930279016495,0.0315072238445282
1761505486724766700,1.0407666015625,0.0020078697707504034,-0.00408675242215395,0.012632868252694607
1761505486734802700,1.050802734375,-0.005718807689845562,-0.024963658303022385,-0.01293966919183731
1761505486744838700,1.060838623046875,-0.011807059869170189,-0.02877837046980858,-0.05070968717336655
1761505486754875000,1.070875,-0.02400972507894039,0.0075265392661094666,-0.06644174456596375
1761505486764910800,1.080910888671875,-0.035517241805791855,0.034116871654987335,-0.056773409247398376
1761505486774946800,1.09094677734375,-0.03814166411757469,0.03204111009836197,-0.025568552315235138
1761505486784983800,1.10098388671875,-0.021671609953045845,0.02500530704855919,0.012833165004849434
1761505486795019800,1.111019775390625,-0.004695137497037649,-0.0032180037815123796,0.03808961436152458
1761505486805055700,1.1210556640625,0.0018413253128528595,-0.048921044915914536,0.04632224515080452
1761505486815092000,1.131092041015625,0.01501071359962225,-0.07768948376178741,0.03544184938073158
1761505486825128000,1.1411279296875,0.022786345332860947,-0.1017649918794632,0.012979686260223389
1761505486835164000,1.151163818359375,0.028338242322206497,-0.0994025245308876,0.0011444680858403444
1761505486845201000,1.161200927734375,0.026468703523278236,-0.06507091969251633,0.0067924996837973595
1761505486855236900,1.17123681640625,0.019923672080039978,-0.01765957474708557,0.014898035675287247
1761505486865272800,1.18127294921875,0.01160076167434454,0.04950934275984764,0.01774814911186695
1761505486875308800,1.191308837890625,0.01656661182641983,0.10169121623039246,0.0010227418970316648
1761505486885344800,1.2013447265625,0.03636854514479637,0.09492945671081543,-0.011600641533732414
1761505486895380700,1.211380615234375,0.052217163145542145,0.03325500339269638,-0.00301358662545681
1761505486905416700,1.221416748046875,0.056790076196193695,-0.0524231493473053,0.03729495406150818
1761505486915454000,1.231453857421875,0.049887362867593765,-0.10710830986499786,0.08628661930561066
1761505486925490000,1.241489990234375,0.03886107727885246,-0.14525489509105682,0.1114921048283577
1761505486935526000,1.25152587890625,0.029002485796809196,-0.1434745192527771,0.1026725098490715
1761505486945561900,1.261561767578125,0.02738860994577408,-0.08631721884012222,0.07225334644317627
1761505486955597800,1.271597900390625,0.03224920853972435,0.016349302604794502,0.0194671880453825
1761505486965633800,1.2816337890625,0.037269268184900284,0.11593368649482727,-0.029666002839803696
1761505486975669800,1.291669677734375,0.03942703455686569,0.17058499157428741,-0.04700400307774544
1761505486985706800,1.301706787109375,0.03597584366798401,0.16629676520824432,-0.015266312286257744
1761505486995742700,1.31174267578125,0.03133726492524147,0.11423669010400772,0.04053187742829323
1761505487005778700,1.32177880859375,0.015616623684763908,0.02025880105793476,0.09403850883245468
1761505487015814700,1.331814697265625,0.0029955056961625814,-0.06254301965236664,0.1268623173236847
1761505487025851000,1.341850830078125,-0.0017393282614648342,-0.1034233421087265,0.13722705841064453
1761505487035886800,1.351886962890625,0.00547272153198719,-0.10799794644117355,0.10446836799383163
1761505487045923800,1.361923828125,0.010010480880737305,-0.08914969116449356,0.04661198705434799
1761505487055960000,1.3719599609375,0.010407043620944023,-0.04176997393369675,-0.010180159471929073
1761505487065996000,1.38199609375,0.00698568020015955,0.009422906674444675,-0.04124753177165985
1761505487076032000,1.392031982421875,0.0062972186133265495,0.04543958976864815,-0.05784653499722481
1761505487086068000,1.40206787109375,0.0034830565564334393,0.09205876290798187,-0.05250396952033043
1761505487096104000,1.41210400390625,0.0037756357342004776,0.12590332329273224,-0.027191966772079468
1761505487106141000,1.422140869140625,0.007117636501789093,0.10317990183830261,0.011382055468857288
1761505487116177000,1.432177001953125,0.017361363396048546,0.05713554471731186,0.048827387392520905
1761505487126212900,1.442212890625,0.027141023427248,-0.011819286271929741,0.07485845685005188
1761505487136248800,1.452248779296875,0.031104404479265213,-0.07564320415258408,0.08200594037771225
1761505487146284800,1.462284912109375,0.018861055374145508,-0.10957613587379456,0.08097289502620697
1761505487156320800,1.47232080078125,-0.0034112841822206974,-0.10527629405260086,0.05889028310775757
1761505487166356700,1.482356689453125,-0.024634813889861107,-0.05443281680345535,0.006866229232400656
1761505487176393700,1.492393798828125,-0.029856376349925995,0.021849144250154495,-0.045951567590236664
1761505487186429700,1.5024296875,-0.02386852726340294,0.09383758157491684,-0.06356038898229599
1761505487196465700,1.512465576171875,-0.01736278086900711,0.09930585324764252,-0.049426205456256866
1761505487206501600,1.522501708984375,0.0010031773708760738,0.05195830762386322,-0.006999650038778782
1761505487216537600,1.53253759765625,0.019956428557634354,0.008399988524615765,0.05444624647498131
1761505487226573800,1.54257373046875,0.032539330422878265,-0.03612859547138214,0.10305505990982056
1761505487236610800,1.55261083984375,0.032595857977867126,-0.07414781302213669,0.12054625898599625
1761505487246646800,1.562646728515625,0.019271261990070343,-0.08037987351417542,0.11514909565448761
1761505487256682800,1.572682861328125,0.004466233775019646,-0.05303698405623436,0.08642586320638657
1761505487266719000,1.582718994140625,-0.0027229697443544865,-0.006601841188967228,0.027528991922736168
1761505487276755000,1.5927548828125,0.0007634749636054039,0.02408384531736374,-0.03647075220942497
1761505487286791000,1.602791015625,-0.002248560544103384,0.03076944500207901,-0.05438796430826187
1761505487296827000,1.612826904296875,-0.009390246123075485,0.03584535792469978,-0.027979359030723572
1761505487306863900,1.62286376953125,-0.030814576894044876,0.013516086153686047,0.027185093611478806
1761505487316899800,1.63289990234375,-0.04177252948284149,0.002047260757535696,0.07657752186059952
1761505487326935800,1.642935791015625,-0.055637214332818985,-0.002032169373705983,0.09479301422834396
1761505487336971800,1.6529716796875,-0.05397965386509895,-0.008924989029765129,0.07613930851221085
1761505487347007700,1.6630078125,-0.045740365982055664,-0.004905213601887226,0.0359191857278347
1761505487357043700,1.673043701171875,-0.02665248140692711,-0.01814654842019081,-0.014537015929818153
1761505487367081000,1.6830810546875,-0.009559514001011848,-0.06207805499434471,-0.04068073630332947
1761505487377117000,1.693116943359375,0.0007004835642874241,-0.08987051248550415,-0.03192334249615669
1761505487387153000,1.70315283203125,0.0030107758939266205,-0.08382140845060349,-0.01448549423366785
1761505487397188900,1.71318896484375,0.007253474090248346,-0.058976560831069946,-0.002968094777315855
1761505487407224800,1.723224853515625,0.009593860246241093,-0.016242941841483116,0.0008053380879573524
1761505487417260800,1.7332607421875,0.003362789284437895,0.04480864480137825,0.0013089634012430906
1761505487427296800,1.743296875,-0.006032043602317572,0.0836830735206604,0.0008895155624486506
1761505487437333800,1.753333740234375,-0.013059327378869057,0.0919114425778389,0.009086192585527897
1761505487447369700,1.76336962890625,-0.017304405570030212,0.07571116834878922,0.02146616205573082
1761505487457405700,1.77340576171875,-0.01235195156186819,0.022928789258003235,0.02668987773358822
1761505487467442000,1.78344189453125,0.0015670591965317726,-0.03035040944814682,0.02747551165521145
1761505487477478000,1.793477783203125,0.020511915907263756,-0.05883163958787918,0.02439212240278721
1761505487487513900,1.803513916015625,0.0415482223033905,-0.042128823697566986,0.022989170625805855
1761505487497550800,1.81355078125,0.04670362174510956,0.004783415235579014,0.020781224593520164
1761505487507586800,1.8235869140625,0.040897663682699203,0.045375850051641464,0.02455012872815132
1761505487517623000,1.833623046875,0.022692544385790825,0.0876261442899704,0.03705045208334923
1761505487527659000,1.843658935546875,0.005086919758468866,0.10220881551504135,0.03146154060959816
1761505487537695000,1.853695068359375,-0.0032984958961606026,0.0766584724187851,0.013521803542971611
1761505487547731000,1.86373095703125,0.00998615100979805,0.032067038118839264,-0.009340634569525719
1761505487557767000,1.873766845703125,0.023954810574650764,-0.018191412091255188,-0.01837816834449768
1761505487567804000,1.883803955078125,0.03438454866409302,-0.07128898799419403,-0.022053062915802002
1761505487577839900,1.89383984375,0.03487018868327141,-0.0901150330901146,-0.019241873174905777
1761505487587875800,1.903875732421875,0.026561124250292778,-0.040250010788440704,-0.014590130187571049
1761505487597912000,1.913912109375,-0.0016018589958548546,0.02891991101205349,-0.015913939103484154
1761505487607948000,1.923947998046875,-0.022621124982833862,0.09132975339889526,-0.018822643905878067
1761505487617984000,1.93398388671875,-0.03245959058403969,0.1263623982667923,-0.01956760324537754
1761505487628021000,1.94402099609375,-0.031246520578861237,0.11790446192026138,-0.004324734676629305
1761505487638057000,1.954056884765625,-0.01382436417043209,0.0648135170340538,0.016221869736909866
1761505487648093000,1.964093017578125,0.006823655683547258,-0.02354777604341507,0.0348362997174263
1761505487658129000,1.97412890625,0.017311450093984604,-0.07126496732234955,0.049789149314165115
1761505487668164900,1.984164794921875,0.016467494890093803,-0.08286462724208832,0.041375160217285156
1761505487678201000,1.994201171875,-0.00604753103107214,-0.07475518435239792,0.010969388298690319
1761505487688237300,2.0042373046875,-0.031565405428409576,-0.03364503011107445,-0.03299088031053543
1761505487698274000,2.014274169921875,-0.04279228299856186,0.04873763024806976,-0.05976651608943939
1761505487708310000,2.02431005859375,-0.04586796835064888,0.08013363927602768,-0.05303084850311279
1761505487718346200,2.03434619140625,-0.040030740201473236,0.0734572783112526,-0.0024119787849485874
1761505487728382200,2.04438232421875,-0.0239375252276659,0.05125823989510536,0.05498393625020981
1761505487738418200,2.054418212890625,-0.006079408340156078,-0.001610109582543373,0.08924353867769241
1761505487748454100,2.0644541015625,0.005623586475849152,-0.034347016364336014,0.09449582546949387
1761505487758490000,2.074489990234375,0.009196562692523003,-0.025436589494347572,0.07750204205513
1761505487768527000,2.084527099609375,0.000843824353069067,-0.016600221395492554,0.04095388576388359
1761505487778563000,2.09456298828125,-0.005512679927051067,-0.0013273037038743496,0.00624254671856761
1761505487788599000,2.10459912109375,-0.010379340499639511,0.008425724692642689,-0.01907985284924507
1761505487798635000,2.114635009765625,-0.0027414350770413876,0.0040753064677119255,-0.04014032334089279
1761505487808671000,2.1246708984375,0.0062019918113946915,-0.012578771449625492,-0.03508085012435913
1761505487818707000,2.13470703125,-0.003571437206119299,-0.021154198795557022,0.009013659320771694
1761505487828744200,2.144744140625,-0.015776969492435455,-0.018944308161735535,0.06255810707807541
1761505487838780200,2.1547802734375,-0.024190638214349747,-0.004501889459788799,0.08113547414541245
1761505487848816000,2.164816162109375,-0.02771054022014141,0.024199262261390686,0.07333693653345108
1761505487858852000,2.17485205078125,-0.02196509949862957,0.04896153137087822,0.04412223771214485
1761505487868888000,2.18488818359375,-0.014122890308499336,0.052365049719810486,0.013756874017417431
1761505487878924000,2.194924072265625,-0.007309069857001305,0.02622229792177677,-0.010014190338551998
1761505487888960000,2.2049599609375,-0.0053178248926997185,-0.013003402389585972,-0.027778007090091705
1761505487898997000,2.2149970703125,0.004435816314071417,-0.04377780109643936,-0.031212303787469864
1761505487909033000,2.225032958984375,0.010387448593974113,-0.041825972497463226,-0.029829591512680054
1761505487919069000,2.23506884765625,0.011945415288209915,-0.0325760617852211,-0.03611036390066147
1761505487929105200,2.245105224609375,0.011477497406303883,-0.023754075169563293,-0.029462045058608055
1761505487939141000,2.25514111328125,0.0002860715612769127,-0.014392990618944168,-0.0026170164346694946
1761505487949177000,2.265177001953125,-0.0076400283724069595,-0.012976987287402153,0.025728337466716766
1761505487959213000,2.275213134765625,-0.015585020184516907,-0.01518266648054123,0.02756301499903202
1761505487969250300,2.285250244140625,-0.02228100597858429,0.00691278325393796,0.008778142742812634
1761505487979286300,2.295286376953125,-0.02492399327456951,0.02362777292728424,0.0018421011045575142
1761505487989322200,2.305322265625,-0.022821694612503052,0.021501239389181137,0.00951493438333273
1761505487999358200,2.315358154296875,-0.018272345885634422,0.013577921316027641,0.037610020488500595
1761505488009394200,2.325394287109375,-0.014201970770955086,0.01826987788081169,0.05570806562900543
1761505488019430100,2.33543017578125,0.00019585108384490013,0.01342779491096735,0.052330486476421356
1761505488029467100,2.345467041015625,0.005504862871021032,0.033106159418821335,0.03128591924905777
1761505488039503000,2.355503173828125,0.016200589016079903,0.05417275428771973,0.002020878717303276
1761505488049539000,2.3655390625,0.01835242286324501,0.052482977509498596,-0.025562547147274017
1761505488059575000,2.375574951171875,0.015140569768846035,0.01936282031238079,-0.036921847611665726
1761505488069611000,2.385611083984375,0.009354319423437119,-0.031337905675172806,-0.012479620054364204
1761505488079647000,2.39564697265625,0.004692142363637686,-0.056800514459609985,0.04321499168872833
1761505488089683000,2.405682861328125,0.001714461948722601,-0.050128497183322906,0.08242257684469223
1761505488099720000,2.415719970703125,0.007949761115014553,-0.028529850766062737,0.08515490591526031
1761505488109756000,2.425755859375,0.010420641861855984,0.01363438181579113,0.04613347351551056
1761505488119791900,2.4357919921875,0.008785017766058445,0.05565080791711807,-0.002249233890324831
1761505488129828000,2.445828125,0.01673055812716484,0.06742198020219803,-0.02412364073097706
1761505488139864000,2.455864013671875,0.016350403428077698,0.04907982423901558,-0.01779921166598797
1761505488149900300,2.465900390625,0.017839109525084496,0.011306611821055412,0.014250067993998528
1761505488159936300,2.475936279296875,0.023108281195163727,-0.0095648979768157,0.05600392818450928
1761505488169973200,2.48597314453125,0.027194635942578316,-0.028337519615888596,0.07986345142126083
1761505488180009200,2.49600927734375,0.02018071338534355,-0.016965964809060097,0.07855192571878433
1761505488190045200,2.506045166015625,0.0007260567508637905,0.0051649026572704315,0.04289033263921738
1761505488200081200,2.5160810546875,-0.01117019448429346,0.024976421147584915,0.0006709657609462738
1761505488210117000,2.5261171875,-0.00959919486194849,0.04010717198252678,-0.030362850055098534
1761505488220153000,2.536153076171875,-0.003059939481317997,0.02668791636824608,-0.04942262917757034
1761505488230189000,2.54618896484375,-0.00494758877903223,-0.018781032413244247,-0.0665760487318039
1761505488240226000,2.55622607421875,0.005142233334481716,-0.0653061643242836,-0.07207801938056946
1761505488250262000,2.566261962890625,0.010291455313563347,-0.11145555227994919,-0.06216440349817276
1761505488260298000,2.576298095703125,0.008881480433046818,-0.1162731871008873,-0.03163433447480202
1761505488270334000,2.586333984375,-0.009506314992904663,-0.0858718678355217,-0.000242057372815907
1761505488280370000,2.596369873046875,-0.027707871049642563,-0.020030803978443146,0.021579353138804436
1761505488290406000,2.606406005859375,-0.03639589995145798,0.06664577126502991,0.017924431711435318
1761505488300441900,2.61644189453125,-0.026821428909897804,0.1317916065454483,0.00726813031360507
1761505488310479000,2.62647900390625,-0.005339840427041054,0.14985209703445435,-0.0016526601975783706
1761505488320515000,2.63651513671875,0.011801077984273434,0.11249268800020218,-0.002127476967871189
1761505488330551000,2.646551025390625,0.012909752316772938,0.040566571056842804,0.017557011917233467
1761505488340587300,2.656587158203125,0.00007087783887982368,-0.03459889814257622,0.04308827593922615
1761505488350623200,2.666623291015625,-0.015865212306380272,-0.07886170595884323,0.06522207707166672
1761505488360659200,2.6766591796875,-0.022386064752936363,-0.07863529026508331,0.0636260136961937
1761505488370695200,2.686695068359375,-0.023222031071782112,-0.04140909016132355,0.034197285771369934
1761505488380732200,2.696732177734375,-0.01837819255888462,0.012246972881257534,-0.011043576523661613
1761505488390768000,2.70676806640625,-0.016013039276003838,0.06344251334667206,-0.04135647416114807
1761505488400804000,2.71680419921875,-0.009654305875301361,0.047846268862485886,-0.0447167307138443
1761505488410840000,2.726840087890625,-0.0071812947280704975,-0.0038715191185474396,-0.00490939524024725
1761505488420876000,2.7368759765625,-0.009394627064466476,-0.03022892214357853,0.04988039657473564
1761505488430912000,2.746912109375,-0.011177081614732742,-0.0559646412730217,0.07164081931114197
1761505488440948000,2.756947998046875,-0.006215375382453203,-0.05129360407590866,0.05717567354440689
1761505488450985200,2.766985107421875,0.001703533809632063,0.013361022807657719,0.03279496729373932
1761505488461021200,2.777021240234375,-0.003952472470700741,0.055064212530851364,0.002356656827032566
1761505488471057200,2.78705712890625,-0.0031838836148381233,0.064631886780262,-0.018455414101481438
1761505488481093000,2.797093017578125,0.0030619450844824314,0.058378759771585464,-0.028124939650297165
1761505488491129000,2.807129150390625,0.010537438094615936,0.017987392842769623,-0.022828713059425354
1761505488501165000,2.8171650390625,0.01608394831418991,-0.011888311244547367,-0.004451521672308445
1761505488511201000,2.827200927734375,0.022730398923158646,-0.023379050195217133,0.013897924683988094
1761505488521238000,2.837238037109375,0.0268720630556345,-0.028257720172405243,0.025953399017453194
1761505488531274000,2.84727392578125,0.020703382790088654,-0.03602323308587074,0.04416942223906517
1761505488541310000,2.85731005859375,0.010764493606984615,-0.022315215319395065,0.05456257984042168
1761505488551346200,2.86734619140625,0.002852241974323988,-0.011262564919888973,0.045115549117326736
1761505488561382100,2.877382080078125,0.0038592752534896135,0.023999018594622612,0.03873594105243683
1761505488571418000,2.887418212890625,0.011487101204693317,0.06806448101997375,0.0446028858423233
1761505488581454000,2.8974541015625,0.016970345750451088,0.0821864977478981,0.052319761365652084
1761505488591490000,2.907489990234375,0.01909048855304718,0.07959257811307907,0.04823926463723183
1761505488601526800,2.91752685546875,0.0229171272367239,0.058304768055677414,0.037762969732284546
1761505488611562800,2.927562744140625,0.02387852780520916,0.03186863660812378,0.026325494050979614
1761505488621598700,2.9375986328125,0.035785917192697525,0.006964230909943581,0.02105635590851307
1761505488631634700,2.947634765625,0.041608914732933044,-0.02685525082051754,0.028377918526530266
1761505488641670700,2.957670654296875,0.0404035821557045,-0.047059640288352966,0.05350806191563606
1761505488651706600,2.96770654296875,0.037142809480428696,-0.04122891277074814,0.08496612310409546
1761505488661742600,2.97774267578125,0.024174686521291733,-0.027114037424325943,0.09754776209592819
1761505488671779600,2.987779541015625,0.005585023667663336,-0.010778740979731083,0.07903586328029633
1761505488681815800,2.99781591796875,-0.002843573223799467,0.012299559079110622,0.040765635669231415
1761505488691851800,3.007851806640625,0.0010960409417748451,0.04443405941128731,-0.010748419910669327
1761505488701887700,3.0178876953125,0.012032886035740376,0.07274813205003738,-0.058568745851516724
1761505488711923700,3.027923828125,0.012058984488248825,0.07905423641204834,-0.07592029869556427
1761505488721960000,3.0379599609375,-0.00005679996684193611,0.06848281621932983,-0.06645382940769196
1761505488731996000,3.047995849609375,-0.005625203251838684,0.027744708582758904,-0.028556784614920616
1761505488742032600,3.05803271484375,-0.005323047749698162,-0.009130680002272129,0.015360969118773937
1761505488752068900,3.06806884765625,-0.0006281607784330845,-0.03737696260213852,0.04893943667411804
1761505488762104800,3.078104736328125,0.0030123803298920393,-0.034042421728372574,0.047394800931215286
1761505488772140800,3.088140869140625,0.01174808107316494,-0.00817487109452486,0.009495623409748077
1761505488782176800,3.0981767578125,0.02050417847931385,0.02837972529232502,-0.0350835882127285
1761505488792212700,3.108212646484375,0.026565266773104668,0.0455283522605896,-0.07193401455879211
1761505488802248700,3.118248779296875,0.023133069276809692,0.03697054833173752,-0.07854851335287094
1761505488812285700,3.12828564453125,0.010339775122702122,0.033894866704940796,-0.04797915369272232
1761505488822321700,3.13832177734375,0.002335056196898222,0.03586233779788017,-0.009099754504859447
1761505488832357600,3.148357666015625,-0.00037444382905960083,0.022588077932596207,0.018321750685572624
1761505488842393600,3.1583935546875,0.009563393890857697,0.012231599539518356,0.03491682559251785
1761505488852429800,3.168429931640625,0.01728256605565548,-0.00005036708898842335,0.0352579765021801
1761505488862465800,3.1784658203125,0.027286281809210777,-0.006569760851562023,0.023386258631944656
1761505488872501800,3.188501708984375,0.02417570911347866,-0.0011350472923368216,0.008733811788260937
1761505488882537700,3.198537841796875,0.00866355374455452,0.011336922645568848,0.0014799654018133879
1761505488892574700,3.20857470703125,0.0010591638274490833,0.013827511109411716,0.005673645064234734
1761505488902610700,3.218610595703125,0.0032514778431504965,0.02374991774559021,0.022826531901955605
1761505488912646700,3.228646728515625,0.015723859891295433,0.014337239786982536,0.017309261485934258
1761505488922683000,3.238682861328125,0.02616618387401104,0.003855352057144046,0.00453245360404253
1761505488932718800,3.24871875,0.02453979104757309,-0.0013684381265193224,0.0076827071607112885
1761505488942754800,3.2587548828125,0.020139269530773163,0.005101736634969711,0.01834559626877308
1761505488952790800,3.268790771484375,0.017066780477762222,0.013934376649558544,0.023267118260264397
1761505488962827800,3.278827880859375,0.014520643278956413,0.018062204122543335,0.030221598222851753
1761505488972863700,3.28886376953125,0.014459392055869102,0.012379816733300686,0.03514524921774864
1761505488982899700,3.298899658203125,0.008377137593925,0.0006854652892798185,0.03399510681629181
1761505488992935700,3.308935791015625,0.006613858975470066,0.0020074585918337107,0.019542928785085678
1761505489002971600,3.3189716796875,0.0026857247576117516,0.015938356518745422,-0.011579523794353008
1761505489013007600,3.329007568359375,-0.0013063536025583744,0.041403502225875854,-0.03556368872523308
1761505489023043600,3.339043701171875,0.0030402468983083963,0.04118149355053902,-0.039382971823215485
1761505489033079800,3.349079833984375,0.009691758081316948,0.01677335426211357,-0.012081579305231571
1761505489043116800,3.35911669921875,0.015652768313884735,-0.025494618341326714,0.028727713972330093
1761505489053152800,3.36915283203125,0.01815693825483322,-0.03866394981741905,0.05435797572135925
1761505489063188700,3.379188720703125,0.011702388525009155,-0.036345887929201126,0.042567335069179535
1761505489073224700,3.389224609375,0.00932897999882698,-0.01197023969143629,0.00001614564098417759
1761505489083260700,3.3992607421875,0.008811527863144875,0.017875805497169495,-0.04103834554553032
1761505489093296600,3.409296630859375,0.013302682898938656,0.02602800726890564,-0.0514632910490036
1761505489103332900,3.419332763671875,0.023120155557990074,0.03136255964636803,-0.031784795224666595
1761505489113368800,3.429368896484375,0.029366865754127502,0.002165258629247546,-0.009552991949021816
1761505489123405600,3.439405517578125,0.031023943796753883,-0.038090936839580536,-0.003777184523642063
1761505489133441800,3.44944189453125,0.02577352151274681,-0.015699075534939766,-0.006665648892521858
1761505489143477800,3.459477783203125,0.009490156546235085,0.01965649239718914,-0.02214433252811432
1761505489153513700,3.469513671875,0.000335007905960083,0.03385273739695549,-0.034025490283966064
1761505489163549700,3.4795498046875,-0.006835556589066982,0.04671125113964081,-0.021746590733528137
1761505489173585700,3.489585693359375,-0.010615646839141846,0.033096104860305786,-0.004081043880432844
1761505489183621600,3.49962158203125,-0.014920378103852272,0.0026016088668257,0.015130068175494671
1761505489193659000,3.509658935546875,-0.009183130227029324,-0.033498071134090424,0.02597738988697529
1761505489203694800,3.51969482421875,0.0028323805890977383,-0.0506979264318943,0.02538861706852913
1761505489213730800,3.529730712890625,0.0021612639538943768,-0.04233293607831001,0.00827035028487444
1761505489223766800,3.539766845703125,-0.002708480227738619,-0.013163672760128975,-0.009290365502238274
1761505489233802800,3.549802734375,-0.004033403005450964,0.02712835557758808,-0.020835435017943382
1761505489243838700,3.559838623046875,-0.008450046181678772,0.024182509630918503,-0.03138855844736099
1761505489253874700,3.569874755859375,-0.004582070745527744,0.024016061797738075,-0.02516075409948826
1761505489263910700,3.57991064453125,-0.0007899808697402477,0.017236163839697838,-0.012773973867297173
1761505489273947600,3.58994775390625,-0.0015599005855619907,-0.008616738952696323,-0.0011093287030234933
1761505489283983600,3.599983642578125,-0.004517467692494392,-0.005431768484413624,0.006541879381984472
1761505489294019600,3.61001953125,-0.01779572293162346,-0.007233929820358753,0.007069718092679977
1761505489304055800,3.620055908203125,-0.042038097977638245,-0.025487547740340233,0.00978058110922575
1761505489314091800,3.630091796875,-0.05578799918293953,-0.012813831679522991,0.03834164887666702
1761505489324127700,3.640127685546875,-0.062259480357170105,0.019914021715521812,0.06722629815340042
1761505489334163700,3.650163818359375,-0.05788417160511017,0.04811662808060646,0.0714479386806488
1761505489344199700,3.66019970703125,-0.04447179287672043,0.06296484172344208,0.03603547066450119
1761505489354237000,3.67023681640625,-0.02191828191280365,0.047361914068460464,-0.023745832964777946
1761505489364273000,3.68027294921875,-0.0026739155873656273,0.021798208355903625,-0.06523693352937698
1761505489374308900,3.690308837890625,0.003592768916860223,-0.02684762515127659,-0.06593149155378342
1761505489384344800,3.7003447265625,0.0010416829027235508,-0.05591193959116936,-0.032487038522958755
1761505489394380800,3.710380859375,-0.008013064041733742,-0.054820843040943146,0.00023282237816601992
1761505489404416800,3.720416748046875,-0.007227797526866198,-0.047836143523454666,-0.0014911893522366881
1761505489414452700,3.73045263671875,0.005688800476491451,-0.03524045646190643,-0.028538519516587257
1761505489424488700,3.74048876953125,0.021409399807453156,-0.0168093740940094,-0.06115911155939102
1761505489434525700,3.750525634765625,0.032806396484375,-0.028035396710038185,-0.08878381550312042
1761505489444561700,3.760561767578125,0.034777529537677765,-0.057392872869968414,-0.09585431963205338
1761505489454597600,3.77059765625,0.02788100764155388,-0.104401133954525,-0.07089756429195404
1761505489464633600,3.780633544921875,0.008827785961329937,-0.10189671814441681,-0.01650848053395748
1761505489474669600,3.790669677734375,-0.009933119639754295,-0.054277800023555756,0.03424124792218208
1761505489484705800,3.800705810546875,-0.017322983592748642,0.011886163614690304,0.05945054441690445
1761505489494741800,3.81074169921875,-0.015330672264099121,0.07254551351070404,0.06789116561412811
1761505489504777700,3.82077783203125,-0.015867551788687706,0.10738067328929901,0.06740036606788635
1761505489514815000,3.83081494140625,-0.014877121895551682,0.12141740322113037,0.06597370654344559
1761505489524851000,3.840850830078125,-0.011921625584363937,0.09613057971000671,0.05767878144979477
1761505489534887000,3.850886962890625,-0.009071244858205318,0.03219900280237198,0.052114371210336685
1761505489544923000,3.8609228515625,-0.0003161081112921238,-0.014067747630178928,0.04899859428405762
1761505489554958800,3.870958740234375,0.0021430549677461386,-0.035499002784490585,0.04203096777200699
1761505489564994800,3.880994873046875,0.0055457064881920815,-0.037612803280353546,0.025046685710549355
1761505489575030800,3.89103076171875,0.004386432468891144,-0.020405052229762077,0.011729815043509007
1761505489585066800,3.901066650390625,0.004799781367182732,0.0023787240497767925,0.004457562696188688
1761505489595103700,3.911103759765625,0.009589210152626038,0.014785060659050941,0.006116712000221014
1761505489605138700,3.921138671875,0.0085538849234581,0.0029839875642210245,0.019721372053027153
1761505489615174700,3.931174560546875,0.013932671397924423,0.003972286358475685,0.03379085287451744
1761505489625211000,3.9412109375,0.01683596335351467,0.007825854234397411,0.03557424247264862
1761505489635246800,3.951246826171875,0.009040890261530876,0.0030111256055533886,0.02605397440493107
1761505489645282800,3.96128271484375,-0.0028533446602523327,0.010235581547021866,0.009238203056156635
1761505489655318800,3.97131884765625,-0.015590446069836617,0.005934576503932476,-0.012050308287143707
1761505489665354800,3.981354736328125,-0.02390288934111595,0.007231533527374268,-0.021930111572146416
1761505489675390700,3.991390625,-0.022241611033678055,0.019242655485868454,-0.006218527443706989
1761505489685427700,4.001427734375,-0.01549325231462717,0.022892571985721588,0.022814445197582245
1761505489695463700,4.011463623046875,-0.00797355081886053,0.004444055259227753,0.05288765951991081
1761505489705499600,4.021499755859375,0.00538369407877326,0.00018299161456525326,0.06141827628016472
1761505489715535600,4.03153564453125,0.012995008379220963,-0.00536543782800436,0.04501400142908096
1761505489725571600,4.041571533203125,0.01876310631632805,-0.020768776535987854,0.019854655489325523
1761505489735607600,4.051607666015625,0.016038691624999046,-0.01863158866763115,0.011334937065839767
1761505489745643500,4.0616435546875,-0.0009549572132527828,0.011961868964135647,0.003997761756181717
1761505489755679500,4.071679443359375,-0.010538875125348568,0.024025987833738327,-0.023749714717268944
1761505489765716700,4.081716796875,-0.01505251694470644,0.02150535024702549,-0.04977469518780708
1761505489775752700,4.091752685546875,-0.01839292049407959,0.0227194856852293,-0.06113440543413162
1761505489785788700,4.10178857421875,-0.022935960441827774,0.011657578870654106,-0.059166256338357925
1761505489795824600,4.11182470703125,-0.03703047335147858,-0.01268424466252327,-0.04071135073900223
1761505489805860900,4.12186083984375,-0.04779228940606117,-0.027220413088798523,0.009355309419333935
1761505489815896800,4.131896728515625,-0.050638675689697266,-0.01164837647229433,0.06774857640266418
1761505489825932800,4.141932861328125,-0.04357146471738815,0.01116793230175972,0.09969102591276169
1761505489835968800,4.15196875,-0.027408206835389137,0.017401328310370445,0.09505925327539444
1761505489846005800,4.162005859375,-0.007495642639696598,0.022970963269472122,0.0777261033654213
1761505489856041700,4.172041748046875,0.00422626081854105,0.02324499934911728,0.035370390862226486
1761505489866077700,4.18207763671875,0.007277586497366428,0.023181473836302757,-0.0215093232691288
1761505489876113700,4.19211376953125,0.017166169360280037,0.010845711454749107,-0.07770361751317978
1761505489886149600,4.202149658203125,0.019437342882156372,-0.02638215571641922,-0.11192559450864792
1761505489896185600,4.212185546875,0.010989796370267868,-0.07007903605699539,-0.10342584550380707
1761505489906221600,4.2222216796875,-0.009625106118619442,-0.1111474260687828,-0.05883174017071724
1761505489916257500,4.232257568359375,-0.020672431215643883,-0.11148484796285629,0.01571040414273739
1761505489926293500,4.24229345703125,-0.018849721178412437,-0.045675866305828094,0.0755627453327179
1761505489936330800,4.252330810546875,-0.00820959359407425,0.018483415246009827,0.0874798595905304
1761505489946366700,4.26236669921875,-0.001429482363164425,0.05561993271112442,0.06251468509435654
1761505489956402700,4.272402587890625,0.0020621882285922766,0.07230596989393234,0.03520689159631729
1761505489966438700,4.282438720703125,-0.000032920390367507935,0.0783872976899147,0.029983902350068092
1761505489976475000,4.292474853515625,-0.0022585242986679077,0.04497288167476654,0.03892599791288376
1761505489986510800,4.3025107421875,0.006370792631059885,0.019068704918026924,0.04454587772488594
1761505489996546800,4.312546875,0.020058907568454742,0.01977444253861904,0.029879586771130562
1761505490006582800,4.322582763671875,0.02776375412940979,0.020397450774908066,-0.002354832598939538
1761505490016618800,4.33261865234375,0.016837604343891144,0.025344807654619217,-0.03025916777551174
1761505490026655700,4.34265576171875,-0.008517453446984291,0.0029518601950258017,-0.0352788120508194
1761505490036691700,4.352691650390625,-0.02987813763320446,-0.0206056647002697,-0.005313989240676165
1761505490046727700,4.362727783203125,-0.03975331783294678,-0.006653603632003069,0.03290623053908348
1761505490056763600,4.372763671875,-0.04140154644846916,-0.005606715101748705,0.04727744683623314
1761505490066799600,4.382799560546875,-0.037858542054891586,-0.006973308511078358,0.043951332569122314
1761505490076835600,4.392835693359375,-0.0253645870834589,0.014114665798842907,0.02911459654569626
1761505490086871600,4.40287158203125,-0.011694892309606075,0.020818496122956276,-0.005766619928181171
1761505490096907500,4.412907470703125,0.0029772615525871515,0.02512136474251747,-0.04587249457836151
1761505490106944800,4.42294482421875,0.008149925619363785,-0.003514778334647417,-0.05918709188699722
1761505490116980700,4.432980712890625,0.014067469164729118,-0.025854170322418213,-0.047823917120695114
1761505490127016700,4.4430166015625,0.013807093724608421,-0.02542806975543499,-0.026235012337565422
1761505490137052700,4.453052734375,-0.0008701197803020477,-0.02819456160068512,-0.007801677566021681
1761505490147088600,4.463088623046875,-0.010481623001396656,-0.0068800244480371475,0.024941788986325264
1761505490157124900,4.473124755859375,-0.020810693502426147,0.023596925660967827,0.06013413146138191
1761505490167160800,4.483160888671875,-0.023818202316761017,0.041390836238861084,0.06289423257112503
1761505490177196800,4.49319677734375,-0.023187562823295593,0.056924786418676376,0.03781204670667648
1761505490187232800,4.503232666015625,-0.018626313656568527,0.053909119218587875,0.0045935907401144505
1761505490197269800,4.513269775390625,-0.016667824238538742,0.015702879056334496,-0.01751836948096752
1761505490207305700,4.5233056640625,-0.017042696475982666,-0.012596959248185158,-0.02020987682044506
1761505490217341700,4.533341796875,-0.009415404871106148,-0.022022951394319534,-0.01965540647506714
1761505490227377700,4.543377685546875,-0.004993739537894726,-0.03460800647735596,-0.01404263824224472
1761505490237413600,4.55341357421875,-0.0035660192370414734,-0.03406605124473572,0.006614436395466328
1761505490247449600,4.56344970703125,-0.013736116699874401,-0.01844419538974762,0.0320432074368
1761505490257485600,4.573485595703125,-0.019345268607139587,-0.004375780932605267,0.05794084817171097
1761505490267521500,4.583521484375,-0.01665610447525978,0.011613328009843826,0.07955651730298996
1761505490277558800,4.593558837890625,-0.013789745979011059,0.003452870761975646,0.08370066434144974
1761505490287594800,4.6035947265625,-0.01798754371702671,-0.013620797544717789,0.0713636502623558
1761505490297630700,4.613630615234375,-0.019325781613588333,-0.021860085427761078,0.052338022738695145
1761505490307666700,4.623666748046875,-0.018688827753067017,0.013366799801588058,0.021723011508584023
1761505490317702700,4.63370263671875,-0.02161484584212303,0.05075997859239578,-0.026599247008562088
1761505490327739600,4.64373974609375,-0.021007832139730453,0.07667823135852814,-0.07155981659889221
1761505490337775600,4.653775634765625,-0.01592918299138546,0.07684335112571716,-0.08848420530557632
1761505490347811600,4.6638115234375,-0.007593157701194286,0.03607117012143135,-0.0702638253569603
1761505490357847800,4.673847900390625,0.001027494203299284,-0.003952677361667156,-0.023303236812353134
1761505490367883800,4.6838837890625,0.0028399736620485783,-0.04664506018161774,0.02818048931658268
1761505490377919700,4.693919677734375,0.006576388608664274,-0.05907243862748146,0.06339014321565628
1761505490387955700,4.703955810546875,0.01143883541226387,-0.05764784291386604,0.06596282869577408
1761505490397991700,4.71399169921875,0.008074996061623096,-0.03209720924496651,0.052704814821481705
1761505490408028700,4.724028564453125,-0.0022621741518378258,0.013022936880588531,0.01471545360982418
1761505490418064600,4.734064697265625,-0.009048441424965858,0.07052377611398697,-0.027320146560668945
1761505490428100900,4.744100830078125,-0.01959923282265663,0.1125742495059967,-0.051165249198675156
1761505490438136800,4.75413671875,-0.025109579786658287,0.11120964586734772,-0.058737147599458694
1761505490448172800,4.7641728515625,-0.025172431021928787,0.06800731271505356,-0.062161706387996674
1761505490458208800,4.774208740234375,-0.0002513676881790161,0.01730179414153099,-0.06957541406154633
1761505490468244700,4.78424462890625,0.017996011301875114,-0.04016394168138504,-0.06399606168270111
1761505490478280700,4.79428076171875,0.01946820691227913,-0.08372846245765686,-0.025589818134903908
1761505490488316700,4.804316650390625,0.006457313429564238,-0.09597045928239822,0.034745000302791595
1761505490498353700,4.814353759765625,-0.0073106964118778706,-0.06353902071714401,0.07513317465782166
1761505490508389600,4.8243896484375,-0.023571476340293884,-0.021119458600878716,0.07145287096500397
1761505490518425600,4.834425537109375,-0.03250211849808693,0.013541316613554955,0.021742306649684906
1761505490528461600,4.844461669921875,-0.030283328145742416,0.05027129501104355,-0.04702087864279747
1761505490538497800,4.854497802734375,-0.02571733668446541,0.0788174495100975,-0.09725075960159302
1761505490548533800,4.86453369140625,-0.028452478349208832,0.08323449641466141,-0.10508642345666885
1761505490558569700,4.87456982421875,-0.03337879478931427,0.0707583874464035,-0.07969450950622559
1761505490568605700,4.884605712890625,-0.030690135434269905,0.019297810271382332,-0.043004110455513
1761505490578642700,4.894642578125,-0.026130272075533867,-0.006759356707334518,0.0014578967820852995
1761505490588678700,4.9046787109375,-0.024273136630654335,-0.005049148108810186,0.03305939957499504
1761505490598715600,4.914715576171875,-0.024818019941449165,-0.023300589993596077,0.03695986419916153
1761505490608751600,4.924751708984375,-0.013115277513861656,-0.030562812462449074,0.02466939575970173
1761505490618787600,4.93478759765625,-0.002270087134093046,-0.0114980423822999,0.007681092247366905
1761505490628823600,4.944823486328125,0.0004822895862162113,-0.0010272918734699488,0.004362527281045914
1761505490638859500,4.954859619140625,0.0025507670361548662,0.005573352798819542,0.007717045024037361
1761505490648895500,4.9648955078125,0.0016100872308015823,0.031056806445121765,0.004713184665888548
1761505490658931500,4.974931396484375,-0.0034299450926482677,0.040934205055236816,0.0013786405324935913
1761505490668968400,4.984968505859375,-0.010341251268982887,0.0223467368632555,0.006254157982766628
1761505490679004400,4.99500439453125,-0.005314268171787262,0.0024689023848623037,0.042249176651239395
1761505490689040400,5.005040283203125,-0.002491583116352558,-0.010797901079058647,0.08109696954488754
1761505490699076400,5.015076416015625,-0.0021914448589086533,-0.0177474208176136,0.09374751895666122
1761505490709112300,5.0251123046875,0.0018940186128020287,0.0004550735466182232,0.07078947126865387
1761505490719148300,5.035148193359375,0.008589738048613071,0.03662798926234245,0.027054771780967712
1761505490729184500,5.0451845703125,0.015016453340649605,0.05075616016983986,-0.01770688220858574
1761505490739220500,5.055220458984375,0.014196732081472874,0.0329047255218029,-0.054264094680547714
1761505490749256400,5.06525634765625,0.017596926540136337,-0.00004647299647331238,-0.09181126207113266
1761505490759293400,5.07529345703125,0.021116826683282852,-0.04095502570271492,-0.1236213818192482
1761505490769329700,5.08532958984375,0.008271093480288982,-0.07532348483800888,-0.1383313238620758
1761505490779365600,5.09536572265625,-0.013557772152125835,-0.063079334795475,-0.12222398817539215
1761505490789401600,5.105401611328125,-0.032166652381420135,-0.05159806087613106,-0.06091369315981865
1761505490799437600,5.1154375,-0.04254872351884842,0.01716822013258934,0.03126790001988411
1761505490809473500,5.1254736328125,-0.036013707518577576,0.07183561474084854,0.09054848551750183
1761505490819509500,5.135509521484375,-0.018839780241250992,0.05859703943133354,0.09420100599527359
1761505490829545500,5.14554541015625,0.013848713599145412,0.04618973284959793,0.08346202969551086
1761505490839581400,5.15558154296875,0.038869112730026245,0.04061121121048927,0.055061280727386475
1761505490849618400,5.165618408203125,0.04344017431139946,0.034359659999608994,0.01718183048069477
1761505490859654400,5.175654296875,0.02563640847802162,0.036593783646821976,-0.022450799122452736
1761505490869690400,5.1856904296875,0.005520952865481377,0.04478508606553078,-0.05572430416941643
1761505490879726300,5.195726318359375,-0.0054810987785458565,0.030335573479533195,-0.07291794568300247
1761505490889762300,5.20576220703125,-0.007367346901446581,-0.012140201404690742,-0.06243044137954712
1761505490899798300,5.21579833984375,-0.005967855919152498,-0.06460554152727127,-0.02439250983297825
1761505490909834500,5.22583447265625,0.008328228257596493,-0.0731494203209877,0.01757899671792984
1761505490919870500,5.235870361328125,0.01689109019935131,-0.03464170917868614,0.029342977330088615
1761505490929907500,5.245907470703125,0.018324309960007668,0.017518481239676476,0.022157225757837296
1761505490939943700,5.255943603515625,0.006779506802558899,0.05267966166138649,0.015378149226307869
1761505490949979600,5.265979736328125,0.0016690059565007687,0.06719032675027847,0.03730718046426773
1761505490960015600,5.276015625,0.006331934593617916,0.045615795999765396,0.07040973752737045
1761505490970051600,5.286051513671875,0.017214719206094742,0.01241963729262352,0.1003798171877861
1761505490980087600,5.296087646484375,0.02688545733690262,0.0062693334184587,0.11354994773864746
1761505490990123500,5.30612353515625,0.023967143148183823,0.0064744167029857635,0.09312920272350311
1761505491000159500,5.316159423828125,0.01768714375793934,0.013517412357032299,0.053911224007606506
1761505491010195500,5.326195556640625,0.005786530673503876,0.018413685262203217,0.01977294683456421
1761505491020232400,5.336232421875,-0.015222081914544106,-0.0019776076078414917,0.0012682374799624085
1761505491030268400,5.346268310546875,-0.023833146318793297,-0.00432971166446805,0.009048129431903362
1761505491040304400,5.356304443359375,-0.026494445279240608,-0.012179911136627197,0.014231174252927303
1761505491050340400,5.36634033203125,-0.019980929791927338,-0.01822649873793125,0.004549585282802582
1761505491060376300,5.376376220703125,-0.006365517619997263,-0.013006702065467834,-0.018590621650218964
1761505491070412300,5.386412353515625,0.005637460388243198,-0.013445132412016392,-0.03583255782723427
1761505491080448500,5.396448486328125,0.015683703124523163,-0.028887741267681122,-0.0346466526389122
1761505491090484500,5.406484375,0.01208813488483429,-0.0507526732981205,-0.0031218035146594048
1761505491100520400,5.4165205078125,0.009568251669406891,-0.06670820713043213,0.03394993022084236
1761505491110557400,5.426557373046875,0.0022201447281986475,-0.07624362409114838,0.06151404231786728
1761505491120593700,5.43659375,-0.01037767343223095,-0.054394789040088654,0.04826747998595238
1761505491130629600,5.446629638671875,-0.021566566079854965,-0.00768754119053483,0.009630506858229637
1761505491140665600,5.45666552734375,-0.031184839084744453,0.04823005199432373,-0.032876208424568176
1761505491150701600,5.46670166015625,-0.036137305200099945,0.0783211961388588,-0.05624152719974518
1761505491160737500,5.476737548828125,-0.036922406405210495,0.06931731849908829,-0.05095861479640007
1761505491170773500,5.4867734375,-0.03743242099881172,0.0052369688637554646,-0.0221610888838768
1761505491180809500,5.4968095703125,-0.022764798253774643,-0.0565856508910656,0.027771582826972008
1761505491190845400,5.506845458984375,-0.010169018059968948,-0.07198372483253479,0.07779533416032791
1761505491200882400,5.51688232421875,-0.004091418813914061,-0.05659065768122673,0.08801255375146866
1761505491210918400,5.52691845703125,-0.002882801927626133,-0.00786069966852665,0.06890928000211716
1761505491220954400,5.536954345703125,-0.007036800496280193,0.03633711859583855,0.041889384388923645
1761505491230990300,5.546990234375,-0.014326127246022224,0.05737337842583656,0.03244023770093918
1761505491241026300,5.5570263671875,-0.022268738597631454,0.0651271715760231,0.0328034944832325
1761505491251062300,5.567062255859375,-0.020665206015110016,0.062321413308382034,0.02091560885310173
1761505491261098500,5.577098388671875,-0.024262871593236923,0.03792339935898781,-0.011541932821273804
1761505491271134500,5.587134521484375,-0.022814610973000526,0.007614422589540482,-0.040948111563920975
1761505491281170400,5.59717041015625,-0.022788245230913162,-0.016305290162563324,-0.05702934414148331
1761505491291207400,5.60720751953125,-0.03011148050427437,-0.03899097442626953,-0.055487219244241714
1761505491301243600,5.61724365234375,-0.03944879025220871,-0.054775264114141464,-0.020396877080202103
1761505491311279600,5.627279541015625,-0.04148223623633385,-0.034623533487319946,0.03824334964156151
1761505491321315600,5.637315673828125,-0.03777617961168289,0.004557693377137184,0.08237618952989578
1761505491331351600,5.6473515625,-0.032010406255722046,0.00813203677535057,0.08790602535009384
1761505491341387500,5.657387451171875,-0.01524420827627182,0.010659908875823021,0.07996448129415512
1761505491351423500,5.667423583984375,0.0069799041375517845,0.015145935118198395,0.05636133253574371
1761505491361459500,5.67745947265625,0.020385723561048508,-0.011595398187637329,0.011111298575997353
1761505491371495400,5.687495361328125,0.012426776811480522,-0.052780598402023315,-0.052315883338451385
1761505491381531400,5.697531494140625,-0.010172541253268719,-0.08137203007936478,-0.11500616371631622
1761505491391568400,5.707568359375,-0.04308697208762169,-0.07753448933362961,-0.16615226864814758
1761505491401604400,5.717604248046875,-0.07179664820432663,-0.04389263689517975,-0.19855761528015137
1761505491411640300,5.727640380859375,-0.08847372978925705,0.005727936048060656,-0.19462880492210388
1761505491421676300,5.73767626953125,-0.0909387543797493,0.030581887811422348,-0.14816729724407196
1761505491431712500,5.74771240234375,-0.0798393115401268,0.021885307505726814,-0.07414033263921738
1761505491441748500,5.75774853515625,-0.060616351664066315,0.005448809824883938,0.003965387586504221
1761505491451784400,5.767784423828125,-0.037971269339323044,-0.0169658325612545,0.054311446845531464
1761505491461820400,5.7778203125,-0.014320002868771553,-0.01499615702778101,0.07231175899505615
1761505491471856400,5.7878564453125,-0.008260590024292469,-0.009348655119538307,0.06455877423286438
1761505491481893600,5.7978935546875,-0.00582832470536232,0.0033354484476149082,0.044439394026994705
1761505491491929600,5.8079296875,-0.010095199570059776,0.006271915044635534,0.03601854667067528
1761505491501965600,5.817965576171875,-0.0065388125367462635,0.012260831892490387,0.039735253900289536
1761505491512001500,5.82800146484375,-0.00703771086409688,0.02084611915051937,0.04462428018450737
1761505491522037500,5.83803759765625,-0.012657513841986656,0.024345779791474342,0.04090810567140579
1761505491532073500,5.848073486328125,-0.023361846804618835,0.025697698816657066,0.03177342936396599
1761505491542109400,5.858109375,-0.02453017607331276,0.018490387126803398,0.030791254714131355
1761505491552145400,5.8681455078125,-0.023660629987716675,0.013527752831578255,0.03270770236849785
1761505491562181400,5.878181396484375,-0.022292297333478928,-0.013317443430423737,0.027768071740865707
1761505491572218400,5.88821826171875,-0.007930224761366844,-0.025425000116229057,0.02246292307972908
1761505491582254300,5.89825439453125,0.005746971350163221,-0.00714932382106781,0.019510542973876
1761505491592290300,5.908290283203125,0.019355302676558495,0.019817505031824112,0.0016744541935622692
1761505491602326300,5.918326171875,0.03214406967163086,0.04259898141026497,-0.02585437521338463
1761505491612362500,5.928362548828125,0.039766956120729446,0.031026892364025116,-0.04648357257246971
1761505491622398500,5.9383984375,0.03083178400993347,-0.03744484484195709,-0.023463206365704536
1761505491632434400,5.948434326171875,0.019636832177639008,-0.07446832209825516,0.04803840443491936
1761505491642470400,5.958470458984375,0.025151440873742104,-0.05099175497889519,0.09814418107271194
1761505491652506400,5.96850634765625,0.03991137817502022,-0.014042502269148827,0.0928504690527916
1761505491662542300,5.978542236328125,0.05425649508833885,0.028213074430823326,0.049704063683748245
1761505491672579300,5.988579345703125,0.062237389385700226,0.04951130971312523,0.01583894155919552
1761505491682615300,5.998615234375,0.05761494114995003,0.024923941120505333,0.018267478793859482
1761505491692651300,6.0086513671875,0.05819177255034447,0.002808836754411459,0.052722640335559845
1761505491702687200,6.018687255859375,0.06464727222919464,0.003463175380602479,0.08642787486314774
1761505491712723200,6.02872314453125,0.05615866929292679,0.030374620109796524,0.09635713696479797
1761505491722759200,6.03875927734375,0.061792585998773575,0.07552985101938248,0.07455436885356903
1761505491732795100,6.048795166015625,0.07118389010429382,0.10195280611515045,0.03441910073161125
1761505491742831000,6.0588310546875,0.06965602934360504,0.083074189722538,-0.005526450462639332
1761505491752867300,6.068867431640625,0.04723037779331207,0.017729252576828003,-0.019847434014081955
1761505491762903600,6.078903564453125,0.020926333963871002,-0.03818328306078911,-0.0012553740525618196
1761505491772940300,6.088940185546875,0.0038042168598622084,-0.049653392285108566,0.02118317037820816
1761505491782976500,6.0989765625,0.009051975794136524,-0.03072550892829895,0.029325518757104874
1761505491793012500,6.109012451171875,0.019050758332014084,0.001294563408009708,0.021451802924275398
1761505491803048400,6.11904833984375,0.016817698255181313,0.005640042945742607,0.013021567836403847
1761505491813084400,6.12908447265625,0.009651407599449158,0.015290223062038422,0.02588704787194729
1761505491823120400,6.139120361328125,0.005568781867623329,0.040346838533878326,0.04345592111349106
1761505491833156400,6.14915625,0.005918309558182955,0.047680530697107315,0.05196596682071686
1761505491843192300,6.1591923828125,0.003978462889790535,0.038660138845443726,0.044127751141786575
1761505491853228300,6.169228271484375,0.0015719113871455193,0.02108747512102127,0.029375921934843063
1761505491863264300,6.17926416015625,0.004445728845894337,0.02048639953136444,0.008797409012913704
1761505491873301200,6.18930126953125,0.0006790980696678162,0.02919950522482395,-0.013947099447250366
1761505491883337200,6.199337158203125,-0.014662040397524834,0.017722079530358315,-0.04202773794531822
1761505491893373200,6.209373291015625,-0.031757816672325134,-0.0012679810170084238,-0.04867107793688774
1761505491903409200,6.2194091796875,-0.03728866949677467,-0.01961369812488556,-0.0447453111410141
1761505491913445000,6.229445068359375,-0.023884309455752373,-0.038394536823034286,-0.03158162906765938
1761505491923481300,6.2394814453125,0.000058040954172611237,-0.03841184824705124,-0.011040400713682175
1761505491933517300,6.249517333984375,0.020589377731084824,-0.05444334074854851,0.0029427341651171446
1761505491943553500,6.259553466796875,0.028708290308713913,-0.07232087105512619,0.014621760696172714
1761505491953589500,6.269589599609375,0.020932834595441818,-0.07722990959882736,0.025678271427750587
1761505491963625500,6.27962548828125,0.020740553736686707,-0.06345364451408386,0.020854754373431206
1761505491973662500,6.289662353515625,0.015447566285729408,-0.02436734363436699,0.014234868809580803
1761505491983698400,6.299698486328125,0.008373145945370197,0.015333728864789009,-0.008060849271714687
1761505491993734400,6.309734375,-0.01111248042434454,0.02460792474448681,-0.02333538979291916
1761505492003770400,6.319770263671875,-0.02209189534187317,0.021440094336867332,-0.03247322887182236
1761505492013806300,6.329806396484375,-0.022947147488594055,-0.013450702652335167,-0.044117800891399384
1761505492023842300,6.33984228515625,-0.015892166644334793,-0.038413312286138535,-0.04004183039069176
1761505492033878300,6.349878173828125,-0.012519408948719501,-0.05101236701011658,-0.02729334868490696
1761505492043914200,6.359914306640625,-0.010934294201433659,-0.060400012880563736,-0.012247022241353989
1761505492053950200,6.3699501953125,-0.005879880860447884,-0.03907341510057449,0.008825507014989853
1761505492063986200,6.379986083984375,0.00894753448665142,-0.009776780381798744,0.01741420105099678
1761505492074023200,6.390023193359375,0.017334064468741417,-0.010744953528046608,0.020582515746355057
1761505492084059100,6.40005908203125,0.024367205798625946,-0.016075804829597473,0.028615940362215042
1761505492094095000,6.41009521484375,0.02400018647313118,-0.025463644415140152,0.03546993434429169
1761505492104131300,6.42013134765625,0.014780323952436447,-0.029078084975481033,0.026303334161639214
1761505492114167600,6.43016748046875,0.0022775372490286827,-0.03093712031841278,-0.004495258443057537
1761505492124203500,6.44020361328125,-0.014345381408929825,-0.027530938386917114,-0.038688383996486664
1761505492134239500,6.450239501953125,-0.03249094635248184,-0.017147284001111984,-0.057560648769140244
1761505492144275500,6.460275390625,-0.0462789312005043,-0.014491845853626728,-0.04688403382897377
1761505492154311400,6.4703115234375,-0.058222122490406036,-0.006813650950789452,-0.005552949849516153
1761505492164347400,6.480347412109375,-0.055203165858983994,0.01416247058659792,0.04058578237891197
1761505492174383400,6.49038330078125,-0.038120973855257034,0.0328177735209465,0.06063574180006981
1761505492184420400,6.50042041015625,-0.025926625356078148,0.03928712382912636,0.04910505190491676
1761505492194456300,6.510456298828125,-0.013857683166861534,0.033720698207616806,0.027106057852506638
1761505492204492300,6.5204921875,0.0010498943738639355,0.02243848145008087,0.009441043250262737
1761505492214528300,6.5305283203125,0.014096096158027649,0.004234681837260723,-0.011902466416358948
1761505492224564200,6.540564208984375,0.013526178896427155,-0.001307356171309948,-0.027424432337284088
1761505492234600200,6.55060009765625,0.008121687918901443,-0.013879913836717606,-0.027434496209025383
1761505492244636400,6.560636474609375,0.0020566051825881004,-0.014755027368664742,-0.018955523148179054
1761505492254672400,6.57067236328125,-0.009444888681173325,-0.03069615364074707,-0.01274971105158329
1761505492264708400,6.580708251953125,-0.019788075238466263,-0.05472426116466522,-0.006861461792141199
1761505492274744300,6.590744384765625,-0.01591186225414276,-0.03563648462295532,-0.005716599989682436
1761505492284781300,6.60078125,-0.007531960494816303,0.0015913131646811962,-0.012726572342216969
1761505492294817500,6.610817626953125,-0.0027043591253459454,0.018696025013923645,-0.015564837493002415
1761505492304853500,6.620853515625,-0.000693140085786581,0.03913898020982742,-0.00011264381464570761
1761505492314889500,6.630889404296875,-0.000903222244232893,0.04110632464289665,0.018543928861618042
1761505492324925400,6.640925537109375,0.0005002636462450027,0.037814389914274216,0.030399790033698082
1761505492334961400,6.65096142578125,0.0022812392562627792,0.041654009371995926,0.039773229509592056
1761505492344997400,6.660997314453125,0.00437927758321166,0.043402642011642456,0.03239201381802559
1761505492355033300,6.671033447265625,0.006039133295416832,0.0224619098007679,0.003154895268380642
1761505492365069300,6.6810693359375,0.009247975423932076,-0.011466761119663715,-0.02042286843061447
1761505492375105300,6.691105224609375,0.007671980652958155,-0.0509071946144104,-0.02842504344880581
1761505492385141200,6.701141357421875,0.005758233368396759,-0.07578777521848679,-0.01675879955291748
1761505492395177500,6.711177490234375,0.0033264372032135725,-0.08101601153612137,0.0038427896797657013
1761505492405214200,6.721214111328125,-0.00008773524314165115,-0.05058380588889122,0.03253302350640297
1761505492415250200,6.731250244140625,-0.0013090879656374454,0.002564523369073868,0.044624797999858856
1761505492425286400,6.741286376953125,-0.006157638970762491,0.0488974004983902,0.0399424284696579
1761505492435322400,6.751322265625,-0.014000870287418365,0.0761086642742157,0.032655421644449234
1761505492445358300,6.7613583984375,-0.029099127277731895,0.07758938521146774,0.02938319556415081
1761505492455394300,6.771394287109375,-0.03425546735525131,0.05010608211159706,0.034135852009058
1761505492465430300,6.78143017578125,-0.024587392807006836,0.004103971645236015,0.045905157923698425
1761505492475466200,6.79146630859375,-0.01819981075823307,-0.01691311225295067,0.05233241617679596
1761505492485502200,6.801502197265625,-0.014127038419246674,-0.010594762861728668,0.03216669708490372
1761505492495538200,6.8115380859375,0.00019813096150755882,0.028075385838747025,0.0026145665906369686
1761505492505574100,6.82157421875,0.000963523518294096,0.06345254927873611,-0.018863826990127563
1761505492515611400,6.831611328125,-0.015590216964483261,0.05076853185892105,-0.012604956515133381
1761505492525647400,6.8416474609375,-0.024765072390437126,0.01843855530023575,0.018374796956777573
1761505492535683300,6.851683349609375,-0.026626328006386757,-0.003999925218522549,0.051127586513757706
1761505492545719300,6.86171923828125,-0.026205280795693398,-0.012529764324426651,0.06375177204608917
1761505492555755300,6.87175537109375,-0.0230741947889328,0.001194253098219633,0.04748466610908508
1761505492565791500,6.88179150390625,-0.020558837801218033,0.03062484599649906,0.009121297858655453
1761505492575827500,6.891827392578125,-0.010410947725176811,0.040619343519210815,-0.036862295120954514
1761505492585863400,6.901863525390625,-0.0029093543998897076,0.014944606460630894,-0.056610699743032455
1761505492595899400,6.9118994140625,0.0020273299887776375,-0.027368925511837006,-0.043870434165000916
1761505492605935000,6.92193505859375,0.004349606577306986,-0.06138760969042778,-0.0064061470329761505
1761505492615971000,6.93197119140625,0.0137419318780303,-0.08202410489320755,0.028879506513476372
1761505492626008000,6.942008056640625,0.020956434309482574,-0.05930627882480621,0.04184404015541077
1761505492636044000,6.9520439453125,0.025170858949422836,-0.015526024624705315,0.03397555649280548
1761505492646080000,6.962080078125,0.031668972223997116,0.025019537657499313,0.012508880347013474
1761505492656116000,6.972115966796875,0.037599727511405945,0.03362676873803139,-0.005004354752600193
1761505492666152000,6.98215185546875,0.032740261405706406,0.002156192436814308,-0.010896597988903522
1761505492676188000,6.99218798828125,0.02341867983341217,-0.016316266730427742,-0.0009380797855556011
1761505492686224000,7.002223876953125,0.018697427585721016,-0.018203383311629295,-0.003477936377748847
1761505492696260000,7.012260009765625,0.0027987463399767876,-0.004433494061231613,-0.020893095061182976
1761505492706296000,7.022296142578125,-0.021155323833227158,0.014492793008685112,-0.03620946779847145
1761505492716332000,7.03233203125,-0.03389587625861168,0.0362747386097908,-0.04312887787818909
1761505492726368000,7.042367919921875,-0.0337989367544651,0.05544150620698929,-0.033185698091983795
1761505492736404000,7.052404052734375,-0.029826290905475616,0.042536839842796326,-0.01737023890018463
1761505492746441000,7.06244091796875,-0.019527314230799675,-0.0064299022778868675,0.0028024071361869574
1761505492756477200,7.072477294921875,-0.017542727291584015,-0.04890172928571701,0.01880294643342495
1761505492766513200,7.08251318359375,-0.005528940819203854,-0.05960949882864952,0.02981085516512394
1761505492776549000,7.092549072265625,-0.0015963786281645298,-0.03535431995987892,0.02438979782164097
1761505492786585000,7.102585205078125,-0.003142609726637602,0.000714470399543643,0.0068630026653409
1761505492796621000,7.11262109375,-0.006760147400200367,0.023308439180254936,-0.0073205758817493916
1761505492806657000,7.122656982421875,-0.013592752628028393,0.046349842101335526,-0.002353247720748186
1761505492816693000,7.13269287109375,-0.026113193482160568,0.05122607946395874,0.009042371064424515
1761505492826729000,7.14272900390625,-0.028550520539283752,0.04248904809355736,0.014319424517452717
1761505492836765000,7.152764892578125,-0.023873664438724518,0.020697936415672302,0.013636838644742966
1761505492846801200,7.16280126953125,-0.017600588500499725,0.010728925466537476,0.014531927183270454
1761505492856838000,7.172837890625,-0.009506826288998127,0.0008351420983672142,0.009083724580705166
1761505492866873900,7.182873779296875,0.00011970242485404015,-0.020804906263947487,0.0155168566852808
1761505492876910000,7.19291015625,0.01401440054178238,-0.028219617903232574,0.020223742350935936
1761505492886946000,7.202946044921875,0.010060671716928482,-0.04071863368153572,0.01742449402809143
1761505492896982000,7.21298193359375,-0.000944778323173523,-0.03523300960659981,0.012190278619527817
1761505492907018000,7.22301806640625,-0.009674886241555214,-0.002277190564200282,-0.003700537607073784
1761505492917054000,7.233053955078125,-0.018419265747070312,0.03754524886608124,-0.039534006267786026
1761505492927090000,7.24308984375,-0.010963480919599533,0.0689854621887207,-0.06449394673109055
1761505492937126000,7.2531259765625,-0.0005732676945626736,0.0740082636475563,-0.05713526904582977
1761505492947161900,7.263161865234375,0.01724913902580738,0.05995422601699829,-0.0385139137506485
1761505492957197800,7.27319775390625,0.04289677366614342,0.007478012703359127,-0.00979575328528881
1761505492967233800,7.28323388671875,0.073333241045475,-0.03092823177576065,0.0202388446778059
1761505492977269800,7.293269775390625,0.09149560332298279,-0.050544898957014084,0.03950369358062744
1761505492987307000,7.30330712890625,0.09086470305919647,-0.06569135934114456,0.04113221913576126
1761505492997343000,7.313343017578125,0.07536493986845016,-0.0478825606405735,0.030360151082277298
1761505493007379000,7.32337890625,0.06361427903175354,-0.006974274292588234,0.006026848219335079
1761505493017415200,7.333415283203125,0.04251495376229286,0.012085148133337498,-0.015084942802786827
1761505493027451100,7.343451171875,0.012786353006958961,0.02909156307578087,-0.00794021412730217
1761505493037487000,7.353487060546875,-0.006942099425941706,0.04992783069610596,0.01234491728246212
1761505493047523000,7.363523193359375,-0.019803302362561226,0.04457647353410721,0.016345519572496414
1761505493057559000,7.37355908203125,-0.01808582991361618,0.02250206656754017,0.011113205924630165
1761505493067595000,7.383594970703125,-0.01098611019551754,0.0063654398545622826,-0.002765858080238104
1761505493077631000,7.393630859375,-0.009117165580391884,-0.03441398963332176,-0.016354331746697426
1761505493087667000,7.4036669921875,-0.0007324698381125927,-0.0573243647813797,-0.01708989590406418
1761505493097703000,7.413702880859375,0.009418325498700142,-0.055734384804964066,-0.007859811186790466
1761505493107740000,7.423739990234375,0.016769714653491974,-0.04987756162881851,-0.012109151110053062
1761505493117776000,7.43377587890625,0.021522508934140205,-0.05589936301112175,-0.017577243968844414
1761505493127811800,7.443811767578125,0.0155975092202425,-0.04460170120000839,-0.011121741496026516
1761505493137847800,7.453847900390625,0.001031404361128807,-0.013250872492790222,0.003994043916463852
1761505493147883800,7.4638837890625,-0.004213158506900072,0.013710438273847103,0.007571734022349119
1761505493157920000,7.473919921875,-0.012379147112369537,0.04366172105073929,0.01311399880796671
1761505493167956200,7.483956298828125,-0.018763810396194458,0.05004478618502617,0.005184436682611704
1761505493177992200,7.4939921875,-0.030250882729887962,0.029769565910100937,-0.00605113385245204
1761505493188028200,7.504028076171875,-0.04647672921419144,0.0064136432483792305,-0.010381166823208332
1761505493198064000,7.514064208984375,-0.05894843116402626,0.004558344837278128,-0.004778851754963398
1761505493208100000,7.52410009765625,-0.0617748387157917,0.0214326661080122,-0.0028427336364984512
1761505493218136000,7.534135986328125,-0.05300440266728401,0.04411281645298004,-0.012513560242950916
1761505493228172000,7.544172119140625,-0.04186466336250305,0.030799411237239838,-0.028379876166582108
1761505493238209000,7.554208984375,-0.0312543548643589,0.019277459010481834,-0.029838211834430695
1761505493248245000,7.564244873046875,-0.01644398458302021,-0.009466571733355522,-0.02765308879315853
1761505493258281000,7.574281005859375,-0.005746340844780207,-0.019817961379885674,-0.015346364118158817
1761505493268317000,7.58431689453125,0.0001296577975153923,-0.013203999027609825,-0.00012959504965692759
1761505493278353000,7.594352783203125,-0.00400238623842597,-0.004575750790536404,0.001972613390535116
1761505493288388900,7.604388916015625,-0.009939638897776604,0.021429218351840973,-0.004011243116110563
1761505493298424800,7.6144248046875,-0.013643506914377213,0.05192570388317108,-0.012809313833713531
1761505493308461000,7.6244609375,-0.026896461844444275,0.07711787521839142,-0.019740989431738853
1761505493318497000,7.6344970703125,-0.04758830741047859,0.04113836959004402,-0.020505007356405258
1761505493328533000,7.644532958984375,-0.06304529309272766,0.03660167381167412,-0.011935222893953323
1761505493338569000,7.65456884765625,-0.06556087732315063,0.051298655569553375,-0.020771807059645653
1761505493348605000,7.66460498046875,-0.06920381635427475,0.05318310856819153,-0.0475861094892025
1761505493358641000,7.674640869140625,-0.06161962449550629,0.05682353302836418,-0.0755309909582138
1761505493368678100,7.68467822265625,-0.03775344043970108,0.03202763944864273,-0.08388106524944305
1761505493378714000,7.694714111328125,-0.008483897894620895,-0.025072673335671425,-0.06574363261461258
1761505493388750000,7.70475,0.020029501989483833,-0.08212077617645264,-0.014998432248830795
1761505493398786000,7.7147861328125,0.038239993155002594,-0.11026528477668762,0.039542000740766525
1761505493408822000,7.724822021484375,0.04007624089717865,-0.09841395169496536,0.07386615127325058
1761505493418858000,7.73485791015625,0.03794868290424347,-0.034159399569034576,0.07124419510364532
1761505493428894000,7.74489404296875,0.016426613554358482,0.03543565422296524,0.04641395062208176
1761505493438930000,7.754929931640625,-0.012400820851325989,0.07672755420207977,0.0109931705519557
1761505493448966100,7.764966064453125,-0.015766257420182228,0.09323302656412125,-0.020593252032995224
1761505493459002000,7.775002197265625,-0.005319694522768259,0.0799996629357338,-0.04979434236884117
1761505493469038000,7.7850380859375,-0.004659496713429689,0.04242086037993431,-0.07102373242378235
1761505493479074000,7.795073974609375,-0.014904482290148735,-0.0011415223125368357,-0.06388936191797256
1761505493489110000,7.805110107421875,-0.01925795152783394,-0.03433223068714142,-0.021987715736031532
1761505493499147000,7.81514697265625,-0.01789628528058529,-0.015356624498963356,0.030535932630300522
1761505493509183000,7.825182861328125,-0.01747363992035389,0.032485995441675186,0.062016893178224564
1761505493519219000,7.835218994140625,-0.004111889284104109,0.06823652237653732,0.058035146445035934
1761505493529255000,7.8452548828125,0.0007326668128371239,0.0749005451798439,0.029581397771835327
1761505493539291000,7.855290771484375,0.0055978791788220406,0.04358163848519325,0.000006022048182785511
1761505493549326800,7.865326904296875,-0.0029482045210897923,-0.012782302685081959,-0.012962507084012032
1761505493559362800,7.87536279296875,-0.022254783660173416,-0.04007549583911896,-0.008816487155854702
1761505493569399000,7.88539892578125,-0.042945146560668945,-0.03793990612030029,-0.0076705291867256165
1761505493579435000,7.89543505859375,-0.055184222757816315,0.012532943859696388,-0.01681646704673767
1761505493589471000,7.905470947265625,-0.0631132498383522,0.06803881376981735,-0.03125772625207901
1761505493599507700,7.9155078125,-0.05851450935006142,0.10464955121278763,-0.04772564768791199
1761505493609543700,7.925543701171875,-0.049834463745355606,0.122703917324543,-0.03619735687971115
1761505493619580000,7.935579833984375,-0.048234742134809494,0.10084795951843262,-0.016787894070148468
1761505493629615900,7.945615966796875,-0.038907285779714584,0.020023949444293976,0.00173225998878479
1761505493639652600,7.955652587890625,-0.03164286911487579,-0.06455918401479721,0.03552074730396271
1761505493649688800,7.965688720703125,-0.0241620521992445,-0.09484998136758804,0.06353986263275146
1761505493659724800,7.975724853515625,-0.01678348332643509,-0.07900454103946686,0.05732939764857292
1761505493669760800,7.9857607421875,-0.02370051108300686,-0.011523768305778503,0.023634018376469612
1761505493679796700,7.995796630859375,-0.03871595486998558,0.07472595572471619,-0.012459815479815006
1761505493689832700,8.005832763671876,-0.05142509192228317,0.12386899441480637,-0.03922751545906067
1761505493699868700,8.01586865234375,-0.06011609360575676,0.1240227222442627,-0.05260663107037544
1761505493709904600,8.025904541015626,-0.06628929823637009,0.0806661993265152,-0.05547378957271576
1761505493719940600,8.035940673828126,-0.05260640010237694,0.01724613830447197,-0.04351017624139786
1761505493729976600,8.0459765625,-0.034291040152311325,-0.029889147728681564,-0.010807354003190994
1761505493740012500,8.056012451171876,-0.0163717120885849,-0.06046612560749054,0.02671043947339058
1761505493750048500,8.066048583984376,-0.005869535729289055,-0.04703580588102341,0.050824832171201706
1761505493760085000,8.0760849609375,-0.010326201096177101,0.010705501772463322,0.03107156977057457
1761505493770121000,8.086120849609374,-0.020696282386779785,0.17676398158073425,-0.06130177155137062
1761505493780157000,8.096156982421874,-0.03978702053427696,0.4490264058113098,-0.10573282837867737
1761505493790193000,8.10619287109375,-0.08654414117336273,0.4614412784576416,-0.00893543940037489
1761505493800228900,8.116228759765624,-0.08910898864269257,0.08586493134498596,0.04700911045074463
1761505493810264800,8.126264892578124,-0.0449010506272316,-0.19397789239883423,0.06352975964546204
1761505493820300800,8.13630078125,-0.020914293825626373,-0.1602548211812973,0.003699221182614565
1761505493830336800,8.146336669921874,-0.05562833324074745,0.007374931126832962,-0.10693168640136719
1761505493840372700,8.156372802734374,-0.09809620678424835,0.09984658658504486,-0.20928288996219635
1761505493850409700,8.16640966796875,-0.11249032616615295,0.10261094570159912,-0.29967910051345825
1761505493860445700,8.17644580078125,-0.13611310720443726,0.12709011137485504,-0.3656950294971466
1761505493870481700,8.186481689453124,-0.20112726092338562,0.13175782561302185,-0.3351035416126251
1761505493880517600,8.196517578125,-0.272901326417923,0.028573274612426758,-0.17954063415527344
