time,seconds_elapsed,z,y,x
1761505485767571000,0.083571044921875,-0.006171077024191618,0.004299407359212637,0.14502084255218506
1761505485777607000,0.09360693359375,0.0166772473603487,-0.052617140114307404,0.19410130381584167
1761505485787643100,0.10364306640625,0.05372767522931099,-0.1391211301088333,0.24894005060195923
1761505485797679000,0.11367919921875,0.11023809015750885,-0.2137698084115982,0.27818500995635986
1761505485807715000,0.123715087890625,0.14566105604171753,-0.2589186429977417,0.2796092629432678
1761505485817752000,0.133751953125,0.13706544041633606,-0.25476598739624023,0.25006815791130066
1761505485827788000,0.1437880859375,0.0978461354970932,-0.16431091725826263,0.1946863979101181
1761505485837824000,0.153823974609375,0.04584498703479767,-0.030735274776816368,0.11645656824111938
1761505485847860200,0.163860107421875,0.010554639622569084,0.048831719905138016,0.04867246374487877
1761505485857896200,0.173896240234375,-0.0075846826657652855,0.0506189689040184,0.027299530804157257
1761505485867932200,0.18393212890625,-0.010182330384850502,0.012141085229814053,0.04140070453286171
1761505485877968100,0.193968017578125,0.00427304208278656,-0.024697622284293175,0.06366419792175293
1761505485888005000,0.204005126953125,0.0028248149901628494,-0.05751282721757889,0.08669547736644745
1761505485898041000,0.214041015625,-0.01883920095860958,-0.0912308469414711,0.11601688712835312
1761505485908077000,0.2240771484375,-0.056166600435972214,-0.10481350123882294,0.1500030755996704
1761505485918113000,0.234113037109375,-0.07600821554660797,-0.10455703735351562,0.17641738057136536
1761505485928149000,0.24414892578125,-0.06991410255432129,-0.07139988243579865,0.1826060265302658
1761505485938185000,0.25418505859375,-0.042764775454998016,-0.042101647704839706,0.16221047937870026
1761505485948221000,0.264220947265625,-0.016081232577562332,-0.021765217185020447,0.15018071234226227
1761505485958258200,0.274258056640625,-0.014492922462522984,-0.0031515848822891712,0.1356923133134842
1761505485968294100,0.284294189453125,-0.028021248057484627,0.010804710909724236,0.12189687788486481
1761505485978330000,0.294330078125,-0.052866410464048386,0.02269386127591133,0.11536920070648193
1761505485988366000,0.304365966796875,-0.06456780433654785,0.031444210559129715,0.11057417839765549
1761505485998402000,0.314402099609375,-0.06364741921424866,0.01702372543513775,0.10641858726739883
1761505486008438000,0.32443798828125,-0.049182992428541183,-0.022639798000454903,0.10796242207288742
1761505486018474000,0.334473876953125,-0.03663391247391701,-0.056776996701955795,0.10962796211242676
1761505486028511000,0.344510986328125,-0.037936996668577194,-0.0672573372721672,0.10898240655660629
1761505486038547000,0.354546875,-0.05829686298966408,-0.06082713231444359,0.08919911831617355
1761505486048583000,0.3645830078125,-0.0819377452135086,0.008835835382342339,0.05181526020169258
1761505486058619100,0.374619140625,-0.09083642810583115,0.09614890068769455,0.0028477180749177933
1761505486068655000,0.384655029296875,-0.07526066899299622,0.09274112433195114,-0.034748125821352005
1761505486078691000,0.394691162109375,-0.044079843908548355,0.064229317009449,-0.03086284175515175
1761505486088727000,0.40472705078125,-0.008079764433205128,0.06133206561207771,0.01678270846605301
1761505486098764300,0.414764404296875,0.006779875606298447,0.03428446874022484,0.06751485913991928
1761505486108800300,0.42480029296875,-0.014646853320300579,0.00495134899392724,0.10015402734279633
1761505486118836200,0.434836181640625,-0.04095861688256264,-0.0036780918017029762,0.11668773740530014
1761505486128872200,0.4448720703125,-0.05106930807232857,-0.03259389474987984,0.11660490930080414
1761505486138908200,0.454908203125,-0.04126621410250664,-0.02593998797237873,0.10169467329978943
1761505486148944100,0.464944091796875,-0.014700116589665413,0.0041188448667526245,0.0701572522521019
1761505486158980000,0.47497998046875,0.022542860358953476,0.016885772347450256,0.04601676017045975
1761505486169017000,0.48501708984375,0.05386616289615631,0.0413554310798645,0.04940003901720047
1761505486179053000,0.495052978515625,0.054003581404685974,0.039927709847688675,0.05216919630765915
1761505486189089000,0.505089111328125,0.02959570847451687,0.006262955721467733,0.05041497200727463
1761505486199125000,0.515125,0.00782356783747673,-0.014916098676621914,0.045706503093242645
1761505486209161000,0.525160888671875,-0.006828344892710447,-0.04111308231949806,0.030597856268286705
1761505486219197000,0.535197021484375,0.0044171190820634365,-0.026514165103435516,0.005739644635468721
1761505486229233200,0.545233154296875,0.02737649716436863,-0.0044107274152338505,-0.030000243335962296
1761505486239270000,0.555269775390625,0.038117557764053345,0.00836765207350254,-0.05228424444794655
1761505486249306000,0.56530615234375,0.028233768418431282,0.014755776152014732,-0.03972664102911949
1761505486259342000,0.575342041015625,0.011461179703474045,0.0035294874105602503,0.008614260703325272
1761505486269378300,0.58537841796875,0.008432633243501186,0.0013171994360163808,0.046178948134183884
1761505486279414300,0.595414306640625,0.010965299792587757,-0.005154548212885857,0.0667119175195694
1761505486289450200,0.6054501953125,0.009878196753561497,0.017957694828510284,0.07930600643157959
1761505486299486200,0.615486328125,0.005600893869996071,0.07804074138402939,0.08104931563138962
1761505486309523200,0.625523193359375,0.006453372072428465,0.11722409725189209,0.06283248960971832
1761505486319559200,0.63555908203125,0.01974201388657093,0.1096402108669281,0.03663630783557892
1761505486329595100,0.64559521484375,0.03850318491458893,0.07434054464101791,0.010027866810560226
1761505486339631000,0.655631103515625,0.04590357467532158,-0.004890096373856068,-0.00580888707190752
1761505486349667000,0.6656669921875,0.04163506254553795,-0.08966277539730072,-0.0009885653853416443
1761505486359703000,0.675703125,0.03954767435789108,-0.11961108446121216,0.023932229727506638
1761505486369739000,0.685739013671875,0.03086523711681366,-0.09878809750080109,0.0509587898850441
1761505486379776000,0.69577587890625,0.013050820678472519,-0.07363054156303406,0.05655941739678383
1761505486389812000,0.70581201171875,-0.005124987103044987,-0.00035233621019870043,0.04517040774226189
1761505486399848000,0.715847900390625,-0.009010273031890392,0.09603065997362137,0.03537370264530182
1761505486409884000,0.7258837890625,-0.0002796319022309035,0.15171602368354797,0.0183438528329134
1761505486419920000,0.735919921875,0.015527294017374516,0.1506616771221161,0.019603794440627098
1761505486429956000,0.7459560546875,0.029471872374415398,0.1601979285478592,0.031442344188690186
1761505486439992000,0.755991943359375,0.023331688717007637,0.1347905695438385,0.03598489984869957
1761505486450029000,0.766029052734375,0.007440339308232069,0.0804908499121666,0.021794777363538742
1761505486460065000,0.77606494140625,-0.008832373656332493,0.03593509644269943,0.006186789367347956
1761505486470101000,0.78610107421875,-0.016142483800649643,-0.0006511429091915488,-0.005281314719468355
1761505486480137200,0.79613720703125,-0.010204967111349106,-0.06518752872943878,-0.001406947965733707
1761505486490173200,0.806173095703125,-0.01871163584291935,-0.11438756436109543,0.03993703052401543
1761505486500209200,0.816209228515625,-0.021526597440242767,-0.092584528028965,0.08488693088293076
1761505486510245000,0.8262451171875,-0.02930009737610817,-0.06499551236629486,0.08433831483125687
1761505486520282000,0.8362822265625,-0.027046797797083855,-0.007646734360605478,0.03901264816522598
1761505486530318000,0.846318115234375,-0.02881806530058384,0.09908903390169144,-0.0027712853625416756
1761505486540354000,0.85635400390625,-0.03488501161336899,0.17448818683624268,-0.027005517855286598
1761505486550390000,0.86639013671875,-0.03502056747674942,0.19550691545009613,-0.04631849750876427
1761505486560426000,0.876426025390625,-0.03145246580243111,0.1191122755408287,-0.052623528987169266
1761505486570462000,0.8864619140625,-0.018683671951293945,0.019991017878055573,-0.025202026590704918
1761505486580499200,0.896499267578125,-0.007967911660671234,-0.05992458760738373,0.02256309986114502
1761505486590535000,0.906534912109375,-0.020120980218052864,-0.0980306938290596,0.05897170677781105
1761505486600571000,0.91657080078125,-0.04923012852668762,-0.0796346440911293,0.0639619380235672
1761505486610606800,0.92660693359375,-0.07337088882923126,-0.008702144958078861,0.03165087103843689
1761505486620642800,0.936642822265625,-0.08945158869028091,0.058271028101444244,-0.022418756037950516
1761505486630678800,0.9466787109375,-0.10064538568258286,0.13340865075588226,-0.047091346234083176
1761505486640715000,0.956715087890625,-0.10165205597877502,0.16394180059432983,-0.033295638859272
1761505486650751700,0.966751708984375,-0.10054045915603638,0.1366497278213501,0.010685933753848076
1761505486660787700,0.97678759765625,-0.07979097217321396,0.0842411145567894,0.06444689631462097
1761505486670824000,0.986823974609375,-0.052442170679569244,0.04565350338816643,0.09966720640659332
1761505486680860000,0.99685986328125,-0.02424808219075203,0.026615897193551064,0.10504279285669327
1761505486690896000,1.006895751953125,-0.012957077473402023,0.019703930243849754,0.08853679150342941
1761505486700931800,1.016931884765625,-0.009695503860712051,0.011085940524935722,0.05795757472515106
1761505486710967800,1.0269677734375,-0.007486145943403244,-0.0030341395176947117,0.03611805662512779
1761505486721004800,1.0370048828125,-0.0041036647744476795,-0.0032684975303709507,0.020361730828881264
1761505486731040800,1.047040771484375,-0.0062432484701275826,-0.017436780035495758,-0.0018093516118824482
1761505486741077000,1.057076904296875,-0.01362526509910822,-0.03653404116630554,-0.03828001022338867
1761505486751113000,1.067113037109375,-0.027543211355805397,-0.010673949494957924,-0.06263275444507599
1761505486761149000,1.07714892578125,-0.03736388310790062,0.02630537375807762,-0.06334701180458069
1761505486771185000,1.087184814453125,-0.044260937720537186,0.02833869680762291,-0.041424673050642014
1761505486781222000,1.097221923828125,-0.03623896464705467,0.023793479427695274,-0.0016040218761190772
1761505486791257900,1.1072578125,-0.01750336028635502,0.011287542060017586,0.030425550416111946
1761505486801293800,1.1172939453125,-0.005230980925261974,-0.03373505920171738,0.044312868267297745
1761505486811329800,1.127329833984375,0.0019449065439403057,-0.07283452898263931,0.040351152420043945
1761505486821365800,1.13736572265625,0.012967729941010475,-0.0940210372209549,0.02297961711883545
1761505486831401700,1.147401611328125,0.018618425354361534,-0.10478473454713821,0.0015981629258021712
1761505486841438700,1.157438720703125,0.022070415318012238,-0.08339662104845047,0.0014823154779151082
1761505486851474700,1.167474609375,0.01738298498094082,-0.03765523433685303,0.011722169816493988
1761505486861510700,1.1775107421875,0.007141799200326204,0.01600559800863266,0.0176375824958086
1761505486871546600,1.187546630859375,0.008869924582540989,0.0824996680021286,0.008114385418593884
1761505486881582800,1.197582763671875,0.020905015990138054,0.10053566098213196,-0.011345865204930305
1761505486891618800,1.207618896484375,0.04453045129776001,0.056164734065532684,-0.013163738884031773
1761505486901654800,1.21765478515625,0.051527105271816254,-0.02424275502562523,0.018039187416434288
1761505486911692000,1.227692138671875,0.049861032515764236,-0.09681682288646698,0.06784642487764359
1761505486921728000,1.23772802734375,0.03759264945983887,-0.13383476436138153,0.10606358200311661
1761505486931764000,1.247763916015625,0.02478417567908764,-0.15286704897880554,0.10582096874713898
1761505486941800000,1.257800048828125,0.019843479618430138,-0.11973065882921219,0.08637084066867828
1761505486951836000,1.2678359375,0.02810833416879177,-0.025373533368110657,0.04053837060928345
1761505486961872000,1.277871826171875,0.03092223033308983,0.08037926256656647,-0.015518239699304104
1761505486971907800,1.287907958984375,0.03272545710206032,0.15522873401641846,-0.04972334951162338
1761505486981944800,1.29794482421875,0.031087080016732216,0.170057475566864,-0.03326128423213959
1761505486991980800,1.307980712890625,0.02664918825030327,0.1375245749950409,0.016590427607297897
1761505487002016800,1.318016845703125,0.017488712444901466,0.05504301190376282,0.07385718077421188
1761505487012052700,1.328052734375,0.004522846546024084,-0.036613669246435165,0.11726324260234833
1761505487022088700,1.338088623046875,-0.00628905463963747,-0.09709752351045609,0.1349911093711853
1761505487032124700,1.348124755859375,-0.004947886802256107,-0.10745935142040253,0.1180262416601181
1761505487042162000,1.358161865234375,0.0034139060880988836,-0.10103500634431839,0.0687393844127655
1761505487052198000,1.368197998046875,0.002082858234643936,-0.06186709553003311,0.007122890558093786
1761505487062233900,1.37823388671875,0.004875182639807463,-0.010261958464980125,-0.035164378583431244
1761505487072269800,1.388269775390625,0.0002556634717620909,0.028432440012693405,-0.05558469891548157
1761505487082305800,1.398305908203125,0.00021651499264407903,0.07151839137077332,-0.05800577998161316
1761505487092342000,1.408342041015625,-0.0020937772933393717,0.11480674147605896,-0.039322372525930405
1761505487102378800,1.418378662109375,-0.0011416971683502197,0.11338408291339874,-0.004043743945658207
1761505487112414700,1.428414794921875,0.007240069564431906,0.07350803911685944,0.03343678638339043
1761505487122451000,1.438450927734375,0.01570412889122963,0.012460663914680481,0.06392917782068253
1761505487132487000,1.44848681640625,0.02424595132470131,-0.055814262479543686,0.07887350767850876
1761505487142523000,1.45852294921875,0.022816898301243782,-0.10478872805833817,0.08054783940315247
1761505487152558800,1.468558837890625,0.0003448793722782284,-0.11399394273757935,0.06969945132732391
1761505487162594800,1.4785947265625,-0.0223308727145195,-0.07931186258792877,0.027163177728652954
1761505487172631800,1.4886318359375,-0.03208177164196968,-0.015303055755794048,-0.030286001041531563
1761505487182667800,1.498667724609375,-0.03428659960627556,0.0680277869105339,-0.06213900446891785
1761505487192703700,1.508703857421875,-0.02659938670694828,0.10322386026382446,-0.06117520481348038
1761505487202739700,1.51873974609375,-0.012397547252476215,0.07214130461215973,-0.027087543159723282
1761505487212776000,1.52877587890625,0.007424360606819391,0.018144648522138596,0.02907000109553337
1761505487222812000,1.53881201171875,0.020987574011087418,-0.018025072291493416,0.08357159048318863
1761505487232849000,1.548848876953125,0.026704048737883568,-0.06704001873731613,0.11544723063707352
1761505487242884900,1.558884765625,0.019045596942305565,-0.08946623653173447,0.11923477798700333
1761505487252920800,1.5689208984375,0.00612260727211833,-0.0689614936709404,0.0997241958975792
1761505487262956800,1.578956787109375,-0.00808881875127554,-0.027942419052124023,0.049608830362558365
1761505487272992800,1.58899267578125,-0.006965231616050005,0.013864416629076004,-0.016395218670368195
1761505487283028700,1.59902880859375,-0.006991863250732422,0.026500049978494644,-0.05771655961871147
1761505487293065000,1.60906494140625,-0.012969594448804855,0.032405078411102295,-0.042991410940885544
1761505487303101700,1.619101806640625,-0.02732030488550663,0.02051219902932644,0.0036485306918621063
1761505487313137700,1.6291376953125,-0.043594881892204285,-0.00030892668291926384,0.0594465471804142
1761505487323174000,1.639173828125,-0.05789126455783844,-0.0026461167726665735,0.09301116317510605
1761505487333209900,1.6492099609375,-0.05952191725373268,-0.012028699740767479,0.08718949556350708
1761505487343245800,1.659245849609375,-0.05396682769060135,-0.010398046113550663,0.04956808686256409
1761505487353281800,1.66928173828125,-0.0430862158536911,-0.01577523536980152,0.003424825146794319
1761505487363319000,1.679319091796875,-0.020077038556337357,-0.04637788608670235,-0.035350799560546875
1761505487373355000,1.68935498046875,-0.010457434691488743,-0.08957036584615707,-0.03916098549962044
1761505487383391000,1.699390869140625,-0.0033899378031492233,-0.09227640181779861,-0.023319438099861145
1761505487393427000,1.709427001953125,-0.0012479572324082255,-0.07442735880613327,-0.008749282918870449
1761505487403463000,1.719462890625,0.004066647030413151,-0.039332225918769836,-0.0031617048662155867
1761505487413499000,1.729498779296875,-0.0015089471125975251,0.017679395154118538,0.000925448490306735
1761505487423534800,1.739534912109375,-0.006918093655258417,0.06830821931362152,-0.00012117382721044123
1761505487433571800,1.74957177734375,-0.016386164352297783,0.08819537609815598,0.004717257339507341
1761505487443607800,1.75960791015625,-0.024718662723898888,0.08190099149942398,0.014027401804924011
1761505487453643800,1.769643798828125,-0.019768111407756805,0.03779451549053192,0.02310957945883274
1761505487463679700,1.7796796875,-0.009425992146134377,-0.01452940795570612,0.02490960992872715
1761505487473715700,1.7897158203125,0.004971056245267391,-0.05547098070383072,0.0240174513310194
1761505487483751700,1.799751708984375,0.027093935757875443,-0.05566193163394928,0.02328188717365265
1761505487493788700,1.80978857421875,0.04061640053987503,-0.01780083402991295,0.019776901230216026
1761505487503825000,1.819824951171875,0.03855085372924805,0.024947160854935646,0.020416857674717903
1761505487513860900,1.82986083984375,0.023673370480537415,0.07157192379236221,0.02955123409628868
1761505487523896800,1.839896728515625,0.003882888937368989,0.09690790623426437,0.03531777858734131
1761505487533932800,1.849932861328125,-0.008357265964150429,0.08689654618501663,0.023151658475399017
1761505487543969000,1.859968994140625,-0.0025398568250238895,0.04671051353216171,0.0006958839949220419
1761505487554005000,1.8700048828125,0.012570653110742569,-0.0023611586075276136,-0.017485782504081726
1761505487564041700,1.880041748046875,0.02430773712694645,-0.05332713574171066,-0.021348698064684868
1761505487574078000,1.890077880859375,0.028620192781090736,-0.09356111288070679,-0.027118969708681107
1761505487584114000,1.900114013671875,0.02454342693090439,-0.06754335761070251,-0.01883147843182087
1761505487594150100,1.910150146484375,0.004057059530168772,-0.0015808524331077933,-0.012320315465331078
1761505487604186000,1.92018603515625,-0.020004866644740105,0.06700965762138367,-0.019520170986652374
1761505487614222000,1.93022216796875,-0.037150830030441284,0.11601635068655014,-0.02221262827515602
1761505487624259000,1.940259033203125,-0.03707839176058769,0.12252777814865112,-0.012209528125822544
1761505487634295000,1.950294921875,-0.028183167800307274,0.0877133384346962,0.005868807900696993
1761505487644331000,1.9603310546875,-0.006176935974508524,0.009544502943754196,0.025856364518404007
1761505487654367000,1.970366943359375,0.00983558688312769,-0.06064736843109131,0.04513338953256607
1761505487664403200,1.9804033203125,0.01617790386080742,-0.08607469499111176,0.045891858637332916
1761505487674439200,1.990439208984375,-0.0008988168556243181,-0.08021733909845352,0.025888055562973022
1761505487684475100,2.00047509765625,-0.025707228109240532,-0.05507203936576843,-0.021035511046648026
1761505487694512000,2.01051220703125,-0.0456274077296257,0.0175185389816761,-0.05673598498106003
1761505487704548000,2.020548095703125,-0.050511911511421204,0.07249177992343903,-0.06215045601129532
1761505487714584000,2.030583984375,-0.04830068722367287,0.07434959709644318,-0.026617761701345444
1761505487724620000,2.0406201171875,-0.03678757697343826,0.05856158211827278,0.034274350851774216
1761505487734656000,2.050656005859375,-0.018217619508504868,0.0167361032217741,0.07888629287481308
1761505487744692000,2.06069189453125,-0.004496214911341667,-0.033967021852731705,0.09473183751106262
1761505487754728200,2.070728271484375,0.002880208659917116,-0.035461585968732834,0.0859210342168808
1761505487764765000,2.080764892578125,-0.004767058417201042,-0.017968880012631416,0.05505100265145302
1761505487774801000,2.09080078125,-0.009766876697540283,-0.008676312863826752,0.015616776421666145
1761505487784837000,2.100837158203125,-0.01477575022727251,0.002858903491869569,-0.01278929878026247
1761505487794873000,2.110873046875,-0.01173282228410244,0.005228317808359861,-0.03551644831895828
1761505487804909000,2.120908935546875,-0.0033814155030995607,-0.008826248347759247,-0.04367344453930855
1761505487814945000,2.130945068359375,-0.004600344225764275,-0.022399848327040672,-0.010539726354181767
1761505487824982300,2.140982177734375,-0.015797339379787445,-0.02557353675365448,0.04182680696249008
1761505487835018200,2.151018310546875,-0.028259335085749626,-0.012212990783154964,0.07525081187486649
1761505487845054200,2.16105419921875,-0.03435690701007843,0.006879211403429508,0.07666069269180298
1761505487855090200,2.171090087890625,-0.03250174969434738,0.03832421824336052,0.054790545254945755
1761505487865126100,2.181126220703125,-0.025609223172068596,0.05157717317342758,0.02395167201757431
1761505487875162000,2.191162109375,-0.014180000871419907,0.0352725014090538,-0.005600361619144678
1761505487885198000,2.201197998046875,-0.011208445765078068,-0.00014061490946915,-0.023854998871684074
1761505487895235000,2.211235107421875,-0.004406466148793697,-0.03569301590323448,-0.0301967840641737
1761505487905271000,2.22127099609375,-0.0005185174522921443,-0.048161670565605164,-0.0300764087587595
1761505487915307000,2.23130712890625,0.00771704176440835,-0.040470726788043976,-0.031127559021115303
1761505487925343000,2.241343017578125,0.00501206936314702,-0.028353078290820122,-0.033600568771362305
1761505487935379000,2.25137890625,-0.0026282735634595156,-0.020182499662041664,-0.014644988812506199
1761505487945415000,2.261414794921875,-0.01318397931754589,-0.010872354730963707,0.016954481601715088
1761505487955451100,2.271451171875,-0.019109778106212616,-0.017797905951738358,0.028725920245051384
1761505487965488000,2.281488037109375,-0.025793246924877167,-0.002740126335993409,0.014506238512694836
1761505487975524000,2.291524169921875,-0.031925708055496216,0.018305504694581032,0.0007179882377386093
1761505487985560000,2.30156005859375,-0.031195469200611115,0.020839767530560493,0.0025875272694975138
1761505487995596300,2.31159619140625,-0.027160514146089554,0.013859090395271778,0.02545689046382904
1761505488005632300,2.32163232421875,-0.022174011915922165,0.014613297767937183,0.04824662581086159
1761505488015668200,2.331668212890625,-0.012085424736142159,0.006086121778935194,0.05266214534640312
1761505488025705200,2.341705322265625,-0.003260508179664612,0.018667161464691162,0.03906644135713577
1761505488035741200,2.3517412109375,0.00914502888917923,0.04632142558693886,0.011290204711258411
1761505488045777200,2.361777099609375,0.013556554913520813,0.052074920386075974,-0.017664480954408646
1761505488055813000,2.371813232421875,0.010490457527339458,0.034388069063425064,-0.03841103985905647
1761505488065849000,2.38184912109375,0.007648598402738571,-0.01877422071993351,-0.026969831436872482
1761505488075885000,2.391885009765625,-0.0006844323943369091,-0.053888797760009766,0.02214658074080944
1761505488085921000,2.401921142578125,-0.004846686962991953,-0.05552957206964493,0.07164835184812546
1761505488095958000,2.4119580078125,-0.0016373114194720984,-0.038124483078718185,0.08677750825881958
1761505488105994000,2.421993896484375,0.0016205335268750787,-0.005183043889701366,0.060917943716049194
1761505488116030000,2.432030029296875,0.0028370653744786978,0.0372949093580246,0.014609302394092083
1761505488126066000,2.44206591796875,0.009191900491714478,0.06410495191812515,-0.020451745018363
1761505488136102100,2.45210205078125,0.010458500124514103,0.05648591369390488,-0.02574637532234192
1761505488146138000,2.46213818359375,0.011177021078765392,0.02087865024805069,-0.0010926949325948954
1761505488156174000,2.472174072265625,0.015989085659384727,-0.007482683751732111,0.039077360183000565
1761505488166211000,2.482211181640625,0.021402493119239807,-0.02713841013610363,0.07034313678741455
1761505488176247000,2.4922470703125,0.018063155934214592,-0.02791472151875496,0.07980029284954071
1761505488186283000,2.502282958984375,0.0016165387351065874,-0.0038775624707341194,0.054907988756895065
1761505488196319000,2.512319091796875,-0.015109444037079811,0.013949903659522533,0.016881512477993965
1761505488206355200,2.522355224609375,-0.014549913816154003,0.03019838221371174,-0.021163342520594597
1761505488216391200,2.53239111328125,-0.010416954755783081,0.032524652779102325,-0.04430408030748367
1761505488226427100,2.54242724609375,-0.009904029779136181,-0.0020748688839375973,-0.06161276251077652
1761505488236464000,2.552464111328125,-0.006666957400739193,-0.052741240710020065,-0.07466331869363785
1761505488246500000,2.5625,0.0018998990999534726,-0.0980493351817131,-0.07079534232616425
1761505488256536000,2.5725361328125,0.01130698248744011,-0.12283564358949661,-0.04378582909703255
1761505488266572000,2.582572021484375,-0.007754592224955559,-0.10428991913795471,-0.01257997378706932
1761505488276608000,2.59260791015625,-0.029207419604063034,-0.050994209945201874,0.014763765968382359
1761505488286644000,2.60264404296875,-0.043366916477680206,0.02744041197001934,0.02062857896089554
1761505488296680000,2.612679931640625,-0.0395926833152771,0.11016058921813965,0.012893428094685078
1761505488306717200,2.62271728515625,-0.019770242273807526,0.14736922085285187,0.001580053474754095
1761505488316753200,2.632753173828125,0.0003499393642414361,0.1303313672542572,-0.0035140409599989653
1761505488326789000,2.6427890625,0.009802030399441719,0.06487193703651428,0.007984156720340252
1761505488336825000,2.6528251953125,-0.000559263804461807,-0.014659636653959751,0.031003456562757492
1761505488346861000,2.662861083984375,-0.015517174266278744,-0.07498688995838165,0.05510852485895157
1761505488356897000,2.67289697265625,-0.026702983304858208,-0.09101619571447372,0.06353849917650223
1761505488366933000,2.68293310546875,-0.029710225760936737,-0.05854267254471779,0.04428437352180481
1761505488376970000,2.692969970703125,-0.026639066636562347,-0.012093148194253445,0.0037827540654689074
1761505488387006000,2.703005859375,-0.021259749308228493,0.04560050740838051,-0.032273516058921814
1761505488397042000,2.7130419921875,-0.015909191220998764,0.06099357828497887,-0.05024372786283493
1761505488407078100,2.723078125,-0.01432088203728199,0.011671303771436214,-0.027150660753250122
1761505488417114000,2.733114013671875,-0.010839331895112991,-0.0313696414232254,0.02966654859483242
1761505488427150000,2.743150146484375,-0.01588202826678753,-0.048890311270952225,0.06767385452985764
1761505488437186000,2.75318603515625,-0.015312377363443375,-0.06241810321807861,0.05951712280511856
1761505488447223300,2.763223388671875,-0.006369482260197401,-0.01823333278298378,0.04250538349151611
1761505488457259300,2.77325927734375,-0.006446980405598879,0.04024196043610573,0.01495285052806139
1761505488467295200,2.783295166015625,-0.012413259595632553,0.06049476936459541,-0.013322729617357254
1761505488477331200,2.793331298828125,-0.004208060912787914,0.06342451274394989,-0.02725931815803051
1761505488487367200,2.8033671875,0.00017470336752012372,0.029017003253102303,-0.027606593444943428
1761505488497403100,2.813403076171875,0.009417204186320305,-0.007707187905907631,-0.01152589451521635
1761505488507439000,2.823439208984375,0.01182044018059969,-0.026461968198418617,0.004939098376780748
1761505488517476000,2.83347607421875,0.02003549411892891,-0.028971197083592415,0.02195909433066845
1761505488527512000,2.843511962890625,0.020922325551509857,-0.038834214210510254,0.036136165261268616
1761505488537548000,2.853548095703125,0.008835569024085999,-0.03165806084871292,0.05275722220540047
1761505488547584000,2.863583984375,-0.003186472225934267,-0.019890351220965385,0.048822931945323944
1761505488557620000,2.873619873046875,-0.002406432293355465,0.00686030276119709,0.04044489562511444
1761505488567656000,2.883656005859375,0.0038101845420897007,0.052077848464250565,0.04177487641572952
1761505488577692000,2.89369189453125,0.009857158176600933,0.07690010964870453,0.04827272519469261
1761505488587728100,2.90372802734375,0.012654808349907398,0.08198940753936768,0.05216360092163086
1761505488597764600,2.9137646484375,0.014020477421581745,0.06521495431661606,0.042632948607206345
1761505488607800800,2.92380078125,0.018441058695316315,0.037029389292001724,0.030418625101447105
1761505488617836800,2.9338369140625,0.024935176596045494,0.01321007777005434,0.02184298075735569
1761505488627872800,2.943872802734375,0.0333385169506073,-0.018454374745488167,0.022242721170186996
1761505488637908700,2.95390869140625,0.03748825192451477,-0.04585643857717514,0.041732799261808395
1761505488647944700,2.96394482421875,0.031955536454916,-0.04525189846754074,0.07094261795282364
1761505488657980700,2.973980712890625,0.02105068974196911,-0.040640104562044144,0.09503330290317535
1761505488668018000,2.984017822265625,0.0052083441987633705,-0.019963588565587997,0.08892747759819031
1761505488678054000,2.994053955078125,-0.008551410399377346,-0.0010189254535362124,0.05639989301562309
1761505488688089900,3.00408984375,-0.008832906372845173,0.03225141391158104,0.005840045865625143
1761505488698125800,3.014125732421875,0.002317216480150819,0.06016933172941208,-0.044925395399332047
1761505488708161800,3.024161865234375,0.008932508528232574,0.07375411689281464,-0.0750659853219986
1761505488718197800,3.03419775390625,-0.0006687197601422668,0.07170534878969193,-0.07460445910692215
1761505488728233700,3.044233642578125,-0.008007326163351536,0.04361352324485779,-0.048601359128952026
1761505488738270700,3.054270751953125,-0.013431120663881302,-0.00006338323146337643,-0.0019097528420388699
1761505488748306700,3.064306640625,-0.008843026123940945,-0.03278564289212227,0.036626186221838
1761505488758342700,3.0743427734375,-0.005810484755784273,-0.041304562240839005,0.04843917116522789
1761505488768378600,3.084378662109375,0.002030926523730159,-0.02431519329547882,0.024776719510555267
1761505488778414800,3.094414794921875,0.011238273233175278,0.00968405231833458,-0.021189972758293152
1761505488788450800,3.104450927734375,0.017287110909819603,0.03767867013812065,-0.06273848563432693
1761505488798486800,3.11448681640625,0.02413223311305046,0.03532017394900322,-0.08136436343193054
1761505488808523800,3.124523681640625,0.009934656322002411,0.031211981549859047,-0.06421706825494766
1761505488818559700,3.134559814453125,-0.0016799219883978367,0.03338778391480446,-0.02594185248017311
1761505488828595700,3.144595703125,-0.004247741773724556,0.023634223267436028,0.007186806295067072
1761505488838632000,3.1546318359375,-0.0008567389450035989,0.014623683877289295,0.029497439041733742
1761505488848668000,3.16466796875,0.006556968670338392,0.0021145499777048826,0.03636439889669418
1761505488858704000,3.174703857421875,0.018735870718955994,-0.007213704288005829,0.02737143635749817
1761505488868739800,3.18473974609375,0.02010233886539936,-0.007577492389827967,0.01588841900229454
1761505488878775800,3.19477587890625,0.0076246303506195545,0.006100769154727459,0.0023214775137603283
1761505488888812800,3.204812744140625,0.00037683729897253215,0.00965635571628809,0.003285009181126952
1761505488898848800,3.214848876953125,-0.0035838158801198006,0.017105484381318092,0.016209596768021584
1761505488908884700,3.224884765625,0.003156644757837057,0.014240188524127007,0.020058663561940193
1761505488918920700,3.234920654296875,0.01996704936027527,0.006369215901941061,0.005812082905322313
1761505488928956700,3.244956787109375,0.021760955452919006,-0.0034969968255609274,0.003230147995054722
1761505488938992600,3.25499267578125,0.015393070876598358,0.0002556634717620909,0.013797304593026638
1761505488949028600,3.265028564453125,0.009387376718223095,0.012198875658214092,0.02197320945560932
1761505488959065600,3.275065673828125,0.009044894017279148,0.0128172617405653,0.029563751071691513
1761505488969101600,3.2851015625,0.00820999313145876,0.01323990523815155,0.030484406277537346
1761505488979137500,3.295137451171875,0.00276089902035892,0.002590723102912307,0.03407647833228111
1761505488989173800,3.305173828125,0.0035742283798754215,0.0016783240716904402,0.02544677071273327
1761505488999209700,3.315209716796875,-0.0007233145297504961,0.007328220177441835,0.0005755090969614685
1761505489009245700,3.32524560546875,-0.008536762557923794,0.029463084414601326,-0.02851260080933571
1761505489019282000,3.335281982421875,-0.005017129238694906,0.04122732952237129,-0.040816936641931534
1761505489029318000,3.34531787109375,0.003593403147533536,0.024381238967180252,-0.027240674942731857
1761505489039355000,3.35535498046875,0.008161789737641811,-0.008778844028711319,0.011994877830147743
1761505489049390800,3.365390869140625,0.01191231980919838,-0.04303881525993347,0.04855848103761673
1761505489059426800,3.3754267578125,0.005798500496894121,-0.04472539201378822,0.05132976546883583
1761505489069462800,3.385462890625,0.0034285534638911486,-0.026510968804359436,0.016272179782390594
1761505489079498800,3.395498779296875,-0.0015137407463043928,0.004752943757921457,-0.028611404821276665
1761505489089534700,3.40553466796875,0.0033992587123066187,0.019453592598438263,-0.05181419476866722
1761505489099570700,3.41557080078125,0.015780294314026833,0.026875821873545647,-0.04133092984557152
1761505489109606700,3.425606689453125,0.02111513912677765,0.016052735969424248,-0.016210395842790604
1761505489119643600,3.4356435546875,0.021636053919792175,-0.028138160705566406,-0.0075724320486187935
1761505489129679600,3.4456796875,0.023615047335624695,-0.03217418119311333,-0.003483148291707039
1761505489139715600,3.455715576171875,0.012084625661373138,0.007678958587348461,-0.0156540609896183
1761505489149751600,3.46575146484375,-0.0039036613889038563,0.02304646372795105,-0.03358699008822441
1761505489159787800,3.475787841796875,-0.01167210191488266,0.041852373629808426,-0.030725421383976936
1761505489169823700,3.48582373046875,-0.015622102655470371,0.04047418758273125,-0.015220497734844685
1761505489179859700,3.495859619140625,-0.01830017752945423,0.009362875483930111,0.005082110408693552
1761505489189896700,3.505896728515625,-0.017245832830667496,-0.02178545668721199,0.01918914169073105
1761505489199933000,3.515932861328125,-0.00705737667158246,-0.05259929597377777,0.023036077618598938
1761505489209969000,3.525968994140625,-0.00330205331556499,-0.05432156100869179,0.015152321197092533
1761505489220004900,3.5360048828125,-0.005252819042652845,-0.03075658157467842,-0.003996073268353939
1761505489230040800,3.546040771484375,-0.008435828611254692,0.010908041149377823,-0.021409152075648308
1761505489240076800,3.556076904296875,-0.011757589876651764,0.024763137102127075,-0.031007716432213783
1761505489250112800,3.56611279296875,-0.011871307156980038,0.02203046716749668,-0.030707312747836113
1761505489260148700,3.576148681640625,-0.0065015750005841255,0.018842663615942,-0.02159690484404564
1761505489270185700,3.586185791015625,-0.0068206219002604485,-0.007003048434853554,-0.007202785462141037
1761505489280221700,3.5962216796875,-0.01332725677639246,-0.010791394859552383,0.006616357248276472
1761505489290257700,3.606257568359375,-0.01835929974913597,-0.009223858825862408,0.00660543842241168
1761505489300293600,3.616293701171875,-0.04023583605885506,-0.02153884805738926,0.004317250568419695
1761505489310329600,3.62632958984375,-0.05798979848623276,-0.027893416583538055,0.022398782894015312
1761505489320365600,3.636365478515625,-0.066778764128685,0.007528489921241999,0.05465871840715408
1761505489330401500,3.646401611328125,-0.06657423079013824,0.03545119985938072,0.07248884439468384
1761505489340437800,3.656437744140625,-0.055062185972929,0.06160663813352585,0.04990444332361221
1761505489350474800,3.666474853515625,-0.03621260076761246,0.04957367852330208,-0.001192829804494977
1761505489360510700,3.6765107421875,-0.015658587217330933,0.024642495438456535,-0.05420651286840439
1761505489370547000,3.686546875,-0.00013555490295402706,-0.008932508528232574,-0.07335969805717468
1761505489380583000,3.6965830078125,-0.0041089910082519054,-0.049141980707645416,-0.047697216272354126
1761505489390619000,3.706618896484375,-0.011439342051744461,-0.059667591005563736,-0.010862234979867935
1761505489400654800,3.71665478515625,-0.01654355600476265,-0.05432608723640442,0.002347310073673725
1761505489410690800,3.72669091796875,-0.0029172266367822886,-0.046184271574020386,-0.018062889575958252
1761505489420726800,3.736726806640625,0.010841729119420052,-0.028313929215073586,-0.05131165683269501
1761505489430763800,3.746763671875,0.022701850160956383,-0.0246635340154171,-0.08169832825660706
1761505489440799700,3.7567998046875,0.02899276837706566,-0.04461007937788963,-0.09660350531339645
1761505489450835700,3.766835693359375,0.025530394166707993,-0.09039993584156036,-0.08640492707490921
1761505489460871700,3.77687158203125,0.009257680736482143,-0.11046818643808365,-0.04090775176882744
1761505489470907600,3.78690771484375,-0.008323975838720798,-0.07647080719470978,0.01866156794130802
1761505489480943600,3.796943603515625,-0.01846635900437832,-0.014087323099374771,0.04807378724217415
1761505489490979600,3.8069794921875,-0.023245934396982193,0.04914384335279465,0.06442426145076752
1761505489501015600,3.817015625,-0.02322196587920189,0.09264951199293137,0.06514304876327515
1761505489511052800,3.827052734375,-0.021998776122927666,0.11823210120201111,0.06725414097309113
1761505489521088800,3.8370888671875,-0.01956171728670597,0.10827267915010452,0.06130383908748627
1761505489531124700,3.847124755859375,-0.018014686182141304,0.05048155039548874,0.05181632563471794
1761505489541160700,3.85716064453125,-0.009911486878991127,0.0001608549355296418,0.049436792731285095
1761505489551197000,3.867197021484375,-0.0019068233668804169,-0.030974959954619408,0.041546378284692764
1761505489561233000,3.87723291015625,-0.0012090750969946384,-0.04171575605869293,0.02954457700252533
1761505489571268900,3.887268798828125,-0.001252750982530415,-0.034691400825977325,0.014480671845376492
1761505489581304800,3.897304931640625,-0.002689260058104992,-0.007532484829425812,0.006155364215373993
1761505489591341800,3.907341796875,0.0012152004055678844,0.014640994369983673,0.0024085629265755415
1761505489601376800,3.917376708984375,0.0016053534345701337,0.003733751829713583,0.011364507488906384
1761505489611412700,3.927412841796875,0.007895207032561302,0.0017496967921033502,0.02568698674440384
1761505489621448700,3.93744873046875,0.013194631785154343,0.006491721607744694,0.03573429584503174
1761505489631484700,3.947484619140625,0.006225138902664185,0.0010351707460358739,0.026449983939528465
1761505489641520600,3.957520751953125,-0.001731320982798934,0.005072522908449173,0.012345349416136742
1761505489651556600,3.967556640625,-0.020840832963585854,0.006542321294546127,-0.006352171767503023
1761505489661592800,3.9775927734375,-0.02791312336921692,-0.0007613977650180459,-0.02118225023150444
1761505489671628800,3.98762890625,-0.027842549607157707,0.009638778865337372,-0.018390990793704987
1761505489681665500,3.99766552734375,-0.024807345122098923,0.02280997484922409,0.00854608416557312
1761505489691701800,4.00770166015625,-0.018140921369194984,0.00777643034234643,0.04025581106543541
1761505489701735700,4.017735595703125,-0.007029946427792311,-0.00381417921744287,0.05882949382066727
1761505489711771600,4.027771728515625,0.0054490938782691956,-0.002073803450912237,0.05097370222210884
1761505489721808600,4.03780859375,0.009887518361210823,-0.020179037004709244,0.023800671100616455
1761505489731844600,4.0478447265625,0.011626295745372772,-0.026679014787077904,0.008166050538420677
1761505489741880600,4.057880615234375,-0.0015033544041216373,-0.002639725338667631,0.006648048758506775
1761505489751916500,4.06791650390625,-0.013432984240353107,0.01804371550679207,-0.012603143230080605
1761505489761952500,4.077952392578125,-0.02033696323633194,0.01780269853770733,-0.041614290326833725
1761505489771988700,4.08798876953125,-0.0229167677462101,0.019389675930142403,-0.05754851549863815
1761505489782024700,4.098024658203125,-0.027393540367484093,0.015122493728995323,-0.061048440635204315
1761505489792060700,4.108060791015625,-0.03869040310382843,-0.006322077941149473,-0.05308825150132179
1761505489802098000,4.118097900390625,-0.05216999351978302,-0.03133714944124222,-0.012991165742278099
1761505489812134000,4.1281337890625,-0.05850778520107269,-0.02466939389705658,0.04418077692389488
1761505489822169900,4.138169921875,-0.05209062993526459,0.002132925670593977,0.08935917168855667
1761505489832205800,4.148205810546875,-0.03886404260993004,0.009276323020458221,0.09942591935396194
1761505489842241800,4.15824169921875,-0.019231751561164856,0.01695980876684189,0.08288955688476562
1761505489852277800,4.16827783203125,-0.008096808567643166,0.020301809534430504,0.05052921921014786
1761505489862313700,4.178313720703125,0.0036549223586916924,0.02166428230702877,0.0008916263468563557
1761505489872349700,4.188349609375,0.006842193193733692,0.016812268644571304,-0.05908622220158577
1761505489882385700,4.1983857421875,0.0144082335755229,-0.01381062064319849,-0.10609101504087448
1761505489892422700,4.208422607421875,0.01101749762892723,-0.06059916317462921,-0.11376331746578217
1761505489902458600,4.218458740234375,-0.008597216568887234,-0.09773214906454086,-0.08165145665407181
1761505489912494600,4.22849462890625,-0.02491387166082859,-0.12360981851816177,-0.017883924767374992
1761505489922530600,4.238530517578125,-0.027958130463957787,-0.07656507939100266,0.05721348896622658
1761505489932566500,4.24856640625,-0.01745275966823101,-0.0030045784078538418,0.08574286848306656
1761505489942602800,4.258602783203125,-0.010430004447698593,0.044081974774599075,0.07197645306587219
1761505489952638700,4.268638671875,-0.004824049770832062,0.06279067695140839,0.040101613849401474
1761505489962674700,4.2786748046875,-0.0070861391723155975,0.07500047236680984,0.02773469127714634
1761505489972710700,4.288710693359375,-0.009884588420391083,0.05927504226565361,0.03651699796319008
1761505489982748000,4.298747802734375,-0.005351622123271227,0.02112286165356636,0.04271683841943741
1761505489992784000,4.308783935546875,0.009278719313442707,0.013109942898154259,0.03580886498093605
1761505490002819800,4.31881982421875,0.020915668457746506,0.014680941589176655,0.007525027729570866
1761505490012855800,4.328855712890625,0.016824519261717796,0.023079220205545425,-0.024706145748496056
1761505490022891800,4.338891845703125,-0.00415399856865406,0.01338984165340662,-0.036737240850925446
1761505490032927700,4.348927734375,-0.024992167949676514,-0.019476229324936867,-0.023840084671974182
1761505490042963700,4.358963623046875,-0.03947124257683754,-0.018913237378001213,0.01703730598092079
1761505490052999700,4.368999755859375,-0.0488775260746479,-0.005124987103044987,0.043788228183984756
1761505490063036700,4.37903662109375,-0.04478131979703903,-0.016692694276571274,0.0466492623090744
1761505490073072600,4.38907275390625,-0.03329190984368324,0.0013741911388933659,0.034396857023239136
1761505490083108600,4.399108642578125,-0.01938168704509735,0.01684236340224743,0.006007825024425983
1761505490093144600,4.40914453125,-0.008317052386701107,0.021767612546682358,-0.03428473696112633
1761505490103180500,4.4191806640625,0.00003062635369133204,0.006301837973296642,-0.06343117356300354
1761505490113216500,4.429216552734375,0.009345032274723053,-0.022365227341651917,-0.05444726347923279
1761505490123252700,4.439252685546875,0.00899828877300024,-0.026938939467072487,-0.03377047926187515
1761505490133288700,4.449288818359375,-0.0023252058308571577,-0.03307246416807175,-0.017436247318983078
1761505490143324700,4.45932470703125,-0.011998605914413929,-0.021283717826008797,0.010027067735791206
1761505490153362000,4.46936181640625,-0.020065587013959885,0.010192183777689934,0.045761894434690475
1761505490163398000,4.47939794921875,-0.02834029495716095,0.03152676671743393,0.06888079643249512
1761505490173433900,4.489433837890625,-0.030546722933650017,0.0479065403342247,0.04734914004802704
1761505490183469800,4.4994697265625,-0.025081917643547058,0.0578361339867115,0.016585901379585266
1761505490193505800,4.509505859375,-0.020780645310878754,0.028562668710947037,-0.011493138037621975
1761505490203541800,4.519541748046875,-0.023617178201675415,-0.013483584858477116,-0.020685303956270218
1761505490213577700,4.52957763671875,-0.01871030405163765,-0.02165762521326542,-0.019877567887306213
1761505490223613700,4.53961376953125,-0.011227088049054146,-0.029386917129158974,-0.020005932077765465
1761505490233650700,4.549650634765625,-0.0071007865481078625,-0.040531449019908905,-0.0025995115283876657
1761505490243686700,4.559686767578125,-0.01702825166285038,-0.030298251658678055,0.020181700587272644
1761505490253722600,4.56972265625,-0.020198212936520576,-0.017659686505794525,0.047078561037778854
1761505490263758600,4.579758544921875,-0.02340013161301613,0.0009387642494402826,0.07183238118886948
1761505490273794600,4.589794677734375,-0.02110901288688183,0.0029912625905126333,0.08236091583967209
1761505490283830500,4.59983056640625,-0.020624851807951927,-0.008621984161436558,0.07821757346391678
1761505490293866800,4.60986669921875,-0.025749571621418,-0.02720765210688114,0.05969715118408203
1761505490303902700,4.61990283203125,-0.024643827229738235,-0.00549170421436429,0.035470377653837204
1761505490313938700,4.629938720703125,-0.02828703075647354,0.035845350474119186,-0.005150021053850651
1761505490323975700,4.6399755859375,-0.026394855231046677,0.06509644538164139,-0.05896797776222229
1761505490334012000,4.650011962890625,-0.022463230416178703,0.07785218954086304,-0.08715114742517471
1761505490344047900,4.6600478515625,-0.014185327105224133,0.050753992050886154,-0.08096462488174438
1761505490354083800,4.670083740234375,-0.007188138086348772,0.006675213109701872,-0.04821280390024185
1761505490364119800,4.680119873046875,-0.006484530866146088,-0.033314015716314316,0.004965197294950485
1761505490374155800,4.69015576171875,-0.001243696198798716,-0.06160371005535126,0.04970790073275566
1761505490384191700,4.700191650390625,0.003629355924203992,-0.06359601765871048,0.06529991328716278
1761505490394227700,4.710227783203125,0.005894108209758997,-0.04484736546874046,0.05793014541268349
1761505490404263700,4.720263671875,-0.003221093211323023,-0.008591623976826668,0.02737782895565033
1761505490414300700,4.73030078125,-0.013108344748616219,0.045213550329208374,-0.01323937252163887
1761505490424336600,4.740336669921875,-0.02292502298951149,0.0977446660399437,-0.04467000067234039
1761505490434372600,4.75037255859375,-0.028688902035355568,0.11345385760068893,-0.06039410084486008
1761505490444408600,4.76040869140625,-0.028427381068468094,0.08519825339317322,-0.06067719683051109
1761505490454444500,4.770444580078125,-0.01703331246972084,0.036128442734479904,-0.07012715935707092
1761505490464480500,4.78048046875,0.007829426787793636,-0.022000640630722046,-0.06959079205989838
1761505490474516700,4.790516845703125,0.017723869532346725,-0.07441165298223495,-0.04783143848180771
1761505490484552700,4.800552734375,0.0062403189949691296,-0.09916999191045761,0.010426541790366173
1761505490494589700,4.810589599609375,-0.009253951720893383,-0.07825086265802383,0.062002651393413544
1761505490504626000,4.8206259765625,-0.022603845223784447,-0.04130003601312637,0.07666042447090149
1761505490514662000,4.830661865234375,-0.03746641427278519,-0.0033683660440146923,0.04186515882611275
1761505490524697900,4.84069775390625,-0.0411173440515995,0.03112223371863365,-0.021290374919772148
1761505490534733800,4.85073388671875,-0.03212837502360344,0.06582721322774887,-0.08451595157384872
1761505490544769800,4.860769775390625,-0.03247858211398125,0.08253136277198792,-0.11103011667728424
1761505490554805800,4.8708056640625,-0.04079057276248932,0.06963234394788742,-0.09442450851202011
1761505490564841700,4.880841796875,-0.03827814757823944,0.039135418832302094,-0.06028624251484871
1761505490574877700,4.890877685546875,-0.032944366335868835,-0.00615323381498456,-0.017659686505794525
1761505490584914700,4.900914794921875,-0.030853785574436188,-0.009823868982493877,0.02317536063492298
1761505490594950700,4.91095068359375,-0.031569112092256546,-0.020849354565143585,0.035468779504299164
1761505490604987400,4.9209873046875,-0.023807594552636147,-0.0344887338578701,0.02636236511170864
1761505490615023400,4.9310234375,-0.012975187040865421,-0.02449895069003105,0.013530456461012363
1761505490625059300,4.941059326171875,-0.006080529186874628,-0.005371329374611378,0.000892425247002393
1761505490635095300,4.95109521484375,-0.003171292133629322,-0.002540922025218606,0.00538571085780859
1761505490645131300,4.96113134765625,-0.00210735946893692,0.018264757469296455,0.004520449787378311
1761505490655167200,4.971167236328125,-0.007369765546172857,0.035893820226192474,0.0001661812566453591
1761505490665204500,4.98120458984375,-0.014537929557263851,0.032156605273485184,0.0018788601737469435
1761505490675240400,4.991240478515625,-0.0132686672732234,0.0051777176558971405,0.02605556882917881
1761505490685276400,5.0012763671875,-0.00914556160569191,-0.009369533509016037,0.06696731597185135
1761505490695312400,5.0113125,-0.009243565611541271,-0.021152956411242485,0.0928332656621933
1761505490705348600,5.0213486328125,-0.005379052832722664,-0.015033277682960033,0.08025622367858887
1761505490715384600,5.031384521484375,0.0012221246724948287,0.020299412310123444,0.04520769044756889
1761505490725420500,5.041420654296875,0.007822236977517605,0.04228939861059189,-0.0032567796297371387
1761505490735456500,5.05145654296875,0.008347145281732082,0.04013650119304657,-0.045088913291692734
1761505490745492500,5.061492431640625,0.010939200408756733,0.010875817388296127,-0.07931346446275711
1761505490755529500,5.071529541015625,0.014464426785707474,-0.026738669723272324,-0.11581102013587952
1761505490765565400,5.0815654296875,0.008504805155098438,-0.07409180700778961,-0.13791126012802124
1761505490775601400,5.091601318359375,-0.009165534749627113,-0.07239723205566406,-0.13338255882263184
1761505490785637400,5.101637451171875,-0.03148708492517471,-0.063285231590271,-0.09198558330535889
1761505490795673300,5.11167333984375,-0.046495065093040466,-0.01895691268146038,-0.0021901836153119802
1761505490805709300,5.121709228515625,-0.04759228602051735,0.05765211209654808,0.0746752992272377
1761505490815745300,5.131745361328125,-0.03208736330270767,0.06478964537382126,0.0933975949883461
1761505490825781200,5.14178125,-0.005818208213895559,0.04578586295247078,0.0868520736694336
1761505490835817500,5.1518173828125,0.026026541367173195,0.04129497706890106,0.0663934051990509
1761505490845854500,5.1618544921875,0.040941040962934494,0.034748658537864685,0.03141890838742256
1761505490855890400,5.171890380859375,0.025425732135772705,0.03309030830860138,-0.006506635341793299
1761505490865926400,5.181926513671875,0.005590774118900299,0.04194958135485649,-0.0450042262673378
1761505490875962400,5.19196240234375,-0.006220079027116299,0.03609568625688553,-0.07016950100660324
1761505490885998600,5.20199853515625,-0.01588176190853119,0.0022921827621757984,-0.0714012160897255
1761505490896034600,5.21203466796875,-0.015842879191040993,-0.05191938951611519,-0.04158366098999977
1761505490906070500,5.222070556640625,-0.005593703594058752,-0.08142934739589691,0.0037057886365801096
1761505490916106500,5.2321064453125,0.006900516804307699,-0.05536019429564476,0.026496855542063713
1761505490926142500,5.242142578125,0.014905712567269802,-0.003923901356756687,0.02352050505578518
1761505490936179500,5.252179443359375,0.010428939014673233,0.039083752781152725,0.014522217214107513
1761505490946215400,5.26221533203125,-0.003484213724732399,0.061280932277441025,0.025665149092674255
1761505490956251400,5.27225146484375,-0.0031814121175557375,0.05492743104696274,0.05351116135716438
1761505490966287400,5.282287353515625,0.008754076436161995,0.021391840651631355,0.09011391550302505
1761505490976323300,5.2923232421875,0.01846342906355858,0.005671733990311623,0.10854192078113556
1761505490986359300,5.302359375,0.018517758697271347,0.0014554174849763513,0.10315008461475372
1761505490996395300,5.312395263671875,0.01576857641339302,0.005536711774766445,0.0647270679473877
1761505491006431200,5.32243115234375,0.003840544493868947,0.016640229150652885,0.028868665918707848
1761505491016467500,5.332467529296875,-0.012563995085656643,0.0024559672456234694,0.005282380152493715
1761505491026504400,5.34250439453125,-0.027223099023103714,-0.011217767372727394,0.006913299672305584
1761505491036540400,5.35254052734375,-0.0320865623652935,-0.012885704636573792,0.013348029926419258
1761505491046576400,5.362576416015625,-0.02827584557235241,-0.020713267847895622,0.007424360606819391
1761505491056612600,5.372612548828125,-0.0177539624273777,-0.015089737251400948,-0.010411362163722515
1761505491066648600,5.382648681640625,-0.006905843038111925,-0.012793026864528656,-0.03417181968688965
1761505491076684500,5.3926845703125,0.007782822009176016,-0.02166907675564289,-0.03904487192630768
1761505491086720500,5.402720458984375,0.006223541218787432,-0.043597809970378876,-0.02189890667796135
1761505491096756500,5.412756591796875,0.007727428339421749,-0.06313582509756088,0.018935607746243477
1761505491106793500,5.42279345703125,0.002394714392721653,-0.07955022156238556,0.05061018094420433
1761505491116829400,5.432829345703125,-0.014282266609370708,-0.06792259216308594,0.055776447057724
1761505491126865400,5.442865478515625,-0.02389574609696865,-0.029198631644248962,0.024571655318140984
1761505491136901400,5.4529013671875,-0.035477831959724426,0.025070732459425926,-0.020067984238266945
1761505491146937300,5.462937255859375,-0.039269909262657166,0.06867040693759918,-0.051852013915777206
1761505491156973300,5.472973388671875,-0.04416346549987793,0.0782436728477478,-0.05859566852450371
1761505491167009300,5.48300927734375,-0.044554419815540314,0.031385887414216995,-0.03869359940290451
1761505491177045200,5.493045166015625,-0.032344356179237366,-0.04083824157714844,0.00794660672545433
1761505491187081500,5.50308154296875,-0.019113507121801376,-0.07557465136051178,0.06015921011567116
1761505491197117400,5.513117431640625,-0.01158688124269247,-0.06670313328504562,0.08826354891061783
1761505491207154400,5.523154541015625,-0.007427023723721504,-0.03138961270451546,0.07533097267150879
1761505491217190400,5.5331904296875,-0.010953049175441265,0.01894386298954487,0.04914117977023125
1761505491227226400,5.543226318359375,-0.015960857272148132,0.048236504197120667,0.031899344176054
1761505491237262600,5.5532626953125,-0.02821991965174675,0.06275312602519989,0.031439416110515594
1761505491247298600,5.563298583984375,-0.027658259496092796,0.0645236000418663,0.025672873482108116
1761505491257334500,5.57333447265625,-0.029208485037088394,0.047922518104314804,0.0009299758239649236
1761505491267370500,5.58337060546875,-0.02900209091603756,0.013041233643889427,-0.03057442046701908
1761505491277406500,5.593406494140625,-0.03111877106130123,-0.011570369824767113,-0.05550107732415199
1761505491287442400,5.6034423828125,-0.03304370492696762,-0.03209242224693298,-0.057552240788936615
1761505491297479400,5.6134794921875,-0.041076596826314926,-0.05279317498207092,-0.038189198821783066
1761505491307515400,5.623515380859375,-0.04700079932808876,-0.04675738513469696,0.013875601813197136
1761505491317551400,5.63355126953125,-0.04549771174788475,-0.007986021228134632,0.06918705999851227
1761505491327587300,5.64358740234375,-0.0431317575275898,0.008007059805095196,0.0879407748579979
1761505491337623300,5.653623291015625,-0.030527548864483833,0.005629123654216528,0.08470503240823746
1761505491347659300,5.6636591796875,-0.009126919321715832,0.01410756353288889,0.0659278854727745
1761505491357695200,5.6736953125,0.009880593977868557,-0.002889263443648815,0.031037278473377228
1761505491367731500,5.6837314453125,0.010655307210981846,-0.04501381516456604,-0.028188228607177734
1761505491377767700,5.693767578125,-0.004179831128567457,-0.07665669173002243,-0.09320291131734848
1761505491387804400,5.703804443359375,-0.03408127278089523,-0.08444803953170776,-0.1513357311487198
1761505491397840400,5.71384033203125,-0.06714387983083725,-0.05867982283234596,-0.18957285583019257
1761505491407876600,5.723876708984375,-0.09062284231185913,-0.017198694869875908,-0.20193764567375183
1761505491417912600,5.73391259765625,-0.09528417140245438,0.02088956907391548,-0.17272384464740753
1761505491427948500,5.743948486328125,-0.09184789657592773,0.02538178861141205,-0.10453386604785919
1761505491437984500,5.753984619140625,-0.0752745121717453,0.008218248374760151,-0.022757243365049362
1761505491448020500,5.7640205078125,-0.05477270111441612,-0.013706757687032223,0.037034716457128525
1761505491458056400,5.774056396484375,-0.02827824279665947,-0.02394847571849823,0.06591963022947311
1761505491468092400,5.784092529296875,-0.016326243057847023,-0.015217036008834839,0.06596995890140533
1761505491478129400,5.79412939453125,-0.012259063310921192,-0.004294879734516144,0.052394233644008636
1761505491488165400,5.804165283203125,-0.0150388702750206,0.00814767461270094,0.04038390889763832
1761505491498201300,5.814201416015625,-0.01338478084653616,0.0018793927738443017,0.036139894276857376
1761505491508237300,5.8242373046875,-0.01113307848572731,0.014538195915520191,0.04099590331315994
1761505491518273300,5.834273193359375,-0.016383234411478043,0.020189955830574036,0.043110452592372894
1761505491528309200,5.844309326171875,-0.025484854355454445,0.023430490866303444,0.034150779247283936
1761505491538345500,5.854345458984375,-0.031063644215464592,0.020560136064887047,0.027906732633709908
1761505491548381400,5.86438134765625,-0.03134247660636902,0.011679559014737606,0.03013846091926098
1761505491558417700,5.874417724609375,-0.029951507225632668,-0.0032285500783473253,0.031249266117811203
1761505491568453600,5.88445361328125,-0.02177693508565426,-0.02870834432542324,0.023687485605478287
1761505491578490400,5.894490478515625,-0.00857244897633791,-0.016819460317492485,0.019587550312280655
1761505491588526600,5.904526611328125,0.008518386632204056,0.011062771081924438,0.0072866748087108135
1761505491598562300,5.914562255859375,0.020671723410487175,0.03307672590017319,-0.01745622232556343
1761505491608598300,5.924598388671875,0.03220507502555847,0.03924540802836418,-0.04381672292947769
1761505491618634200,5.93463427734375,0.033612288534641266,-0.011856126599013805,-0.0412805937230587
1761505491628670200,5.944670166015625,0.01623915694653988,-0.07521672546863556,0.016890300437808037
1761505491638706400,5.95470654296875,0.015026353299617767,-0.06483358889818192,0.08531676232814789
1761505491648742400,5.964742431640625,0.026440395042300224,-0.034339066594839096,0.0981217697262764
1761505491658778400,5.9747783203125,0.04366732016205788,0.009213471785187721,0.06387511640787125
1761505491668815400,5.9848154296875,0.05331382155418396,0.047271374613046646,0.02280092053115368
1761505491678851300,5.994851318359375,0.05083362013101578,0.03262132778763771,0.013862019404768944
1761505491688887300,6.00488720703125,0.04977820813655853,0.005505552981048822,0.037571609020233154
1761505491698923300,6.01492333984375,0.0551370233297348,-0.0043622576631605625,0.07383614033460617
1761505491708959200,6.024959228515625,0.05324351415038109,0.011456652544438839,0.09722135961055756
1761505491718995500,6.034995361328125,0.054070957005023956,0.054729025810956955,0.08634953200817108
1761505491729031400,6.045031494140625,0.06232729181647301,0.09508656710386276,0.04926874488592148
1761505491739067400,6.0550673828125,0.06594918668270111,0.09418029338121414,0.008083492517471313
1761505491749103400,6.065103271484375,0.05109674111008644,0.04326944425702095,-0.020952953025698662
1761505491759139300,6.075139404296875,0.020787304267287254,-0.02755705825984478,-0.012174907140433788
1761505491769176300,6.08517626953125,0.0016197345685213804,-0.05072922259569168,0.013954964466392994
1761505491779212300,6.09521240234375,0.002671683207154274,-0.04440741240978241,0.025018533691763878
1761505491789248300,6.105248291015625,0.011708853766322136,-0.015895875170826912,0.021861089393496513
1761505491799284200,6.1152841796875,0.011111507192254066,-0.0002402171230642125,0.014002367854118347
1761505491809320400,6.125320556640625,0.007198524195700884,0.007704791147261858,0.017883658409118652
1761505491819356400,6.1353564453125,0.0010527475969865918,0.028812739998102188,0.037572942674160004
1761505491829392400,6.145392333984375,0.0009595369338057935,0.04457705467939377,0.050274357199668884
1761505491839428400,6.155428466796875,-0.000022370553779182956,0.043772514909505844,0.048475656658411026
1761505491849464300,6.16546435546875,-0.005634982604533434,0.021648304536938667,0.03656679764389992
1761505491859500300,6.175500244140625,-0.0019531622529029846,0.01836009882390499,0.018379539251327515
1761505491869537300,6.185537353515625,-0.0021883193403482437,0.02369893714785576,-0.0062637547962367535
1761505491879573200,6.1955732421875,-0.01212990004569292,0.022340459749102592,-0.03459552675485611
1761505491889609200,6.205609130859375,-0.0300790723413229,0.0002937466779258102,-0.05047329515218735
1761505491899645400,6.2156455078125,-0.04555869475007057,-0.017616810277104378,-0.045884136110544205
1761505491909681400,6.225681396484375,-0.03807467967271805,-0.03430631011724472,-0.036072783172130585
1761505491919717400,6.23571728515625,-0.014516890980303288,-0.04495256021618843,-0.016997093334794044
1761505491929753300,6.24575341796875,0.008392686024308205,-0.05071484297513962,-0.003285009181126952
1761505491939789300,6.255789306640625,0.023969247937202454,-0.07408221811056137,0.008019576780498028
1761505491949825300,6.2658251953125,0.017663681879639626,-0.07928816229104996,0.019655993208289146
1761505491959861200,6.275861328125,0.012521650642156601,-0.07366649806499481,0.022541794925928116
1761505491969898200,6.285898193359375,0.015415441244840622,-0.0453198105096817,0.015078818425536156
1761505491979934200,6.295934326171875,0.005020857788622379,0.000720118754543364,-0.004342816770076752
1761505491989970400,6.305970458984375,-0.01073786523193121,0.02088078111410141,-0.01913934014737606
1761505492000006400,6.31600634765625,-0.025069933384656906,0.01944666914641857,-0.028853219002485275
1761505492010042400,6.32604248046875,-0.0319582000374794,0.002528937766328454,-0.04002970829606056
1761505492020078300,6.336078369140625,-0.024635838344693184,-0.035964660346508026,-0.046484678983688354
1761505492030114300,6.3461142578125,-0.019296465441584587,-0.05097024142742157,-0.03567943349480629
1761505492040150500,6.356150634765625,-0.01805383525788784,-0.06452732533216476,-0.016882842406630516
1761505492050186500,6.3661865234375,-0.014698518440127373,-0.05595754086971283,0.0022796657867729664
1761505492060222500,6.376222412109375,-0.005957757588475943,-0.022433670237660408,0.015845276415348053
1761505492070258400,6.386258544921875,0.009353553876280785,-0.010914432816207409,0.018639996647834778
1761505492080295400,6.39629541015625,0.017243169248104095,-0.0168484877794981,0.023578297346830368
1761505492090331400,6.406331298828125,0.01780216582119465,-0.024983113631606102,0.034513503313064575
1761505492100367400,6.416367431640625,0.014847389422357082,-0.030375748872756958,0.03202690929174423
1761505492110403300,6.4264033203125,0.0035388083197176456,-0.030724888667464256,0.007364439312368631
1761505492120439300,6.436439208984375,-0.01489612553268671,-0.032040756195783615,-0.02877199277281761
1761505492130475300,6.446475341796875,-0.03392867371439934,-0.021856296807527542,-0.0575125627219677
1761505492140511200,6.45651123046875,-0.04640664532780647,-0.018022410571575165,-0.0558968223631382
1761505492150547200,6.466547119140625,-0.06058451905846596,-0.01565033197402954,-0.02251542918384075
1761505492160583200,6.476583251953125,-0.06349535286426544,0.001859152689576149,0.022402776405215263
1761505492170619100,6.486619140625,-0.050698332488536835,0.02208000235259533,0.058288075029850006
1761505492180655400,6.4966552734375,-0.03671673685312271,0.03537822887301445,0.0540456585586071
1761505492190692400,6.5066923828125,-0.024236630648374557,0.03393666073679924,0.03199761360883713
1761505492200728300,6.516728271484375,-0.009426524862647057,0.024659806862473488,0.015266304835677147
1761505492210764300,6.526764404296875,0.005618737079203129,0.006653375457972288,-0.004837099462747574
1761505492220800500,6.536800537109375,0.00863157119601965,-0.002311357529833913,-0.024090422317385674
1761505492230836500,6.54683642578125,0.004228567238897085,-0.01263856329023838,-0.031155789270997047
1761505492240872400,6.55687255859375,-0.0005478122038766742,-0.016523316502571106,-0.024479243904352188
1761505492250908400,6.566908447265625,-0.009340238757431507,-0.0242555383592844,-0.014721155166625977
1761505492260944400,6.5769443359375,-0.023489346727728844,-0.05034945532679558,-0.011366371065378189
1761505492270980400,6.58698046875,-0.02696450613439083,-0.04959471523761749,-0.006913299672305584
1761505492281016300,6.597016357421875,-0.0174450371414423,-0.01571504771709442,-0.010907242074608803
1761505492291053300,6.60705322265625,-0.00765738682821393,0.006112221162766218,-0.018642660230398178
1761505492301089300,6.61708935546875,-0.007999869994819164,0.028294755145907402,-0.0099623529240489
1761505492311125200,6.627125244140625,-0.008913599886000156,0.03945925831794739,0.01321167591959238
1761505492321161200,6.6371611328125,-0.0073628416284918785,0.037096235901117325,0.024451280012726784
1761505492331197200,6.647197265625,-0.003787015099078417,0.03730476275086403,0.03807121887803078
1761505492341233200,6.657233154296875,-0.002213885774835944,0.04300738871097565,0.036973465234041214
1761505492351269000,6.66726904296875,-0.0017299894243478775,0.02997334487736225,0.014824752695858479
1761505492361305300,6.677305419921875,0.0026519757229834795,0.002168079372495413,-0.0165568720549345
1761505492371341300,6.68734130859375,-0.000055926382628967986,-0.03899506852030754,-0.029891319572925568
1761505492381377300,6.697377197265625,0.002273540711030364,-0.06928053498268127,-0.023448068648576736
1761505492391413500,6.70741357421875,-0.0006095975404605269,-0.08755940943956375,-0.006656837183982134
1761505492401450500,6.717450439453125,-0.002007490722462535,-0.06792152673006058,0.02034388668835163
1761505492411486500,6.727486572265625,-0.011243865825235844,-0.01835557073354721,0.03963529318571091
1761505492421522400,6.7375224609375,-0.009503490291535854,0.031438082456588745,0.039678703993558884
1761505492431558400,6.747558349609375,-0.014099307358264923,0.06672390550374985,0.03190120682120323
1761505492441594400,6.757594482421875,-0.02973153069615364,0.07472297549247742,0.029317142441868782
1761505492451630300,6.76763037109375,-0.04149764031171799,0.06160077825188637,0.028557077050209045
1761505492461666300,6.777666259765625,-0.031689487397670746,0.01776115410029888,0.04038124531507492
1761505492471702300,6.787702392578125,-0.026860376819968224,-0.014901984483003616,0.049488723278045654
1761505492481738200,6.79773828125,-0.022182533517479897,-0.016697753220796585,0.0405397042632103
1761505492491774200,6.807774169921875,-0.011030546389520168,0.006894125137478113,0.011067298240959644
1761505492501810400,6.817810546875,-0.002463157754391432,0.05264563485980034,-0.01480264775454998
1761505492511847200,6.82784716796875,-0.014712100848555565,0.057498447597026825,-0.019306853413581848
1761505492521883100,6.837883056640625,-0.027103522792458534,0.031313713639974594,0.0036506610922515392
1761505492531919400,6.84791943359375,-0.03266580030322075,-0.0017725999932736158,0.04015114903450012
1761505492541955300,6.857955322265625,-0.03315076231956482,-0.01654302328824997,0.06100822612643242
1761505492551991300,6.8679912109375,-0.029856698587536812,-0.009133843705058098,0.05536898225545883
1761505492562027300,6.87802734375,-0.028796494007110596,0.01629827916622162,0.02329067513346672
1761505492572063500,6.8880634765625,-0.020049607381224632,0.0370781272649765,-0.019748937338590622
1761505492582099500,6.898099365234375,-0.009427057579159737,0.025897111743688583,-0.05482489988207817
1761505492592135400,6.908135498046875,-0.0038152446504682302,-0.016923589631915092,-0.05284617096185684
1761505492602171000,6.9181708984375,-0.0036397422663867474,-0.053404368460178375,-0.020592093467712402
1761505492612206800,6.928206787109375,0.002153698354959488,-0.07972864806652069,0.016172844916582108
1761505492622242800,6.938242919921875,0.011059575714170933,-0.07688385993242264,0.03677985072135925
1761505492632280000,6.948280029296875,0.017426127567887306,-0.03512043505907059,0.041193507611751556
1761505492642316000,6.95831591796875,0.02274818904697895,0.00836685299873352,0.020552946254611015
1761505492652352000,6.96835205078125,0.030306773260235786,0.03395610302686691,-0.002796319080516696
1761505492662388000,6.978387939453125,0.029991721734404564,0.012325641699135303,-0.012523781508207321
1761505492672424200,6.988424072265625,0.021799305453896523,-0.016050605103373528,-0.005600361619144678
1761505492682460200,6.998460205078125,0.012799684889614582,-0.023303724825382233,-0.0020130835473537445
1761505492692496100,7.00849609375,0.006333795841783285,-0.012052135542035103,-0.014244182966649532
1761505492702532000,7.018531982421875,-0.017046628519892693,0.005216067191213369,-0.03137177228927612
1761505492712568000,7.028568115234375,-0.03665788099169731,0.023260315880179405,-0.04349341616034508
1761505492722604000,7.03860400390625,-0.04126514866948128,0.046302784234285355,-0.03816762566566467
1761505492732640000,7.048639892578125,-0.035172101110219955,0.05164295434951782,-0.024637969210743904
1761505492742677000,7.058677001953125,-0.026558106765151024,0.013314207084476948,-0.007398527581244707
1761505492752713000,7.068712890625,-0.025131452828645706,-0.04247795045375824,0.013368003070354462
1761505492762749000,7.0787490234375,-0.016815464943647385,-0.06023937091231346,0.027337081730365753
1761505492772785000,7.088784912109375,-0.010632404126226902,-0.050270628184080124,0.02538711577653885
1761505492782820900,7.09882080078125,-0.007955661043524742,-0.01392859872430563,0.0147445909678936
1761505492792856800,7.10885693359375,-0.011730425991117954,0.010548780672252178,-0.005094626918435097
1761505492802892800,7.118892822265625,-0.016324644908308983,0.03506291285157204,-0.005350290797650814
1761505492812929000,7.128928955078125,-0.027049195021390915,0.04814009740948677,0.003999801818281412
1761505492822965000,7.138965087890625,-0.03652019426226616,0.04453657567501068,0.010018279775977135
1761505492833001000,7.1490009765625,-0.033671941608190536,0.02400067448616028,0.012193549424409866
1761505492843037000,7.159036865234375,-0.026640931144356728,0.005352953914552927,0.012280634604394436
1761505492853073000,7.169072998046875,-0.01660614088177681,0.006015548016875982,0.009324791841208935
1761505492863109000,7.179109130859375,-0.009023322723805904,-0.018212558701634407,0.011034808121621609
1761505492873146000,7.18914599609375,0.0038059235084801912,-0.029991721734404564,0.01912895403802395
1761505492883182000,7.19918212890625,0.003924167715013027,-0.03906111419200897,0.016705211251974106
1761505492893218000,7.209218017578125,-0.0023441144730895758,-0.048466067761182785,0.01549533661454916
1761505492903254000,7.21925390625,-0.00993252545595169,-0.019001120701432228,0.0006860303110443056
1761505492913290000,7.2292900390625,-0.024959677830338478,0.018627213314175606,-0.027520041912794113
1761505492923326000,7.239325927734375,-0.02268054522573948,0.058153316378593445,-0.057974353432655334
1761505492933362000,7.24936181640625,-0.011187140829861164,0.06954631954431534,-0.06496594846248627
1761505492943398000,7.25939794921875,0.005327387247234583,0.06609433144330978,-0.04783197119832039
1761505492953434000,7.26943408203125,0.027787955477833748,0.023314377292990685,-0.023257918655872345
1761505492963470000,7.279469970703125,0.057804711163043976,-0.02250903658568859,0.006433930713683367
1761505492973506000,7.289506103515625,0.07829853147268295,-0.04517759755253792,0.033718280494213104
1761505492983543000,7.29954296875,0.08863212913274765,-0.06517660617828369,0.03881504014134407
1761505492993579000,7.3095791015625,0.0781848132610321,-0.06113019958138466,0.03534041345119476
1761505493003615000,7.319614990234375,0.06349508464336395,-0.02352370135486126,0.014595720916986465
1761505493013651000,7.32965087890625,0.047856204211711884,0.005572930909693241,-0.012564794160425663
1761505493023687000,7.33968701171875,0.019343869760632515,0.018022410571575165,-0.01570998691022396
1761505493033723100,7.34972314453125,-0.006478938274085522,0.04243374243378639,0.008045676164329052
1761505493043759000,7.359759033203125,-0.02377084270119667,0.0461544468998909,0.01623915694653988
1761505493053795000,7.369795166015625,-0.024165257811546326,0.023863254114985466,0.01501250546425581
1761505493063831000,7.3798310546875,-0.021213674917817116,0.012030031532049179,0.005346828605979681
1761505493073867000,7.389866943359375,-0.01853320375084877,-0.02040540613234043,-0.014109160751104355
1761505493083903000,7.399903076171875,-0.011563179083168507,-0.052432846277952194,-0.020017916336655617
1761505493093939000,7.40993896484375,-0.0011030812747776508,-0.058151185512542725,-0.012349610216915607
1761505493103975200,7.41997509765625,0.007191067561507225,-0.055583368986845016,-0.010915498249232769
1761505493114012000,7.430011962890625,0.016567258164286613,-0.05783666670322418,-0.015328888781368732
1761505493124048000,7.4400478515625,0.014162424020469189,-0.05179635062813759,-0.016497749835252762
1761505493134084000,7.450083984375,0.0016205335268750787,-0.03175473213195801,-0.002731071785092354
1761505493144120000,7.4601201171875,-0.010688863694667816,0.002043709857389331,0.005420598201453686
1761505493154156000,7.470156005859375,-0.016175242140889168,0.03199734911322594,0.008592423051595688
1761505493164192000,7.48019189453125,-0.020656542852520943,0.05060458928346634,0.009501892141997814
1761505493174228000,7.49022802734375,-0.03259735926985741,0.037569478154182434,-0.0028642297256737947
1761505493184264000,7.500263916015625,-0.045953378081321716,0.01131044514477253,-0.011660650372505188
1761505493194300000,7.5102998046875,-0.05915839597582817,-0.002276470186188817,-0.00962493009865284
1761505493204335900,7.5203359375,-0.0698872059583664,0.011864649131894112,-0.0015446334145963192
1761505493214371800,7.530371826171875,-0.06446047872304916,0.03622884303331375,-0.007709318771958351
1761505493224407800,7.54040771484375,-0.053402505815029144,0.03828666731715202,-0.022430740296840668
1761505493234445000,7.550445068359375,-0.039030756801366806,0.019158247858285904,-0.032174449414014816
1761505493244481000,7.56048095703125,-0.02912459522485733,0.0006831008358858526,-0.030611705034971237
1761505493254517000,7.57051708984375,-0.010361294262111187,-0.023935159668326378,-0.02238120511174202
1761505493264553000,7.580552978515625,-0.007424094248563051,-0.021078120917081833,-0.007833155803382397
1761505493274589200,7.590589111328125,-0.00708773685619235,-0.011487012729048729,0.00044661210267804563
1761505493284625200,7.600625244140625,-0.012402607128024101,0.010318417102098465,-0.001642637769691646
1761505493294661000,7.6106611328125,-0.017132647335529327,0.03774524852633476,-0.011455320753157139
1761505493304697000,7.620697021484375,-0.027000991627573967,0.07220309227705002,-0.018866632133722305
1761505493314733000,7.630733154296875,-0.046608779579401016,0.05437881872057915,-0.023090405389666557
1761505493324769000,7.64076904296875,-0.06617821753025055,0.0343710221350193,-0.017586717382073402
1761505493334805000,7.650804931640625,-0.07179189473390579,0.04422418773174286,-0.01720481924712658
1761505493344841000,7.660841064453125,-0.07580315321683884,0.04964611679315567,-0.04032771661877632
1761505493354877000,7.670876953125,-0.07304038852453232,0.05385790392756462,-0.06710845977067947
1761505493364913000,7.680912841796875,-0.05543955788016319,0.04096287861466408,-0.08533993363380432
1761505493374950000,7.690949951171875,-0.026502979919314384,-0.006243514828383923,-0.07794619351625443
1761505493384985900,7.70098583984375,0.003614708548411727,-0.06605491787195206,-0.037626203149557114
1761505493395021800,7.711021728515625,0.02833576686680317,-0.10922396183013916,0.021739117801189423
1761505493405057800,7.721057861328125,0.03543255850672722,-0.10905324667692184,0.06458058953285217
1761505493415094000,7.731093994140625,0.037634726613759995,-0.06696252524852753,0.07544895261526108
1761505493425130000,7.7411298828125,0.019569439813494682,0.00344559783115983,0.05360943078994751
1761505493435166000,7.751166015625,-0.010260093957185745,0.06113898754119873,0.02219824679195881
1761505493445202200,7.7612021484375,-0.022281071171164513,0.08389250189065933,-0.010150904767215252
1761505493455238100,7.771238037109375,-0.011500861495733261,0.08735274523496628,-0.040281642228364944
1761505493465274000,7.781274169921875,-0.010820156894624233,0.05540360510349274,-0.06578034162521362
1761505493475310000,7.79131005859375,-0.016324378550052643,0.012567989528179169,-0.07125553488731384
1761505493485346000,7.801345947265625,-0.02544623799622059,-0.03093874081969261,-0.04632382094860077
1761505493495382000,7.811382080078125,-0.025619076564908028,-0.03051583096385002,0.008507734164595604
1761505493505419000,7.8214189453125,-0.024945296347141266,0.009528257884085178,0.05266773700714111
1761505493515455000,7.831455078125,-0.014705709181725979,0.05301022157073021,0.06064710021018982
1761505493525491000,7.841490966796875,-0.006566023454070091,0.07343373447656631,0.04039695858955383
1761505493535527000,7.85152685546875,0.000871652620844543,0.05933576077222824,0.00839881133288145
1761505493545563000,7.86156298828125,-0.0037116475868970156,0.0023310647811740637,-0.014148043468594551
1761505493555598800,7.871598876953125,-0.021159347146749496,-0.039190810173749924,-0.013830328360199928
1761505493565635000,7.881635009765625,-0.040895767509937286,-0.044973865151405334,-0.009048622101545334
1761505493575671000,7.891671142578125,-0.05574369058012962,-0.010178867727518082,-0.013253221288323402
1761505493585707000,7.90170703125,-0.0679076761007309,0.045225534588098526,-0.026879550889134407
1761505493595743000,7.911742919921875,-0.06734974682331085,0.09057757258415222,-0.04697922617197037
1761505493605779700,7.92177978515625,-0.0593075305223465,0.11814288794994354,-0.044133637100458145
1761505493615815700,7.931815673828125,-0.05072442814707756,0.11368928104639053,-0.028676917776465416
1761505493625851600,7.9418515625,-0.05120885744690895,0.05233830586075783,-0.007485879585146904
1761505493635889000,7.951888916015625,-0.040170855820178986,-0.037930604070425034,0.024930650368332863
1761505493645924900,7.9619248046875,-0.03313771262764931,-0.09125161916017532,0.055761002004146576
1761505493655960800,7.9719609375,-0.025671008974313736,-0.09252461045980453,0.06310200691223145
1761505493665996800,7.981996826171875,-0.024105336517095566,-0.04688708111643791,0.037160418927669525
1761505493676032800,7.99203271484375,-0.03928029537200928,0.04185876622796059,0.0013640711549669504
1761505493686068700,8.00206884765625,-0.052499961107969284,0.10775522887706757,-0.026181535795331
1761505493696104700,8.012104736328125,-0.05987425148487091,0.12713956832885742,-0.051603805273771286
1761505493706140700,8.022140625,-0.0694536417722702,0.0979185700416565,-0.05859779939055443
1761505493716176600,8.0321767578125,-0.06523306667804718,0.0401410274207592,-0.05263791233301163
1761505493726212900,8.042212890625,-0.048712942749261856,-0.017344368621706963,-0.026995664462447166
1761505493736248800,8.052248779296875,-0.03008146956562996,-0.05293725058436394,0.013170396909117699
1761505493746284800,8.062284912109375,-0.01582157425582409,-0.06372331827878952,0.04205317795276642
1761505493756320800,8.07232080078125,-0.011491806246340275,-0.021077588200569153,0.04283295199275017
1761505493766356700,8.082356689453125,-0.020975856110453606,0.0990605354309082,-0.012060657143592834
1761505493776392700,8.092392822265625,-0.03971359133720398,0.325282484292984,-0.14393585920333862
1761505493786429700,8.1024296875,-0.08668509125709534,0.5322932004928589,-0.03485172241926193
1761505493796465700,8.112465576171875,-0.09867304563522339,0.23165880143642426,0.02472691796720028
1761505493806502000,8.122501953125,-0.07141505926847458,-0.12616859376430511,0.06613161414861679
1761505493816537900,8.132537841796875,-0.02942127175629139,-0.19515511393547058,0.0327875092625618
1761505493826573800,8.14257373046875,-0.045228198170661926,-0.048584580421447754,-0.06713775545358658
1761505493836609800,8.15260986328125,-0.08991976827383041,0.06367751210927963,-0.1744018942117691
1761505493846645800,8.162645751953125,-0.11417903751134872,0.10493546724319458,-0.2704536020755768
1761505493856681700,8.172681640625,-0.1305454969406128,0.10831981897354126,-0.3462439477443695
1761505493866717700,8.1827177734375,-0.17727172374725342,0.1452448070049286,-0.3701964318752289
1761505493876754000,8.19275390625,-0.25720784068107605,0.07255516201257706,-0.24481400847434998
1761505493886790000,8.202789794921875,-0.27755412459373474,-0.08868566155433655,-0.08234147727489471
