time,seconds_elapsed,z,y,x
1761479824759843300,0.11784326171875,-0.1274742872685194,-0.014982264147046953,0.01792657397063449
1761479824769879300,0.12787939453125,-0.12687456780970097,0.01058342639990151,-0.011279939030390233
1761479824779915300,0.137915283203125,-0.12687164520025251,-0.0035733467084355652,-0.03633086672192439
1761479824789951200,0.147951171875,-0.12731821992397307,-0.0040418227367103095,0.018147084853518753
1761479824799987200,0.1579873046875,-0.12731938896775244,-0.009451755488850177,0.007785429711826145
1761479824810023400,0.1680234375,-0.12402560811936855,0.0028142719694413242,-0.03332962081301957
1761479824820058400,0.178058349609375,-0.13195523207485674,-0.005340338114649057,-0.0025171156537719067
1761479824830094300,0.18809423828125,-0.12776304108202458,-0.005514087246358395,0.019527743823267517
1761479824840130300,0.19813037109375,-0.1274614277869463,-0.013479421836044638,-0.017057444719597695
1761479824850166300,0.208166259765625,-0.12776011847257612,0.003389039650093764,-0.017496859050169587
1761479824860202200,0.2182021484375,-0.1291039342969656,-0.0011517455847002566,0.014399459290411322
1761479824870238200,0.22823828125,-0.12880115195810793,-0.0036599655459634956,-0.010795023323968053
1761479824880274200,0.238274169921875,-0.1305938805937767,-0.011645776668097824,-0.027964659713767468
1761479824890310400,0.248310302734375,-0.12730243783295153,-0.0020777378558181226,0.002937642620783299
1761479824900345300,0.258345458984375,-0.13433540520966053,-0.0034962811505421993,0.004826031916961074
1761479824910381300,0.26838134765625,-0.13343641054332256,-0.007600118006486445,-0.02449680094011128
1761479824920417300,0.278417236328125,-0.12984744614064692,-0.006071757661737501,-0.0070662485918030135
1761479824930453200,0.288453369140625,-0.13493454014658926,-0.007014061746839433,0.012114745886716991
1761479824940489200,0.2984892578125,-0.1344803666383028,-0.00018467238452285527,-0.02418972601862624
1761479824950525200,0.308525146484375,-0.12894377529919146,0.0044321554948575795,-0.03521430204845965
1761479824960561200,0.31856103515625,-0.11907236962616442,-0.006189429224655032,0.009188830236345528
1761479824970596400,0.328596435546875,-0.12206395265758037,-0.00019639935493469238,0.001022767176479101
1761479824980632300,0.33863232421875,-0.12759820590913296,0.002937587821856141,-0.026331834347546098
1761479824990668300,0.348668212890625,-0.12819850988984108,-0.005980974105745554,0.0015584632220678031
1761479825000704300,0.358704345703125,-0.12266133402884005,-0.00596994125507772,0.010220273909624666
1761479825010740200,0.368740234375,-0.12250994285941123,-0.0030570494830608366,-0.018414503618050367
1761479825020776200,0.378776123046875,-0.12266074950695037,-0.0012569777911528943,-0.020297376488894223
1761479825030812200,0.388812255859375,-0.12281681685149669,-0.00906962430346757,0.007751490909606218
1761479825040848100,0.39884814453125,-0.12192191383838653,0.00112321360995993,-0.0030452129147946834
1761479825050883300,0.40888330078125,-0.13434183495044708,-0.004649707235675305,-0.023939715046621856
1761479825060919300,0.418919189453125,-0.12806056272387503,0.008359302343335002,0.008862173831555992
1761479825070955300,0.428955322265625,-0.12088204939663409,-0.0011291318940930067,0.004352331724297255
1761479825080991200,0.4389912109375,-0.12476678187549113,-0.006563705897144973,-0.013446451148204504
1761479825091027200,0.449027099609375,-0.12057868253588676,-0.010227434302773326,-0.009409176722448318
1761479825101063200,0.459063232421875,-0.13060557103157042,-0.006420899892970919,0.013344726073089987
1761479825111099100,0.46909912109375,-0.12117898651659488,-0.0024571838937699794,-0.007363751967344433
1761479825121135400,0.47913525390625,-0.12462182044684886,-0.008122826706338673,-0.021846925752144305
1761479825131170300,0.48917041015625,-0.12956278398036955,-0.0072768956677988165,-0.0008001374017447232
1761479825141206300,0.499206298828125,-0.12956044589281082,-0.0012647227061912416,-0.0027481296643614766
1761479825151242200,0.5092421875,-0.12073299631476402,-0.00025269611943513155,-0.019688268147222698
1761479825161278200,0.5192783203125,-0.1255219841569662,-0.00409711485421285,-0.0014094284065067767
1761479825171314200,0.529314208984375,-0.12896364904344082,0.0027946722198277712,0.0027911650884896513
1761479825181350100,0.53935009765625,-0.12222703426480293,-0.004591748237051069,-0.01586668229876086
1761479825191386400,0.549386474609375,-0.1321101303756237,-0.005451214610598981,-0.014818232691753655
1761479825201422300,0.55942236328125,-0.12657704616785048,-0.003798807761073112,0.004973678493034094
1761479825211458600,0.56945849609375,-0.11969371639490127,0.0014852883880026638,-0.004358724932465702
1761479825221493200,0.5794931640625,-0.1274737027466297,0.0018886267581954598,-0.016493253231886773
1761479825231529200,0.589529296875,-0.12717559658288954,-0.004471464591939002,-0.001189392447657883
1761479825241565400,0.5995654296875,-0.13062193764448166,-0.005177713165152818,0.0023042218217626215
1761479825251601400,0.609601318359375,-0.1328682552665472,-0.0025359299520961937,-0.009045604107063263
1761479825261637400,0.619637451171875,-0.12613865475058555,-0.0003901683613657951,-0.006171710904873907
1761479825271673300,0.62967333984375,-0.12149696642458438,-0.010281192050315439,0.005251655184198171
1761479825281709300,0.639709228515625,-0.12613280953168868,-0.006509454959258437,-0.010197660219017416
1761479825291745500,0.64974560546875,-0.12419219685792922,-0.003215637578256428,-0.017843827590625732
1761479825301780500,0.659780517578125,-0.12150339616537094,-0.0067065484339371316,0.004731522033922374
1761479825311816400,0.66981640625,-0.12793956669270992,-0.003279697524104267,-0.00022325082924216984
1761479825321852400,0.679852294921875,-0.14051204801797865,-0.00447455159816891,-0.0068277636608108875
1761479825331888400,0.689888427734375,-0.12046002459228038,-0.0035947548226453363,0.0036425212208181616
1761479825341924400,0.69992431640625,-0.11521861680746077,-0.009442019546125084,-0.002079765416122973
1761479825351960300,0.709960205078125,-0.13317629830241204,-0.0025690467704087496,-0.01816907748961821
1761479825361996300,0.719996337890625,-0.13198153555989264,-0.003397277755476534,-0.009883662366401404
1761479825372032800,0.73003271484375,-0.12120236739218235,-0.0005912256251089274,-0.0023592947435565293
1761479825382069000,0.740069091796875,-0.12194529471397399,0.002443630292452872,-0.002674863498751074
1761479825392104000,0.75010400390625,-0.11416413931846618,5.662555806338787e-7,-0.020439780634269118
1761479825402140000,0.760139892578125,-0.1207470248401165,-0.004220375907700509,-0.007124426786135882
1761479825412176000,0.77017578125,-0.1255348436385393,-0.003011036650557071,-0.001670088636688888
1761479825422211800,0.7802119140625,-0.12254501417279243,-0.010571644630562513,-0.012787621913291513
1761479825432247800,0.790247802734375,-0.12269348273277282,-0.00024042115975171326,0.005114785730466247
1761479825442283800,0.80028369140625,-0.12583294980227946,-0.007226645051594823,0.0011771722869016229
1761479825452319700,0.81031982421875,-0.1295733053743839,-0.008264171405788511,-0.0063260064174421125
1761479825462356000,0.82035595703125,-0.12807692933678627,-0.007491561331786215,-0.006522131777741014
1761479825472392000,0.830391845703125,-0.12298749724328517,-0.007342362119443714,-0.0078041709449142216
1761479825482428000,0.840427978515625,-0.12223814018070697,-0.01026033192537725,-0.0049605084842070934
1761479825492462800,0.850462890625,-0.1303197398275137,-0.00021311302771791815,-0.010436674872972071
1761479825502498800,0.860498779296875,-0.1282277359843254,-0.0012638093907386065,-0.00710963107580319
1761479825512534800,0.87053466796875,-0.11685294001102446,-0.006569112724624574,-0.0013509031523019075
1761479825522570800,0.88057080078125,-0.13032090887129305,-0.003967223130539059,-0.010361253282893449
1761479825532606700,0.890606689453125,-0.1385492235124111,-0.0009203662479296326,-0.00884825490405783
1761479825542643000,0.900642822265625,-0.12837328193485736,0.0006711224609054625,0.0010427870512008666
1761479825552679000,0.910678955078125,-0.13525953431725501,-0.00787827736074105,-0.013912808284629135
1761479825562715000,0.92071484375,-0.1336123516321182,0.0010324848528951405,-0.010206080987490714
1761479825572750800,0.930750732421875,-0.12358546313643455,-0.005179521529749036,0.005924695607554167
1761479825582785800,0.940785888671875,-0.12642623952031135,0.0010623502681963144,0.0021228921717964112
1761479825592821800,0.95082177734375,-0.12043839728236198,-0.00610779708949849,-0.00608801467679441
1761479825602857700,0.960857666015625,-0.1259708969682455,0.0029454240684397516,-0.015938012235611677
1761479825612893700,0.970893798828125,-0.14108429494798183,-0.0040535679734311995,-0.0005988426759839057
1761479825622930000,0.980929931640625,-0.1262713412195444,0.0005539623546414077,-0.011597809340525417
1761479825632966000,0.9909658203125,-0.12028875967860221,0.00001850377107039094,-0.014481182757113128
1761479825643001900,1.001001953125,-0.13300970956385136,-0.0094745335762389,-0.005025810539070517
1761479825653037800,1.011037841796875,-0.12477905683517455,-0.003088558866176754,-0.004237820232845842
1761479825663073800,1.02107373046875,-0.13046411673426628,-0.004598525037709624,-0.011796199723146855
1761479825673109800,1.03110986328125,-0.12942191420495508,-0.004789407967310398,-0.008771408541873096
1761479825683144700,1.041144775390625,-0.12328852601647376,0.0007377579563297331,0.0033095446730963883
1761479825693180700,1.0511806640625,-0.1265811378210783,-0.000912767463363707,-0.010268789226468652
1761479825703217000,1.061216796875,-0.12449147206544875,0.002704217457398772,-0.006997329807747155
1761479825713252900,1.0712529296875,-0.1310731885433197,-0.00993393124891445,-0.00045371685056015844
1761479825723288800,1.081288818359375,-0.13585866925418377,-0.0040061303688213225,-0.00848241726635024
1761479825733324800,1.09132470703125,-0.13151391804814339,-0.008754585271235555,-0.01656743271294981
1761479825743360800,1.10136083984375,-0.1267255147278309,-0.0031535869264043867,-0.005118585122749209
1761479825753396700,1.111396728515625,-0.1325584586650133,-0.016186233109328894,-0.0068948558139614756
1761479825763432700,1.1214326171875,-0.1325584586650133,-0.003366645155195147,-0.015253847630042582
1761479825773468700,1.13146875,-0.13974457077682018,-0.003185845228191465,-0.00894937719097361
1761479825783504000,1.14150390625,-0.1280751757711172,-0.00409285880420357,-0.006115797732863575
1761479825793539800,1.151539794921875,-0.13226736676394937,-0.012873089973349124,-0.006792838477902114
1761479825803575800,1.161575927734375,-0.12792495364546774,-0.006363762878254056,-0.010320702076796442
1761479825813611800,1.17161181640625,-0.13391454944908618,-0.0027459194409660995,-0.006073547760024667
1761479825823647700,1.181647705078125,-0.13331482999026775,0.0009451353630051016,-0.00605014861812815
1761479825833683700,1.19168359375,-0.13002747888267038,-0.004790960603579878,-0.00667615329567343
1761479825843720000,1.201719970703125,-0.12688275111615657,-0.010271821433771401,-0.00489317886903882
1761479825853756000,1.211755859375,-0.13181786943078042,-0.00553478297451511,-0.0008072247296571731
1761479825863791900,1.2217919921875,-0.13915245010256766,-0.002614475081022829,-0.008242945954669267
1761479825873827800,1.231827880859375,-0.1373603059887886,-0.0028325748111121354,-0.0068022638933733105
1761479825883863800,1.24186376953125,-0.13137480183839798,-0.00031673779897391794,-0.003171506175585091
1761479825893899000,1.25189892578125,-0.13017360935509203,-0.005888692712411284,-0.00785831228494644
1761479825903935000,1.26193505859375,-0.13227028937339783,-0.001899166418518871,-0.014854600913077592
1761479825913971000,1.271970947265625,-0.12837795810997485,-0.005170461440458894,-0.013623999672196805
1761479825924007000,1.2820068359375,-0.12478840918540954,-0.0010876673725433647,-0.006232026257365942
1761479825934043000,1.29204296875,-0.12748539318442345,-0.008342168545443564,-0.004907737117353827
1761479825944078800,1.302078857421875,-0.13287410048544407,0.004323580553848296,-0.011620130770187824
1761479825954114800,1.31211474609375,-0.1294300975114107,-0.00440555974887684,-0.0025840616764500734
1761479825964150800,1.32215087890625,-0.1259843409717083,-0.0007534487158060073,0.0008842902875505388
1761479825974187000,1.33218701171875,-0.1328676707446575,0.0016380677969194948,-0.009290737974550574
1761479825984223000,1.342222900390625,-0.12059621819257736,-0.015214721196051686,-0.002797960155457258
1761479825994259000,1.352259033203125,-0.1367582484424114,-0.00957883420092985,0.0001346774966455996
1761479826004294000,1.3622939453125,-0.13121873449385166,0.0044493806242942805,-0.018104999277461318
1761479826014329900,1.372329833984375,-0.130466454821825,0.0044380372463725505,-0.005283274165168404
1761479826024365800,1.38236572265625,-0.13645137445032596,0.004630509344860911,-0.00802512021921575
1761479826034401800,1.39240185546875,-0.13285890291631222,0.002230992188770324,-0.009701455933600663
1761479826044437800,1.402437744140625,-0.14108838660120962,0.007211173487827181,-0.003958583166357129
1761479826054474000,1.412473876953125,-0.12881868761479853,-0.006833955939579754,-0.001404441704135388
1761479826064510000,1.422510009765625,-0.13675181870162487,-0.003168784495536238,-0.007798891981597989
1761479826074546000,1.4325458984375,-0.13420681039392948,0.0020005079011432827,-0.006732614456955343
1761479826084582000,1.442581787109375,-0.12761983321905135,-0.011453523765318096,-0.005986508797388524
1761479826094617900,1.452617919921875,-0.1279179393827915,-0.007384137168247252,-0.0018787264186888933
1761479826104653800,1.46265380859375,-0.1353992350488901,-0.007544533628039062,-0.0038373496731743213
1761479826114688800,1.472688720703125,-0.13150982639491557,-0.0013983407569117844,-0.0033209793825633824
1761479826124725000,1.48272509765625,-0.14093407282233236,-0.010955182321742177,-0.006079539109393954
1761479826134761000,1.492760986328125,-0.1315080728292465,-0.005391611644160002,-0.0051362303772941225
1761479826144797000,1.502796875,-0.12821779911220074,-0.007736622134037315,-0.01108679107846692
1761479826154833000,1.5128330078125,-0.13494973771572114,-0.004948142192978412,-0.0034933585410937664
1761479826164868900,1.522868896484375,-0.1379436588346958,-0.00246502014035359,0.0007106142210774123
1761479826174904800,1.53290478515625,-0.1383925716459751,-0.006941343570500612,-0.011875804297998546
1761479826184940800,1.54294091796875,-0.1380921273946762,-0.0033988303917460144,-0.0002522759943269193
1761479826194976800,1.552976806640625,-0.13106617428064346,-0.012194423526804894,-0.0062059967669658355
1761479826205012700,1.5630126953125,-0.1384007549524307,-0.014803765774983912,-0.003059899027273059
1761479826215048700,1.573048583984375,-0.13780220453739164,0.0008100925401784479,-0.004462240105867385
1761479826225084000,1.583083984375,-0.13420856395959854,-0.003242580384109169,-0.007553977309819311
1761479826235119900,1.593119873046875,-0.13660393466353415,-0.004213306846097112,-0.007008727984596044
1761479826245155800,1.60315576171875,-0.13046879290938376,-0.0069670077347196635,-0.01189229877507314
1761479826255191800,1.61319189453125,-0.12044131989181041,-0.002534724375698715,0.0016757877251133322
1761479826265227800,1.623227783203125,-0.12163725167810917,-0.011552837687637657,-0.001939699358306825
1761479826275263700,1.633263671875,-0.1348059453308582,-0.0004570778514258563,-0.0035798129818402228
1761479826285299700,1.6432998046875,-0.1265811378210783,0.009629176148679107,-0.006828275117464363
1761479826295335700,1.653335693359375,-0.1413940915495157,0.004231463557295501,-0.00805319553622976
1761479826305371600,1.66337158203125,-0.13944529556930063,-0.002788461674749851,-0.007221000762097537
1761479826315408000,1.673407958984375,-0.1490197641223669,-0.011457213559746741,-0.013790515345521271
1761479826325443800,1.68344384765625,-0.1439309165507555,-0.003815028243511915,-0.0030849238706752657
1761479826335478800,1.693478759765625,-0.13764847528040408,0.0016176460633985697,-0.0033174905175343155
1761479826345514800,1.7035146484375,-0.1445312205314636,-0.004110193531494588,-0.007502539383526891
1761479826355550700,1.71355078125,-0.15036533351242543,-0.002489734456501901,-0.006349095032084733
1761479826365586700,1.723586669921875,-0.13405074304938316,-0.0030230924145318566,-0.004405212689004838
1761479826375623400,1.73362353515625,-0.1382405959546566,-0.004601100587286055,-0.0004117043397389352
1761479826385659400,1.743659423828125,-0.1388373928040266,-0.007218169484194368,-0.007885547351744026
1761479826395695400,1.7536953125,-0.13913666801154612,0.00005114566534757614,-0.0014345263151451944
1761479826405731300,1.7637314453125,-0.13105389932096004,-0.0004528583340346813,-0.011510423318017273
1761479826415767600,1.773767578125,-0.13479074776172636,-0.0062302909580059344,-0.016422672213707117
1761479826425803800,1.7838037109375,-0.134192781868577,-0.006082699180860072,-0.003667710461001843
1761479826435839700,1.79383984375,-0.13075170150399207,-0.005411156594846397,-0.004492215119022876
1761479826445874400,1.80387451171875,-0.1232698213160038,-0.012214479934144764,-0.003936042540986091
1761479826455910400,1.813910400390625,-0.1310463005363941,-0.0011406762014143168,-0.0026833938650786876
1761479826465946600,1.823946533203125,-0.1337391928821802,-0.0039504181262105705,-0.007244911360647529
1761479826475982600,1.833982666015625,-0.13090017006397248,-0.008967369505390524,-0.013222999389562754
1761479826486018600,1.8440185546875,-0.1350941146224737,0.0008648549347184598,-0.012382292515411973
1761479826496054500,1.854054443359375,-0.1352472593575716,-0.002911941923946142,-0.010678228543885051
1761479826506090800,1.8640908203125,-0.13494681510627268,-0.005995587152987718,-0.012573833032138645
1761479826516126700,1.874126708984375,-0.1332996324211359,-0.0033802900880575176,-0.009255283068679272
1761479826526162700,1.88416259765625,-0.1352466748356819,-0.005344849892985075,-0.0029774631745181977
1761479826536198700,1.89419873046875,-0.12956278398036955,-0.006610010990593582,-0.007735179095622152
1761479826546234600,1.904234619140625,-0.13031155652105808,-0.0002909275042824447,-0.0019239172672852873
1761479826556270600,1.9142705078125,-0.12926350877285003,-0.005461114950105548,-0.006944010451622307
1761479826566305500,1.924305419921875,-0.13824351856410502,-0.004057221235241741,-0.004063778840191662
1761479826576341500,1.934341552734375,-0.14243687860071658,-0.007596501277294009,-0.0037674262421205636
1761479826586377700,1.944377685546875,-0.1436345639526844,0.00640699923178181,-0.009187661192566155
1761479826596413700,1.95441357421875,-0.13645137445032596,0.0021770335118286312,-0.00258376941550523
1761479826606449700,1.96444970703125,-0.1401928990662098,-0.0016910218268632888,-0.004689984447136521
1761479826616485600,1.974485595703125,-0.14168752153813838,-0.0027416999235749242,-0.01660369133641943
1761479826626521600,1.984521484375,-0.13809855713546276,-0.0019031667402014136,-0.004311798784509301
1761479826636557600,1.9945576171875,-0.13914543583989142,-0.0045615722944959995,-0.00213098414670676
1761479826646593500,2.004593505859375,-0.1322585989356041,-0.005892364240530878,-0.01192828340390697
1761479826656629500,2.01462939453125,-0.1301584117859602,-0.01137943561580032,-0.015876491306722165
1761479826666665500,2.02466552734375,-0.13599895450770855,-0.005712441096361726,0.000388871453423053
1761479826676700700,2.03470068359375,-0.13929098179042337,-0.009847275878768413,-0.0011564582924358546
1761479826686736600,2.044736572265625,-0.13869184685349464,-0.006884900675527751,-0.002212232689373195
1761479826696772600,2.054772705078125,-0.13929098179042337,-0.004694386627618223,-0.009875716521963477
1761479826706808600,2.06480859375,-0.14288169975876808,-0.0029456980630755423,-0.0011668335559777915
1761479826716844500,2.074844482421875,-0.1382446876078844,-0.004109261949732899,-0.0075471822428517035
1761479826726880500,2.084880615234375,-0.14752280356287956,-0.0058239021142013365,-0.014901855854596942
1761479826736916500,2.09491650390625,-0.12717618110477924,-0.007490465353243053,-0.00811875331941992
1761479826746952400,2.104952392578125,-0.12508300821781157,-0.0031018750054761764,-0.0025356924900785086
1761479826756988400,2.114988525390625,-0.12687924398481845,-0.006899824250023811,-0.006642451955471187
1761479826767024600,2.125024658203125,-0.14124854559898375,-0.007048438940476626,-0.00494974962817505
1761479826777060600,2.135060546875,-0.12868190949261188,-0.004540967897884547,-0.0043379378727637224
1761479826787095600,2.145095458984375,-0.1367635091394186,-0.0033013431003317234,-0.005524279846809804
1761479826797131500,2.155131591796875,-0.1382569625675678,-0.007140428072866052,-0.0007600245870649815
1761479826807167500,2.16516748046875,-0.12852642666995526,-0.007266356007475406,0.001541895679756999
1761479826817203500,2.175203369140625,-0.13734978459477423,-0.005516443600226194,-0.003488554501812905
1761479826827239400,2.185239501953125,-0.13121464284062384,-0.0046533970301039515,-0.010192125527374446
1761479826837275400,2.195275390625,-0.1364496208846569,-0.008490070849843323,-0.0060431891543790694
1761479826847311600,2.2053115234375,-0.14422902271449564,-0.0008352269814349711,-0.004847038172371685
1761479826857347600,2.21534765625,-0.13690087178349494,-0.0029893910743296146,0.0005141418009065092
1761479826867383600,2.225383544921875,-0.12283785963952541,0.0051978426377288995,0.0020579737094230948
1761479826877419500,2.23541943359375,-0.1315168406575918,0.0010192235125228762,-0.007400448982231318
1761479826887455500,2.24545556640625,-0.13286533265709877,-0.004796769289858639,-0.006121515087597072
1761479826897490400,2.255490478515625,-0.14363631751835346,-0.007226060529705137,-0.005773140041343867
1761479826907526400,2.2655263671875,-0.13974047912359236,-0.014307945082057266,-0.008704699981212616
1761479826917562400,2.275562255859375,-0.12836802123785018,-0.005538929426670074,-0.0009933949515223502
1761479826927598600,2.2855986328125,-0.13300561791062354,-0.0018194157131947576,0.0015366897816769779
1761479826937634600,2.295634521484375,-0.13240706749558448,0.00158281221203506,-0.008591010473668574
1761479826947670500,2.30567041015625,-0.13090835337042808,-0.0036784145181067286,-0.008244955248665064
1761479826957706500,2.31570654296875,-0.14063888926804066,-0.005526069945096969,-0.00815068282764405
1761479826967742500,2.325742431640625,-0.13914134418666363,-0.005733483884390443,0.0005545468765310943
1761479826977778700,2.33577880859375,-0.13914134418666363,-0.01000272216880694,-0.007579257881548255
1761479826987814700,2.345814697265625,-0.13315759360194204,-0.0029579730227589605,-0.006764489166252314
1761479826997850600,2.3558505859375,-0.13749825315475464,-0.005801124026812612,0.00170534261316061
1761479827007885600,2.365885498046875,-0.13959259508550168,-0.0040665553191676735,0.0014469474053010343
1761479827017921500,2.375921630859375,-0.13450550107955933,-0.0013688041351735591,-0.0063111376418732105
1761479827027957500,2.38595751953125,-0.13884440706670284,-0.006488339105993509,-0.007366674576792865
1761479827037993700,2.39599365234375,-0.13824585665166378,-0.004923683605156839,-0.0008654577229171991
1761479827048029700,2.40602978515625,-0.13480419176518915,-0.00014616700503975152,-0.009514427195210009
1761479827058065700,2.416065673828125,-0.13764964432418345,-0.007871884152572601,-0.008551920572295785
1761479827068101600,2.4261015625,-0.1369020408272743,-0.004119290153402835,-0.004660210363380611
1761479827078137600,2.4361376953125,-0.1388449915885925,-0.000013937193807214498,-0.004835639995522797
1761479827088173600,2.446173583984375,-0.1364537125378847,-0.0010445223505608737,-0.007502557649835944
1761479827098209500,2.45620947265625,-0.141089555644989,-0.0031922749689780173,-0.0017831205571070313
1761479827108245500,2.46624560546875,-0.1371983934253454,-0.006436681983992457,-0.0003982786025851965
1761479827118280700,2.47628076171875,-0.13959434865117074,-0.006040723202656954,0.0020308117078617215
1761479827128316700,2.486316650390625,-0.14572656779587267,-0.0055450121075846254,-0.0026386779405176636
1761479827138352600,2.4963525390625,-0.13719663985967634,-0.00008510273387655615,-0.003918397286441177
1761479827148388600,2.506388671875,-0.14198504317998886,-0.004328037533257156,-0.004163914746418595
1761479827158424600,2.516424560546875,-0.14407704702317714,-0.0028955753110349175,-0.007693860704544931
1761479827168460500,2.52646044921875,-0.14078385069668292,-0.0017045571618713438,-0.004607676458545029
1761479827178496500,2.53649658203125,-0.14153203871548176,-0.0018587978755123912,-0.007769337093550712
1761479827188532500,2.546532470703125,-0.1445277134001255,-0.0026393903265707194,-0.00936259763436392
1761479827198568700,2.556568603515625,-0.15096154583990573,-0.011183365054428577,-0.013897592449188232
1761479827208604700,2.566604736328125,-0.1319575701624155,-0.00042520314212888475,-0.009079451577737927
1761479827218640600,2.576640625,-0.13360183023810385,-0.004911554775945842,0.0030944406176917254
1761479827228675600,2.586675537109375,-0.1383849728614092,-0.013848803137708454,-0.0014115107657387852
1761479827238711600,2.596711669921875,-0.14706161579191684,-0.007432488088309764,-0.015313815922662614
1761479827248747500,2.60674755859375,-0.14361878186166285,-0.007743380668386817,-0.00756409684503451
1761479827258783500,2.616783447265625,-0.13628595475554464,-0.005272935434244573,-0.0022858824474737047
1761479827268819500,2.6268193359375,-0.13434125042855738,-0.005770418361295014,-0.014780275301542132
1761479827278855700,2.636855712890625,-0.1325502753585577,-0.006125771137606352,-0.009098174544516951
1761479827288891600,2.6468916015625,-0.14182722226977348,-0.006365571242850273,-0.010847849489748478
1761479827298927600,2.656927734375,-0.1325502753585577,-0.005555533501598983,0.003310001330822706
1761479827308963600,2.666963623046875,-0.14092881212532518,-0.0072424088763073085,-0.008077928118687122
1761479827318999600,2.67699951171875,-0.14227730412483214,-0.0007474025675095617,-0.004440010007750243
1761479827329035500,2.687035400390625,-0.14197919796109199,-0.0005945866259746254,-0.00019517551222816108
1761479827339070500,2.697070556640625,-0.13494447701871395,-0.01137821177309379,-0.013597349127288907
1761479827349106400,2.7071064453125,-0.14152677801847457,-0.01013356374055147,-0.01880858096955344
1761479827359142700,2.717142578125,-0.14287293193042278,-0.006275646203383803,-0.005184581297356635
1761479827369178600,2.7271787109375,-0.14062895239591597,-0.012959854941349476,-0.011346300531178712
1761479827379213600,2.737213623046875,-0.14107786520719529,-0.006696428898721933,-0.009387859939783812
1761479827389249500,2.74724951171875,-0.1410772806853056,-0.0012736001323908567,-0.005889697359409183
1761479827399285800,2.75728564453125,-0.13733341798186302,0.0001429338683374226,-0.0021923224125057457
1761479827409321700,2.76732177734375,-0.14571195474863052,-0.007863591248262674,-0.005916238306462765
1761479827419357700,2.777357666015625,-0.14601473708748816,-0.014845467758551239,-0.005783752766903489
1761479827429393700,2.7873935546875,-0.1326981593966484,-0.001592548154760152,-0.005769486779533327
1761479827439428600,2.7974287109375,-0.13809037382900713,-0.004779014437459409,-0.010103862722031771
1761479827449464800,2.80746484375,-0.14093465734422206,-0.0002582125447690487,-0.011851217846013605
1761479827459500800,2.817500732421875,-0.13300327982306479,-0.00778168511847034,-0.0013787775399163365
1761479827469536800,2.827536865234375,-0.1424322024255991,0.00029143896093592045,-0.006494476585835218
1761479827479572700,2.83757275390625,-0.135102882450819,-0.0033454197040759027,-0.005544336254149675
1761479827489608700,2.847608642578125,-0.13031740173995493,-0.0007106324873864651,-0.006553111437894403
1761479827499644700,2.857644775390625,-0.13660042753219603,-0.007026994293648749,-0.004662895510811359
1761479827509680600,2.8676806640625,-0.13959434865117074,-0.0023072540290653702,-0.00020684768371284008
1761479827519716900,2.877716796875,-0.14678162980675696,-0.0100446433480829,-0.006153134068567306
1761479827529752800,2.8877529296875,-0.13870353729128837,-0.0037432964478619395,-0.005583097361959517
1761479827539788800,2.897788818359375,-0.13646014227867126,0.006653630936611444,-0.0011171491953544319
1761479827549823700,2.90782373046875,-0.14064707257449627,-0.00043508521532639857,-0.0039382344980724154
1761479827559859700,2.917859619140625,-0.14004618407189845,-0.0021392039857804773,-0.009511358455289155
1761479827569895700,2.927895751953125,-0.13660568822920321,-0.005839684205222875,-0.01398371809637174
1761479827579931600,2.937931640625,-0.14364040917158127,-0.006775668147392571,-0.0032741445661522445
1761479827589967600,2.947967529296875,-0.12867840236127376,-0.00020922230388969182,-0.003632127690967172
1761479827600003800,2.95800390625,-0.1346633219897747,-0.00749652976784855,-0.004469784091506153
1761479827610039800,2.968039794921875,-0.13915478819012642,-0.0031712687135674058,-0.005684566708747297
1761479827620075800,2.97807568359375,-0.14962766688764095,-0.006969327555969357,-0.000645330432523042
1761479827630111700,2.98811181640625,-0.14050035758018492,-0.002347805235162377,-0.009865560454130172
1761479827640147700,2.998147705078125,-0.13660744179487228,-0.0012799202753230928,-0.0016498860988765954
1761479827650182700,3.0081826171875,-0.13855097707808017,-0.0005836085742339491,-0.012750596104841678
1761479827660218600,3.018218505859375,-0.14363924012780188,-0.009463646856043487,-0.001124400920048356
1761479827670254600,3.028254638671875,-0.15007365708947182,-0.011134868003893643,-0.002898150860611349
1761479827680290800,3.038290771484375,-0.1410936472982168,-0.012772259947378187,-0.011557057205028832
1761479827690326800,3.048326904296875,-0.13241349723637102,-0.0011964067103341222,-0.007500310893822461
1761479827700362800,3.05836279296875,-0.13271335696578024,-0.005439414574950933,0.002137779213674366
1761479827710398700,3.068398681640625,-0.13345803785324095,-0.003876439574547112,-0.007075637474656104
1761479827720434700,3.0784345703125,-0.1331593471676111,-0.0032864560584537684,-0.012736531046871094
1761479827730470700,3.088470703125,-0.13749649958908558,-0.004432100695930421,-0.007333685622643679
1761479827740506600,3.098506591796875,-0.14018880741298198,-0.005661386762559413,-0.008561291188839823
1761479827750541600,3.10854150390625,-0.14302783023118973,-0.006027607992757112,-0.009040215545892715
1761479827760577800,3.118577880859375,-0.1424327869474888,-0.016780454409122465,-0.008250709136016667
1761479827770613800,3.12861376953125,-0.1440793851107359,0.005925499325152486,-0.007702409337181597
1761479827780649700,3.138649658203125,-0.14662088628709316,-0.004334668203443289,-0.006850212954636663
1761479827790685700,3.148685791015625,-0.14467793552577496,-0.011648936739563942,-0.003592800327576697
1761479827800721700,3.1587216796875,-0.1395861653447151,-0.0029062611018307507,-0.004454714386537671
1761479827810757600,3.168757568359375,-0.14676818580329418,-0.002541446377430111,-0.01277120050145313
1761479827820793600,3.178793701171875,-0.13733926320075987,-0.0014206621865741908,-0.0035119901763275264
1761479827830829600,3.18882958984375,-0.1503618263810873,-0.007649747568182647,-0.010222520665638148
1761479827840865500,3.198865478515625,-0.14587328279018402,-0.010631649455800652,-0.001206416647695005
1761479827850900700,3.208900634765625,-0.1410854639917612,-0.003995280181244016,-0.004092073352914304
1761479827860936700,3.218936767578125,-0.145725983273983,-0.004462623698357492,-0.006824146931618451
1761479827870972700,3.22897265625,-0.136745973482728,-0.009491502977348864,-0.013816197776049375
1761479827881008600,3.239008544921875,-0.13120996666550636,-0.008563008221890777,-0.002772003730293363
1761479827891044600,3.249044677734375,-0.139739310079813,-0.00447144632562995,-0.0014670768778771162
1761479827901080600,3.25908056640625,-0.1419821205705404,-0.001714420968759805,0.0019614727986976502
1761479827911116500,3.269116455078125,-0.1404839909672737,-0.01285889705121517,-0.008965999532211572
1761479827921152500,3.279152587890625,-0.13883330115079878,-0.0035561215789988634,-0.00714641942223534
1761479827931188500,3.2891884765625,-0.14137187971770762,0.0009808459972031414,0.00077587974332273
1761479827941224400,3.299224365234375,-0.15424012911915777,-0.011146649773232637,-0.003755863668490201
1761479827951259600,3.309259765625,-0.14047346957325935,-0.008794679819606244,-0.004748966359067708
1761479827961295600,3.319295654296875,-0.13134148409068583,-0.007854202365409582,-0.00799076129188761
1761479827971331600,3.32933154296875,-0.12984569257497786,0.0007911321113817393,-0.009729494717996567
1761479827981367600,3.339367431640625,-0.13762801701426505,-0.0023767756013199685,-0.004232084611803293
1761479827991403500,3.349403564453125,-0.13913023827075957,-0.007055361871607602,-0.004481255333591253
1761479828001439500,3.359439453125,-0.14063012143969536,-0.01120639887014404,-0.00492092539248988
1761479828011475500,3.369475341796875,-0.14571838448941707,-0.000981247856002301,-0.007493735022563487
1761479828021511700,3.37951171875,-0.13943828130662442,0.003378865315951407,-0.008468224344216287
1761479828031548000,3.3895478515625,-0.13554945717453956,-0.013950765674840658,-0.0021351123325526714
1761479828041583900,3.399583984375,-0.14587678992152214,-0.00919431012906134,-0.0031836350047960878
1761479828051618600,3.40961865234375,-0.13899287562668322,0.0024490919188596308,-0.010203030513878912
1761479828061654500,3.419654541015625,-0.15201426976323126,0.005174078169651329,-0.006949983534682542
1761479828071690800,3.429690673828125,-0.13735329172611235,-0.0085635014122352,-0.00017331074029207228
1761479828081726700,3.439726806640625,-0.14169278223514556,-0.005463288640882819,-0.010596559876110405
1761479828091762700,3.4497626953125,-0.13900047441124916,-0.004508088541589677,-0.007317483406513929
1761479828101798700,3.459798583984375,-0.13645955775678156,-0.0009733202778734266,0.004554886825382709
1761479828111835000,3.4698349609375,-0.1419967336177826,-0.009396317240875213,-0.005718907369766384
1761479828121870800,3.479870849609375,-0.14049860401451586,0.001297784725576639,-0.006909487127512693
1761479828131906800,3.48990673828125,-0.1467798762410879,0.0066013892927207045,-0.0010334712335839868
1761479828141942800,3.49994287109375,-0.14229074812829492,-0.002966722584795207,0.0030049722359515724
1761479828151977700,3.509977783203125,-0.14947510667443276,-0.005172543799690902,-0.008932042463682592
1761479828162013700,3.520013671875,-0.14528700733482836,-0.0022671960133127866,-0.0071109645163640375
1761479828172049700,3.530049560546875,-0.1361620361149311,-0.0037892727477475997,-0.004530537835415452
1761479828182085600,3.540085693359375,-0.1352647950142622,-0.006401281877048313,-0.005221077382843941
1761479828192121900,3.550121826171875,-0.14319617253541947,-0.00065004314025864,-0.0010746617604978383
1761479828202157800,3.56015771484375,-0.13885843559205532,-0.008195453551132232,-0.008275825310964137
1761479828212193800,3.57019384765625,-0.13047697621583937,0.003543846619315445,-0.008869790882430971
1761479828222229800,3.580229736328125,-0.14738660996258257,-0.00087930358517915,-0.0017396467415615915
1761479828232265700,3.590265625,-0.13780980332195758,-0.009080967681389301,-0.010879906862135975
1761479828242300700,3.60030078125,-0.13766191928386687,-0.00037411227570846676,-0.003351082259882241
1761479828252336600,3.610336669921875,-0.13781214140951634,0.003256663708388805,-0.010088701685518026
1761479828262372600,3.62037255859375,-0.13227321198284625,-0.0025381949744187294,-0.012616156070213764
1761479828272408800,3.630408935546875,-0.13676000200808047,-0.005602952839899808,-0.0032460875154472885
1761479828282444800,3.64044482421875,-0.13915361914634702,-0.0035709720882587132,-0.007699943385459482
1761479828292480800,3.650480712890625,-0.14529051446616648,-0.004049147526640445,-0.004278152243234217
1761479828302516700,3.660516845703125,-0.14574351893067358,-0.0005308006747625768,-0.006347798124141991
1761479828312552700,3.670552734375,-0.15277765535116195,-0.011207385250832884,-0.0033969489619135856
1761479828322588700,3.680588623046875,-0.14425065002441406,-0.009195223444513977,-0.008876951275579631
1761479828332623600,3.69062353515625,-0.13901274937093258,-0.0036950003267265854,-0.012915157283097506
1761479828342659600,3.70065966796875,-0.13137947801351546,-0.0003473703992553055,-0.00958970265481621
1761479828352695800,3.71069580078125,-0.14290391159057617,-0.004456614082679152,-0.009710442957654594
1761479828362731800,3.720731689453125,-0.13960720813274383,-0.00497682029819116,-0.000008859159890562295
1761479828372767700,3.730767822265625,-0.14229893143475056,-0.003957286258414387,-0.010413458394166082
1761479828382804700,3.7408046875,-0.1455950503706932,-0.0025104667172767222,-0.0004313040893524885
1761479828392840700,3.7508408203125,-0.1375163733333349,-0.014306940435059368,-0.009615001492854207
1761479828402876700,3.760876708984375,-0.14215630809366703,-0.0053520650850608946,-0.008941029487736523
1761479828412912600,3.77091259765625,-0.14574994867146016,0.0026667532575316726,-0.018042254505865274
1761479828422947600,3.780947509765625,-0.1432066939294338,0.0032056641735136505,-0.004008450190071016
1761479828432983600,3.790983642578125,-0.1376736097216606,-0.011875128444563596,-0.0015783004336990415
1761479828443019500,3.80101953125,-0.14336334579586982,-0.0012955745021812617,-0.0036048378252424296
1761479828453055700,3.8110556640625,-0.1511415785819292,-0.0032205694817006585,-0.003008844693470746
1761479828463091700,3.821091796875,-0.14410861120522023,-0.0034247137516736983,-0.00031299320561811326
1761479828473127700,3.831127685546875,-0.14051672419309616,0.002464709613099694,-0.01371699345158413
1761479828483163600,3.84116357421875,-0.14216390687823294,-0.00672435808526352,-0.01255368529325351
1761479828493199600,3.85119970703125,-0.13767653233110905,-0.014209800203517078,-0.003926379663497209
1761479828503235600,3.861235595703125,-0.14695231019854546,0.0060765251684002574,-0.0023209902934730052
1761479828513271600,3.871271484375,-0.1499474003612995,-0.011255443909950555,-0.008323500377591699
1761479828523306500,3.881306396484375,-0.13139292201697825,0.00042929479535669087,0.0003455255020409822
1761479828533342700,3.8913427734375,-0.13483634046912193,-0.006807688987161963,-0.009343618939258157
1761479828543378700,3.901378662109375,-0.145158997040987,-0.005276606962364166,0.00349723099861294
1761479828553414700,3.91141455078125,-0.13572890539467333,-0.006187219001259655,0.0063420807694084935
1761479828563450600,3.92145068359375,-0.13931845431923864,-0.0052986361310817295,-0.006027242666576058
1761479828573486600,3.931486572265625,-0.1415606802880764,-0.010301942577399312,-0.006675459175929427
1761479828583522600,3.9415224609375,-0.14110650677978992,-0.011767046693898737,-0.0019049203058704733
1761479828593558500,3.95155859375,-0.14529635968506335,0.000960259866900742,-0.0074569284098222844
1761479828603594500,3.961594482421875,-0.13347557350993156,-0.004396335262805223,-0.0035500023654662072
1761479828613629700,3.971629638671875,-0.14694295784831046,-0.00515329110994935,-0.0086424849325791
1761479828623665700,3.981665771484375,-0.14455284784138203,-0.0026801241957582532,-0.008202961004152893
1761479828633701600,3.99170166015625,-0.14290624967813492,0.0041599144247360526,-0.0033834501595236357
1761479828643737600,4.001737548828125,-0.1447059925764799,-0.004585592490900308,-0.008659271670598536
1761479828653773600,4.011773681640625,-0.1373731654703617,-0.006149955730792135,-0.006353862538747489
1761479828663808500,4.02180859375,-0.14560732533037662,-0.0035476460115984082,-0.005017298439051955
1761479828673844500,4.031844482421875,-0.13229074763953685,-0.0035359007748775183,0.003862575445976108
1761479828683880400,4.04188037109375,-0.13094517824947832,-0.009712616648431868,-0.0008685447291471064
1761479828693916700,4.051916748046875,-0.13782792350053785,0.003595266279298812,-0.0034659225448966024
1761479828703952600,4.06195263671875,-0.13527823901772498,-0.002537610452529043,-0.002855882621463388
1761479828713988600,4.071988525390625,-0.14425591072142124,-0.002273863216117024,-0.006891640943568199
1761479828724024600,4.082024658203125,-0.14261165064573286,0.0018588526744395494,-0.00706480555338785
1761479828734060500,4.092060546875,-0.134231944835186,-0.004960654614679515,-0.005340137185249477
1761479828744095500,4.102095458984375,-0.1319879653006792,-0.006986333489697426,-0.0038575887436047194
1761479828754131500,4.11213134765625,-0.1349818864196539,-0.007573577059432864,-0.00620919337105006
1761479828764167400,4.12216748046875,-0.1372246969103813,-0.0021672793027944864,-0.009769132608640938
1761479828774203600,4.13220361328125,-0.1304892511755228,-0.0027944712904281912,-0.003541307602357119
1761479828784239600,4.142239501953125,-0.14170973336994647,-0.0017838694757781922,-0.003347027139272541
1761479828794275600,4.152275634765625,-0.13991349760293958,-0.0038406376088038086,-0.0022197036097757515
1761479828804311600,4.1623115234375,-0.13796820875406265,-0.007774890051502734,-0.014588241594471037
1761479828814347500,4.172347412109375,-0.14650339738726614,-0.0020788155680522323,-0.0004070829635486006
1761479828824383500,4.182383544921875,-0.1375257256835699,-0.003785418556537479,-0.0034586160212755203
1761479828834418400,4.19241845703125,-0.14171382502317428,0.003912077143508941,0.0016455935162492095
1761479828844454400,4.202454345703125,-0.14784662868976592,-0.001936228759586811,-0.005361928891949356
1761479828854490600,4.21249072265625,-0.1421574771374464,-0.007039524981658905,-0.002499981855880469
1761479828864526600,4.222526611328125,-0.13332535138428211,-0.004389540195837617,-0.00768642631676048
1761479828874562600,4.2325625,-0.12569324907064436,-0.0035610900150611995,-0.004797700871620327
1761479828884598500,4.2425986328125,-0.1342231770068407,-0.000419851113576442,-0.005343498186115175
1761479828894634500,4.252634521484375,-0.1369201610058546,-0.004411660696100443,-0.004928633774910122
1761479828904670500,4.26267041015625,-0.13273030810058117,-0.006220262754335999,-0.0020668694019317624
1761479828914706400,4.27270654296875,-0.13646774106323717,-0.013557035383209586,-0.00985149539615959
1761479828924741600,4.28274169921875,-0.13826456135213375,-0.008069982274249196,-0.009548913986701518
1761479828934777600,4.292777587890625,-0.1330249071329832,-0.006997950862254947,-0.0037195319797843694
1761479828944813600,4.3028134765625,-0.14260463638305662,-0.0031912520556710657,-0.0037605581099167465
1761479828954849500,4.312849609375,-0.13378010941445825,-0.013312741765938699,-0.008394282325170933
1761479828964885500,4.322885498046875,-0.13722118977904318,0.0009857413680292666,-0.008519899732526391
1761479828974921500,4.33292138671875,-0.12989303884804249,-0.0007474025675095617,-0.0050672202616930005
1761479828984957400,4.34295751953125,-0.14081658392250537,-0.0021666582482866943,-0.008922032526321708
1761479828994993400,4.352993408203125,-0.1370727212190628,-0.00907035495582968,-0.0023153094713576137
1761479829005029400,4.363029296875,-0.14245967495441436,-0.0030497429594397545,-0.0022280513130128383
1761479829015064600,4.373064697265625,-0.1463531752616167,-0.0007799713965505361,-0.0035764154483564196
1761479829025100500,4.3831005859375,-0.13842062869668006,-0.0024731851805001497,-0.007961242936458439
1761479829035136500,4.393136474609375,-0.14306114797890185,-0.0030912440136075018,-0.0046820020700804885
1761479829045172500,4.40317236328125,-0.13558102135658262,-0.008268847580906003,0.0008806187594309449
1761479829055208400,4.41320849609375,-0.14081716844439507,-0.0005663469121791422,-0.0008816964716650545
1761479829065244700,4.42324462890625,-0.14979250206053257,-0.0013943952341563999,-0.0018523864010348914
1761479829075280600,4.43328076171875,-0.13722002073526382,-0.010802749972697347,-0.0008007219236344098
1761479829085316600,4.443316650390625,-0.13736673572957514,-0.016644005080498753,-0.007651190606597811
1761479829095351600,4.4533515625,-0.14170622623860835,-0.008881791847478598,-0.005861841238103806
1761479829105387500,4.463387451171875,-0.14036065684854984,-0.01196925473511219,0.0002724967984482646
1761479829115423500,4.473423583984375,-0.13901333389282225,-0.00851341519281268,0.0008437756140716373
1761479829125459700,4.483459716796875,-0.14530103586018084,0.0011449687840417028,-0.004922569360304624
1761479829135495700,4.49349560546875,-0.13572422921955585,0.0006909231399185956,-0.0055218869603238995
1761479829145531600,4.50353173828125,-0.12884382205605507,-0.0009305405820719897,-0.005239581153914332
1761479829155567600,4.513567626953125,-0.13662556197345255,-0.00433278677361086,-0.00406713984105736
1761479829165603600,4.523603515625,-0.1357306589603424,-0.007228563014045357,-0.002964695024490356
1761479829175639600,4.5336396484375,-0.13677578409910202,-0.007352609518822282,0.00020998948886990547
1761479829185674800,4.5436748046875,-0.14380992051959038,-0.005269592699687927,0.00024199206233024596
1761479829195710700,4.553710693359375,-0.14725216992795467,-0.007157196544576436,-0.001298789372574538
1761479829205746700,4.56374658203125,-0.1444090554565191,-0.00507140324646607,-0.015213278157636522
1761479829215782700,4.57378271484375,-0.1423100373506546,0.0019430238265544175,-0.0074240307872183615
1761479829225818600,4.583818603515625,-0.14036065684854984,0.0009559672842733561,-0.0014234021329320966
1761479829235855600,4.593855712890625,-0.14200374788045883,0.0029159057130105793,-0.001125021974556148
1761479829245891600,4.6038916015625,-0.13153320727050305,0.000690703944209963,-0.004965805713832378
1761479829255927600,4.613927490234375,-0.13257891693115234,-0.008504391636140644,-0.005587554341368377
1761479829265962500,4.62396240234375,-0.13452186769247054,-0.005701280381530523,-0.0014727576999925076
1761479829275998700,4.633998779296875,-0.14095686917603015,-0.0021658910633064804,-0.0028657281620427964
1761479829286034700,4.64403466796875,-0.1327238783597946,-0.005585106655955315,-0.005130165962688625
1761479829296070700,4.654070556640625,-0.1346674136430025,-0.006131598090194166,-0.00029717458197847007
1761479829306106600,4.664106689453125,-0.14664017550945282,-0.01086109256381169,-0.00670437474315986
1761479829316142600,4.674142578125,-0.14529343707561493,-0.008347374443523585,-0.011919552108179778
1761479829326178600,4.684178466796875,-0.1358610073417425,-0.007132865820918232,0.00007878259094431996
1761479829336214500,4.694214599609375,-0.13197101416587828,-0.00849673805264756,-0.0003061616060324013
1761479829346250500,4.70425048828125,-0.13646072680056096,-0.005510945441201329,-0.0010368505007587372
1761479829356286500,4.714286376953125,-0.13990531429648398,0.0047094563325867055,-0.004518317674659192
1761479829366321700,4.72432177734375,-0.14110533773601056,-0.01004606812018901,-0.008016096662543713
1761479829376357600,4.734357666015625,-0.14065993205606936,-0.0011794738418422638,-0.005901698324456811
1761479829386393600,4.7443935546875,-0.12959025650918482,-0.011587324479129165,-0.00638992023281753
1761479829396429600,4.7544296875,-0.13333178112506866,-0.005048917420022189,-0.00598270940510556
1761479829406465500,4.764465576171875,-0.1331821435213089,0.0030069632636383174,0.0013837277096696197
1761479829416501500,4.77450146484375,-0.1289905370503664,-0.0007283142745494843,-0.0015637056527659295
1761479829426537500,4.784537353515625,-0.13706921408772468,-0.009414419153146445,0.0037242264212109144
1761479829436573400,4.794573486328125,-0.12434884872436523,-0.013614336794707924,-0.004563782517891377
1761479829446608600,4.804608642578125,-0.13736556668579578,-0.007953717217128724,0.000900602101534605
1761479829456644600,4.81464453125,-0.1412561443835497,-0.00726659346949309,-0.006367470938991755
1761479829466680600,4.8246806640625,-0.1490367152571678,-0.013640384551417082,0.000757814363669604
1761479829476716500,4.834716552734375,-0.13407295488119125,-0.00760298581700772,-0.004994903944153338
1761479829486752500,4.84475244140625,-0.13197802842855452,-0.0032810857635922727,-0.004070884434413165
1761479829496788500,4.85478857421875,-0.1360182437300682,-0.004582158424798399,-0.0035221462441608307
1761479829506824400,4.864824462890625,-0.15113397979736326,-0.009794157452043145,-0.006864077083207666
1761479829516860400,4.8748603515625,-0.1427583656400442,-0.01297547263558954,-0.003928553354274482
1761479829526896400,4.884896484375,-0.1391682321935892,-0.010265282095130532,-0.003298329159338027
1761479829536931600,4.894931640625,-0.13587503586709498,-0.009976071623899041,-0.0030352212437428534
1761479829546967600,4.904967529296875,-0.13153496083617208,-0.0005069448751397431,0.0022732238953001795
1761479829557003500,4.91500341796875,-0.13452888195514678,-0.006360767203569412,-0.005021079565025866
1761479829567039500,4.92503955078125,-0.1376695180684328,-0.004725110559444874,-0.012730101306084542
1761479829577075500,4.935075439453125,-0.13482172742187976,0.0002313610704615712,0.0010826076049357653
1761479829587111400,4.945111328125,-0.1322802262455225,-0.0034952217046171426,-0.0008957249970175325
1761479829597147400,4.9551474609375,-0.13437456817626953,-0.008087262202613054,-0.007395133486296981
1761479829607183400,4.965183349609375,-0.13646891010701656,0.0010267674981616437,0.000977704192046076
1761479829617219300,4.97521923828125,-0.13796470162272453,-0.01336500167613849,-0.006383819285593927
1761479829627254500,4.985254638671875,-0.13123276301920414,-0.0035013043855316936,-0.006591507219523191
1761479829637290500,4.99529052734375,-0.13182839082479475,-0.012685111386887729,-0.0035589711232110856
1761479829647326500,5.005326416015625,-0.13766367284953593,-0.008440075961966068,-0.002564480193145573
1761479829657362400,5.015362548828125,-0.14184943410158157,-0.012232216520234943,-0.006747264036815613
1761479829667398400,5.0253984375,-0.12942483681440353,0.0012432597930543124,-0.004271101447939872
1761479829677434400,5.035434326171875,-0.13391396492719648,0.0005527933108620346,-0.0063107540493831035
1761479829687470300,5.04547021484375,-0.13421324013471603,-0.0015478870291262864,-0.008555719964578747
1761479829697506300,5.05550634765625,-0.13690788604617118,0.003523680614121258,-0.0026337825696915386
1761479829707542500,5.06554248046875,-0.13810674044191837,-0.0033307335915975273,-0.006451002770289778
1761479829717577500,5.075577392578125,-0.13885259037315845,-0.010906301678717137,0.003980539269838482
1761479829727613400,5.085613525390625,-0.14543547589480876,-0.013785126784350722,0.00480460553644225
1761479829737649400,5.0956494140625,-0.1485790346175432,-0.005366714664921164,-0.011799049267359077
1761479829747685400,5.105685302734375,-0.1493289762020111,-0.00747181545170024,-0.004234915889706463
1761479829757721300,5.115721435546875,-0.13361585876345633,-0.000030322073027491567,-0.004718552954494953
1761479829767757300,5.12575732421875,-0.133469143769145,0.005004932147823274,-0.00005525558488443494
1761479829777793300,5.135793212890625,-0.13197159868776798,-0.0057592028475366526,-0.003870448225177824
1761479829787829500,5.14582958984375,-0.13915654175579548,0.0004603292544372379,-0.0075798972023651
1761479829797865500,5.155865478515625,-0.1394511407881975,0.0017469897978007792,-0.0028512064463458954
1761479829807900400,5.165900390625,-0.14483458739221095,-0.008255293979588895,-0.007506156112719327
1761479829817936400,5.175936279296875,-0.1430383516252041,-0.00776190270576626,-0.010854845486115663
1761479829827972400,5.185972412109375,-0.1352566117078066,-0.012396503703854977,-0.004773169218562543
1761479829838008300,5.19600830078125,-0.13405892635583877,-0.0011014036369509995,-0.004863916241936385
1761479829848044300,5.206044189453125,-0.13660451918542385,-0.0017036621127277613,-0.008473941698949784
1761479829858080500,5.21608056640625,-0.14483634095788,-0.003387907138932496,-0.011778298740275204
1761479829868116500,5.226116455078125,-0.14722995809614658,0.0027458463757298883,-0.0068720959928818045
1761479829878152400,5.23615234375,-0.15067220750451088,-0.0009277093041688203,-0.007662954109627753
1761479829888188400,5.2461884765625,-0.14109540086388586,-0.006021379181370139,-0.0030309834600426256
1761479829898223400,5.256223388671875,-0.1373550452917814,-0.0012245550925843417,-0.003317271321825683
1761479829908259300,5.26625927734375,-0.13974457077682018,-0.006106171387992799,-0.000013005612045526504
1761479829918295300,5.27629541015625,-0.14677636910974978,-0.004521368148270994,-0.00867293486976996
1761479829928331300,5.286331298828125,-0.14348551087081432,0.0020172033076174558,-0.006464958230406046
1761479829938367500,5.296367431640625,-0.13435703251957892,0.006575469400174915,-0.004151895515061915
1761479829948403500,5.306403564453125,-0.13330723120570181,-0.010594331386405973,-0.0011576456025242806
1761479829958439700,5.316439697265625,-0.13929098179042337,-0.008835724216047674,-0.0033122480868361887
1761479829968475600,5.3264755859375,-0.1404886671423912,0.00026511720959097147,-0.003545216592494398
1761479829978510300,5.33651025390625,-0.14333295065760612,-0.008939367253612726,-0.005926321309059858
1761479829988546300,5.34654638671875,-0.12911796282231808,-0.0034914771112613376,-0.0027987456067465246
1761479829998582300,5.356582275390625,-0.1401928990662098,-0.0034043833496980366,-0.005340374647267163
1761479830008618200,5.3666181640625,-0.13600129259526728,-0.0029719832818023858,-0.001202361527085304
1761479830018654500,5.376654541015625,-0.14587503635585308,-0.0002107384075410664,-0.0006448555084876716
1761479830028690700,5.386690673828125,-0.14393267011642455,-0.0029523287332616746,-0.004941456723865121
1761479830038726700,5.3967265625,-0.13675181870162487,-0.0070897755978628985,-0.0038514512637630102
1761479830048762600,5.4067626953125,-0.13824761021733284,-0.008039861130621283,0.0004988346339203416
1761479830058798600,5.416798583984375,-0.13764905980229378,-0.0015230448488146066,0.0016357114430516958
1761479830068834600,5.42683447265625,-0.13361001354455948,-0.009735212072730063,-0.008948957065865397
1761479830078869500,5.436869384765625,-0.14288871402144432,-0.002342654136009514,-0.006999850558396428
1761479830088905500,5.446905517578125,-0.14887480269372463,-0.007146035829745233,0.0026123196565546094
1761479830098941400,5.45694140625,-0.13974632434248924,-0.009804276987258345,-0.010416381003614514
1761479830108977700,5.466977783203125,-0.1361573599398136,-0.0016691753212362526,-0.01067828334281221
1761479830119013600,5.477013671875,-0.14618483295738696,-0.00815879306886345,-0.005753302829712629
1761479830129049600,5.487049560546875,-0.13406360253095626,-0.010513283773139119,-0.002089684021938592
1761479830139085600,5.49708544921875,-0.1466325767248869,-0.0015006503539159893,-0.009646857935842126
1761479830149121500,5.50712158203125,-0.14423954410851,-0.004199351385980844,-0.004771689647529274
1761479830159156500,5.517156494140625,-0.13257073362469673,-0.008006050192564725,-0.006075301325693726
1761479830169192400,5.5271923828125,-0.1303238314807415,-0.008638904736004769,-0.0021058679717592893
1761479830179228700,5.537228759765625,-0.13331482999026775,0.0013575155561789869,0.0003614537235349417
1761479830189264600,5.5472646484375,-0.13032090887129305,-0.0020486213591881094,-0.012721552673447876
1761479830199300600,5.557300537109375,-0.1334650521159172,0.0024296017671003936,-0.005417823797650635
1761479830209336600,5.567336669921875,-0.14020225141644477,-0.003491148317698389,-0.00457757358122617
1761479830219372500,5.57737255859375,-0.14050444923341274,-0.006400167632196098,-0.005856617073714733
1761479830229408500,5.587408447265625,-0.14364625439047812,-0.004958754918538034,0.0016416479934938252
1761479830239444500,5.597444580078125,-0.14065525588095187,-0.009934935895912348,-0.01456308888690546
1761479830249479400,5.6074794921875,-0.13213058864176272,-0.002918152469024062,-0.011627309429645538
1761479830259515600,5.617515625,-0.13467910408079622,-0.00023475860394537448,0.003879636178631335
1761479830269551600,5.627551513671875,-0.14051613967120646,-0.01366690723216161,-0.003124927087500691
1761479830279587600,5.637587646484375,-0.14066460823118687,-0.0028698015489615498,-0.01006820688676089
1761479830289623600,5.64762353515625,-0.147546184438467,-0.0012797376122325658,-0.0020120704747736452
1761479830299659500,5.657659423828125,-0.14066168562173842,-0.003451437361817807,0.0011166560050100088
1761479830309695500,5.667695556640625,-0.13243161741495132,-0.008477795890159904,-0.004155384380090981
1761479830319731500,5.6777314453125,-0.13946341574788093,-0.00819280493631959,-0.01588914985889569
1761479830329766400,5.687766357421875,-0.1415548350691795,-0.008492975192982703,-0.00569855870148167
1761479830339802600,5.697802734375,-0.13063070547282696,-0.009468542226869612,0.00003790259128436446
1761479830349838600,5.707838623046875,-0.1409592072635889,0.0023092085241340097,-0.005248677775822579
1761479830359874600,5.71787451171875,-0.1393114400565624,-0.00018554916735738516,-0.0016416297271847724
1761479830369910500,5.72791064453125,-0.14724281757771968,-0.008252261772286147,0.001537913624383509
1761479830379945700,5.73794580078125,-0.14709493353962896,-0.0132925026955083,-0.006813406341895461
1761479830389981700,5.747981689453125,-0.14260405186116695,-0.003414027960877865,0.0052272879279218615
1761479830400017700,5.758017578125,-0.14484920043945312,0.00035608342867344617,-0.0016834595749154685
1761479830410053600,5.7680537109375,-0.13901216484904289,0.00020039967661723493,-0.0062366293672472236
1761479830420088800,5.7780888671875,-0.13467150529623031,-0.008129950566869229,-0.004114047722704709
1761479830430124800,5.788124755859375,-0.14349720130860805,-0.0033809842078015204,-0.000631046178843826
1761479830440160800,5.798160888671875,-0.14529635968506335,-0.0092568174386397,-0.002233019749075174
1761479830450196700,5.80819677734375,-0.14484861591756343,-0.0025735037498176095,0.0013306092829443513
1761479830460232700,5.818232666015625,-0.14259996020793914,-0.003843852479197085,-0.007943013160023838
1761479830470269000,5.82826904296875,-0.14454291096925734,-0.00695226682331413,-0.013225611471757291
1761479830480305000,5.838304931640625,-0.1366150405794382,-0.0072455506814643736,-0.0035270050823688506
1761479830490340900,5.8483408203125,-0.13781506401896476,-0.006417264897469431,-0.004341408471483737
1761479830500375800,5.858375732421875,-0.1304845750004053,-0.0012366108565591274,0.00016401318898424505
1761479830510411800,5.868411865234375,-0.14470248544514178,-0.005315130608156323,-0.006277016176562756
1761479830520447700,5.87844775390625,-0.13183248247802257,-0.004178820054605603,0.0037439723012968897
1761479830530484000,5.88848388671875,-0.13781974019408225,-0.007131678510829806,0.00023101401058956978
1761479830540520000,5.89852001953125,-0.14051730871498583,-0.006131214497704059,-0.003554422812256962
1761479830550556000,5.908555908203125,-0.13752280307412146,-0.007420998579915613,0.0003101071287877857
1761479830560592000,5.918591796875,-0.14305997893512248,-0.005927234624512493,-0.0022222060941159724
1761479830570627800,5.9286279296875,-0.13348375681638716,-0.007768295913934707,-0.010926887809019535
1761479830580663000,5.9386630859375,-0.13408172270953655,-0.011042257816996425,-0.004573317531216889
1761479830590699000,5.948698974609375,-0.14545476511716843,0.001654014284722507,-0.002855188501719385
1761479830600735000,5.95873486328125,-0.14500292969644069,-0.0005847410853952169,-0.00403601405043155
1761479830610771000,5.96877099609375,-0.14260346733927726,0.0042348245581611986,-0.0012051380060613154
1761479830620807000,5.978806884765625,-0.14394669864177703,-0.0011755100527778267,-0.011553038617037235
1761479830630843000,5.9888427734375,-0.14020634306967258,-0.0050522966871969395,-0.0028733269466087222
1761479830640878800,5.99887890625,-0.13376841897666453,-0.0034788916243240235,-0.0050684258380904795
1761479830650914800,6.008914794921875,-0.13616320515871047,-0.013560725177638231,-0.008394775515515356
1761479830660950800,6.01895068359375,-0.1446931330949068,-0.006734258424770086,-0.009362287107110023
1761479830670986000,6.028986083984375,-0.13855799134075641,-0.006089658644609153,-0.0037262174488976595
1761479830681022000,6.03902197265625,-0.1439402689009905,-0.00573534704791382,0.0028478637117892503
1761479830691058000,6.049057861328125,-0.1439396843791008,-0.002825907608307898,-0.0026197175117209552
1761479830701094000,6.059093994140625,-0.14618424843549727,-0.0008585530580952763,-0.007563256594818085
1761479830711129900,6.0691298828125,-0.13511281932294367,-0.008563081287126987,0.0018774477770552038
1761479830721165800,6.079165771484375,-0.13287000883221625,-0.0024697328480891884,-0.0006597608166746795
1761479830731201800,6.089201904296875,-0.14229483978152274,-0.0030338512705639004,-0.002178293887153268
1761479830741237800,6.09923779296875,-0.1388537594169378,-0.008119684901181609,-0.0006202142575755714
1761479830751273000,6.10927294921875,-0.1416992119759321,-0.004507193492446095,-0.0020292408052831885
1761479830761309000,6.119308837890625,-0.1393038412719965,-0.00790569509062916,0.0015884747678413986
1761479830771345000,6.129344970703125,-0.15067279202640055,-0.004499430311098694,-0.01080737134888768
1761479830781380900,6.139380859375,-0.14588029705286026,-0.005591371999960393,-0.0033026765408925712
1761479830791416800,6.149416748046875,-0.14348083469569684,-0.00687395915640518,-0.00020717647727578877
1761479830801452800,6.159452880859375,-0.143778940859437,-0.005041574363783001,-0.004227518034540117
1761479830811488800,6.16948876953125,-0.14332710543870925,-0.006582374064996838,-0.002092423968296498
1761479830821524000,6.17952392578125,-0.135992524766922,-0.005401913842465729,0.0003514620524831116
1761479830831560000,6.189559814453125,-0.13838672642707825,-0.0018482764814980327,-0.012942702877148986
1761479830841596000,6.199595947265625,-0.1445224527031183,-0.008217537518776952,-0.015511840979102997
1761479830851631900,6.2096318359375,-0.14377601824998854,-0.009586177257169037,-0.006771065037511289
1761479830861667800,6.219667724609375,-0.14183306748867033,-0.004631221730913967,-0.01071136362850666
1761479830871703800,6.229703857421875,-0.13345745333135128,-0.007024418744072318,-0.0058761072254739696
1761479830881739800,6.23973974609375,-0.1497697057068348,-0.014682714944891631,0.0018828180719166992
1761479830891775700,6.249775634765625,-0.13764730623662472,-0.004831036885641515,-0.005207158455345779
1761479830901811700,6.259811767578125,-0.13719722438156604,-0.013404529968928545,-0.0013486746625974773
1761479830911847000,6.269846923828125,-0.1454249545007944,-0.008204678037203848,-0.004274334584642201
1761479830921883000,6.2798828125,-0.14138298563361168,-0.005201258437521755,-0.007497881474718451
1761479830931918800,6.2899189453125,-0.14736732074022293,-0.015392032258026302,0.001420095930993557
1761479830941954800,6.299954833984375,-0.14422726914882658,-0.011284834401216358,-0.005097140475921333
1761479830951990800,6.30999072265625,-0.1359972009420395,-0.01503678907956928,0.0010089578468352556
1761479830962026800,6.32002685546875,-0.1475210499972105,-0.0062624944608658546,-0.0011071575243026017
1761479830972062700,6.330062744140625,-0.1451280173808336,-0.007946118432562798,-0.003957962111849338
1761479830982098000,6.340097900390625,-0.13570318643152712,-0.009101225018128753,-0.0029991452833637595
1761479830992134000,6.3501337890625,-0.14483049573898316,-0.00523855824060738,0.0011897395075298844
1761479831002169900,6.360169921875,-0.1433288590043783,-0.004881086572445929,-0.008842026092670858
1761479831012205800,6.370205810546875,-0.13779285218715667,-0.009588332681637257,-0.004962426446657627
1761479831022241800,6.38024169921875,-0.14078677330613135,-0.009238057939242572,-0.006134703362733126
1761479831032277800,6.39027783203125,-0.13225684536993504,-0.005764153017289936,-0.008007474964670837
1761479831042313700,6.400313720703125,-0.1383937406897545,0.010999094528704881,-0.008799922250304371
1761479831052349700,6.410349609375,-0.139142513230443,-0.0019006094569340348,-0.0024658603905700145
1761479831062385000,6.420385009765625,-0.12552549128830431,-0.005439834700059145,-0.00793601716365665
1761479831072420900,6.4304208984375,-0.14273556928634643,-0.00738722417447716,-0.010371573747508227
1761479831082456800,6.440456787109375,-0.1409410870850086,-0.00369874492008239,-0.004842526394035667
1761479831092492800,6.450492919921875,-0.14243863216638564,-0.0028227292705327272,-0.005513831518031656
1761479831102528800,6.46052880859375,-0.1371983934253454,-0.00530532160019502,-0.007346709500998258
1761479831112564700,6.470564697265625,-0.13300561791062354,-0.012315730085223912,0.0011224464249797164
1761479831122600700,6.4806005859375,-0.1344979022949934,-0.00899907981790602,-0.000286872383672744
1761479831132636700,6.49063671875,-0.13958441177904604,0.00006438873941078781,-0.005972388940490782
1761479831142672000,6.500671875,-0.1346452018111944,-0.003335939489677548,-0.00923750994997099
1761479831152707800,6.510707763671875,-0.14616495921313763,-0.0016904007723554967,-0.008780980087816715
1761479831162743800,6.520743896484375,-0.13943009800016878,-0.004460450007580221,-0.0038133112104609605
1761479831172779800,6.53077978515625,-0.1350894384473562,-0.008140581558737904,-0.007640194288548082
1761479831182815700,6.540815673828125,-0.13778525340259073,-0.003289013341721147,-0.011805223279818892
1761479831192851700,6.550851806640625,-0.13734043224453926,-0.00986115827364847,-0.00261772648403421
1761479831202887700,6.5608876953125,-0.12686989163458345,-0.0055952079248614605,-0.006417538892105222
1761479831212923600,6.570923583984375,-0.1351034669727087,-0.006392112189903855,-0.00634867490697652
1761479831222958800,6.580958740234375,-0.1318143622994423,-0.009418602137919514,-0.00796557205170393
1761479831232994800,6.590994873046875,-0.13914952749311923,-0.0020632526727393267,-0.0008145312532782554
1761479831243030800,6.60103076171875,-0.14423311436772346,-0.006723956226464361,-0.0031150450143031774
1761479831253066800,6.611066650390625,-0.13869535398483276,-0.0056380058869719505,-0.00143436191836372
1761479831263102700,6.621102783203125,-0.13300912504196166,-0.00024042115975171326,-0.0032645912865176797
1761479831273138700,6.631138671875,-0.14692016149461268,-0.0023182138144969937,-0.0030837548268958927
1761479831283174700,6.641174560546875,-0.14647007963955402,-0.005355462618544697,-0.006864186681061982
1761479831293209900,6.6512099609375,-0.14631635038256643,-0.005578183724824339,-0.00445774659384042
1761479831303245800,6.661245849609375,-0.14452069913744925,-0.004187112958915531,-0.00841457619452849
1761479831313281800,6.67128173828125,-0.14587328279018402,-0.005114749197848141,0.001776307223830372
1761479831323317800,6.68131787109375,-0.13075988481044767,-0.006168441235553473,-0.0076343125370331106
1761479831333353700,6.691353759765625,-0.13959142604172228,-0.00012890534298494458,-0.011436280369572342
1761479831343389700,6.7013896484375,-0.13435527895390986,0.0005710961525328457,-0.009532620439026505
1761479831353425700,6.71142578125,-0.1346592303365469,-0.008048848154675214,-0.009059943159669638
1761479831363461600,6.721461669921875,-0.13256839553713798,-0.004197195961512625,-0.002784991076029837
1761479831373496800,6.731496826171875,-0.14065233327150345,-0.004676065519638359,0.0054924599364399905
1761479831383532800,6.74153271484375,-0.13676234009563923,0.002896031968761235,-0.004136697945930063
1761479831393568800,6.75156884765625,-0.1416997964978218,-0.00017802344802767038,-0.01235014381147921
1761479831403604700,6.761604736328125,-0.14155425054728984,-0.008039039146713911,-0.008169095267169177
1761479831413640700,6.771640625,-0.14664368264079092,0.0001695661469362676,-0.013410795312933623
1761479831423676700,6.7816767578125,-0.1431990951448679,-0.004265749419387429,-0.007492054522130638
1761479831433713000,6.791712890625,-0.14708791927695272,-0.003748794606886804,0.0005593509158119559
1761479831443748900,6.801748779296875,-0.14050503375530243,-0.005219780474901199,-0.004336330437567084
1761479831453783800,6.81178369140625,-0.14125555986166,-0.0006143142397515475,-0.0015583536242134868
1761479831463819800,6.82181982421875,-0.13661620962321758,-0.00013940847069025038,-0.005508223761152476
1761479831473855700,6.831855712890625,-0.13661562510132788,0.0005481902009807527,-0.0018718765527941286
1761479831483892000,6.84189208984375,-0.1397609373897314,0.0007307254273444414,-0.009698880384024233
1761479831493928000,6.851927978515625,-0.1415560041129589,0.002909512504842132,-0.009548804388847202
1761479831503964000,6.8619638671875,-0.1373696583390236,-0.0009586706980131566,0.004061367687396705
1761479831514000000,6.871999755859375,-0.14500351421833038,-0.01131334810964763,-0.005993176000192761
1761479831524034800,6.882034912109375,-0.14290800324380398,-0.005768463866226375,-0.008121493265777826
1761479831534070800,6.89207080078125,-0.13767010259032247,-0.0038944684215821324,-0.0031457872124388813
1761479831544107000,6.90210693359375,-0.1417085643261671,-0.002422697102278471,-0.01397750755129382
1761479831554143000,6.91214306640625,-0.13228197981119155,-0.01641134710209444,-0.008626794173102826
1761479831564179000,6.922178955078125,-0.1402139418542385,-0.008682232421077787,-0.0020507402510382233
1761479831574215000,6.93221484375,-0.1331780518680811,-0.0016928484577685594,-0.009959832875151186
1761479831584251000,6.9422509765625,-0.13676935435831547,-0.009870967281609773,0.0015105324271135032
1761479831594286000,6.9522861328125,-0.14560031106770038,0.0024935886477120217,-0.004172244183346629
1761479831604322000,6.962322021484375,-0.13438158243894577,0.008205079896003007,-0.002752166518662125
1761479831614358000,6.97235791015625,-0.13557985231280326,-0.011297383355535566,-0.004561480962950736
1761479831624394000,6.98239404296875,-0.13886895698606966,-0.01155866464022547,-0.003565583527088165
1761479831634430000,6.992429931640625,-0.13587562038898468,-0.0000912767463363707,-0.010700988364964723
1761479831644466000,7.0024658203125,-0.13273030810058117,-0.00022558891680091617,-0.012353431747108698
1761479831654502000,7.012501953125,-0.1385632520377636,0.002146747971419245,-0.008115154856536537
1761479831664536800,7.022536865234375,-0.13976210643351078,-0.0008244133264757692,-0.0006984488592483103
1761479831674573000,7.032572998046875,-0.14141338077187537,-0.0023488646810874343,-0.0044375988549552855
1761479831684609000,7.042609130859375,-0.13303659757077693,-0.003540686547849327,0.0009154891434125602
1761479831694645000,7.05264501953125,-0.13677870670855044,-0.004121646507270634,-0.005323112985212356
1761479831704681000,7.062680908203125,-0.13947569070756435,-0.0025518581735901533,0.0022724201777018604
1761479831714717000,7.072717041015625,-0.1412725109964609,-0.006304525237996131,-0.0033178558437153695
1761479831724753000,7.0827529296875,-0.14412088616490362,-0.008352233281731606,-0.007727525512129068
1761479831734788900,7.092788818359375,-0.13918226071894169,-0.010580065399035811,-0.016429339416511354
1761479831744823800,7.10282373046875,-0.1384358262658119,0.002711980638746172,-0.0073314206003211434
1761479831754860000,7.112860107421875,-0.13305004157423972,0.0003583484509959817,0.0016512012731283903
1761479831764896000,7.12289599609375,-0.1424795486986637,-0.0015735694596543906,-0.004503028773982077
1761479831774932000,7.132931884765625,-0.13694704901278018,-0.004056581914424896,-0.004514335619285702
1761479831784968000,7.142968017578125,-0.14622691853344438,-0.005859375286381691,-0.0006182414961978793
1761479831795004000,7.15300390625,-0.13769757511913774,0.00292975157527253,-0.006986114293988793
1761479831805039900,7.163039794921875,-0.1281231065660715,-0.004480195887666195,-0.0048608840346336364
1761479831815074800,7.17307470703125,-0.14218845679759978,-0.005252038776688278,-0.006672719229571521
1761479831825111000,7.183111083984375,-0.14158873733878136,-0.0009160736653022468,-0.0005855630693025886
1761479831835147000,7.19314697265625,-0.13919570472240447,-0.0039104331756941975,0.0015914521762169897
1761479831845183000,7.203182861328125,-0.1378483817666769,-0.012831095728836953,0.0012180522865615784
1761479831855219000,7.213218994140625,-0.14128829308748245,-0.001668042810074985,-0.004782685965579003
1761479831865255000,7.2232548828125,-0.1418862589806318,-0.009438512414786965,-0.003792250156123191
1761479831875291000,7.233290771484375,-0.13559797249138356,-0.009145064159855247,0.0005240604067221283
1761479831885325800,7.243325927734375,-0.14053484437167643,-0.012159589675441384,-0.0018961707438342273
1761479831895361800,7.25336181640625,-0.14008067086338996,-0.008443948419485241,-0.0024207791398279366
1761479831905398000,7.26339794921875,-0.13065642443597317,0.0017796134257689116,-0.004425159498490393
1761479831915434000,7.27343408203125,-0.14562193837761878,-0.005491966746095567,0.0009889562384225428
1761479831925470000,7.283469970703125,-0.127364981675148,-0.006053491352684796,-0.0017875044712796805
1761479831935506000,7.293505859375,-0.13364976103305815,-0.015550145429186523,-0.00468079649368301
1761479831945542000,7.3035419921875,-0.13723930995762348,-0.00360686538554728,-0.009693016898818314
1761479831955576800,7.313576904296875,-0.13873627051711082,0.001339450176525861,-0.0114933808516711
1761479831965612800,7.32361279296875,-0.14083470410108564,-0.008732574368827045,-0.0026021270561031994
1761479831975648800,7.333648681640625,-0.14891630374789236,-0.006797258924692869,-0.007605908426456153
1761479831985685000,7.34368505859375,-0.14083470410108564,-0.0025359299520961937,-0.0065139302049763495
1761479831995721000,7.353720947265625,-0.141734867811203,0.006347012672852724,-0.0034609358425252137
1761479832005757000,7.3637568359375,-0.14712357511222363,-0.0072170369730331,-0.00463441833499819
1761479832015793000,7.37379296875,-0.14144202234447,-0.007347093093488365,-0.0027376996018923815
1761479832025827800,7.383827880859375,-0.14249123913645745,-0.00011529694274067878,-0.00749605484381318
1761479832035863800,7.39386376953125,-0.12917641501128674,-0.006713106038887053,-0.005078983764722943
1761479832045899800,7.403899658203125,-0.12079846276640892,-0.005492496469058096,-0.006711991794034838
1761479832055935700,7.413935791015625,-0.12827858938872813,-0.012873126505967229,-0.0016513291372917591
1761479832065972000,7.423971923828125,-0.14848141946196555,-0.01146578045869246,0.003204294200334698
1761479832076008000,7.434008056640625,-0.13501345060169695,-0.006560509293060749,-0.0054626310537569224
1761479832086044000,7.4440439453125,-0.13995324509143828,-0.004070756570249795,0.0011149389719590545
1761479832096080000,7.454079833984375,-0.1405494574189186,0.000009297551307827233,-0.002340553510468453
1761479832106114800,7.46411474609375,-0.14728256506621837,-0.005209697472304106,-0.003455291553027928
1761479832116150800,7.47415087890625,-0.14488836340606212,-0.0026562683961354194,-0.005857091997750103
1761479832126186800,7.484186767578125,-0.14788170000314713,-0.0022080497046001253,0.0035999972533434627
1761479832136222700,7.49422265625,-0.14758125575184822,0.0028901684835553167,-0.002471212419122457
1761479832146259000,7.504259033203125,-0.15670856505930422,-0.0006770590113475918,-0.006279701323993503
1761479832156295000,7.514294921875,-0.1405459502875805,-0.007112882478814571,-0.012059234573505818
1761479832166331000,7.524330810546875,-0.1384492702692747,-0.007267543317563832,-0.002733443551883101
1761479832176365800,7.53436572265625,-0.14577975928783415,-0.006658106182329356,-0.0025158552784472705
1761479832186401800,7.54440185546875,-0.13769406798779962,-0.004513367504905909,-0.009517313272040336
1761479832196437800,7.554437744140625,-0.13514905968010424,0.0005338694146834313,-0.0026730734004639088
1761479832206473700,7.5644736328125,-0.13485095351636409,-0.0032115093924105164,-0.009729403386451303
1761479832216509700,7.574509765625,-0.13320552439689634,-0.001338646458927542,-0.007508841260150075
1761479832226546000,7.5845458984375,-0.1396387723147869,-0.004466331759095192,-0.0019073862575925886
1761479832236582000,7.594581787109375,-0.15370587611198425,-0.003415872858092189,-0.003191233789362013
1761479832246616800,7.604616943359375,-0.13649988976716995,-0.0005826039272360503,-0.003971588778402656
1761479832256652800,7.61465283203125,-0.1547615226447582,-0.007271762834955006,-0.00926788682192564
1761479832266688800,7.624688720703125,-0.14563713594675062,0.005002520995028317,-0.00833133662417531
1761479832276724700,7.634724853515625,-0.14339607902169227,0.0028010836943052706,-0.005929298717435449
1761479832286760700,7.6447607421875,-0.12933306687772272,-0.0051468431028537445,-0.001447166601009667
1761479832296796700,7.654796630859375,-0.14040274242460726,-0.00011476721977815032,-0.0011272869968786835
1761479832306832000,7.664831787109375,-0.14728665671944619,-0.002033314192201942,-0.003358352250885218
1761479832316867800,7.674867919921875,-0.1413034906566143,0.005929609244689345,-0.005128375864401459
1761479832326903800,7.68490380859375,-0.1422013162791729,0.0011095686770975588,-0.0012340718396008014
1761479832336939800,7.694939697265625,-0.136814947065711,-0.001357387692015618,0.0018389606638811527
1761479832346975700,7.704975830078125,-0.1453419523924589,-0.007993135912064462,0.004191588204633444
1761479832357011700,7.71501171875,-0.13995382961332797,-0.013142664162348956,-0.0016477306744083762
1761479832367047700,7.725047607421875,-0.13486907369494439,-0.0045890082906931634,-0.0028744594577699897
1761479832377084000,7.735083984375,-0.1392068106383085,-0.0003939860199578106,-0.0012750614371150732
1761479832387119900,7.745119873046875,-0.14444704937934874,-0.00734044415699318,-0.008867014403454958
1761479832397155800,7.75515576171875,-0.15072890612781048,-0.006887604089267551,0.001786737286299467
1761479832407191800,7.76519189453125,-0.13995149152576922,-0.003281816415954381,-0.001970240627042949
1761479832417227800,7.775227783203125,-0.13815642480254173,-0.00278150221100077,-0.0015161036513745784
1761479832427263700,7.785263671875,-0.1375613815188408,-0.00021720468094572424,-0.010472513371333479
1761479832437299700,7.7952998046875,-0.1369640001475811,-0.0025923728470690546,0.002275945575349033
1761479832447334700,7.805334716796875,-0.1487847863227129,-0.000055054655484855174,-0.0026884718989953395
1761479832457371000,7.815370849609375,-0.14848200398385525,-0.011349095276463776,-0.0014327727494761347
1761479832467406800,7.82540673828125,-0.1474333717137575,0.002076587078347802,-0.00040180400023236867
1761479832477442800,7.83544287109375,-0.13800737172067165,-0.0023505086489021775,0.00047996553666889666
1761479832487478800,7.845478759765625,-0.14234861579537392,0.0026055976548232137,-0.005570932000130415
1761479832497514800,7.8555146484375,-0.14668693726062773,0.0018317637381143866,-0.00964371613068506
1761479832507550700,7.86555078125,-0.14593699567615984,0.001554115840513259,-0.004987049431260675
1761479832517585700,7.875585693359375,-0.13157061667144299,0.0011662307677790522,-0.004061258089542389
1761479832527621600,7.88562158203125,-0.14458967272043227,-0.013040975619852542,-0.003281432823464274
1761479832537657900,7.895657958984375,-0.14219722462594508,-0.005237480528373271,-0.006644790043029934
1761479832547693800,7.90569384765625,-0.14129939900338648,-0.0014280600417405367,-0.0027920966702513397
1761479832557729800,7.915729736328125,-0.13950608584582805,-0.005962689530383795,-0.007127166732493788
1761479832567765800,7.925765869140625,-0.13292729197740555,0.001984890206903219,-0.001390796771273017
1761479832577801700,7.9358017578125,-0.14130582874417305,-0.006250785756763071,-0.0024597777096554635
1761479832587836700,7.945836669921875,-0.14983341859281063,-0.011782445192430168,0.005234758848324418
1761479832597872600,7.95587255859375,-0.13936229346096515,0.0032840449056588113,0.0020579189104959366
1761479832607908600,7.96590869140625,-0.13711714488267898,-0.002064111189264804,-0.0012883958427235484
1761479832617944800,7.97594482421875,-0.1416039349079132,-0.0045341362982988355,-0.000579334257915616
1761479832627980800,7.985980712890625,-0.1354687931537628,-0.004516125717572868,-0.0055308922506868835
1761479832638016800,7.996016845703125,-0.13831249214708805,0.0011651530555449425,-0.003116104460228234
1761479832648051700,8.0060517578125,-0.14878186371326446,-0.0028679566517472266,-0.006504760517831891
1761479832658086700,8.016086669921876,-0.14877835658192634,-0.00289734714301303,-0.00666548577118665
1761479832668123000,8.026122802734376,-0.1342623399734497,-0.0045325836620293556,-0.004655534188263118
1761479832678158800,8.036158935546876,-0.13905074329376219,-0.007787165011186152,0.0003876110780984163
1761479832688194800,8.04619482421875,-0.13231588208079337,-0.002924034220539033,-0.0034694114099256693
1761479832698230800,8.056230712890626,-0.13905308138132094,-0.0034830563427880406,0.0026418562782928347
1761479832708266800,8.066266845703124,-0.14593348854482174,-0.008369604541640728,-0.0002164192296564579
1761479832718301700,8.0763017578125,-0.14189444228708742,0.000760919636208564,-0.0009195259977132082
1761479832728337700,8.086337646484376,-0.1415957516014576,0.010287092068139462,0.00247696630647406
1761479832738373600,8.09637353515625,-0.12453648025095462,-0.004525587665662169,-0.003948171370197088
1761479832748409900,8.106409912109376,-0.1249906537592411,-0.00604704334558919,-0.0021818375511094925
1761479832758445800,8.11644580078125,-0.1369640001475811,-0.009933364993333816,-0.004613412079587579
1761479832768481800,8.126481689453126,-0.1381575938463211,-0.004513276173360645,0.00357709130179137
1761479832778517800,8.136517822265626,-0.14084814810454846,-0.0005138312736526131,-0.005209003352560103
1761479832788552700,8.146552734375,-0.1420440798908472,-0.005062032629922032,-0.007290157008171081
1761479832798588700,8.156588623046876,-0.14877368040680886,-0.005476805709581822,0.0019012487777508795
1761479832808624600,8.166624755859376,-0.1326110656350851,-0.004376169257611036,0.0017652378405444322
1761479832818660900,8.176660888671876,-0.14174012850821016,0.00070951824253425,-0.0014568294784985483
1761479832828696800,8.18669677734375,-0.1372510003954172,-0.008847944376803933,-0.0059580498878844075
1761479832838732800,8.19673291015625,-0.15356149920523166,-0.005945829727128147,-0.0021411219482310117
1761479832848768800,8.206768798828126,-0.1433855576276779,-0.003969305489771068,-0.0020427944066002965
1761479832858803700,8.2168037109375,-0.14233984796702862,-0.004077789099235087,-0.006040339610166847
1761479832868839700,8.226839599609375,-0.13410919523835182,-0.0067375646267086265,-0.0055198959326371545
1761479832878875600,8.236875732421876,-0.13096329842805862,-0.005560757665988058,-0.007772296235617249
1761479832888911600,8.24691162109375,-0.13829554101228714,-0.0016326975020579994,-0.0094873565251939
1761479832898947800,8.25694775390625,-0.13694412640333176,-0.00675142875527963,-0.00007996990103274583
1761479832908983800,8.26698388671875,-0.1507102014273405,-0.007640486549492925,-0.0014775434729643166
1761479832919018800,8.277018798828125,-0.14008534703850745,-0.0061024450609460466,-0.005293375434074551
1761479832929054700,8.2870546875,-0.14143150095045565,-0.0016646818092092871,-0.0043811376936733724
1761479832939090700,8.297090576171875,-0.13394786719679833,-0.0037582017560489475,-0.00012751710349693894
1761479832949126700,8.307126708984375,-0.140531921762228,-0.002457878013513982,-0.003977945453952998
1761479832959162600,8.31716259765625,-0.13514555254876612,-0.016617665062844754,-0.005502031482383609
1761479832969198600,8.327198486328125,-0.13275427349805832,-0.008282017589733005,0.0009759140937589108
1761479832979234800,8.33723486328125,-0.1346978087812662,-0.000840505944751203,-0.0025438209976069628
1761479832989269800,8.347269775390625,-0.13709084139764308,-0.0033457850302569567,-0.006824859317671507
1761479832999305700,8.3573056640625,-0.14502280344069005,-0.003692899701185524,0.00840538824107498
1761479833009341700,8.367341796875,-0.13230126903355122,-0.0034181561467237767,-0.0008257832996547221
1761479833019377700,8.377377685546875,-0.13139759819209576,0.0014717895856127142,0.0005639722920022904
1761479833029413600,8.38741357421875,-0.1369341895312071,-0.003546111641637981,-0.0005608487531542777
1761479833039449600,8.39744970703125,-0.13469079451858998,-0.00887923456421122,0.005269501368142664
1761479833049484800,8.40748486328125,-0.13573825774490833,-0.008459931439906358,-0.0006684555797837674
1761479833059520800,8.417520751953125,-0.13379063080847262,-0.0010023271766491234,-0.006149462540447711
1761479833069556700,8.427556640625,-0.13154431318640708,-0.00047996553666889666,-0.009901819077599794
1761479833079592700,8.4375927734375,-0.1423182206571102,-0.003080795684829354,-0.011921214342303574
1761479833089628700,8.447628662109375,-0.14725626158118246,-0.00509914976991713,-0.0012240801685489714
1761479833099664600,8.45766455078125,-0.13064824112951753,-0.0054190841729752715,0.0001222564064897597
1761479833109700600,8.46770068359375,-0.14262217203974722,-0.008000698164012283,-0.0032636597047559913
1761479833119735800,8.47773583984375,-0.13170330314040182,-0.006950147931464016,-0.0030386735761538147
1761479833129771800,8.487771728515625,-0.1346983933031559,-0.0021955007502809164,-0.003168035576865077
1761479833139807700,8.497807861328125,-0.12916180196404456,-0.006499499820824712,-0.0018467238452285527
1761479833149843700,8.50784375,-0.14517419461011885,-0.000294507700856775,-0.009816460615396498
1761479833159879700,8.517879638671875,-0.1391904440253973,-0.007901219844911248,-0.0020930998217314483
1761479833169915600,8.52791552734375,-0.13844342505037785,0.004372808256745338,-0.007279398152139038
1761479833179951600,8.53795166015625,-0.14278174651563166,-0.001979099786933511,0.001249488604441285
1761479833189986800,8.54798681640625,-0.13066051608920096,-0.004322210580669343,0.0031326354699209333
1761479833200022800,8.558022705078125,-0.12856558963656425,-0.0021932539942674336,0.0005881386188790202
1761479833210058800,8.568058837890625,-0.12886252675652504,-0.008083298413548618,-0.007991930335666983
1761479833220094700,8.5780947265625,-0.14023323107659816,0.0023157478627748784,-0.007242829001415521
1761479833230130700,8.588130615234375,-0.12975976785719395,-0.0021486476675607264,-0.0070615358840674155
1761479833240166700,8.598166748046875,-0.13262158702909946,-0.008563318749144674,-0.006877722016070038
1761479833250202600,8.60820263671875,-0.22615561077296734,0.028922325764782725,-0.014765972781553864
1761479833260238600,8.618238525390625,-0.010221534284949303,-0.05555277773272246,0.023892697567120192
1761479833270274600,8.628274658203125,-0.16163666911125182,0.011478347679320723,0.0058486346966587005
1761479833280309800,8.638309814453125,-0.08995616525709628,-0.008170446974039076,-0.05031538853589445
1761479833290345700,8.648345703125,-0.17255787609815595,0.020754180345684287,0.04585053634783253
1761479833300381700,8.658381591796875,-0.1761468405008316,-0.031146650750748812,0.0243531546857208
