time,seconds_elapsed,z,y,x
1761479824712171300,0.070171142578125,-1.0122528076171875,-0.023773193359375,-0.0158538818359375
1761479824722210300,0.080210205078125,-1.01312255859375,-0.021240234375,-0.0155029296875
1761479824732245500,0.09024560546875,-1.0125885009765625,-0.021697998046875,-0.020263671875
1761479824742281500,0.100281494140625,-1.0139007568359375,-0.02191162109375,-0.01824951171875
1761479824752317400,0.1103173828125,-1.0126190185546875,-0.0233154296875,-0.015045166015625
1761479824762353400,0.120353515625,-1.0125579833984375,-0.0207061767578125,-0.0180206298828125
1761479824772389400,0.130389404296875,-1.0125579833984375,-0.0221405029296875,-0.02056884765625
1761479824782425300,0.14042529296875,-1.012603759765625,-0.022186279296875,-0.0149993896484375
1761479824792461300,0.15046142578125,-1.012603759765625,-0.022735595703125,-0.0160675048828125
1761479824802497300,0.160497314453125,-1.01226806640625,-0.021484375,-0.0202484130859375
1761479824812532500,0.170532470703125,-1.0130767822265625,-0.0223236083984375,-0.01708984375
1761479824822568400,0.180568359375,-1.0126495361328125,-0.0223388671875,-0.01483154296875
1761479824832604400,0.1906044921875,-1.0126190185546875,-0.0231475830078125,-0.0185546875
1761479824842640400,0.200640380859375,-1.0126495361328125,-0.02142333984375,-0.0186004638671875
1761479824852676400,0.21067626953125,-1.012786865234375,-0.021881103515625,-0.0153350830078125
1761479824862712300,0.22071240234375,-1.01275634765625,-0.022125244140625,-0.0178985595703125
1761479824872748300,0.230748291015625,-1.012939453125,-0.0229339599609375,-0.0196380615234375
1761479824882784300,0.2407841796875,-1.012603759765625,-0.0219573974609375,-0.0164947509765625
1761479824892819500,0.2508193359375,-1.0133209228515625,-0.0220947265625,-0.0163116455078125
1761479824902855400,0.26085546875,-1.0132293701171875,-0.0225067138671875,-0.0193023681640625
1761479824912891400,0.270891357421875,-1.0128631591796875,-0.0223541259765625,-0.0175323486328125
1761479824922927400,0.28092724609375,-1.0133819580078125,-0.0224456787109375,-0.0155792236328125
1761479824932963300,0.29096337890625,-1.013336181640625,-0.0217437744140625,-0.019256591796875
1761479824942999300,0.300999267578125,-1.0127716064453125,-0.021270751953125,-0.0203857421875
1761479824953035300,0.31103515625,-1.0117645263671875,-0.0223541259765625,-0.0158843994140625
1761479824963071200,0.3210712890625,-1.0120697021484375,-0.0217437744140625,-0.0167083740234375
1761479824973106400,0.3311064453125,-1.01263427734375,-0.02142333984375,-0.0194854736328125
1761479824983142400,0.341142333984375,-1.0126953125,-0.0223236083984375,-0.01666259765625
1761479824993178400,0.351178466796875,-1.0121307373046875,-0.0223236083984375,-0.015777587890625
1761479825003214300,0.36121435546875,-1.012115478515625,-0.02203369140625,-0.0186767578125
1761479825013250300,0.371250244140625,-1.0121307373046875,-0.0218505859375,-0.0188751220703125
1761479825023286300,0.381286376953125,-1.01214599609375,-0.0226593017578125,-0.0160369873046875
1761479825033322200,0.391322265625,-1.012054443359375,-0.021636962890625,-0.0171356201171875
1761479825043358200,0.401358154296875,-1.0133209228515625,-0.0222320556640625,-0.019256591796875
1761479825053393400,0.411393310546875,-1.0126800537109375,-0.0209197998046875,-0.0159149169921875
1761479825063429400,0.421429443359375,-1.0119476318359375,-0.0218963623046875,-0.016387939453125
1761479825073465300,0.43146533203125,-1.0123443603515625,-0.0224456787109375,-0.0181732177734375
1761479825083501300,0.441501220703125,-1.0119171142578125,-0.0228271484375,-0.01776123046875
1761479825093537300,0.451537353515625,-1.012939453125,-0.0224456787109375,-0.01544189453125
1761479825103573200,0.4615732421875,-1.0119781494140625,-0.0220489501953125,-0.017547607421875
1761479825113609200,0.471609130859375,-1.0123291015625,-0.0226287841796875,-0.0190277099609375
1761479825123645200,0.481645263671875,-1.0128326416015625,-0.0225372314453125,-0.01690673828125
1761479825133680400,0.491680419921875,-1.0128326416015625,-0.02191162109375,-0.0171051025390625
1761479825143716400,0.50171630859375,-1.011932373046875,-0.0218048095703125,-0.0188446044921875
1761479825153752300,0.51175244140625,-1.012420654296875,-0.022186279296875,-0.016998291015625
1761479825163788300,0.521788330078125,-1.0127716064453125,-0.021484375,-0.016571044921875
1761479825173824300,0.53182421875,-1.0120849609375,-0.0222320556640625,-0.018463134765625
1761479825183860200,0.541860107421875,-1.013092041015625,-0.0223388671875,-0.01837158203125
1761479825193896200,0.551896240234375,-1.0125274658203125,-0.0221710205078125,-0.0163726806640625
1761479825203932200,0.56193212890625,-1.0118255615234375,-0.021636962890625,-0.0173187255859375
1761479825213967400,0.57196728515625,-1.0126190185546875,-0.0215911865234375,-0.0185546875
1761479825224003300,0.58200341796875,-1.0125885009765625,-0.0222320556640625,-0.0170135498046875
1761479825234039300,0.592039306640625,-1.012939453125,-0.022308349609375,-0.0166778564453125
1761479825244075300,0.6020751953125,-1.0131683349609375,-0.02203369140625,-0.017852783203125
1761479825254111200,0.612111328125,-1.012481689453125,-0.021820068359375,-0.017578125
1761479825264147200,0.622147216796875,-1.0120086669921875,-0.0228118896484375,-0.01641845703125
1761479825274183200,0.63218310546875,-1.012481689453125,-0.0224151611328125,-0.0179901123046875
1761479825284219400,0.642219482421875,-1.0122833251953125,-0.0220794677734375,-0.018798828125
1761479825294255400,0.65225537109375,-1.0120086669921875,-0.0224456787109375,-0.016510009765625
1761479825304290300,0.662290283203125,-1.012664794921875,-0.0220947265625,-0.01702880859375
1761479825314326300,0.672326171875,-1.013946533203125,-0.0222320556640625,-0.0177001953125
1761479825324362200,0.6823623046875,-1.01190185546875,-0.0221405029296875,-0.016632080078125
1761479825334398200,0.692398193359375,-1.0113677978515625,-0.0227203369140625,-0.0172119140625
1761479825344434200,0.70243408203125,-1.0131988525390625,-0.0220184326171875,-0.01885986328125
1761479825354470100,0.71247021484375,-1.0130767822265625,-0.0221099853515625,-0.0180206298828125
1761479825364506400,0.72250634765625,-1.0119781494140625,-0.021820068359375,-0.0172271728515625
1761479825374542800,0.73254296875,-1.012054443359375,-0.0214996337890625,-0.017242431640625
1761479825384578800,0.742578857421875,-1.011260986328125,-0.0217437744140625,-0.0190582275390625
1761479825394613800,0.75261376953125,-1.011932373046875,-0.0221710205078125,-0.0177001953125
1761479825404649700,0.762649658203125,-1.012420654296875,-0.0220489501953125,-0.0171356201171875
1761479825414686000,0.77268603515625,-1.012115478515625,-0.0228271484375,-0.018280029296875
1761479825424722000,0.782721923828125,-1.0121307373046875,-0.021759033203125,-0.0164642333984375
1761479825434758000,0.7927578125,-1.012451171875,-0.0224609375,-0.0168609619140625
1761479825444793900,0.8027939453125,-1.0128326416015625,-0.0225677490234375,-0.0176239013671875
1761479825454829800,0.812829833984375,-1.0126800537109375,-0.022491455078125,-0.01763916015625
1761479825464866000,0.822865966796875,-1.0121612548828125,-0.0224761962890625,-0.01776123046875
1761479825474902000,0.832902099609375,-1.0120849609375,-0.02276611328125,-0.0174713134765625
1761479825484937000,0.84293701171875,-1.012908935546875,-0.0217437744140625,-0.018035888671875
1761479825494973000,0.852972900390625,-1.0126953125,-0.0218505859375,-0.0177154541015625
1761479825505009000,0.8630087890625,-1.01153564453125,-0.0223846435546875,-0.017120361328125
1761479825515044900,0.873044921875,-1.012908935546875,-0.022125244140625,-0.018035888671875
1761479825525080800,0.883080810546875,-1.0137481689453125,-0.0218048095703125,-0.01788330078125
1761479825535116800,0.89311669921875,-1.0127105712890625,-0.0216522216796875,-0.0168609619140625
1761479825545153000,0.903153076171875,-1.0134124755859375,-0.0225372314453125,-0.0183868408203125
1761479825555189000,0.91318896484375,-1.01324462890625,-0.021636962890625,-0.0179901123046875
1761479825565225000,0.923224853515625,-1.0122222900390625,-0.02227783203125,-0.016326904296875
1761479825575260000,0.933260009765625,-1.01251220703125,-0.021636962890625,-0.0167083740234375
1761479825585296000,0.9432958984375,-1.01190185546875,-0.0223541259765625,-0.017547607421875
1761479825595331800,0.953331787109375,-1.0124664306640625,-0.02142333984375,-0.0185394287109375
1761479825605367800,0.963367919921875,-1.014007568359375,-0.0221405029296875,-0.0169677734375
1761479825615403800,0.97340380859375,-1.0124969482421875,-0.0216827392578125,-0.0180816650390625
1761479825625440000,0.98343994140625,-1.0118865966796875,-0.0217437744140625,-0.0183868408203125
1761479825635476000,0.99347607421875,-1.01318359375,-0.022705078125,-0.0174407958984375
1761479825645512000,1.003511962890625,-1.0123443603515625,-0.0220489501953125,-0.017364501953125
1761479825655548000,1.0135478515625,-1.0129241943359375,-0.0222015380859375,-0.01812744140625
1761479825665583900,1.023583984375,-1.0128173828125,-0.0222320556640625,-0.0178375244140625
1761479825675618800,1.033618896484375,-1.0121917724609375,-0.02166748046875,-0.0166168212890625
1761479825685654800,1.04365478515625,-1.0125274658203125,-0.0218353271484375,-0.01800537109375
1761479825695690800,1.053690673828125,-1.0123138427734375,-0.0214691162109375,-0.0177001953125
1761479825705727000,1.06372705078125,-1.0129852294921875,-0.0227508544921875,-0.01702880859375
1761479825715763000,1.073762939453125,-1.0134735107421875,-0.0221405029296875,-0.0178375244140625
1761479825725799000,1.083798828125,-1.013031005859375,-0.022613525390625,-0.018646240234375
1761479825735835000,1.0938349609375,-1.012542724609375,-0.02203369140625,-0.017486572265625
1761479825745870800,1.103870849609375,-1.0131378173828125,-0.0233612060546875,-0.0176544189453125
1761479825755906800,1.11390673828125,-1.0131378173828125,-0.022064208984375,-0.01849365234375
1761479825765942800,1.12394287109375,-1.0138702392578125,-0.0220489501953125,-0.0178680419921875
1761479825775978800,1.133978759765625,-1.0126800537109375,-0.0221405029296875,-0.0175933837890625
1761479825786014000,1.144013916015625,-1.0131072998046875,-0.023040771484375,-0.017669677734375
1761479825796050000,1.1540498046875,-1.012664794921875,-0.022369384765625,-0.0180206298828125
1761479825806086000,1.1640859375,-1.013275146484375,-0.022003173828125,-0.017608642578125
1761479825816121900,1.174121826171875,-1.013214111328125,-0.0216217041015625,-0.017608642578125
1761479825826157800,1.18415771484375,-1.01287841796875,-0.022216796875,-0.0176849365234375
1761479825836193800,1.19419384765625,-1.0125579833984375,-0.02276611328125,-0.0175018310546875
1761479825846229800,1.204229736328125,-1.0130615234375,-0.02227783203125,-0.0170745849609375
1761479825856265700,1.214265625,-1.0138092041015625,-0.0219879150390625,-0.0178375244140625
1761479825866301700,1.2243017578125,-1.0136260986328125,-0.0220184326171875,-0.0177001953125
1761479825876337700,1.234337646484375,-1.0130157470703125,-0.021759033203125,-0.017333984375
1761479825886372900,1.244372802734375,-1.0128936767578125,-0.0223236083984375,-0.017791748046875
1761479825896408800,1.254408935546875,-1.0131072998046875,-0.02191162109375,-0.018524169921875
1761479825906444800,1.26444482421875,-1.0127105712890625,-0.0222320556640625,-0.018402099609375
1761479825916480800,1.274480712890625,-1.0123443603515625,-0.021820068359375,-0.0176544189453125
1761479825926516700,1.284516845703125,-1.0126190185546875,-0.0225677490234375,-0.0175323486328125
1761479825936552700,1.294552734375,-1.0131683349609375,-0.021270751953125,-0.0182342529296875
1761479825946588700,1.304588623046875,-1.0128173828125,-0.02215576171875,-0.017303466796875
1761479825956624600,1.314624755859375,-1.0124664306640625,-0.0217742919921875,-0.016937255859375
1761479825966660900,1.324660888671875,-1.0131683349609375,-0.0215301513671875,-0.017974853515625
1761479825976696800,1.33469677734375,-1.0119171142578125,-0.0232391357421875,-0.0173187255859375
1761479825986733000,1.344733154296875,-1.0135650634765625,-0.022674560546875,-0.0170135498046875
1761479825996767700,1.354767822265625,-1.01300048828125,-0.021240234375,-0.01885986328125
1761479826006803700,1.3648037109375,-1.0129241943359375,-0.0212249755859375,-0.017547607421875
1761479826016839700,1.374839599609375,-1.0135345458984375,-0.0211944580078125,-0.0178375244140625
1761479826026875600,1.384875732421875,-1.0131683349609375,-0.0214385986328125,-0.01800537109375
1761479826036911900,1.394911865234375,-1.014007568359375,-0.02093505859375,-0.0174102783203125
1761479826046947800,1.40494775390625,-1.01275634765625,-0.022369384765625,-0.01715087890625
1761479826056984000,1.414984130859375,-1.0135650634765625,-0.022003173828125,-0.0178070068359375
1761479826067020000,1.42502001953125,-1.0133056640625,-0.0214691162109375,-0.0177001953125
1761479826077056000,1.435055908203125,-1.01263427734375,-0.0228271484375,-0.0176239013671875
1761479826087092000,1.445092041015625,-1.012664794921875,-0.02239990234375,-0.0172119140625
1761479826097128000,1.4551279296875,-1.013427734375,-0.0224151611328125,-0.0174102783203125
1761479826107163000,1.465162841796875,-1.013031005859375,-0.02178955078125,-0.017364501953125
1761479826117198800,1.47519873046875,-1.0139923095703125,-0.02276611328125,-0.0176239013671875
1761479826127234800,1.48523486328125,-1.013031005859375,-0.0222015380859375,-0.0175323486328125
1761479826137271000,1.49527099609375,-1.0126953125,-0.0224456787109375,-0.0181427001953125
1761479826147307000,1.50530712890625,-1.0133819580078125,-0.02215576171875,-0.017364501953125
1761479826157343000,1.515343017578125,-1.0136871337890625,-0.0218963623046875,-0.0169525146484375
1761479826167379000,1.52537890625,-1.01373291015625,-0.0223541259765625,-0.0182342529296875
1761479826177415000,1.535414794921875,-1.013702392578125,-0.022003173828125,-0.01702880859375
1761479826187451000,1.545450927734375,-1.0129852294921875,-0.022918701171875,-0.0176544189453125
1761479826197486800,1.55548681640625,-1.01373291015625,-0.023193359375,-0.017333984375
1761479826207522800,1.565522705078125,-1.013671875,-0.0216064453125,-0.0174713134765625
1761479826217558000,1.57555810546875,-1.0133056640625,-0.0220184326171875,-0.0177764892578125
1761479826227594000,1.585593994140625,-1.0135498046875,-0.022125244140625,-0.0177154541015625
1761479826237630000,1.5956298828125,-1.0129241943359375,-0.0224151611328125,-0.0182037353515625
1761479826247666000,1.605666015625,-1.01190185546875,-0.0219573974609375,-0.016815185546875
1761479826257702000,1.615701904296875,-1.01202392578125,-0.0228729248046875,-0.017181396484375
1761479826267737900,1.62573779296875,-1.01336669921875,-0.0217437744140625,-0.0173492431640625
1761479826277773800,1.63577392578125,-1.0125274658203125,-0.0207366943359375,-0.0176849365234375
1761479826287809800,1.645809814453125,-1.0140380859375,-0.0212860107421875,-0.0178070068359375
1761479826297845800,1.655845703125,-1.0138397216796875,-0.0219879150390625,-0.0177154541015625
1761479826307881700,1.6658818359375,-1.0148162841796875,-0.0228729248046875,-0.01837158203125
1761479826317917700,1.675917724609375,-1.0142974853515625,-0.0220947265625,-0.01727294921875
1761479826327953000,1.685952880859375,-1.0136566162109375,-0.02154541015625,-0.017303466796875
1761479826337988900,1.69598876953125,-1.0143585205078125,-0.022125244140625,-0.017730712890625
1761479826348024800,1.70602490234375,-1.01495361328125,-0.0219573974609375,-0.017608642578125
1761479826358060800,1.716060791015625,-1.0132904052734375,-0.022003173828125,-0.01739501953125
1761479826368096800,1.7260966796875,-1.0137176513671875,-0.02215576171875,-0.016998291015625
1761479826378133500,1.736133544921875,-1.0137786865234375,-0.0224151611328125,-0.01776123046875
1761479826388169500,1.74616943359375,-1.0138092041015625,-0.0216827392578125,-0.01708984375
1761479826398205400,1.756205322265625,-1.0129852294921875,-0.021728515625,-0.0181121826171875
1761479826408241400,1.766241455078125,-1.01336669921875,-0.022308349609375,-0.0186004638671875
1761479826418277400,1.77627734375,-1.0133056640625,-0.0222930908203125,-0.017303466796875
1761479826428313600,1.786313720703125,-1.0129547119140625,-0.0222320556640625,-0.0173797607421875
1761479826438349600,1.796349609375,-1.0121917724609375,-0.022918701171875,-0.017333984375
1761479826448384500,1.806384521484375,-1.0129852294921875,-0.0217742919921875,-0.0171966552734375
1761479826458420500,1.81642041015625,-1.0132598876953125,-0.022064208984375,-0.0176544189453125
1761479826468456400,1.82645654296875,-1.012969970703125,-0.0225830078125,-0.018280029296875
1761479826478492400,1.836492431640625,-1.013397216796875,-0.0215911865234375,-0.0182037353515625
1761479826488528400,1.8465283203125,-1.0134124755859375,-0.0219879150390625,-0.018035888671875
1761479826498564600,1.856564697265625,-1.0133819580078125,-0.0222930908203125,-0.0182342529296875
1761479826508600600,1.8666005859375,-1.013214111328125,-0.0220184326171875,-0.0178985595703125
1761479826518636500,1.876636474609375,-1.0134124755859375,-0.022216796875,-0.01727294921875
1761479826528672500,1.886672607421875,-1.0128326416015625,-0.0223541259765625,-0.01776123046875
1761479826538708500,1.89670849609375,-1.012908935546875,-0.0217132568359375,-0.0171661376953125
1761479826548744400,1.906744384765625,-1.0128021240234375,-0.0222320556640625,-0.0176849365234375
1761479826558779400,1.916779296875,-1.0137176513671875,-0.0220947265625,-0.01739501953125
1761479826568815400,1.9268154296875,-1.0141448974609375,-0.0224609375,-0.0173797607421875
1761479826578851600,1.9368515625,-1.0142669677734375,-0.021026611328125,-0.0179443359375
1761479826588887600,1.946887451171875,-1.0135345458984375,-0.021453857421875,-0.01727294921875
1761479826598923500,1.956923583984375,-1.013916015625,-0.0218505859375,-0.017486572265625
1761479826608959700,1.966959716796875,-1.014068603515625,-0.0219573974609375,-0.0186920166015625
1761479826618995700,1.97699560546875,-1.013702392578125,-0.021881103515625,-0.0174407958984375
1761479826629031700,1.98703173828125,-1.0138092041015625,-0.02215576171875,-0.0172119140625
1761479826639067600,1.997067626953125,-1.0131072998046875,-0.0222930908203125,-0.0181884765625
1761479826649103600,2.007103515625,-1.0128936767578125,-0.0228424072265625,-0.0185699462890625
1761479826659139600,2.0171396484375,-1.01348876953125,-0.02227783203125,-0.0169219970703125
1761479826669174800,2.0271748046875,-1.013824462890625,-0.022705078125,-0.0170745849609375
1761479826679210800,2.037210693359375,-1.013763427734375,-0.02239990234375,-0.017181396484375
1761479826689246700,2.047246826171875,-1.013824462890625,-0.0221710205078125,-0.017974853515625
1761479826699282700,2.05728271484375,-1.014190673828125,-0.0219879150390625,-0.01708984375
1761479826709318700,2.067318603515625,-1.0137176513671875,-0.0221099853515625,-0.0177459716796875
1761479826719354600,2.077354736328125,-1.0146636962890625,-0.02227783203125,-0.0185089111328125
1761479826729390600,2.087390625,-1.0125885009765625,-0.0224609375,-0.017822265625
1761479826739426600,2.097426513671875,-1.0123748779296875,-0.0220184326171875,-0.0172576904296875
1761479826749462500,2.107462646484375,-1.0125579833984375,-0.0224151611328125,-0.017669677734375
1761479826759498500,2.11749853515625,-1.0140228271484375,-0.0224456787109375,-0.0175018310546875
1761479826769534500,2.127534423828125,-1.0127410888671875,-0.0222015380859375,-0.0174407958984375
1761479826779570700,2.13757080078125,-1.0135650634765625,-0.0220794677734375,-0.0175628662109375
1761479826789605600,2.147605712890625,-1.0137176513671875,-0.0224609375,-0.0170745849609375
1761479826799641600,2.1576416015625,-1.012725830078125,-0.0224609375,-0.0168304443359375
1761479826809677600,2.167677490234375,-1.0136260986328125,-0.02227783203125,-0.0173187255859375
1761479826819713500,2.177713623046875,-1.01300048828125,-0.022186279296875,-0.01800537109375
1761479826829749500,2.18774951171875,-1.0135345458984375,-0.0225830078125,-0.0175628662109375
1761479826839785500,2.197785400390625,-1.0143280029296875,-0.0218048095703125,-0.017425537109375
1761479826849821400,2.207821533203125,-1.013580322265625,-0.02203369140625,-0.0168914794921875
1761479826859857700,2.217857666015625,-1.01214599609375,-0.021209716796875,-0.0167388916015625
1761479826869893600,2.2278935546875,-1.013031005859375,-0.021636962890625,-0.0177001953125
1761479826879929600,2.2379296875,-1.0131683349609375,-0.0222320556640625,-0.017578125
1761479826889965600,2.247965576171875,-1.0142669677734375,-0.0224761962890625,-0.0175323486328125
1761479826900000500,2.25800048828125,-1.0138702392578125,-0.0231781005859375,-0.017822265625
1761479826910036500,2.268036376953125,-1.0127105712890625,-0.02227783203125,-0.0170440673828125
1761479826920072400,2.278072509765625,-1.01318359375,-0.0218963623046875,-0.01678466796875
1761479826930108700,2.288108642578125,-1.01312255859375,-0.02154541015625,-0.017822265625
1761479826940144600,2.29814453125,-1.012969970703125,-0.0220794677734375,-0.0177764892578125
1761479826950180600,2.3081806640625,-1.0139617919921875,-0.02227783203125,-0.0177764892578125
1761479826960216600,2.318216552734375,-1.0138092041015625,-0.0222930908203125,-0.0168914794921875
1761479826970252500,2.32825244140625,-1.0138092041015625,-0.0227203369140625,-0.017730712890625
1761479826980288500,2.33828857421875,-1.0131988525390625,-0.022003173828125,-0.0176544189453125
1761479826990324500,2.348324462890625,-1.013641357421875,-0.0222930908203125,-0.0167999267578125
1761479827000360400,2.3583603515625,-1.01385498046875,-0.0221099853515625,-0.0168304443359375
1761479827010395600,2.368395751953125,-1.013336181640625,-0.0218353271484375,-0.0176239013671875
1761479827020431600,2.378431640625,-1.0137786865234375,-0.0223541259765625,-0.017730712890625
1761479827030467600,2.388467529296875,-1.0137176513671875,-0.0222015380859375,-0.017059326171875
1761479827040503600,2.398503662109375,-1.01336669921875,-0.0217132568359375,-0.0179443359375
1761479827050539500,2.40853955078125,-1.0136566162109375,-0.0225067138671875,-0.017852783203125
1761479827060575500,2.418575439453125,-1.013580322265625,-0.022125244140625,-0.0174560546875
1761479827070611500,2.428611572265625,-1.0137786865234375,-0.021697998046875,-0.0174713134765625
1761479827080647400,2.4386474609375,-1.0135345458984375,-0.0218048095703125,-0.01776123046875
1761479827090683400,2.448683349609375,-1.014007568359375,-0.0220184326171875,-0.0171661376953125
1761479827100719400,2.45871923828125,-1.01361083984375,-0.0223541259765625,-0.0170135498046875
1761479827110754600,2.468754638671875,-1.01385498046875,-0.022308349609375,-0.01678466796875
1761479827120790500,2.47879052734375,-1.0144805908203125,-0.022247314453125,-0.0172576904296875
1761479827130826500,2.488826416015625,-1.01361083984375,-0.0216827392578125,-0.01739501953125
1761479827140862500,2.498862548828125,-1.01409912109375,-0.0221099853515625,-0.017425537109375
1761479827150898400,2.5088984375,-1.014312744140625,-0.0219573974609375,-0.0177764892578125
1761479827160934400,2.518934326171875,-1.01397705078125,-0.0218353271484375,-0.0174560546875
1761479827170970400,2.528970458984375,-1.0140533447265625,-0.0218505859375,-0.0177764892578125
1761479827181006600,2.539006591796875,-1.0143585205078125,-0.021942138671875,-0.0179443359375
1761479827191042600,2.54904248046875,-1.0150146484375,-0.0228118896484375,-0.018402099609375
1761479827201078500,2.55907861328125,-1.0130767822265625,-0.0217132568359375,-0.017913818359375
1761479827211114800,2.56911474609375,-1.01324462890625,-0.0221710205078125,-0.01666259765625
1761479827221149400,2.5791494140625,-1.01373291015625,-0.0230712890625,-0.0171051025390625
1761479827231185700,2.589185546875,-1.014617919921875,-0.0224151611328125,-0.0185089111328125
1761479827241221600,2.5992216796875,-1.0142669677734375,-0.0224456787109375,-0.0177154541015625
1761479827251257600,2.609257568359375,-1.013519287109375,-0.022186279296875,-0.017181396484375
1761479827261293600,2.61929345703125,-1.0133209228515625,-0.022247314453125,-0.0184478759765625
1761479827271329500,2.62932958984375,-1.0131378173828125,-0.0222930908203125,-0.01788330078125
1761479827281365800,2.63936572265625,-1.0140838623046875,-0.0223236083984375,-0.0180511474609375
1761479827291401700,2.649401611328125,-1.0131378173828125,-0.022247314453125,-0.0166015625
1761479827301437700,2.659437744140625,-1.0139923095703125,-0.0224151611328125,-0.01776123046875
1761479827311473700,2.6694736328125,-1.014129638671875,-0.021759033203125,-0.01739501953125
1761479827321509600,2.679509521484375,-1.01409912109375,-0.0217437744140625,-0.0169677734375
1761479827331544600,2.689544677734375,-1.0133819580078125,-0.0228424072265625,-0.0183258056640625
1761479827341580500,2.69958056640625,-1.0140533447265625,-0.022705078125,-0.01885986328125
1761479827351616500,2.709616455078125,-1.014190673828125,-0.022308349609375,-0.0174713134765625
1761479827361652700,2.71965283203125,-1.0139617919921875,-0.0229949951171875,-0.018096923828125
1761479827371687700,2.729687744140625,-1.014007568359375,-0.0223541259765625,-0.0178985595703125
1761479827381723600,2.7397236328125,-1.014007568359375,-0.0218048095703125,-0.0175323486328125
1761479827391759600,2.749759521484375,-1.0136260986328125,-0.0216522216796875,-0.01715087890625
1761479827401795600,2.759795654296875,-1.0144805908203125,-0.0224609375,-0.0175323486328125
1761479827411831600,2.76983154296875,-1.0145111083984375,-0.0231781005859375,-0.0175323486328125
1761479827421867500,2.779867431640625,-1.013153076171875,-0.021820068359375,-0.017547607421875
1761479827431902700,2.78990283203125,-1.013702392578125,-0.02215576171875,-0.01800537109375
1761479827441938700,2.799938720703125,-1.0139923095703125,-0.021697998046875,-0.0181884765625
1761479827451974700,2.809974609375,-1.01318359375,-0.0224609375,-0.017120361328125
1761479827462010600,2.8200107421875,-1.0141448974609375,-0.021636962890625,-0.0176544189453125
1761479827472046600,2.830046630859375,-1.013397216796875,-0.0220184326171875,-0.0175628662109375
1761479827482082600,2.84008251953125,-1.012908935546875,-0.021759033203125,-0.017669677734375
1761479827492118500,2.850118408203125,-1.0135498046875,-0.02239990234375,-0.0174713134765625
1761479827502154500,2.860154541015625,-1.01385498046875,-0.0219268798828125,-0.0170135498046875
1761479827512190500,2.8701904296875,-1.01458740234375,-0.022735595703125,-0.0176239013671875
1761479827522226700,2.880226806640625,-1.013763427734375,-0.0220947265625,-0.017578125
1761479827532262700,2.8902626953125,-1.0135345458984375,-0.0210418701171875,-0.017120361328125
1761479827542297600,2.900297607421875,-1.0139617919921875,-0.021759033203125,-0.01739501953125
1761479827552333600,2.91033349609375,-1.0139007568359375,-0.0219268798828125,-0.0179595947265625
1761479827562369500,2.92036962890625,-1.0135498046875,-0.022308349609375,-0.0184173583984375
1761479827572405500,2.930405517578125,-1.0142669677734375,-0.0224151611328125,-0.0173187255859375
1761479827582441500,2.94044140625,-1.0127410888671875,-0.021759033203125,-0.0173492431640625
1761479827592477700,2.950477783203125,-1.0133514404296875,-0.0225067138671875,-0.017425537109375
1761479827602513700,2.960513671875,-1.0138092041015625,-0.0220794677734375,-0.017547607421875
1761479827612550000,2.9705498046875,-1.0148773193359375,-0.0224609375,-0.01702880859375
1761479827622585900,2.9805859375,-1.013946533203125,-0.0219879150390625,-0.017974853515625
1761479827632621800,2.990621826171875,-1.0135498046875,-0.021881103515625,-0.017120361328125
1761479827642656500,3.000656494140625,-1.0137481689453125,-0.0218048095703125,-0.01824951171875
1761479827652692700,3.010692626953125,-1.0142669677734375,-0.022705078125,-0.0170745849609375
1761479827662728700,3.020728759765625,-1.014923095703125,-0.0228729248046875,-0.0172576904296875
1761479827672764700,3.0307646484375,-1.014007568359375,-0.023040771484375,-0.01812744140625
1761479827682801000,3.04080078125,-1.01312255859375,-0.0218658447265625,-0.0177001953125
1761479827692836900,3.0508369140625,-1.013153076171875,-0.022308349609375,-0.0167083740234375
1761479827702872800,3.060872802734375,-1.0132293701171875,-0.0221405029296875,-0.01763916015625
1761479827712908800,3.07090869140625,-1.0131988525390625,-0.0220794677734375,-0.018218994140625
1761479827722944800,3.08094482421875,-1.013641357421875,-0.022186279296875,-0.017669677734375
1761479827732980700,3.090980712890625,-1.013916015625,-0.022308349609375,-0.017791748046875
1761479827743015700,3.101015625,-1.0142059326171875,-0.0223388671875,-0.017822265625
1761479827753051600,3.1110517578125,-1.0141448974609375,-0.0234375,-0.01776123046875
1761479827763088000,3.121087890625,-1.014312744140625,-0.0211181640625,-0.0177154541015625
1761479827773123800,3.131123779296875,-1.0145721435546875,-0.02215576171875,-0.0176239013671875
1761479827783159800,3.141159912109375,-1.014373779296875,-0.0229034423828125,-0.017303466796875
1761479827793195800,3.15119580078125,-1.01385498046875,-0.022003173828125,-0.0173797607421875
1761479827803231700,3.161231689453125,-1.01458740234375,-0.0219573974609375,-0.0182342529296875
1761479827813267700,3.171267822265625,-1.0136260986328125,-0.0218353271484375,-0.0172882080078125
1761479827823303700,3.1813037109375,-1.01495361328125,-0.0224761962890625,-0.0179901123046875
1761479827833339600,3.191339599609375,-1.014495849609375,-0.0227813720703125,-0.0170745849609375
1761479827843375600,3.201375732421875,-1.014007568359375,-0.0221099853515625,-0.017364501953125
1761479827853410800,3.211410888671875,-1.0144805908203125,-0.02215576171875,-0.0176544189453125
1761479827863446800,3.22144677734375,-1.0135650634765625,-0.0226593017578125,-0.01837158203125
1761479827873482800,3.231482666015625,-1.01300048828125,-0.0225677490234375,-0.017242431640625
1761479827883518700,3.241518798828125,-1.0138702392578125,-0.02215576171875,-0.0171051025390625
1761479827893554700,3.2515546875,-1.01409912109375,-0.0218658447265625,-0.016754150390625
1761479827903590700,3.261590576171875,-1.013946533203125,-0.0229949951171875,-0.0178680419921875
1761479827913626600,3.271626708984375,-1.0137786865234375,-0.02203369140625,-0.017669677734375
1761479827923662600,3.28166259765625,-1.0140380859375,-0.0215606689453125,-0.016845703125
1761479827933698600,3.291698486328125,-1.015350341796875,-0.022796630859375,-0.017303466796875
1761479827943733800,3.301733642578125,-1.013946533203125,-0.022552490234375,-0.0174102783203125
1761479827953769700,3.311769775390625,-1.0130157470703125,-0.0224456787109375,-0.017730712890625
1761479827963805700,3.3218056640625,-1.0128631591796875,-0.0215606689453125,-0.017913818359375
1761479827973841700,3.331841552734375,-1.0136566162109375,-0.021881103515625,-0.017364501953125
1761479827983877600,3.341877685546875,-1.0138092041015625,-0.022369384765625,-0.0174102783203125
1761479827993913600,3.35191357421875,-1.0139617919921875,-0.022796630859375,-0.0174713134765625
1761479828003949600,3.361949462890625,-1.0144805908203125,-0.021759033203125,-0.017730712890625
1761479828013985500,3.371985595703125,-1.0138397216796875,-0.021331787109375,-0.0178375244140625
1761479828024021500,3.382021484375,-1.0134429931640625,-0.023101806640625,-0.0171966552734375
1761479828034057700,3.3920576171875,-1.014495849609375,-0.0226287841796875,-0.017303466796875
1761479828044092700,3.4020927734375,-1.0137939453125,-0.0214385986328125,-0.0180206298828125
1761479828054128600,3.412128662109375,-1.0151214599609375,-0.0211639404296875,-0.0177001953125
1761479828064164600,3.42216455078125,-1.0136260986328125,-0.0225677490234375,-0.01702880859375
1761479828074200600,3.43220068359375,-1.014068603515625,-0.022247314453125,-0.018096923828125
1761479828084236500,3.442236572265625,-1.0137939453125,-0.02215576171875,-0.01776123046875
1761479828094272500,3.4522724609375,-1.0135345458984375,-0.0218048095703125,-0.0165557861328125
1761479828104308500,3.46230859375,-1.01409912109375,-0.022674560546875,-0.0175933837890625
1761479828114344700,3.4723447265625,-1.013946533203125,-0.021575927734375,-0.0177154541015625
1761479828124380700,3.482380615234375,-1.01458740234375,-0.021026611328125,-0.0171051025390625
1761479828134416600,3.492416748046875,-1.014129638671875,-0.022003173828125,-0.016693115234375
1761479828144451600,3.50245166015625,-1.014862060546875,-0.0222320556640625,-0.017913818359375
1761479828154487600,3.512487548828125,-1.014434814453125,-0.021942138671875,-0.017730712890625
1761479828164523500,3.5225234375,-1.0135040283203125,-0.0221099853515625,-0.0174713134765625
1761479828174559500,3.5325595703125,-1.0134124755859375,-0.0223846435546875,-0.0175323486328125
1761479828184595700,3.542595703125,-1.01422119140625,-0.0218048095703125,-0.0171051025390625
1761479828194631700,3.552631591796875,-1.0137786865234375,-0.0225830078125,-0.0178375244140625
1761479828204667600,3.562667724609375,-1.0129241943359375,-0.0213775634765625,-0.0178985595703125
1761479828214703900,3.572703857421875,-1.0146484375,-0.0218353271484375,-0.0171661376953125
1761479828224739800,3.58273974609375,-1.013671875,-0.022674560546875,-0.018096923828125
1761479828234774500,3.5927744140625,-1.0136566162109375,-0.02178955078125,-0.017333984375
1761479828244810500,3.602810546875,-1.013671875,-0.02142333984375,-0.0180206298828125
1761479828254846500,3.612846435546875,-1.0131072998046875,-0.022003173828125,-0.018280029296875
1761479828264882700,3.622882568359375,-1.0135650634765625,-0.022308349609375,-0.0173187255859375
1761479828274919000,3.6329189453125,-1.0138092041015625,-0.0220947265625,-0.0177764892578125
1761479828284955000,3.642954833984375,-1.014434814453125,-0.0221405029296875,-0.0174407958984375
1761479828294990800,3.652990966796875,-1.0144805908203125,-0.02178955078125,-0.017669677734375
1761479828305026800,3.66302685546875,-1.01519775390625,-0.0228729248046875,-0.0173797607421875
1761479828315062800,3.673062744140625,-1.0143280029296875,-0.022674560546875,-0.0179443359375
1761479828325098800,3.6830986328125,-1.0137939453125,-0.0221099853515625,-0.0183563232421875
1761479828335133700,3.6931337890625,-1.0130157470703125,-0.021759033203125,-0.0180206298828125
1761479828345169700,3.703169677734375,-1.014190673828125,-0.022186279296875,-0.018035888671875
1761479828355206000,3.713205810546875,-1.01385498046875,-0.0222320556640625,-0.01702880859375
1761479828365241900,3.723241943359375,-1.014129638671875,-0.022125244140625,-0.0180816650390625
1761479828375278600,3.733278564453125,-1.01446533203125,-0.0219879150390625,-0.0170745849609375
1761479828385314600,3.743314453125,-1.013641357421875,-0.023193359375,-0.0180206298828125
1761479828395350500,3.7533505859375,-1.0141143798828125,-0.02227783203125,-0.0179595947265625
1761479828405386500,3.763386474609375,-1.0144805908203125,-0.0214691162109375,-0.018890380859375
1761479828415422500,3.77342236328125,-1.01422119140625,-0.0214080810546875,-0.0174713134765625
1761479828425457400,3.78345751953125,-1.0136566162109375,-0.02294921875,-0.017242431640625
1761479828435493400,3.793493408203125,-1.0142364501953125,-0.021881103515625,-0.0174560546875
1761479828445529300,3.803529296875,-1.0150299072265625,-0.022064208984375,-0.01739501953125
1761479828455565600,3.813565673828125,-1.014312744140625,-0.0220947265625,-0.0171051025390625
1761479828465601500,3.8236015625,-1.013946533203125,-0.0214996337890625,-0.018463134765625
1761479828475637800,3.8336376953125,-1.0141143798828125,-0.0224456787109375,-0.018341064453125
1761479828485673700,3.843673828125,-1.0136566162109375,-0.0232086181640625,-0.0174713134765625
1761479828495709700,3.853709716796875,-1.0146026611328125,-0.0211334228515625,-0.017303466796875
1761479828505745700,3.86374560546875,-1.0149078369140625,-0.0229034423828125,-0.0179290771484375
1761479828515780400,3.8737802734375,-1.0130157470703125,-0.0217132568359375,-0.0170440673828125
1761479828525816300,3.88381640625,-1.01336669921875,-0.0224456787109375,-0.0180511474609375
1761479828535852500,3.8938525390625,-1.0144195556640625,-0.0222930908203125,-0.0167236328125
1761479828545888800,3.903888671875,-1.013458251953125,-0.0223846435546875,-0.01641845703125
1761479828555924700,3.9139248046875,-1.013824462890625,-0.0222930908203125,-0.017669677734375
1761479828565960700,3.923960693359375,-1.0140533447265625,-0.022796630859375,-0.017730712890625
1761479828575996700,3.93399658203125,-1.014007568359375,-0.0229339599609375,-0.0172271728515625
1761479828586032600,3.94403271484375,-1.014434814453125,-0.021636962890625,-0.017791748046875
1761479828596068600,3.954068603515625,-1.0132293701171875,-0.022186279296875,-0.01739501953125
1761479828606103600,3.964103515625,-1.0146026611328125,-0.0222625732421875,-0.017913818359375
1761479828616139800,3.974139892578125,-1.0143585205078125,-0.0220184326171875,-0.01788330078125
1761479828626175700,3.98417578125,-1.014190673828125,-0.0213165283203125,-0.01739501953125
1761479828636211700,3.994211669921875,-1.014373779296875,-0.022216796875,-0.0179443359375
1761479828646247700,4.00424755859375,-1.0136260986328125,-0.022369384765625,-0.0177154541015625
1761479828656281300,4.01428125,-1.01446533203125,-0.022125244140625,-0.017578125
1761479828666317600,4.024317626953125,-1.0131072998046875,-0.022125244140625,-0.0166778564453125
1761479828676353500,4.034353515625,-1.012969970703125,-0.02276611328125,-0.01715087890625
1761479828686389500,4.044389404296875,-1.013671875,-0.02142333984375,-0.01739501953125
1761479828696425500,4.054425537109375,-1.0134124755859375,-0.02203369140625,-0.0173187255859375
1761479828706461700,4.064461669921875,-1.0143280029296875,-0.022003173828125,-0.017730712890625
1761479828716497700,4.07449755859375,-1.01416015625,-0.0215911865234375,-0.0177459716796875
1761479828726533600,4.08453369140625,-1.0133056640625,-0.0222930908203125,-0.0175628662109375
1761479828736569600,4.094569580078125,-1.0130767822265625,-0.022491455078125,-0.017425537109375
1761479828746604500,4.1046044921875,-1.0133819580078125,-0.022552490234375,-0.017669677734375
1761479828756640800,4.114640869140625,-1.01361083984375,-0.022003173828125,-0.0180206298828125
1761479828766676700,4.1246767578125,-1.0129241943359375,-0.022064208984375,-0.0173797607421875
1761479828776712700,4.134712646484375,-1.014068603515625,-0.0219573974609375,-0.0173492431640625
1761479828786748700,4.144748779296875,-1.013885498046875,-0.0221710205078125,-0.0172271728515625
1761479828796784600,4.15478466796875,-1.0136871337890625,-0.0225677490234375,-0.01849365234375
1761479828806820600,4.164820556640625,-1.014556884765625,-0.022003173828125,-0.017059326171875
1761479828816856600,4.174856689453125,-1.013641357421875,-0.022186279296875,-0.017364501953125
1761479828826892500,4.184892578125,-1.014068603515625,-0.021392822265625,-0.016845703125
1761479828836927700,4.194927734375,-1.0146942138671875,-0.0219879150390625,-0.017547607421875
1761479828846963700,4.204963623046875,-1.0141143798828125,-0.022491455078125,-0.0172576904296875
1761479828856999700,4.214999755859375,-1.013214111328125,-0.0222015380859375,-0.017791748046875
1761479828867035600,4.22503564453125,-1.0124359130859375,-0.0221099853515625,-0.0175018310546875
1761479828877071600,4.235071533203125,-1.0133056640625,-0.02178955078125,-0.0175628662109375
1761479828887107600,4.245107666015625,-1.013580322265625,-0.0222015380859375,-0.0175323486328125
1761479828897143600,4.2551435546875,-1.013153076171875,-0.0223846435546875,-0.017242431640625
1761479828907179500,4.265179443359375,-1.0135345458984375,-0.0231170654296875,-0.018035888671875
1761479828917215500,4.275215576171875,-1.0137176513671875,-0.022552490234375,-0.0180206298828125
1761479828927250700,4.285250732421875,-1.01318359375,-0.022430419921875,-0.017425537109375
1761479828937286700,4.29528662109375,-1.01416015625,-0.0220489501953125,-0.0174407958984375
1761479828947322600,4.305322509765625,-1.0132598876953125,-0.0230865478515625,-0.0179290771484375
1761479828957358600,4.315358642578125,-1.01361083984375,-0.021636962890625,-0.0179290771484375
1761479828967394600,4.32539453125,-1.0128631591796875,-0.021820068359375,-0.0175933837890625
1761479828977430500,4.335430419921875,-1.01397705078125,-0.02197265625,-0.017974853515625
1761479828987466500,4.345466552734375,-1.0135955810546875,-0.022674560546875,-0.0172882080078125
1761479828997502500,4.35550244140625,-1.0141448974609375,-0.022064208984375,-0.01727294921875
1761479829007538400,4.365538330078125,-1.0145416259765625,-0.0218353271484375,-0.017425537109375
1761479829017573600,4.37557373046875,-1.01373291015625,-0.022003173828125,-0.0178680419921875
1761479829027609600,4.385609619140625,-1.0142059326171875,-0.022064208984375,-0.017547607421875
1761479829037645600,4.3956455078125,-1.0134429931640625,-0.0225982666015625,-0.0169830322265625
1761479829047681500,4.405681640625,-1.01397705078125,-0.0218048095703125,-0.0171661376953125
1761479829057717500,4.415717529296875,-1.014892578125,-0.021881103515625,-0.0172576904296875
1761479829067753500,4.42575341796875,-1.01361083984375,-0.0228271484375,-0.01715087890625
1761479829077789400,4.43578955078125,-1.0136260986328125,-0.023406982421875,-0.017852783203125
1761479829087825700,4.44582568359375,-1.014068603515625,-0.022613525390625,-0.017669677734375
1761479829097860600,4.455860595703125,-1.0139312744140625,-0.0229339599609375,-0.0170440673828125
1761479829107896600,4.465896484375,-1.0137939453125,-0.0225830078125,-0.0169830322265625
1761479829117932500,4.4759326171875,-1.014434814453125,-0.0216064453125,-0.017578125
1761479829127968500,4.485968505859375,-1.013458251953125,-0.0216522216796875,-0.01763916015625
1761479829138004500,4.49600439453125,-1.01275634765625,-0.021820068359375,-0.0176239013671875
1761479829148040400,4.50604052734375,-1.0135498046875,-0.0221710205078125,-0.0175018310546875
1761479829158076400,4.516076416015625,-1.013458251953125,-0.0224761962890625,-0.01739501953125
1761479829168112600,4.526112548828125,-1.0135650634765625,-0.0224761962890625,-0.0170745849609375
1761479829178148600,4.536148681640625,-1.0142822265625,-0.02227783203125,-0.017059326171875
1761479829188183600,4.54618359375,-1.0146331787109375,-0.0224761962890625,-0.0172119140625
1761479829198219500,4.556219482421875,-1.01434326171875,-0.0222625732421875,-0.0186309814453125
1761479829208255500,4.56625537109375,-1.014129638671875,-0.0215301513671875,-0.0178375244140625
1761479829218291500,4.57629150390625,-1.0139312744140625,-0.0216217041015625,-0.0172119140625
1761479829228327400,4.586327392578125,-1.01312255859375,-0.022125244140625,-0.01739501953125
1761479829238363400,4.59636328125,-1.01409912109375,-0.0214080810546875,-0.017181396484375
1761479829248399600,4.606399658203125,-1.013031005859375,-0.021636962890625,-0.0175933837890625
1761479829258435600,4.616435546875,-1.0131378173828125,-0.0225677490234375,-0.0176544189453125
1761479829268470500,4.626470458984375,-1.013336181640625,-0.02227783203125,-0.0172271728515625
1761479829278506500,4.636506591796875,-1.0139923095703125,-0.02191162109375,-0.0173797607421875
1761479829288542500,4.64654248046875,-1.013153076171875,-0.022247314453125,-0.017608642578125
1761479829298578400,4.656578369140625,-1.0133514404296875,-0.0222930908203125,-0.017120361328125
1761479829308614400,4.666614501953125,-1.0145721435546875,-0.0227813720703125,-0.0177764892578125
1761479829318650400,4.676650390625,-1.014434814453125,-0.02252197265625,-0.018310546875
1761479829328686600,4.6866865234375,-1.0134735107421875,-0.0223846435546875,-0.0170745849609375
1761479829338722600,4.69672265625,-1.0130767822265625,-0.02252197265625,-0.017120361328125
1761479829348758500,4.706758544921875,-1.0135345458984375,-0.022216796875,-0.0171966552734375
1761479829358794500,4.71679443359375,-1.013885498046875,-0.02117919921875,-0.0175628662109375
1761479829368829400,4.726829345703125,-1.014007568359375,-0.0226898193359375,-0.0179290771484375
1761479829378865400,4.736865478515625,-1.0139617919921875,-0.02178955078125,-0.017730712890625
1761479829388901400,4.7469013671875,-1.0128326416015625,-0.022857666015625,-0.017791748046875
1761479829398937300,4.756937255859375,-1.013214111328125,-0.022186279296875,-0.01776123046875
1761479829408973600,4.7669736328125,-1.0131988525390625,-0.0213623046875,-0.0170135498046875
1761479829419009500,4.777009521484375,-1.0127716064453125,-0.0217437744140625,-0.017303466796875
1761479829429045500,4.78704541015625,-1.0135955810546875,-0.0226287841796875,-0.016754150390625
1761479829439081500,4.79708154296875,-1.012298583984375,-0.0230560302734375,-0.0175933837890625
1761479829449116400,4.807116455078125,-1.0136260986328125,-0.0224761962890625,-0.01702880859375
1761479829459152400,4.81715234375,-1.0140228271484375,-0.02239990234375,-0.0177764892578125
1761479829469188400,4.827188232421875,-1.0148162841796875,-0.023040771484375,-0.017059326171875
1761479829479224300,4.837224365234375,-1.0132904052734375,-0.022430419921875,-0.01763916015625
1761479829489260500,4.847260498046875,-1.0130767822265625,-0.0219879150390625,-0.017547607421875
1761479829499296500,4.857296630859375,-1.01348876953125,-0.022125244140625,-0.017486572265625
1761479829509332500,4.86733251953125,-1.0150299072265625,-0.0226593017578125,-0.0178375244140625
1761479829519368400,4.877368408203125,-1.0141754150390625,-0.0229949951171875,-0.017547607421875
1761479829529404400,4.887404296875,-1.0138092041015625,-0.0227203369140625,-0.017486572265625
1761479829539439400,4.897439453125,-1.0134735107421875,-0.0226898193359375,-0.0174560546875
1761479829549475300,4.907475341796875,-1.013031005859375,-0.021728515625,-0.01690673828125
1761479829559511300,4.91751123046875,-1.013336181640625,-0.0223388671875,-0.01763916015625
1761479829569547500,4.927547607421875,-1.0136566162109375,-0.0221710205078125,-0.0184173583984375
1761479829579583500,4.93758349609375,-1.01336669921875,-0.0216522216796875,-0.016998291015625
1761479829589619500,4.947619384765625,-1.0131072998046875,-0.02203369140625,-0.0172119140625
1761479829599655400,4.957655517578125,-1.0133209228515625,-0.022491455078125,-0.01788330078125
1761479829609691400,4.96769140625,-1.0135345458984375,-0.0215606689453125,-0.01702880859375
1761479829619727400,4.977727294921875,-1.0136871337890625,-0.0230255126953125,-0.0177764892578125
1761479829629762300,4.98776220703125,-1.01300048828125,-0.02203369140625,-0.017791748046875
1761479829639798500,4.997798583984375,-1.0130615234375,-0.0229644775390625,-0.0174713134765625
1761479829649834500,5.00783447265625,-1.0136566162109375,-0.02252197265625,-0.0173797607421875
1761479829659870500,5.017870361328125,-1.0140838623046875,-0.02288818359375,-0.0178070068359375
1761479829669906400,5.027906494140625,-1.0128173828125,-0.0214996337890625,-0.017547607421875
1761479829679942400,5.0379423828125,-1.013275146484375,-0.021575927734375,-0.0177459716796875
1761479829689978400,5.047978271484375,-1.0133056640625,-0.02178955078125,-0.017974853515625
1761479829700014600,5.0580146484375,-1.013580322265625,-0.021270751953125,-0.0173797607421875
1761479829710050600,5.068050537109375,-1.013702392578125,-0.02197265625,-0.0177764892578125
1761479829720085500,5.07808544921875,-1.0137786865234375,-0.0227508544921875,-0.016693115234375
1761479829730121500,5.08812158203125,-1.0144500732421875,-0.0230560302734375,-0.0165863037109375
1761479829740157400,5.098157470703125,-1.0147705078125,-0.0222015380859375,-0.018280029296875
1761479829750193400,5.108193359375,-1.0148468017578125,-0.022430419921875,-0.0175018310546875
1761479829760229600,5.118229736328125,-1.01324462890625,-0.0216827392578125,-0.0175323486328125
1761479829770265600,5.128265625,-1.0132293701171875,-0.02117919921875,-0.017059326171875
1761479829780301600,5.138301513671875,-1.0130767822265625,-0.02227783203125,-0.0174407958984375
1761479829790337500,5.148337646484375,-1.0138092041015625,-0.0216522216796875,-0.017822265625
1761479829800373500,5.15837353515625,-1.0138397216796875,-0.021514892578125,-0.0173187255859375
1761479829810408700,5.16840869140625,-1.0143890380859375,-0.02252197265625,-0.017791748046875
1761479829820444700,5.178444580078125,-1.0142059326171875,-0.0224609375,-0.0181427001953125
1761479829830480600,5.188480712890625,-1.0134124755859375,-0.0229339599609375,-0.01751708984375
1761479829840516600,5.1985166015625,-1.0132904052734375,-0.0217742919921875,-0.0175323486328125
1761479829850552600,5.208552490234375,-1.0135498046875,-0.0218353271484375,-0.017913818359375
1761479829860588500,5.218588623046875,-1.0143890380859375,-0.022003173828125,-0.0182647705078125
1761479829870624500,5.22862451171875,-1.0146331787109375,-0.0213775634765625,-0.01776123046875
1761479829880660500,5.238660400390625,-1.014984130859375,-0.021759033203125,-0.0178375244140625
1761479829890696400,5.248696533203125,-1.014007568359375,-0.02227783203125,-0.017364501953125
1761479829900731600,5.258731689453125,-1.0136260986328125,-0.02178955078125,-0.01739501953125
1761479829910767600,5.268767578125,-1.0138702392578125,-0.02227783203125,-0.0170440673828125
1761479829920803600,5.278803466796875,-1.01458740234375,-0.0221099853515625,-0.0179290771484375
1761479829930839600,5.288839599609375,-1.014251708984375,-0.0214385986328125,-0.0177154541015625
1761479829940875500,5.29887548828125,-1.0133209228515625,-0.020965576171875,-0.017486572265625
1761479829950911500,5.308911376953125,-1.013214111328125,-0.022705078125,-0.017181396484375
1761479829960947500,5.318947509765625,-1.013824462890625,-0.02252197265625,-0.01739501953125
1761479829970983400,5.3289833984375,-1.013946533203125,-0.0215911865234375,-0.017425537109375
1761479829981018600,5.3390185546875,-1.0142364501953125,-0.02252197265625,-0.0176849365234375
1761479829991054600,5.3490546875,-1.012786865234375,-0.02197265625,-0.017364501953125
1761479830001090600,5.359090576171875,-1.013916015625,-0.0219573974609375,-0.01763916015625
1761479830011126500,5.36912646484375,-1.01348876953125,-0.02191162109375,-0.0172119140625
1761479830021162500,5.37916259765625,-1.014495849609375,-0.0216217041015625,-0.01715087890625
1761479830031198500,5.389198486328125,-1.0142974853515625,-0.02191162109375,-0.0175933837890625
1761479830041234400,5.399234375,-1.0135650634765625,-0.0223388671875,-0.017486572265625
1761479830051270400,5.4092705078125,-1.0137176513671875,-0.022430419921875,-0.0170440673828125
1761479830061306400,5.419306396484375,-1.0136566162109375,-0.021759033203125,-0.016937255859375
1761479830071342600,5.429342529296875,-1.01324462890625,-0.0225982666015625,-0.0180206298828125
1761479830081377500,5.43937744140625,-1.014190673828125,-0.0218505859375,-0.017822265625
1761479830091413500,5.44941357421875,-1.014801025390625,-0.0223388671875,-0.016845703125
1761479830101449500,5.459449462890625,-1.0138702392578125,-0.0225982666015625,-0.0181884765625
1761479830111485400,5.4694853515625,-1.0135040283203125,-0.0217742919921875,-0.018218994140625
1761479830121521400,5.479521484375,-1.0145263671875,-0.0224456787109375,-0.0177154541015625
1761479830131557400,5.489557373046875,-1.0132904052734375,-0.0226898193359375,-0.017333984375
1761479830141593300,5.49959326171875,-1.0145721435546875,-0.0217742919921875,-0.018096923828125
1761479830151629600,5.509629638671875,-1.0143280029296875,-0.0220489501953125,-0.017608642578125
1761479830161664500,5.51966455078125,-1.0131378173828125,-0.0224456787109375,-0.0177459716796875
1761479830171700500,5.529700439453125,-1.012908935546875,-0.0225067138671875,-0.017333984375
1761479830181736400,5.539736328125,-1.013214111328125,-0.021484375,-0.0170745849609375
1761479830191772400,5.5497724609375,-1.012908935546875,-0.021820068359375,-0.0184173583984375
1761479830201808400,5.559808349609375,-1.0132293701171875,-0.0213623046875,-0.0176849365234375
1761479830211844400,5.56984423828125,-1.013916015625,-0.02197265625,-0.017608642578125
1761479830221880300,5.57988037109375,-1.013946533203125,-0.02227783203125,-0.0177459716796875
1761479830231916500,5.58991650390625,-1.0142669677734375,-0.0221405029296875,-0.0169677734375
1761479830241952500,5.599952392578125,-1.0139617919921875,-0.0226593017578125,-0.01861572265625
1761479830251987500,5.609987548828125,-1.013092041015625,-0.0219573974609375,-0.0183258056640625
1761479830262023400,5.6200234375,-1.0133514404296875,-0.021697998046875,-0.016754150390625
1761479830272059400,5.630059326171875,-1.013946533203125,-0.0230712890625,-0.0174713134765625
1761479830282095400,5.640095458984375,-1.0139617919921875,-0.0219573974609375,-0.0181884765625
1761479830292131300,5.65013134765625,-1.0146636962890625,-0.02178955078125,-0.017364501953125
1761479830302167300,5.660167236328125,-1.0139617919921875,-0.0220184326171875,-0.01702880859375
1761479830312203500,5.67020361328125,-1.01312255859375,-0.02252197265625,-0.017578125
1761479830322239500,5.680239501953125,-1.0138397216796875,-0.022491455078125,-0.018768310546875
1761479830332274400,5.6902744140625,-1.0140533447265625,-0.0225067138671875,-0.017730712890625
1761479830342310400,5.700310302734375,-1.012939453125,-0.0225982666015625,-0.01715087890625
1761479830352346400,5.710346435546875,-1.0139923095703125,-0.021392822265625,-0.0177154541015625
1761479830362382300,5.72038232421875,-1.013824462890625,-0.021636962890625,-0.0173492431640625
1761479830372418300,5.730418212890625,-1.0146331787109375,-0.0224609375,-0.01702880859375
1761479830382454000,5.7404541015625,-1.014617919921875,-0.022979736328125,-0.01788330078125
1761479830392490000,5.750489990234375,-1.01416015625,-0.02197265625,-0.0166473388671875
1761479830402526000,5.76052587890625,-1.0143890380859375,-0.0215911865234375,-0.0173492431640625
1761479830412562000,5.77056201171875,-1.0137939453125,-0.0216064453125,-0.0178070068359375
1761479830422596900,5.780596923828125,-1.0133514404296875,-0.0224609375,-0.017578125
1761479830432632800,5.7906328125,-1.014251708984375,-0.02197265625,-0.0172119140625
1761479830442668800,5.800668701171875,-1.014434814453125,-0.0225830078125,-0.0173797607421875
1761479830452705000,5.810705078125,-1.0143890380859375,-0.02191162109375,-0.0170135498046875
1761479830462741000,5.820740966796875,-1.01416015625,-0.02203369140625,-0.0179443359375
1761479830472777000,5.83077685546875,-1.0143585205078125,-0.0223541259765625,-0.018463134765625
1761479830482813000,5.84081298828125,-1.0135498046875,-0.02239990234375,-0.0174713134765625
1761479830492849000,5.850848876953125,-1.013671875,-0.0223236083984375,-0.0175628662109375
1761479830502883800,5.8608837890625,-1.0129241943359375,-0.02178955078125,-0.017120361328125
1761479830512919800,5.870919921875,-1.014373779296875,-0.022216796875,-0.0177764892578125
1761479830522955800,5.880955810546875,-1.0130615234375,-0.0220947265625,-0.016754150390625
1761479830532992000,5.890991943359375,-1.013671875,-0.02239990234375,-0.017120361328125
1761479830543028000,5.901028076171875,-1.013946533203125,-0.022308349609375,-0.01751708984375
1761479830553064000,5.91106396484375,-1.013641357421875,-0.0224456787109375,-0.0171051025390625
1761479830563100000,5.921099853515625,-1.0142059326171875,-0.0222930908203125,-0.017364501953125
1761479830573136000,5.931135986328125,-1.0132293701171875,-0.0224761962890625,-0.0182647705078125
1761479830583170800,5.9411708984375,-1.0132904052734375,-0.0228118896484375,-0.017608642578125
1761479830593206800,5.951206787109375,-1.0144500732421875,-0.021514892578125,-0.0174407958984375
1761479830603242800,5.96124267578125,-1.014404296875,-0.021728515625,-0.0175628662109375
1761479830613279000,5.971279052734375,-1.01416015625,-0.0212249755859375,-0.0172576904296875
1761479830623315000,5.98131494140625,-1.0142974853515625,-0.0217742919921875,-0.0182952880859375
1761479830633351000,5.991350830078125,-1.013916015625,-0.0221710205078125,-0.0174102783203125
1761479830643387000,6.001386962890625,-1.0132598876953125,-0.022003173828125,-0.0176239013671875
1761479830653422800,6.0114228515625,-1.0135040283203125,-0.0230255126953125,-0.017974853515625
1761479830663458800,6.021458740234375,-1.014373779296875,-0.0223236083984375,-0.0180816650390625
1761479830673493800,6.03149365234375,-1.0137481689453125,-0.0222625732421875,-0.0175018310546875
1761479830683529700,6.04152978515625,-1.0142974853515625,-0.022216796875,-0.016815185546875
1761479830693566000,6.05156591796875,-1.0142974853515625,-0.02191162109375,-0.0173797607421875
1761479830703602000,6.061601806640625,-1.0145263671875,-0.0217132568359375,-0.01788330078125
1761479830713638000,6.071637939453125,-1.013397216796875,-0.0225067138671875,-0.0169219970703125
1761479830723673900,6.081673828125,-1.0131683349609375,-0.021881103515625,-0.0171966552734375
1761479830733709800,6.091709716796875,-1.014129638671875,-0.0219268798828125,-0.0173492431640625
1761479830743745800,6.101745849609375,-1.0137786865234375,-0.0224456787109375,-0.0171966552734375
1761479830753780700,6.11178076171875,-1.014068603515625,-0.0220794677734375,-0.0173492431640625
1761479830763817000,6.12181689453125,-1.013824462890625,-0.022430419921875,-0.0169677734375
1761479830773853000,6.13185302734375,-1.014984130859375,-0.022064208984375,-0.0182342529296875
1761479830783889000,6.141888916015625,-1.014495849609375,-0.02215576171875,-0.0174713134765625
1761479830793924900,6.1519248046875,-1.014251708984375,-0.02227783203125,-0.0171356201171875
1761479830803960800,6.1619609375,-1.0142822265625,-0.0220947265625,-0.0175323486328125
1761479830813996800,6.171996826171875,-1.0142364501953125,-0.022247314453125,-0.017303466796875
1761479830824031700,6.18203173828125,-1.01348876953125,-0.022125244140625,-0.0170440673828125
1761479830834067700,6.192067626953125,-1.01373291015625,-0.021759033203125,-0.018402099609375
1761479830844104000,6.20210400390625,-1.0143585205078125,-0.0224151611328125,-0.0186614990234375
1761479830854140000,6.212139892578125,-1.0142822265625,-0.0225677490234375,-0.01776123046875
1761479830864175900,6.22217578125,-1.0140838623046875,-0.0220794677734375,-0.018157958984375
1761479830874211800,6.2322119140625,-1.0132293701171875,-0.0223388671875,-0.017669677734375
1761479830884247800,6.242247802734375,-1.014892578125,-0.0231170654296875,-0.0168914794921875
1761479830894283800,6.25228369140625,-1.0136566162109375,-0.0221099853515625,-0.017608642578125
1761479830904319700,6.26231982421875,-1.01361083984375,-0.022979736328125,-0.0172119140625
1761479830914354700,6.272354736328125,-1.0144500732421875,-0.0224456787109375,-0.0175018310546875
1761479830924391000,6.282390869140625,-1.0140380859375,-0.022125244140625,-0.0178375244140625
1761479830934427000,6.292427001953125,-1.0146484375,-0.023162841796875,-0.0169219970703125
1761479830944462800,6.302462890625,-1.0143280029296875,-0.0227508544921875,-0.0175933837890625
1761479830954498800,6.312498779296875,-1.01348876953125,-0.0231475830078125,-0.0169525146484375
1761479830964534800,6.32253466796875,-1.0146636962890625,-0.0222625732421875,-0.0171661376953125
1761479830974570800,6.33257080078125,-1.0144195556640625,-0.022430419921875,-0.0174713134765625
1761479830984605700,6.342605712890625,-1.013458251953125,-0.022552490234375,-0.0173797607421875
1761479830994641700,6.3526416015625,-1.0143890380859375,-0.02215576171875,-0.0169525146484375
1761479831004678000,6.362677978515625,-1.0142364501953125,-0.0220947265625,-0.017974853515625
1761479831014713900,6.3727138671875,-1.013671875,-0.0225677490234375,-0.0175933837890625
1761479831024749800,6.382749755859375,-1.01397705078125,-0.02252197265625,-0.017730712890625
1761479831034785800,6.392785888671875,-1.0131072998046875,-0.0221710205078125,-0.017913818359375
1761479831044821800,6.40282177734375,-1.01373291015625,-0.0204620361328125,-0.01800537109375
1761479831054857700,6.412857666015625,-1.0138092041015625,-0.02178955078125,-0.0173492431640625
1761479831064892700,6.422892578125,-1.012420654296875,-0.02215576171875,-0.0178985595703125
1761479831074928600,6.4329287109375,-1.0141754150390625,-0.0223541259765625,-0.018157958984375
1761479831084964900,6.44296484375,-1.0139923095703125,-0.02197265625,-0.017608642578125
1761479831095000800,6.453000732421875,-1.0141448974609375,-0.021881103515625,-0.0176849365234375
1761479831105036800,6.463036865234375,-1.01361083984375,-0.022125244140625,-0.0178680419921875
1761479831115073000,6.473072998046875,-1.01318359375,-0.0228424072265625,-0.0169830322265625
1761479831125109000,6.48310888671875,-1.013336181640625,-0.022491455078125,-0.017120361328125
1761479831135145000,6.49314501953125,-1.01385498046875,-0.0215606689453125,-0.0177001953125
1761479831145179600,6.5031796875,-1.0133514404296875,-0.02191162109375,-0.0180206298828125
1761479831155215600,6.513215576171875,-1.0145263671875,-0.0217437744140625,-0.0179595947265625
1761479831165251800,6.523251953125,-1.0138397216796875,-0.0220184326171875,-0.0174560546875
1761479831175288000,6.5332880859375,-1.013397216796875,-0.0223846435546875,-0.017852783203125
1761479831185324000,6.543323974609375,-1.013671875,-0.0218963623046875,-0.018280029296875
1761479831195360000,6.553360107421875,-1.0136260986328125,-0.0225830078125,-0.0173492431640625
1761479831205396000,6.56339599609375,-1.0125579833984375,-0.0221710205078125,-0.017730712890625
1761479831215432000,6.573431884765625,-1.013397216796875,-0.0222625732421875,-0.017730712890625
1761479831225467000,6.583466796875,-1.0130615234375,-0.0225830078125,-0.0178985595703125
1761479831235502800,6.5935029296875,-1.0138092041015625,-0.0218505859375,-0.0171661376953125
1761479831245539000,6.6035390625,-1.0143280029296875,-0.0223236083984375,-0.0173797607421875
1761479831255575000,6.613574951171875,-1.013763427734375,-0.022216796875,-0.0171966552734375
1761479831265611000,6.623611083984375,-1.01318359375,-0.02166748046875,-0.0173797607421875
1761479831275647000,6.63364697265625,-1.0146026611328125,-0.0218658447265625,-0.0173492431640625
1761479831285683000,6.643682861328125,-1.014556884765625,-0.0221710205078125,-0.017730712890625
1761479831295718000,6.6537177734375,-1.0145416259765625,-0.022186279296875,-0.0174713134765625
1761479831305753900,6.66375390625,-1.0143585205078125,-0.0220489501953125,-0.0178680419921875
1761479831315789800,6.673789794921875,-1.014495849609375,-0.0221710205078125,-0.0168304443359375
1761479831325826000,6.683825927734375,-1.0129547119140625,-0.02227783203125,-0.017791748046875
1761479831335862000,6.693862060546875,-1.01385498046875,-0.02166748046875,-0.0181884765625
1761479831345898000,6.70389794921875,-1.0133209228515625,-0.0216064453125,-0.0179901123046875
1761479831355934000,6.713933837890625,-1.0133514404296875,-0.022491455078125,-0.0179595947265625
1761479831365970000,6.723969970703125,-1.0131378173828125,-0.0220947265625,-0.0173492431640625
1761479831376004900,6.7340048828125,-1.0139617919921875,-0.02215576171875,-0.016510009765625
1761479831386040800,6.744040771484375,-1.0135650634765625,-0.021392822265625,-0.017486572265625
1761479831396076800,6.754076904296875,-1.014068603515625,-0.0217132568359375,-0.018310546875
1761479831406113000,6.764113037109375,-1.0140533447265625,-0.02252197265625,-0.0178985595703125
1761479831416149000,6.77414892578125,-1.0145721435546875,-0.0216827392578125,-0.0184478759765625
1761479831426185000,6.78418505859375,-1.01422119140625,-0.022125244140625,-0.0178375244140625
1761479831436221000,6.794220947265625,-1.014617919921875,-0.0220794677734375,-0.016998291015625
1761479831446257000,6.8042568359375,-1.013946533203125,-0.0222320556640625,-0.0175018310546875
1761479831456291800,6.814291748046875,-1.0140228271484375,-0.02178955078125,-0.0171966552734375
1761479831466327800,6.824327880859375,-1.0135498046875,-0.0217437744140625,-0.0175933837890625
1761479831476363800,6.83436376953125,-1.0135498046875,-0.02166748046875,-0.0172271728515625
1761479831486400000,6.84439990234375,-1.0138702392578125,-0.02166748046875,-0.0180206298828125
1761479831496436000,6.85443603515625,-1.0140533447265625,-0.021453857421875,-0.0179901123046875
1761479831506472000,6.864471923828125,-1.0136260986328125,-0.0218658447265625,-0.0166015625
1761479831516508000,6.8745078125,-1.014404296875,-0.0229339599609375,-0.0176239013671875
1761479831526542800,6.88454296875,-1.014190673828125,-0.022369384765625,-0.0178375244140625
1761479831536578800,6.894578857421875,-1.0136566162109375,-0.0221710205078125,-0.017333984375
1761479831546614800,6.90461474609375,-1.014068603515625,-0.0220184326171875,-0.0184326171875
1761479831556650800,6.914650634765625,-1.0131072998046875,-0.0234375,-0.0178985595703125
1761479831566687000,6.92468701171875,-1.013916015625,-0.02264404296875,-0.017242431640625
1761479831576723000,6.934722900390625,-1.0131988525390625,-0.0219268798828125,-0.018035888671875
1761479831586759000,6.944759033203125,-1.0135650634765625,-0.02276611328125,-0.0168609619140625
1761479831596793900,6.9547939453125,-1.01446533203125,-0.021514892578125,-0.0174407958984375
1761479831606829800,6.964829833984375,-1.0133209228515625,-0.02093505859375,-0.0173187255859375
1761479831616865800,6.97486572265625,-1.0134429931640625,-0.022918701171875,-0.01751708984375
1761479831626901800,6.98490185546875,-1.0137786865234375,-0.0229339599609375,-0.0174102783203125
1761479831636938000,6.99493798828125,-1.0134735107421875,-0.021759033203125,-0.0181427001953125
1761479831646974000,7.004973876953125,-1.013153076171875,-0.021759033203125,-0.018310546875
1761479831657010000,7.015010009765625,-1.0137481689453125,-0.0214996337890625,-0.01788330078125
1761479831667044900,7.025044921875,-1.0138702392578125,-0.0218048095703125,-0.0171356201171875
1761479831677080800,7.035080810546875,-1.0140380859375,-0.02197265625,-0.0175323486328125
1761479831687116800,7.04511669921875,-1.01318359375,-0.0221099853515625,-0.0169830322265625
1761479831697152800,7.05515283203125,-1.0135650634765625,-0.0221710205078125,-0.0176239013671875
1761479831707188700,7.065188720703125,-1.0138397216796875,-0.0220184326171875,-0.0168609619140625
1761479831717225000,7.075224853515625,-1.0140228271484375,-0.02239990234375,-0.0174407958984375
1761479831727261000,7.085260986328125,-1.014312744140625,-0.022613525390625,-0.017913818359375
1761479831737297000,7.095296875,-1.0138092041015625,-0.0228271484375,-0.0188140869140625
1761479831747331800,7.105331787109375,-1.01373291015625,-0.021484375,-0.01788330078125
1761479831757367800,7.115367919921875,-1.01318359375,-0.021728515625,-0.0169677734375
1761479831767403800,7.12540380859375,-1.0141448974609375,-0.0219268798828125,-0.017608642578125
1761479831777439700,7.135439697265625,-1.013580322265625,-0.022186279296875,-0.0176239013671875
1761479831787475700,7.145475830078125,-1.0145263671875,-0.022369384765625,-0.017242431640625
1761479831797512000,7.155511962890625,-1.0136566162109375,-0.0214691162109375,-0.0178985595703125
1761479831807548000,7.1655478515625,-1.0126800537109375,-0.0222320556640625,-0.0176849365234375
1761479831817582800,7.175582763671875,-1.0141143798828125,-0.022308349609375,-0.0178680419921875
1761479831827618800,7.185618896484375,-1.0140533447265625,-0.0218658447265625,-0.017242431640625
1761479831837654800,7.19565478515625,-1.0138092041015625,-0.0221710205078125,-0.01702880859375
1761479831847690800,7.205690673828125,-1.013671875,-0.0230712890625,-0.0170745849609375
1761479831857726700,7.215726806640625,-1.0140228271484375,-0.0219268798828125,-0.0176849365234375
1761479831867762700,7.2257626953125,-1.0140838623046875,-0.0227203369140625,-0.017578125
1761479831877799000,7.235798828125,-1.0134429931640625,-0.022674560546875,-0.0171356201171875
1761479831887833900,7.245833740234375,-1.013946533203125,-0.022979736328125,-0.0173797607421875
1761479831897869800,7.255869873046875,-1.0139007568359375,-0.0225830078125,-0.017425537109375
1761479831907905800,7.26590576171875,-1.012939453125,-0.02154541015625,-0.01763916015625
1761479831917941800,7.275941650390625,-1.01446533203125,-0.0222930908203125,-0.01708984375
1761479831927977700,7.285977783203125,-1.012603759765625,-0.0223388671875,-0.0173797607421875
1761479831938013700,7.296013671875,-1.01324462890625,-0.0233001708984375,-0.0176849365234375
1761479831948049700,7.306049560546875,-1.01361083984375,-0.0220794677734375,-0.0181884765625
1761479831958084900,7.3160849609375,-1.013763427734375,-0.0215911865234375,-0.0183563232421875
1761479831968120800,7.326120849609375,-1.01397705078125,-0.0226287841796875,-0.0174560546875
1761479831978156800,7.33615673828125,-1.014801025390625,-0.022430419921875,-0.017974853515625
1761479831988192800,7.34619287109375,-1.01397705078125,-0.0219879150390625,-0.0178680419921875
1761479831998228700,7.356228759765625,-1.014068603515625,-0.021087646484375,-0.0175628662109375
1761479832008264700,7.3662646484375,-1.014617919921875,-0.0224761962890625,-0.0176849365234375
1761479832018300700,7.37630078125,-1.0140380859375,-0.022491455078125,-0.01751708984375
1761479832028335900,7.3863359375,-1.0141448974609375,-0.021759033203125,-0.01800537109375
1761479832038371800,7.396371826171875,-1.012786865234375,-0.0224456787109375,-0.01776123046875
1761479832048407800,7.40640771484375,-1.011932373046875,-0.0223388671875,-0.017913818359375
1761479832058443800,7.41644384765625,-1.0126953125,-0.0230865478515625,-0.01739501953125
1761479832068479700,7.426479736328125,-1.0147552490234375,-0.0229339599609375,-0.0169219970703125
1761479832078515700,7.436515625,-1.0133819580078125,-0.022430419921875,-0.0178070068359375
1761479832088551700,7.4465517578125,-1.013885498046875,-0.0221710205078125,-0.01715087890625
1761479832098587600,7.456587646484375,-1.013946533203125,-0.021759033203125,-0.017486572265625
1761479832108622800,7.466622802734375,-1.0146331787109375,-0.0222930908203125,-0.0175933837890625
1761479832118658800,7.476658935546875,-1.0143890380859375,-0.02203369140625,-0.0178375244140625
1761479832128694800,7.48669482421875,-1.0146942138671875,-0.0219879150390625,-0.016876220703125
1761479832138730800,7.496730712890625,-1.0146636962890625,-0.0214691162109375,-0.017486572265625
1761479832148766700,7.5067666015625,-1.015594482421875,-0.0218353271484375,-0.0178680419921875
1761479832158802700,7.516802734375,-1.013946533203125,-0.022491455078125,-0.0184478759765625
1761479832168838700,7.526838623046875,-1.01373291015625,-0.0225067138671875,-0.017486572265625
1761479832178873900,7.536873779296875,-1.0144805908203125,-0.022430419921875,-0.0174713134765625
1761479832188909800,7.546909912109375,-1.0136566162109375,-0.022186279296875,-0.0181884765625
1761479832198945800,7.55694580078125,-1.013397216796875,-0.02166748046875,-0.017486572265625
1761479832208981800,7.566981689453125,-1.01336669921875,-0.02203369140625,-0.0182342529296875
1761479832219017700,7.577017822265625,-1.0131988525390625,-0.0218353271484375,-0.0180206298828125
1761479832229053700,7.5870537109375,-1.01385498046875,-0.02215576171875,-0.0174407958984375
1761479832239090000,7.59708984375,-1.015289306640625,-0.0220489501953125,-0.017578125
1761479832249124900,7.607124755859375,-1.0135345458984375,-0.0217742919921875,-0.0176544189453125
1761479832259160800,7.617160888671875,-1.0153961181640625,-0.0224761962890625,-0.0182037353515625
1761479832269196800,7.62719677734375,-1.01446533203125,-0.0212249755859375,-0.01812744140625
1761479832279232800,7.637232666015625,-1.0142364501953125,-0.021453857421875,-0.0178985595703125
1761479832289268700,7.647268798828125,-1.0128021240234375,-0.02227783203125,-0.0174407958984375
1761479832299305000,7.657304931640625,-1.0139312744140625,-0.021759033203125,-0.01739501953125
1761479832309339600,7.667339599609375,-1.0146331787109375,-0.0219573974609375,-0.0176239013671875
1761479832319376000,7.6773759765625,-1.0140228271484375,-0.0211639404296875,-0.017791748046875
1761479832329411800,7.687411865234375,-1.0141143798828125,-0.02166748046875,-0.0173797607421875
1761479832339447800,7.69744775390625,-1.0135650634765625,-0.0219268798828125,-0.017059326171875
1761479832349484000,7.707484130859375,-1.014434814453125,-0.0225982666015625,-0.016815185546875
1761479832359520000,7.71752001953125,-1.013885498046875,-0.0231170654296875,-0.0174102783203125
1761479832369556000,7.727555908203125,-1.01336669921875,-0.022247314453125,-0.017547607421875
1761479832379591700,7.737591796875,-1.0138092041015625,-0.0218048095703125,-0.01739501953125
1761479832389627600,7.747627685546875,-1.01434326171875,-0.02252197265625,-0.0181732177734375
1761479832399663600,7.75766357421875,-1.014984130859375,-0.0224609375,-0.01708984375
1761479832409699600,7.767699462890625,-1.013885498046875,-0.0220794677734375,-0.0174713134765625
1761479832419735600,7.777735595703125,-1.013702392578125,-0.0220184326171875,-0.0174407958984375
1761479832429771800,7.787771728515625,-1.013641357421875,-0.021759033203125,-0.01837158203125
1761479832439807700,7.797807861328125,-1.013580322265625,-0.022003173828125,-0.0170745849609375
1761479832449842700,7.8078427734375,-1.0147857666015625,-0.0217437744140625,-0.017578125
1761479832459878700,7.817878662109375,-1.0147552490234375,-0.02288818359375,-0.0174407958984375
1761479832469914600,7.82791455078125,-1.0146484375,-0.021514892578125,-0.017333984375
1761479832479950600,7.83795068359375,-1.0136871337890625,-0.02197265625,-0.017242431640625
1761479832489986600,7.847986572265625,-1.014129638671875,-0.0214691162109375,-0.0178680419921875
1761479832500022500,7.8580224609375,-1.0145721435546875,-0.02154541015625,-0.018280029296875
1761479832510058800,7.868058837890625,-1.014495849609375,-0.021575927734375,-0.017791748046875
1761479832520093700,7.87809375,-1.013031005859375,-0.0216064453125,-0.0177001953125
1761479832530129700,7.888129638671875,-1.0143585205078125,-0.0230560302734375,-0.0176239013671875
1761479832540165600,7.89816552734375,-1.0141143798828125,-0.0222625732421875,-0.017974853515625
1761479832550201600,7.90820166015625,-1.0140228271484375,-0.0218658447265625,-0.0175933837890625
1761479832560237600,7.918237548828125,-1.0138397216796875,-0.0223388671875,-0.018035888671875
1761479832570273500,7.9282734375,-1.0131683349609375,-0.02154541015625,-0.0174560546875
1761479832580309500,7.9383095703125,-1.0140228271484375,-0.022369384765625,-0.017578125
1761479832590344700,7.9483447265625,-1.014892578125,-0.0229339599609375,-0.01678466796875
1761479832600380700,7.958380615234375,-1.013824462890625,-0.021392822265625,-0.0171356201171875
1761479832610416600,7.968416748046875,-1.0135955810546875,-0.0219268798828125,-0.017486572265625
1761479832620452600,7.97845263671875,-1.0140533447265625,-0.0221710205078125,-0.0174102783203125
1761479832630488600,7.988488525390625,-1.013427734375,-0.0221710205078125,-0.017913818359375
1761479832640524500,7.998524658203125,-1.0137176513671875,-0.0215911865234375,-0.017669677734375
1761479832650559700,8.008559814453125,-1.0147857666015625,-0.0219879150390625,-0.01800537109375
1761479832660595700,8.018595703125,-1.0133056640625,-0.02215576171875,-0.017791748046875
1761479832670631700,8.028631591796875,-1.0137939453125,-0.022491455078125,-0.01727294921875
1761479832680667600,8.038667724609375,-1.0131072998046875,-0.0219879150390625,-0.017669677734375
1761479832690703600,8.04870361328125,-1.0137939453125,-0.0220489501953125,-0.017059326171875
1761479832700739600,8.058739501953125,-1.014495849609375,-0.0225372314453125,-0.0173492431640625
1761479832710775600,8.068775634765625,-1.0140838623046875,-0.0216064453125,-0.017425537109375
1761479832720810800,8.078810791015625,-1.0140533447265625,-0.0206298828125,-0.01708984375
1761479832730846700,8.0888466796875,-1.0123138427734375,-0.022125244140625,-0.01776123046875
1761479832740882700,8.098882568359375,-1.012359619140625,-0.0222930908203125,-0.0175933837890625
1761479832750918700,8.108918701171875,-1.013580322265625,-0.0226898193359375,-0.017852783203125
1761479832760954600,8.11895458984375,-1.013702392578125,-0.022125244140625,-0.0170135498046875
1761479832770990600,8.128990478515625,-1.01397705078125,-0.0217132568359375,-0.0178985595703125
1761479832781026600,8.139026611328125,-1.01409912109375,-0.0221710205078125,-0.0181121826171875
1761479832791061800,8.149061767578125,-1.0147857666015625,-0.0222015380859375,-0.0171661376953125
1761479832801097700,8.15909765625,-1.0131378173828125,-0.0220794677734375,-0.017181396484375
1761479832811133700,8.1691337890625,-1.014068603515625,-0.0215606689453125,-0.01751708984375
1761479832821169700,8.179169677734375,-1.01361083984375,-0.0225372314453125,-0.017974853515625
1761479832831205600,8.18920556640625,-1.0152740478515625,-0.022247314453125,-0.017578125
1761479832841241600,8.19924169921875,-1.0142364501953125,-0.02203369140625,-0.017578125
1761479832851276500,8.209276611328125,-1.014129638671875,-0.0220489501953125,-0.0179901123046875
1761479832861312500,8.2193125,-1.0132904052734375,-0.0223236083984375,-0.0179290771484375
1761479832871348700,8.2293486328125,-1.012969970703125,-0.0222015380859375,-0.0181427001953125
1761479832881384700,8.239384765625,-1.0137176513671875,-0.0218048095703125,-0.018310546875
1761479832891420700,8.249420654296875,-1.013580322265625,-0.022308349609375,-0.0173492431640625
1761479832901456600,8.25945654296875,-1.014984130859375,-0.02239990234375,-0.017486572265625
1761479832911492600,8.26949267578125,-1.0139007568359375,-0.022247314453125,-0.0178680419921875
1761479832921527600,8.279527587890625,-1.0140380859375,-0.02178955078125,-0.0177764892578125
1761479832931563500,8.2895634765625,-1.013275146484375,-0.022003173828125,-0.017333984375
1761479832941599500,8.299599609375,-1.013946533203125,-0.0218658447265625,-0.017730712890625
1761479832951635700,8.3096357421875,-1.013397216796875,-0.0233154296875,-0.01788330078125
1761479832961671700,8.319671630859375,-1.013153076171875,-0.0224761962890625,-0.0172271728515625
1761479832971707600,8.329707763671875,-1.0133514404296875,-0.0217132568359375,-0.017578125
1761479832981742600,8.33974267578125,-1.0135955810546875,-0.02197265625,-0.01800537109375
1761479832991778600,8.349778564453125,-1.014404296875,-0.022003173828125,-0.0164642333984375
1761479833001814500,8.359814453125,-1.0131072998046875,-0.02197265625,-0.01739501953125
1761479833011850500,8.3698505859375,-1.0130157470703125,-0.021453857421875,-0.017242431640625
1761479833021886500,8.379886474609375,-1.013580322265625,-0.02197265625,-0.0173492431640625
1761479833031922700,8.389922607421875,-1.0133514404296875,-0.02252197265625,-0.016754150390625
1761479833041958700,8.399958740234375,-1.013458251953125,-0.0224761962890625,-0.017364501953125
1761479833051993600,8.40999365234375,-1.0132598876953125,-0.0217132568359375,-0.017913818359375
1761479833062029600,8.420029541015625,-1.013031005859375,-0.0216522216796875,-0.0182952880859375
1761479833072065500,8.4300654296875,-1.014129638671875,-0.02191162109375,-0.0185089111328125
1761479833082101500,8.4401015625,-1.0146331787109375,-0.0221099853515625,-0.017425537109375
1761479833092137500,8.450137451171875,-1.012939453125,-0.0221405029296875,-0.017303466796875
1761479833102173400,8.46017333984375,-1.01416015625,-0.02239990234375,-0.017669677734375
1761479833112210000,8.4702099609375,-1.0130462646484375,-0.022308349609375,-0.0176544189453125
1761479833122244600,8.48024462890625,-1.0133514404296875,-0.021820068359375,-0.0176849365234375
1761479833132280600,8.490280517578125,-1.012786865234375,-0.0222625732421875,-0.017547607421875
1761479833142316500,8.500316650390625,-1.0144195556640625,-0.021636962890625,-0.0183563232421875
1761479833152352500,8.5103525390625,-1.0138092041015625,-0.0224151611328125,-0.017578125
1761479833162388500,8.520388427734375,-1.01373291015625,-0.0211639404296875,-0.0181121826171875
1761479833172424700,8.5304248046875,-1.0141754150390625,-0.0218048095703125,-0.017242431640625
1761479833182459600,8.540459716796875,-1.012939453125,-0.02203369140625,-0.017059326171875
1761479833192495600,8.55049560546875,-1.012725830078125,-0.0218048095703125,-0.017333984375
1761479833202531600,8.560531494140625,-1.01275634765625,-0.02239990234375,-0.0182037353515625
1761479833212567600,8.570567626953125,-1.013916015625,-0.021331787109375,-0.01812744140625
1761479833222603800,8.580603759765625,-1.012847900390625,-0.02178955078125,-0.0181121826171875
1761479833232640800,8.590640869140625,-1.0131378173828125,-0.022613525390625,-0.0179901123046875
1761479833242676700,8.6006767578125,-1.022674560546875,-0.0189208984375,-0.0186920166015625
1761479833252712700,8.610712646484375,-1.0006561279296875,-0.027496337890625,-0.0147552490234375
1761479833262748700,8.620748779296875,-1.0160980224609375,-0.020538330078125,-0.0166473388671875
1761479833272784600,8.63078466796875,-1.0087890625,-0.0224761962890625,-0.022430419921875
1761479833282819800,8.64081982421875,-1.0172119140625,-0.0195159912109375,-0.0126495361328125
1761479833292855800,8.650855712890625,-1.017578125,-0.0247802734375,-0.014862060546875
