time,seconds_elapsed,z,y,x
1761506015172579000,0.0855791015625,-1.01324462890625,-0.0198211669921875,-0.0316009521484375
1761506015182617900,0.095617919921875,-1.0128936767578125,-0.020294189453125,-0.032470703125
1761506015192653000,0.105653076171875,-1.01263427734375,-0.0208587646484375,-0.0330047607421875
1761506015202689000,0.11568896484375,-1.0122833251953125,-0.0214385986328125,-0.03265380859375
1761506015212724000,0.125723876953125,-1.0119781494140625,-0.0214080810546875,-0.03302001953125
1761506015222760000,0.135760009765625,-1.0123138427734375,-0.0199737548828125,-0.033843994140625
1761506015232796000,0.1457958984375,-1.01251220703125,-0.0197296142578125,-0.0327301025390625
1761506015242832000,0.155831787109375,-1.0126953125,-0.0204620361328125,-0.0328521728515625
1761506015252867000,0.1658671875,-1.0130157470703125,-0.0205841064453125,-0.0322418212890625
1761506015262903000,0.175903076171875,-1.0120391845703125,-0.0200042724609375,-0.0333404541015625
1761506015272939000,0.18593896484375,-1.0127105712890625,-0.0198516845703125,-0.03271484375
1761506015282975000,0.19597509765625,-1.012451171875,-0.0204315185546875,-0.0330352783203125
1761506015293011000,0.206010986328125,-1.01287841796875,-0.020965576171875,-0.0330352783203125
1761506015303046000,0.2160458984375,-1.012603759765625,-0.020538330078125,-0.032684326171875
1761506015313081900,0.226081787109375,-1.0113067626953125,-0.019622802734375,-0.0330810546875
1761506015323118000,0.2361181640625,-1.0117950439453125,-0.0207977294921875,-0.03271484375
1761506015333154000,0.246154052734375,-1.012908935546875,-0.020965576171875,-0.0330963134765625
1761506015343190000,0.25618994140625,-1.0128936767578125,-0.0202789306640625,-0.032135009765625
1761506015353225000,0.266224853515625,-1.0119171142578125,-0.0209808349609375,-0.0330352783203125
1761506015363261000,0.276260986328125,-1.0116424560546875,-0.0207977294921875,-0.03350830078125
1761506015373297000,0.286296875,-1.0127105712890625,-0.020477294921875,-0.032440185546875
1761506015383332900,0.296332763671875,-1.0115966796875,-0.0208587646484375,-0.0321197509765625
1761506015393368000,0.3063681640625,-1.012237548828125,-0.019622802734375,-0.033294677734375
1761506015403404000,0.316404052734375,-1.0121612548828125,-0.0204315185546875,-0.0323638916015625
1761506015413440000,0.32643994140625,-1.0119781494140625,-0.021484375,-0.0329742431640625
1761506015423476000,0.33647607421875,-1.012725830078125,-0.02081298828125,-0.0325927734375
1761506015433512000,0.346511962890625,-1.013885498046875,-0.02056884765625,-0.0329132080078125
1761506015443547100,0.356547119140625,-1.0126190185546875,-0.020660400390625,-0.0331573486328125
1761506015453583000,0.3665830078125,-1.0136260986328125,-0.020660400390625,-0.033294677734375
1761506015463619000,0.376619140625,-1.011810302734375,-0.0201416015625,-0.032806396484375
1761506015473655000,0.386655029296875,-1.012420654296875,-0.0201568603515625,-0.0323944091796875
1761506015483691000,0.39669091796875,-1.012969970703125,-0.02032470703125,-0.0328826904296875
1761506015493726000,0.406725830078125,-1.01263427734375,-0.0205841064453125,-0.03265380859375
1761506015503762000,0.416761962890625,-1.012847900390625,-0.01947021484375,-0.0326080322265625
1761506015513798000,0.4267978515625,-1.0111236572265625,-0.0194854736328125,-0.0335540771484375
1761506015523834000,0.436834228515625,-1.011810302734375,-0.019866943359375,-0.0328216552734375
1761506015533870000,0.4468701171875,-1.01220703125,-0.0197906494140625,-0.032623291015625
1761506015543905000,0.456905029296875,-1.0127105712890625,-0.0204010009765625,-0.032562255859375
1761506015553941000,0.46694091796875,-1.01165771484375,-0.0204315185546875,-0.032073974609375
1761506015563977000,0.47697705078125,-1.0123291015625,-0.0207977294921875,-0.0322113037109375
1761506015574013000,0.487012939453125,-1.0135650634765625,-0.01971435546875,-0.03302001953125
1761506015584048000,0.497048095703125,-1.0118255615234375,-0.020477294921875,-0.033172607421875
1761506015594084000,0.507083984375,-1.01300048828125,-0.0207061767578125,-0.0333709716796875
1761506015604120000,0.5171201171875,-1.01165771484375,-0.0201568603515625,-0.032379150390625
1761506015614156000,0.527156005859375,-1.0121612548828125,-0.02069091796875,-0.03314208984375
1761506015624192000,0.53719189453125,-1.0118865966796875,-0.020721435546875,-0.0339813232421875
1761506015634227000,0.54722705078125,-1.0116424560546875,-0.0204925537109375,-0.03302001953125
1761506015644263000,0.557262939453125,-1.012176513671875,-0.02008056640625,-0.03314208984375
1761506015654299100,0.567299072265625,-1.01251220703125,-0.020660400390625,-0.033447265625
1761506015664335000,0.577335205078125,-1.011688232421875,-0.01953125,-0.0328521728515625
1761506015674371000,0.58737109375,-1.01171875,-0.0198974609375,-0.0328826904296875
1761506015684406000,0.597406005859375,-1.012115478515625,-0.01959228515625,-0.032867431640625
1761506015694442000,0.60744189453125,-1.0123291015625,-0.0202789306640625,-0.0331878662109375
1761506015704478000,0.61747802734375,-1.011688232421875,-0.0197296142578125,-0.032623291015625
1761506015714514000,0.627513916015625,-1.01263427734375,-0.0200347900390625,-0.032318115234375
1761506015724550000,0.6375498046875,-1.0124053955078125,-0.0198974609375,-0.0326080322265625
1761506015734585000,0.647585205078125,-1.0125732421875,-0.0203094482421875,-0.032806396484375
1761506015744621000,0.65762109375,-1.01220703125,-0.0209808349609375,-0.0333251953125
1761506015754657000,0.667656982421875,-1.01123046875,-0.0206451416015625,-0.03277587890625
1761506015764693000,0.67769287109375,-1.0122833251953125,-0.020294189453125,-0.0337677001953125
1761506015774729000,0.68772900390625,-1.011749267578125,-0.0209503173828125,-0.032928466796875
1761506015784764200,0.69776416015625,-1.0108184814453125,-0.0202178955078125,-0.032562255859375
1761506015794800000,0.707800048828125,-1.0126495361328125,-0.019989013671875,-0.0327911376953125
1761506015804836000,0.717836181640625,-1.012451171875,-0.02130126953125,-0.0327606201171875
1761506015814872000,0.7278720703125,-1.0117645263671875,-0.0205078125,-0.033111572265625
1761506015824908000,0.737907958984375,-1.011749267578125,-0.0207977294921875,-0.033843994140625
1761506015834943000,0.74794287109375,-1.0122833251953125,-0.0195770263671875,-0.033447265625
1761506015844979000,0.75797900390625,-1.01239013671875,-0.019744873046875,-0.03253173828125
1761506015855015000,0.768014892578125,-1.0122528076171875,-0.02032470703125,-0.03204345703125
1761506015865051100,0.778051025390625,-1.0118408203125,-0.020263671875,-0.0321807861328125
1761506015875087000,0.788087158203125,-1.0119171142578125,-0.0195159912109375,-0.0330963134765625
1761506015885123000,0.798123046875,-1.0120086669921875,-0.019989013671875,-0.0327911376953125
1761506015895158000,0.808157958984375,-1.0113525390625,-0.0201416015625,-0.032470703125
1761506015905194000,0.818194091796875,-1.011993408203125,-0.0203094482421875,-0.0322418212890625
1761506015915230000,0.82822998046875,-1.01190185546875,-0.0200347900390625,-0.032867431640625
1761506015925266000,0.838265869140625,-1.0128173828125,-0.0199737548828125,-0.0322418212890625
1761506015935302100,0.84830224609375,-1.0127410888671875,-0.0201263427734375,-0.0327606201171875
1761506015945337000,0.858337158203125,-1.011810302734375,-0.0199432373046875,-0.0332489013671875
1761506015955373000,0.868373046875,-1.012786865234375,-0.0197296142578125,-0.0331268310546875
1761506015965409000,0.878408935546875,-1.011810302734375,-0.0201873779296875,-0.0330963134765625
1761506015975445000,0.888445068359375,-1.012542724609375,-0.0205230712890625,-0.03314208984375
1761506015985481000,0.89848095703125,-1.0123748779296875,-0.01983642578125,-0.0330352783203125
1761506015995516200,0.90851611328125,-1.01226806640625,-0.0206756591796875,-0.0341644287109375
1761506016005552000,0.91855224609375,-1.0128173828125,-0.0204925537109375,-0.0326995849609375
1761506016015588000,0.928588134765625,-1.0131988525390625,-0.0194854736328125,-0.032958984375
1761506016025624000,0.9386240234375,-1.0132598876953125,-0.0205078125,-0.03277587890625
1761506016035660000,0.948659912109375,-1.012237548828125,-0.020172119140625,-0.03253173828125
1761506016045695000,0.958695068359375,-1.0110626220703125,-0.0193939208984375,-0.0324859619140625
1761506016055731000,0.96873095703125,-1.01141357421875,-0.02020263671875,-0.0336151123046875
1761506016065767200,0.97876708984375,-1.0120697021484375,-0.0194854736328125,-0.0329742431640625
1761506016075803100,0.98880322265625,-1.012939453125,-0.0195770263671875,-0.032318115234375
1761506016085839000,0.998839111328125,-1.012176513671875,-0.020172119140625,-0.033843994140625
1761506016095874000,1.0088740234375,-1.0130615234375,-0.0199737548828125,-0.033050537109375
1761506016105910000,1.018909912109375,-1.0123138427734375,-0.0205078125,-0.0330047607421875
1761506016115946000,1.028946044921875,-1.012176513671875,-0.0209808349609375,-0.0336761474609375
1761506016125981700,1.038981689453125,-1.0127716064453125,-0.0205841064453125,-0.032958984375
1761506016136017700,1.049017578125,-1.012664794921875,-0.0205841064453125,-0.033050537109375
1761506016146053600,1.0590537109375,-1.0121307373046875,-0.021209716796875,-0.033233642578125
1761506016156088300,1.06908837890625,-1.0128936767578125,-0.0213775634765625,-0.0334320068359375
1761506016166124500,1.07912451171875,-1.0127716064453125,-0.021148681640625,-0.032989501953125
1761506016176160500,1.089160400390625,-1.013671875,-0.020782470703125,-0.03289794921875
1761506016186196500,1.099196533203125,-1.012908935546875,-0.0201416015625,-0.0326080322265625
1761506016196232400,1.109232421875,-1.0119476318359375,-0.0200653076171875,-0.033111572265625
1761506016206267400,1.119267333984375,-1.0128936767578125,-0.0196533203125,-0.0325469970703125
1761506016216303400,1.129303466796875,-1.013031005859375,-0.0202484130859375,-0.0336761474609375
1761506016226339600,1.139339599609375,-1.012786865234375,-0.02117919921875,-0.032745361328125
1761506016236375600,1.14937548828125,-1.012542724609375,-0.020294189453125,-0.03338623046875
1761506016246411500,1.15941162109375,-1.0131988525390625,-0.019775390625,-0.0325469970703125
1761506016256446500,1.169446533203125,-1.0134735107421875,-0.020050048828125,-0.0327606201171875
1761506016266482400,1.179482421875,-1.011627197265625,-0.019317626953125,-0.0331268310546875
1761506016276518700,1.1895185546875,-1.0127410888671875,-0.019287109375,-0.032928466796875
1761506016286554600,1.1995546875,-1.01251220703125,-0.019744873046875,-0.0326995849609375
1761506016296590600,1.209590576171875,-1.0123748779296875,-0.0204010009765625,-0.0328216552734375
1761506016306626600,1.21962646484375,-1.0118255615234375,-0.0211029052734375,-0.0334320068359375
1761506016316661200,1.2296611328125,-1.0124359130859375,-0.02099609375,-0.0328826904296875
1761506016326697500,1.239697509765625,-1.0124664306640625,-0.0205841064453125,-0.0326385498046875
1761506016336733700,1.249733642578125,-1.0131988525390625,-0.020172119140625,-0.0320281982421875
1761506016346769700,1.259769775390625,-1.0124053955078125,-0.0205230712890625,-0.032470703125
1761506016356805600,1.2698056640625,-1.01226806640625,-0.021270751953125,-0.031829833984375
1761506016366840300,1.27984033203125,-1.01275634765625,-0.0197906494140625,-0.032684326171875
1761506016376876300,1.289876220703125,-1.0128936767578125,-0.0202484130859375,-0.033447265625
1761506016386912300,1.299912353515625,-1.012542724609375,-0.01983642578125,-0.0329437255859375
1761506016396948500,1.309948486328125,-1.0133514404296875,-0.020538330078125,-0.0330352783203125
1761506016406984400,1.319984375,-1.0126800537109375,-0.020904541015625,-0.0327301025390625
1761506016417020700,1.330020751953125,-1.0129547119140625,-0.01995849609375,-0.0328521728515625
1761506016427055400,1.340055419921875,-1.0125732421875,-0.020599365234375,-0.0329437255859375
1761506016437091300,1.35009130859375,-1.0131683349609375,-0.0195159912109375,-0.032806396484375
1761506016447127600,1.36012744140625,-1.012908935546875,-0.0200042724609375,-0.0325927734375
1761506016457163500,1.37016357421875,-1.013580322265625,-0.020263671875,-0.0330963134765625
1761506016467199500,1.380199462890625,-1.013427734375,-0.019439697265625,-0.0327606201171875
1761506016477234400,1.390234375,-1.0131072998046875,-0.02032470703125,-0.0329132080078125
1761506016487270400,1.4002705078125,-1.01202392578125,-0.02008056640625,-0.0321807861328125
1761506016497306400,1.410306396484375,-1.0123748779296875,-0.0205078125,-0.03326416015625
1761506016507342600,1.420342529296875,-1.012542724609375,-0.0211029052734375,-0.032867431640625
1761506016517378600,1.430378662109375,-1.013031005859375,-0.0206756591796875,-0.032745361328125
1761506016527414500,1.44041455078125,-1.013153076171875,-0.0203094482421875,-0.033599853515625
1761506016537449500,1.450449462890625,-1.0128326416015625,-0.020416259765625,-0.03289794921875
1761506016547485400,1.4604853515625,-1.01300048828125,-0.0196533203125,-0.03265380859375
1761506016557521700,1.470521728515625,-1.0124969482421875,-0.0193939208984375,-0.033355712890625
1761506016567557600,1.4805576171875,-1.012298583984375,-0.02001953125,-0.033416748046875
1761506016577593600,1.490593505859375,-1.0130767822265625,-0.0201416015625,-0.033233642578125
1761506016587628300,1.500628173828125,-1.012481689453125,-0.01995849609375,-0.03253173828125
1761506016597664300,1.510664306640625,-1.013031005859375,-0.0201568603515625,-0.0325164794921875
1761506016607700200,1.5207001953125,-1.0133514404296875,-0.0198974609375,-0.033477783203125
1761506016617736700,1.53073681640625,-1.011962890625,-0.01934814453125,-0.0326080322265625
1761506016627772700,1.540772705078125,-1.0128936767578125,-0.0205078125,-0.0331878662109375
1761506016637808600,1.55080859375,-1.0126800537109375,-0.0212249755859375,-0.0325775146484375
1761506016647843300,1.56084326171875,-1.0132293701171875,-0.0206298828125,-0.032684326171875
1761506016657879300,1.57087939453125,-1.0131072998046875,-0.0204925537109375,-0.0331268310546875
1761506016667915500,1.58091552734375,-1.013824462890625,-0.0195770263671875,-0.0329742431640625
1761506016677951500,1.590951416015625,-1.012908935546875,-0.0192108154296875,-0.033050537109375
1761506016687987500,1.600987548828125,-1.01263427734375,-0.0203399658203125,-0.0336151123046875
1761506016698022400,1.6110224609375,-1.0138397216796875,-0.021087646484375,-0.0326690673828125
1761506016708058400,1.621058349609375,-1.012847900390625,-0.0210723876953125,-0.032440185546875
1761506016718094300,1.63109423828125,-1.012451171875,-0.0204315185546875,-0.0326080322265625
1761506016728130600,1.641130615234375,-1.0121307373046875,-0.0209197998046875,-0.0329437255859375
1761506016738166500,1.65116650390625,-1.0118865966796875,-0.0205535888671875,-0.03326416015625
1761506016748202500,1.661202392578125,-1.0136871337890625,-0.0199432373046875,-0.033355712890625
1761506016758237400,1.671237548828125,-1.0133514404296875,-0.020416259765625,-0.0325927734375
1761506016768273400,1.6812734375,-1.0135955810546875,-0.0204925537109375,-0.0329132080078125
1761506016778309600,1.6913095703125,-1.013580322265625,-0.01971435546875,-0.0330352783203125
1761506016788345600,1.701345703125,-1.013031005859375,-0.020233154296875,-0.0334320068359375
1761506016798381600,1.711381591796875,-1.0122528076171875,-0.0206756591796875,-0.032806396484375
1761506016808417500,1.72141748046875,-1.0123748779296875,-0.0198516845703125,-0.0328826904296875
1761506016818452500,1.731452392578125,-1.01361083984375,-0.01995849609375,-0.0326995849609375
1761506016828488400,1.741488525390625,-1.0123748779296875,-0.0196685791015625,-0.03253173828125
1761506016838524700,1.751524658203125,-1.012115478515625,-0.0194091796875,-0.03314208984375
1761506016848560600,1.761560546875,-1.0130767822265625,-0.0198516845703125,-0.032562255859375
1761506016858596600,1.7715966796875,-1.01312255859375,-0.0203857421875,-0.0330352783203125
1761506016868631300,1.78163134765625,-1.012451171875,-0.020111083984375,-0.032440185546875
1761506016878667300,1.791667236328125,-1.0135345458984375,-0.0199127197265625,-0.0322723388671875
1761506016888703200,1.801703125,-1.01312255859375,-0.0201263427734375,-0.03253173828125
1761506016898739500,1.811739501953125,-1.0128173828125,-0.0190582275390625,-0.0328369140625
1761506016908775700,1.821775634765625,-1.0131072998046875,-0.0205841064453125,-0.032257080078125
1761506016918811600,1.831811767578125,-1.01312255859375,-0.020416259765625,-0.03228759765625
1761506016928846300,1.841846435546875,-1.0128326416015625,-0.02044677734375,-0.0324859619140625
1761506016938882300,1.85188232421875,-1.0129547119140625,-0.02056884765625,-0.0331573486328125
1761506016948918500,1.86191845703125,-1.01312255859375,-0.0206756591796875,-0.0325775146484375
1761506016958954500,1.87195458984375,-1.0131378173828125,-0.020294189453125,-0.0325775146484375
1761506016968990500,1.881990478515625,-1.0134735107421875,-0.0205078125,-0.033203125
1761506016979025400,1.892025390625,-1.0135955810546875,-0.0205535888671875,-0.0335845947265625
1761506016989061400,1.902061279296875,-1.0131072998046875,-0.0194854736328125,-0.0330047607421875
1761506016999097300,1.912097412109375,-1.0129547119140625,-0.0203704833984375,-0.03228759765625
1761506017009133600,1.922133544921875,-1.0135345458984375,-0.0204010009765625,-0.033233642578125
1761506017019169500,1.93216943359375,-1.0128326416015625,-0.021087646484375,-0.0330047607421875
1761506017029205500,1.94220556640625,-1.0131683349609375,-0.021392822265625,-0.03314208984375
1761506017039240400,1.952240478515625,-1.01263427734375,-0.0201416015625,-0.0326385498046875
1761506017049276400,1.9622763671875,-1.0128326416015625,-0.0203704833984375,-0.032379150390625
1761506017059312600,1.972312744140625,-1.0133209228515625,-0.020172119140625,-0.0329742431640625
1761506017069348600,1.9823486328125,-1.0134735107421875,-0.0208892822265625,-0.032257080078125
1761506017079384600,1.992384521484375,-1.0121002197265625,-0.01947021484375,-0.0326690673828125
1761506017089419300,2.002419189453125,-1.0126953125,-0.0204315185546875,-0.0333099365234375
1761506017099455200,2.012455322265625,-1.01287841796875,-0.0201263427734375,-0.0333099365234375
1761506017109491500,2.022491455078125,-1.0128326416015625,-0.0196990966796875,-0.0328826904296875
1761506017119527700,2.032527587890625,-1.0123291015625,-0.0208740234375,-0.032470703125
1761506017129563600,2.042563720703125,-1.01361083984375,-0.0202484130859375,-0.0328521728515625
1761506017139599600,2.052599609375,-1.0135498046875,-0.019622802734375,-0.0331268310546875
1761506017149634300,2.06263427734375,-1.0128173828125,-0.0202178955078125,-0.03302001953125
1761506017159670300,2.072670166015625,-1.0130767822265625,-0.01983642578125,-0.0332489013671875
1761506017169706500,2.08270654296875,-1.01251220703125,-0.0203704833984375,-0.032562255859375
1761506017179742500,2.092742431640625,-1.013092041015625,-0.0196533203125,-0.0325469970703125
1761506017189778700,2.10277880859375,-1.0139007568359375,-0.020263671875,-0.033447265625
1761506017199814700,2.112814697265625,-1.0142059326171875,-0.0202789306640625,-0.03265380859375
1761506017209849300,2.122849365234375,-1.013458251953125,-0.02056884765625,-0.0325775146484375
1761506017219885300,2.13288525390625,-1.01300048828125,-0.020843505859375,-0.032623291015625
1761506017229921500,2.142921630859375,-1.01397705078125,-0.0206146240234375,-0.0332794189453125
1761506017239957500,2.15295751953125,-1.0130615234375,-0.020660400390625,-0.0329742431640625
1761506017249993500,2.162993408203125,-1.0144500732421875,-0.0201416015625,-0.0319061279296875
1761506017260028400,2.1730283203125,-1.0132598876953125,-0.021331787109375,-0.0324554443359375
1761506017270064400,2.183064453125,-1.0136260986328125,-0.0201873779296875,-0.03277587890625
1761506017280100400,2.193100341796875,-1.0123291015625,-0.02001953125,-0.03228759765625
1761506017290136600,2.203136474609375,-1.0138702392578125,-0.019622802734375,-0.032989501953125
1761506017300172500,2.213172607421875,-1.0131988525390625,-0.01959228515625,-0.032379150390625
1761506017310208500,2.22320849609375,-1.01251220703125,-0.020843505859375,-0.0326080322265625
1761506017320243500,2.233243408203125,-1.0134429931640625,-0.0201416015625,-0.0325927734375
1761506017330279400,2.243279541015625,-1.0129852294921875,-0.0206756591796875,-0.032470703125
1761506017340315600,2.253315673828125,-1.0134124755859375,-0.0207977294921875,-0.03302001953125
1761506017350351600,2.2633515625,-1.0126495361328125,-0.020355224609375,-0.03326416015625
1761506017360387600,2.2733876953125,-1.0126190185546875,-0.0205078125,-0.03204345703125
1761506017370422300,2.28342236328125,-1.01336669921875,-0.0196380615234375,-0.0330352783203125
1761506017380458200,2.293458251953125,-1.0141754150390625,-0.020294189453125,-0.0326995849609375
1761506017390494500,2.303494384765625,-1.0136566162109375,-0.019622802734375,-0.032958984375
1761506017400530700,2.31353076171875,-1.0128936767578125,-0.0193328857421875,-0.0327606201171875
1761506017410566700,2.323566650390625,-1.012237548828125,-0.020294189453125,-0.03363037109375
1761506017420602600,2.3336025390625,-1.013641357421875,-0.020751953125,-0.033203125
1761506017430637300,2.34363720703125,-1.013092041015625,-0.02069091796875,-0.0331268310546875
1761506017440673300,2.35367333984375,-1.01397705078125,-0.0192108154296875,-0.0330047607421875
1761506017450709500,2.36370947265625,-1.013824462890625,-0.020477294921875,-0.033203125
1761506017460745500,2.373745361328125,-1.0125732421875,-0.020416259765625,-0.0337066650390625
1761506017470781400,2.383781494140625,-1.0132293701171875,-0.0200347900390625,-0.0327606201171875
1761506017480816400,2.39381640625,-1.0128173828125,-0.0205078125,-0.0330810546875
1761506017490852400,2.403852294921875,-1.0134735107421875,-0.0198211669921875,-0.032196044921875
1761506017500888300,2.413888427734375,-1.0135040283203125,-0.021209716796875,-0.0325775146484375
1761506017510924500,2.423924560546875,-1.0123443603515625,-0.0208587646484375,-0.0328216552734375
1761506017520960500,2.43396044921875,-1.0129241943359375,-0.0196990966796875,-0.0331268310546875
1761506017530996500,2.44399658203125,-1.0136260986328125,-0.0197296142578125,-0.033050537109375
1761506017541031400,2.454031494140625,-1.0121917724609375,-0.019775390625,-0.0329437255859375
1761506017551067400,2.4640673828125,-1.0132904052734375,-0.0205078125,-0.033050537109375
1761506017561103600,2.474103515625,-1.0128173828125,-0.019622802734375,-0.0326690673828125
1761506017571139600,2.4841396484375,-1.0127716064453125,-0.020263671875,-0.033447265625
1761506017581175600,2.494175537109375,-1.0126495361328125,-0.020233154296875,-0.0331268310546875
1761506017591210200,2.504210205078125,-1.013916015625,-0.0208892822265625,-0.0328216552734375
1761506017601246500,2.51424658203125,-1.013702392578125,-0.0199737548828125,-0.033721923828125
1761506017611282400,2.524282470703125,-1.0138092041015625,-0.0211639404296875,-0.0328826904296875
1761506017621318700,2.534318603515625,-1.012786865234375,-0.02044677734375,-0.03289794921875
1761506017631354600,2.544354736328125,-1.0134735107421875,-0.019561767578125,-0.0325469970703125
1761506017641389300,2.554389404296875,-1.0134124755859375,-0.0200347900390625,-0.0325775146484375
1761506017651425300,2.56442529296875,-1.0126800537109375,-0.0203094482421875,-0.0322113037109375
1761506017661461200,2.574461181640625,-1.0124359130859375,-0.020599365234375,-0.0328521728515625
1761506017671497500,2.58449755859375,-1.0123443603515625,-0.0190887451171875,-0.0330963134765625
1761506017681533700,2.59453369140625,-1.013397216796875,-0.0196685791015625,-0.03277587890625
1761506017691569700,2.604569580078125,-1.0128936767578125,-0.0200958251953125,-0.032989501953125
1761506017701604400,2.614604248046875,-1.0130462646484375,-0.0195770263671875,-0.0327911376953125
1761506017711640300,2.624640380859375,-1.01251220703125,-0.020599365234375,-0.0327911376953125
1761506017721676300,2.63467626953125,-1.0136871337890625,-0.019683837890625,-0.033050537109375
1761506017731712500,2.64471240234375,-1.0139312744140625,-0.020263671875,-0.0328369140625
1761506017741748500,2.65474853515625,-1.0134124755859375,-0.0208740234375,-0.0322113037109375
1761506017751783400,2.664783447265625,-1.014007568359375,-0.02093505859375,-0.032257080078125
1761506017761819400,2.6748193359375,-1.013916015625,-0.020233154296875,-0.0322113037109375
1761506017771855400,2.68485546875,-1.012542724609375,-0.01959228515625,-0.0329742431640625
1761506017781891300,2.694891357421875,-1.0138092041015625,-0.0203857421875,-0.0330810546875
1761506017791927600,2.704927490234375,-1.0139923095703125,-0.0211181640625,-0.0337371826171875
1761506017801963500,2.714963623046875,-1.0139617919921875,-0.020965576171875,-0.0329742431640625
1761506017811998500,2.72499853515625,-1.013916015625,-0.02020263671875,-0.0323944091796875
1761506017822034400,2.735034423828125,-1.0127716064453125,-0.0205078125,-0.03314208984375
1761506017832070400,2.7450703125,-1.0140380859375,-0.0197296142578125,-0.033355712890625
1761506017842106600,2.755106689453125,-1.0135498046875,-0.019683837890625,-0.0328369140625
1761506017852142600,2.765142578125,-1.012847900390625,-0.019866943359375,-0.0328521728515625
1761506017862177300,2.77517724609375,-1.0135498046875,-0.0208892822265625,-0.0333404541015625
1761506017872213200,2.785213134765625,-1.0140838623046875,-0.0214385986328125,-0.03338623046875
1761506017882249500,2.79524951171875,-1.0134429931640625,-0.0209503173828125,-0.0326690673828125
1761506017892285400,2.805285400390625,-1.0126953125,-0.0208892822265625,-0.0338592529296875
1761506017902321700,2.81532177734375,-1.0126190185546875,-0.019683837890625,-0.033477783203125
1761506017912356400,2.8253564453125,-1.0139923095703125,-0.0198974609375,-0.0330963134765625
1761506017922392300,2.835392333984375,-1.01324462890625,-0.020751953125,-0.0333099365234375
1761506017932428300,2.84542822265625,-1.0124053955078125,-0.020538330078125,-0.033538818359375
1761506017942464300,2.85546435546875,-1.013336181640625,-0.0195465087890625,-0.0328369140625
1761506017952500500,2.86550048828125,-1.0133819580078125,-0.0201263427734375,-0.032989501953125
1761506017962535400,2.875535400390625,-1.0134429931640625,-0.020111083984375,-0.033111572265625
1761506017972571400,2.8855712890625,-1.013641357421875,-0.0203857421875,-0.032806396484375
1761506017982607400,2.895607421875,-1.0133819580078125,-0.0208892822265625,-0.0331573486328125
1761506017992643300,2.905643310546875,-1.0147247314453125,-0.020050048828125,-0.033447265625
1761506018002679300,2.91567919921875,-1.013916015625,-0.020843505859375,-0.03228759765625
1761506018012715500,2.925715576171875,-1.01318359375,-0.0210723876953125,-0.0323486328125
1761506018022750500,2.93575048828125,-1.0130615234375,-0.021026611328125,-0.0328826904296875
1761506018032786400,2.945786376953125,-1.01348876953125,-0.0200958251953125,-0.03204345703125
1761506018042822400,2.955822509765625,-1.0132293701171875,-0.019989013671875,-0.0326995849609375
1761506018052858400,2.9658583984375,-1.0127105712890625,-0.0215911865234375,-0.0332183837890625
1761506018062894600,2.97589453125,-1.0128631591796875,-0.0201263427734375,-0.0330047607421875
1761506018072929300,2.98592919921875,-1.013153076171875,-0.0200042724609375,-0.03271484375
1761506018082965200,2.99596533203125,-1.0133819580078125,-0.02032470703125,-0.0323638916015625
1761506018093001500,3.00600146484375,-1.013397216796875,-0.0207977294921875,-0.0336151123046875
1761506018103037400,3.016037353515625,-1.0132598876953125,-0.0206298828125,-0.0323486328125
1761506018113073400,3.026073486328125,-1.0128936767578125,-0.019744873046875,-0.033111572265625
1761506018123109400,3.036109375,-1.0129852294921875,-0.020904541015625,-0.03277587890625
1761506018133145300,3.046145263671875,-1.01239013671875,-0.0209808349609375,-0.0325164794921875
1761506018143181300,3.056181396484375,-1.0131072998046875,-0.0208892822265625,-0.0326385498046875
1761506018153217300,3.06621728515625,-1.013397216796875,-0.02044677734375,-0.033782958984375
1761506018163253200,3.076253173828125,-1.0127716064453125,-0.0205078125,-0.03240966796875
1761506018173289200,3.086289306640625,-1.013275146484375,-0.0192413330078125,-0.032257080078125
1761506018183324400,3.096324462890625,-1.0136566162109375,-0.0204925537109375,-0.033172607421875
1761506018193360400,3.1063603515625,-1.0134735107421875,-0.020843505859375,-0.0332794189453125
1761506018203396400,3.116396240234375,-1.01336669921875,-0.019500732421875,-0.03326416015625
1761506018213432300,3.126432373046875,-1.0135955810546875,-0.02008056640625,-0.0331878662109375
1761506018223468300,3.13646826171875,-1.0133209228515625,-0.020751953125,-0.0332489013671875
1761506018233503200,3.146503173828125,-1.01312255859375,-0.02001953125,-0.032806396484375
1761506018243539500,3.15653955078125,-1.013031005859375,-0.020263671875,-0.03302001953125
1761506018253575400,3.166575439453125,-1.0128631591796875,-0.019775390625,-0.0330963134765625
1761506018263611400,3.176611328125,-1.0129241943359375,-0.0202178955078125,-0.0335235595703125
1761506018273647400,3.1866474609375,-1.01287841796875,-0.01934814453125,-0.0330963134765625
1761506018283682300,3.196682373046875,-1.0142059326171875,-0.019805908203125,-0.0325927734375
1761506018293718300,3.20671826171875,-1.01348876953125,-0.0199737548828125,-0.032958984375
1761506018303754200,3.216754150390625,-1.0139312744140625,-0.020477294921875,-0.0325775146484375
1761506018313790200,3.226790283203125,-1.013519287109375,-0.0204010009765625,-0.0332489013671875
1761506018323826400,3.236826416015625,-1.013092041015625,-0.02056884765625,-0.0332183837890625
1761506018333861400,3.246861328125,-1.0132904052734375,-0.02081298828125,-0.0326385498046875
1761506018343897300,3.2568974609375,-1.0139312744140625,-0.0199737548828125,-0.03314208984375
1761506018353933300,3.266933349609375,-1.0133514404296875,-0.0205535888671875,-0.0328521728515625
1761506018363969300,3.27696923828125,-1.0128631591796875,-0.0201873779296875,-0.03271484375
1761506018374005200,3.287005126953125,-1.01312255859375,-0.020263671875,-0.032470703125
1761506018384040400,3.29704052734375,-1.0129241943359375,-0.021087646484375,-0.0326080322265625
1761506018394076400,3.307076416015625,-1.0134735107421875,-0.0204010009765625,-0.032318115234375
1761506018404112400,3.3171123046875,-1.013275146484375,-0.0206298828125,-0.032684326171875
1761506018414148400,3.3271484375,-1.012939453125,-0.0202789306640625,-0.0328369140625
1761506018424184300,3.337184326171875,-1.0126953125,-0.020477294921875,-0.032562255859375
1761506018434220300,3.34722021484375,-1.0135040283203125,-0.02020263671875,-0.03228759765625
1761506018444255200,3.357255126953125,-1.0124969482421875,-0.0196990966796875,-0.0327606201171875
1761506018454291500,3.36729150390625,-1.01373291015625,-0.0200653076171875,-0.033477783203125
1761506018464327400,3.377327392578125,-1.0130767822265625,-0.0203399658203125,-0.0334320068359375
1761506018474363400,3.38736328125,-1.0136566162109375,-0.020111083984375,-0.03338623046875
1761506018484398300,3.3973984375,-1.01397705078125,-0.02001953125,-0.03289794921875
1761506018494434300,3.407434326171875,-1.01336669921875,-0.0213165283203125,-0.0325164794921875
1761506018504470300,3.41747021484375,-1.0126800537109375,-0.019561767578125,-0.03326416015625
1761506018514506200,3.42750634765625,-1.0135498046875,-0.0203704833984375,-0.032989501953125
1761506018524542200,3.437542236328125,-1.01361083984375,-0.01971435546875,-0.03265380859375
1761506018534578400,3.447578369140625,-1.0130462646484375,-0.019744873046875,-0.033172607421875
1761506018544613400,3.45761328125,-1.01336669921875,-0.0204925537109375,-0.0330047607421875
1761506018554649300,3.4676494140625,-1.014068603515625,-0.020477294921875,-0.033355712890625
1761506018564685300,3.477685302734375,-1.013275146484375,-0.0208282470703125,-0.0333251953125
1761506018574721300,3.48772119140625,-1.0130767822265625,-0.0202178955078125,-0.033843994140625
1761506018584757200,3.49775732421875,-1.0131072998046875,-0.020172119140625,-0.03326416015625
1761506018594792400,3.50779248046875,-1.0130615234375,-0.020172119140625,-0.032958984375
1761506018604828400,3.517828369140625,-1.013397216796875,-0.0202789306640625,-0.03277587890625
1761506018614864400,3.527864501953125,-1.0146484375,-0.0204925537109375,-0.0323638916015625
1761506018624900400,3.537900390625,-1.0141448974609375,-0.02008056640625,-0.0325775146484375
1761506018634936300,3.547936279296875,-1.0126190185546875,-0.0200653076171875,-0.0329132080078125
1761506018644971300,3.55797119140625,-1.01318359375,-0.0199432373046875,-0.0330657958984375
1761506018655007500,3.568007568359375,-1.013580322265625,-0.0199432373046875,-0.032318115234375
1761506018665043500,3.57804345703125,-1.0131683349609375,-0.0211944580078125,-0.03289794921875
1761506018675079400,3.588079345703125,-1.012603759765625,-0.0193634033203125,-0.0331573486328125
1761506018685115400,3.598115478515625,-1.0145111083984375,-0.0196380615234375,-0.0329437255859375
1761506018695150300,3.608150390625,-1.0121307373046875,-0.0198822021484375,-0.03277587890625
1761506018705186300,3.618186279296875,-1.0118865966796875,-0.020782470703125,-0.0324554443359375
1761506018715222300,3.62822216796875,-1.0135345458984375,-0.020294189453125,-0.03265380859375
1761506018725258200,3.63825830078125,-1.014251708984375,-0.0189056396484375,-0.0327606201171875
1761506018735294500,3.64829443359375,-1.0126190185546875,-0.0198211669921875,-0.033172607421875
1761506018745329400,3.658329345703125,-1.013397216796875,-0.021270751953125,-0.0333404541015625
1761506018755365400,3.668365478515625,-1.012481689453125,-0.019989013671875,-0.0328826904296875
1761506018765401300,3.6784013671875,-1.0135345458984375,-0.0199432373046875,-0.0331573486328125
1761506018775437300,3.688437255859375,-1.012603759765625,-0.0199432373046875,-0.03326416015625
1761506018785473300,3.698473388671875,-1.0135498046875,-0.019866943359375,-0.032989501953125
1761506018795508500,3.708508544921875,-1.0143890380859375,-0.0194244384765625,-0.0338134765625
1761506018805544400,3.71854443359375,-1.0131988525390625,-0.0204010009765625,-0.0323028564453125
1761506018815580400,3.728580322265625,-1.013702392578125,-0.02032470703125,-0.0320281982421875
1761506018825616400,3.738616455078125,-1.01275634765625,-0.0206451416015625,-0.0332489013671875
1761506018835652400,3.74865234375,-1.012847900390625,-0.0206298828125,-0.033203125
1761506018845687300,3.758687255859375,-1.013641357421875,-0.0198516845703125,-0.0324554443359375
1761506018855723300,3.76872314453125,-1.0133514404296875,-0.0211334228515625,-0.0334930419921875
1761506018865759500,3.778759521484375,-1.0132904052734375,-0.0199737548828125,-0.0325927734375
1761506018875795500,3.78879541015625,-1.013641357421875,-0.0201568603515625,-0.0324249267578125
1761506018885831400,3.79883154296875,-1.0135345458984375,-0.0206756591796875,-0.03240966796875
1761506018895866400,3.808866455078125,-1.0133819580078125,-0.02008056640625,-0.032745361328125
1761506018905902300,3.81890234375,-1.013580322265625,-0.020263671875,-0.0327911376953125
1761506018915938300,3.828938232421875,-1.0131988525390625,-0.020721435546875,-0.0333709716796875
1761506018925974300,3.838974365234375,-1.0135040283203125,-0.02008056640625,-0.0326690673828125
1761506018936010200,3.84901025390625,-1.0135650634765625,-0.020050048828125,-0.0322265625
1761506018946045400,3.85904541015625,-1.0133056640625,-0.020721435546875,-0.0323638916015625
1761506018956081400,3.869081298828125,-1.013427734375,-0.0202789306640625,-0.033111572265625
1761506018966117400,3.879117431640625,-1.014495849609375,-0.0200653076171875,-0.0328521728515625
1761506018976153300,3.8891533203125,-1.012481689453125,-0.020263671875,-0.0327911376953125
1761506018986189300,3.899189208984375,-1.013641357421875,-0.019927978515625,-0.03289794921875
1761506018996224500,3.909224609375,-1.0151214599609375,-0.0205535888671875,-0.032958984375
1761506019006260500,3.919260498046875,-1.0127410888671875,-0.019256591796875,-0.0331573486328125
1761506019016296400,3.92929638671875,-1.012786865234375,-0.0195770263671875,-0.0327606201171875
1761506019026332400,3.93933251953125,-1.014312744140625,-0.020416259765625,-0.032379150390625
1761506019036368400,3.949368408203125,-1.0138702392578125,-0.02056884765625,-0.0330047607421875
1761506019046403300,3.9594033203125,-1.012786865234375,-0.02044677734375,-0.0329132080078125
1761506019056439300,3.969439208984375,-1.0139923095703125,-0.0206756591796875,-0.0325775146484375
1761506019066475300,3.979475341796875,-1.013458251953125,-0.02008056640625,-0.033233642578125
1761506019076511500,3.989511474609375,-1.01275634765625,-0.01995849609375,-0.0324859619140625
1761506019086546400,3.99954638671875,-1.0142364501953125,-0.0199737548828125,-0.032745361328125
1761506019096581000,4.0095810546875,-1.01409912109375,-0.0204925537109375,-0.0326385498046875
1761506019106617300,4.019617431640625,-1.013580322265625,-0.0204620361328125,-0.0329132080078125
1761506019116652300,4.02965234375,-1.0128021240234375,-0.0204315185546875,-0.0337982177734375
1761506019126688300,4.039688232421875,-1.01251220703125,-0.020050048828125,-0.0330963134765625
1761506019136723200,4.04972314453125,-1.013641357421875,-0.019683837890625,-0.033203125
1761506019146759200,4.05975927734375,-1.013336181640625,-0.0200958251953125,-0.0325164794921875
1761506019156795100,4.069795166015625,-1.0130767822265625,-0.0207366943359375,-0.0330963134765625
1761506019166830300,4.079830322265625,-1.0130767822265625,-0.020355224609375,-0.0332183837890625
1761506019176866300,4.0898662109375,-1.0138092041015625,-0.020050048828125,-0.033294677734375
1761506019186902300,4.09990234375,-1.0139617919921875,-0.0200653076171875,-0.033111572265625
1761506019196938200,4.109938232421875,-1.0130615234375,-0.020477294921875,-0.0332183837890625
1761506019206974200,4.11997412109375,-1.013153076171875,-0.0206451416015625,-0.033355712890625
1761506019217009400,4.130009521484375,-1.012847900390625,-0.0192108154296875,-0.03271484375
1761506019227045400,4.14004541015625,-1.0133514404296875,-0.0207366943359375,-0.0323944091796875
1761506019237081300,4.150081298828125,-1.013031005859375,-0.0201263427734375,-0.032958984375
1761506019247117300,4.160117431640625,-1.0138702392578125,-0.0195770263671875,-0.0325469970703125
1761506019257153300,4.1701533203125,-1.013427734375,-0.0203857421875,-0.03167724609375
1761506019267188200,4.180188232421875,-1.0129852294921875,-0.02032470703125,-0.032867431640625
1761506019277224200,4.19022412109375,-1.01397705078125,-0.020477294921875,-0.033355712890625
1761506019287260400,4.200260498046875,-1.0128936767578125,-0.01995849609375,-0.0328826904296875
1761506019297296400,4.21029638671875,-1.013580322265625,-0.0200347900390625,-0.032501220703125
1761506019307332400,4.220332275390625,-1.012847900390625,-0.0201873779296875,-0.032073974609375
1761506019317367300,4.2303671875,-1.013275146484375,-0.02105712890625,-0.032989501953125
1761506019327403300,4.2404033203125,-1.0134429931640625,-0.0205078125,-0.0326690673828125
1761506019337439200,4.250439208984375,-1.0134429931640625,-0.0200958251953125,-0.0328826904296875
1761506019347475200,4.26047509765625,-1.0128173828125,-0.02032470703125,-0.0331573486328125
1761506019357511200,4.27051123046875,-1.0131683349609375,-0.020111083984375,-0.0324859619140625
1761506019367546400,4.28054638671875,-1.013275146484375,-0.0205078125,-0.0324859619140625
1761506019377582300,4.290582275390625,-1.0128021240234375,-0.019927978515625,-0.033294677734375
1761506019387618300,4.300618408203125,-1.01312255859375,-0.019744873046875,-0.0334014892578125
1761506019397654300,4.310654296875,-1.01263427734375,-0.0199127197265625,-0.032012939453125
1761506019407689200,4.320689208984375,-1.013275146484375,-0.0203399658203125,-0.0329132080078125
1761506019417725400,4.330725341796875,-1.013580322265625,-0.0196380615234375,-0.0331573486328125
1761506019427761400,4.340761474609375,-1.0129852294921875,-0.0201568603515625,-0.0329742431640625
1761506019437797400,4.35079736328125,-1.0129547119140625,-0.020477294921875,-0.032470703125
1761506019447833300,4.360833251953125,-1.013916015625,-0.0204315185546875,-0.032745361328125
1761506019457868300,4.370868408203125,-1.014404296875,-0.020721435546875,-0.032684326171875
1761506019467904300,4.380904296875,-1.0131378173828125,-0.0199432373046875,-0.03326416015625
1761506019477940200,4.390940185546875,-1.01312255859375,-0.02032470703125,-0.032562255859375
1761506019487976200,4.40097607421875,-1.0128173828125,-0.02001953125,-0.0323944091796875
1761506019498012400,4.411012451171875,-1.0131072998046875,-0.02008056640625,-0.0323638916015625
1761506019508047400,4.42104736328125,-1.0130767822265625,-0.0201568603515625,-0.0330047607421875
1761506019518083300,4.431083251953125,-1.0137786865234375,-0.02117919921875,-0.032623291015625
1761506019528119300,4.441119384765625,-1.013397216796875,-0.0204925537109375,-0.0331268310546875
1761506019538155300,4.4511552734375,-1.01422119140625,-0.0200958251953125,-0.033599853515625
1761506019548191200,4.461191162109375,-1.0133514404296875,-0.019256591796875,-0.033050537109375
1761506019558226400,4.471226318359375,-1.01312255859375,-0.0208740234375,-0.0330810546875
1761506019568262400,4.481262451171875,-1.0134429931640625,-0.0200042724609375,-0.03277587890625
1761506019578298400,4.49129833984375,-1.01312255859375,-0.020843505859375,-0.0327606201171875
1761506019588334300,4.501334228515625,-1.01300048828125,-0.0207977294921875,-0.032806396484375
1761506019598370300,4.511370361328125,-1.0118865966796875,-0.0204010009765625,-0.0330352783203125
1761506019608405200,4.5214052734375,-1.0128326416015625,-0.0204010009765625,-0.0320587158203125
1761506019618441200,4.531441162109375,-1.0140533447265625,-0.0213775634765625,-0.032440185546875
1761506019628477400,4.5414775390625,-1.013946533203125,-0.020294189453125,-0.0324249267578125
1761506019638513400,4.551513427734375,-1.013671875,-0.01922607421875,-0.0327911376953125
1761506019648548400,4.56154833984375,-1.0138702392578125,-0.020751953125,-0.0331268310546875
1761506019658584300,4.571584228515625,-1.0136566162109375,-0.0197906494140625,-0.03277587890625
1761506019668621300,4.581621337890625,-1.0139617919921875,-0.0195159912109375,-0.0327301025390625
1761506019678657300,4.5916572265625,-1.0126800537109375,-0.0203857421875,-0.0330810546875
1761506019688693200,4.601693359375,-1.01348876953125,-0.0206756591796875,-0.033203125
1761506019698729200,4.611729248046875,-1.01239013671875,-0.0204010009765625,-0.03289794921875
1761506019708765200,4.62176513671875,-1.0131988525390625,-0.020233154296875,-0.03253173828125
1761506019718800400,4.63180029296875,-1.0126953125,-0.02032470703125,-0.0326385498046875
1761506019728836400,4.64183642578125,-1.0133819580078125,-0.0201873779296875,-0.03326416015625
1761506019738872300,4.651872314453125,-1.0137786865234375,-0.0198211669921875,-0.032958984375
1761506019748908300,4.661908203125,-1.01348876953125,-0.020538330078125,-0.0322265625
1761506019758944300,4.6719443359375,-1.0133056640625,-0.0204620361328125,-0.03302001953125
1761506019768979200,4.681979248046875,-1.01312255859375,-0.0197601318359375,-0.033355712890625
1761506019779015400,4.692015380859375,-1.0136566162109375,-0.01959228515625,-0.032684326171875
1761506019789051400,4.702051513671875,-1.0133056640625,-0.02056884765625,-0.0335693359375
1761506019799087400,4.71208740234375,-1.0128021240234375,-0.0205230712890625,-0.0330352783203125
1761506019809123300,4.722123291015625,-1.0121002197265625,-0.0207366943359375,-0.03314208984375
1761506019819158300,4.732158203125,-1.013763427734375,-0.0203857421875,-0.0332183837890625
1761506019829194200,4.7421943359375,-1.0132904052734375,-0.0201873779296875,-0.03326416015625
1761506019839230200,4.752230224609375,-1.013275146484375,-0.0209197998046875,-0.0334320068359375
1761506019849266200,4.76226611328125,-1.013031005859375,-0.020233154296875,-0.03289794921875
1761506019859302400,4.772302490234375,-1.013458251953125,-0.019805908203125,-0.0322265625
1761506019869337300,4.78233740234375,-1.01287841796875,-0.019927978515625,-0.0325775146484375
1761506019879373300,4.792373291015625,-1.013397216796875,-0.0198822021484375,-0.032562255859375
1761506019889409300,4.8024091796875,-1.012847900390625,-0.02069091796875,-0.0326080322265625
1761506019899445200,4.8124453125,-1.0128936767578125,-0.0213775634765625,-0.0335693359375
1761506019909480400,4.82248046875,-1.0131378173828125,-0.0204010009765625,-0.0328369140625
1761506019919516400,4.832516357421875,-1.012603759765625,-0.02099609375,-0.0335235595703125
1761506019929552400,4.842552490234375,-1.0128631591796875,-0.0200042724609375,-0.0333251953125
1761506019939588400,4.85258837890625,-1.0137481689453125,-0.0194854736328125,-0.0335235595703125
1761506019949624300,4.862624267578125,-1.012939453125,-0.019622802734375,-0.0327301025390625
1761506019959660300,4.872660400390625,-1.0132598876953125,-0.020050048828125,-0.032623291015625
1761506019969695200,4.8826953125,-1.0130767822265625,-0.0197601318359375,-0.0328216552734375
1761506019979731200,4.892731201171875,-1.013275146484375,-0.020416259765625,-0.032928466796875
1761506019989767400,4.902767333984375,-1.0130462646484375,-0.020416259765625,-0.032745361328125
1761506019999803400,4.912803466796875,-1.0130157470703125,-0.019256591796875,-0.0326080322265625
1761506020009838300,4.92283837890625,-1.0123443603515625,-0.0195159912109375,-0.033355712890625
1761506020019874300,4.932874267578125,-1.0135345458984375,-0.0203094482421875,-0.0327911376953125
1761506020029910300,4.94291015625,-1.01324462890625,-0.020355224609375,-0.032745361328125
1761506020039946200,4.9529462890625,-1.01263427734375,-0.0202178955078125,-0.0336151123046875
1761506020049982200,4.962982177734375,-1.013214111328125,-0.0205230712890625,-0.0332794189453125
1761506020060017400,4.973017333984375,-1.0131072998046875,-0.0201416015625,-0.033660888671875
1761506020070053400,4.983053466796875,-1.0120849609375,-0.0204620361328125,-0.0326690673828125
1761506020080089300,4.99308935546875,-1.0125885009765625,-0.020538330078125,-0.0329437255859375
1761506020090125300,5.003125244140625,-1.0124053955078125,-0.0203704833984375,-0.0337677001953125
1761506020100161300,5.013161376953125,-1.012908935546875,-0.0201568603515625,-0.032501220703125
1761506020110196500,5.023196533203125,-1.0135040283203125,-0.0203704833984375,-0.0322723388671875
1761506020120232400,5.033232421875,-1.0133209228515625,-0.020263671875,-0.03277587890625
1761506020130268700,5.0432685546875,-1.0145111083984375,-0.02093505859375,-0.0323333740234375
1761506020140304600,5.0533046875,-1.0135955810546875,-0.0194091796875,-0.0322418212890625
1761506020150340600,5.063340576171875,-1.012481689453125,-0.02008056640625,-0.0328369140625
1761506020160375300,5.073375244140625,-1.01312255859375,-0.020233154296875,-0.0331268310546875
1761506020170411300,5.083411376953125,-1.0137176513671875,-0.020233154296875,-0.0325469970703125
1761506020180447500,5.093447509765625,-1.0128631591796875,-0.0204010009765625,-0.0334930419921875
1761506020190483500,5.1034833984375,-1.0129852294921875,-0.0209197998046875,-0.0327606201171875
1761506020200519700,5.113519775390625,-1.0138092041015625,-0.0205841064453125,-0.0330810546875
1761506020210554400,5.123554443359375,-1.0134429931640625,-0.0201873779296875,-0.03302001953125
1761506020220590300,5.13359033203125,-1.0130157470703125,-0.01953125,-0.0328216552734375
1761506020230626600,5.14362646484375,-1.0149078369140625,-0.0205841064453125,-0.0332794189453125
1761506020240662500,5.15366259765625,-1.013671875,-0.0204620361328125,-0.032867431640625
1761506020250698500,5.163698486328125,-1.0121917724609375,-0.0209808349609375,-0.0338287353515625
1761506020260733400,5.1737333984375,-1.013214111328125,-0.0205535888671875,-0.0337677001953125
1761506020270769400,5.183769287109375,-1.0133514404296875,-0.020721435546875,-0.0331268310546875
1761506020280805400,5.193805419921875,-1.0133819580078125,-0.020172119140625,-0.0330047607421875
1761506020290841600,5.203841552734375,-1.0127105712890625,-0.0201873779296875,-0.03302001953125
1761506020300876300,5.213876220703125,-1.01385498046875,-0.0206298828125,-0.0330047607421875
1761506020310912300,5.223912353515625,-1.013580322265625,-0.020599365234375,-0.03271484375
1761506020320948500,5.233948486328125,-1.01171875,-0.0196685791015625,-0.032318115234375
1761506020330984400,5.243984375,-1.0131988525390625,-0.020355224609375,-0.0331573486328125
1761506020341020400,5.2540205078125,-1.0134735107421875,-0.020263671875,-0.0319671630859375
1761506020351055400,5.264055419921875,-1.0121307373046875,-0.0198211669921875,-0.0326995849609375
1761506020361091300,5.27409130859375,-1.0124359130859375,-0.0196533203125,-0.0330047607421875
1761506020371127300,5.284127197265625,-1.013336181640625,-0.0193939208984375,-0.03265380859375
1761506020381163300,5.294163330078125,-1.012664794921875,-0.020416259765625,-0.033477783203125
1761506020391199200,5.30419921875,-1.012115478515625,-0.020782470703125,-0.0335540771484375
1761506020401234400,5.314234375,-1.013427734375,-0.0194549560546875,-0.03265380859375
1761506020411270400,5.3242705078125,-1.01287841796875,-0.020660400390625,-0.032318115234375
1761506020421306400,5.334306396484375,-1.012969970703125,-0.020538330078125,-0.03204345703125
1761506020431342300,5.34434228515625,-1.01312255859375,-0.02008056640625,-0.03314208984375
1761506020441378300,5.35437841796875,-1.014678955078125,-0.020721435546875,-0.033416748046875
1761506020451413500,5.36441357421875,-1.012908935546875,-0.0201263427734375,-0.0332794189453125
1761506020461449500,5.374449462890625,-1.0133819580078125,-0.0205230712890625,-0.033111572265625
1761506020471485400,5.3844853515625,-1.0140533447265625,-0.02008056640625,-0.0330047607421875
1761506020481521400,5.394521484375,-1.012939453125,-0.0201416015625,-0.0323944091796875
1761506020491556400,5.404556396484375,-1.0123138427734375,-0.0204620361328125,-0.0328369140625
1761506020501592300,5.41459228515625,-1.013763427734375,-0.020294189453125,-0.0334625244140625
1761506020511628300,5.424628173828125,-1.0140380859375,-0.020599365234375,-0.03302001953125
1761506020521664300,5.434664306640625,-1.013519287109375,-0.0211181640625,-0.033294677734375
1761506020531700500,5.444700439453125,-1.0125732421875,-0.020660400390625,-0.032928466796875
1761506020541735400,5.4547353515625,-1.0135498046875,-0.0211334228515625,-0.03277587890625
1761506020551771400,5.464771484375,-1.0135498046875,-0.0198974609375,-0.0327301025390625
1761506020561807400,5.474807373046875,-1.0130157470703125,-0.0190887451171875,-0.033599853515625
1761506020571843300,5.48484326171875,-1.014129638671875,-0.0201873779296875,-0.0337066650390625
1761506020581879300,5.49487939453125,-1.014404296875,-0.0213470458984375,-0.032928466796875
1761506020591914500,5.50491455078125,-1.01336669921875,-0.020782470703125,-0.0333251953125
1761506020601950500,5.514950439453125,-1.0128326416015625,-0.018768310546875,-0.0329132080078125
1761506020611986400,5.524986328125,-1.0128631591796875,-0.019989013671875,-0.03350830078125
1761506020622022400,5.5350224609375,-1.0123291015625,-0.0203704833984375,-0.0330047607421875
1761506020632058400,5.545058349609375,-1.0139007568359375,-0.0210418701171875,-0.0335693359375
1761506020642093300,5.55509326171875,-1.0126953125,-0.0211639404296875,-0.033203125
1761506020652129500,5.565129638671875,-1.01373291015625,-0.0201568603515625,-0.0326385498046875
1761506020662165500,5.57516552734375,-1.013580322265625,-0.0197296142578125,-0.032989501953125
1761506020672201500,5.585201416015625,-1.012725830078125,-0.0200958251953125,-0.0330047607421875
1761506020682236400,5.595236328125,-1.0137939453125,-0.0209197998046875,-0.03253173828125
1761506020692272400,5.6052724609375,-1.0135498046875,-0.02130126953125,-0.0330963134765625
1761506020702308400,5.615308349609375,-1.0127716064453125,-0.0202789306640625,-0.0329437255859375
1761506020712344300,5.62534423828125,-1.0130462646484375,-0.020904541015625,-0.032684326171875
1761506020722380300,5.63538037109375,-1.0138702392578125,-0.0201416015625,-0.0330657958984375
1761506020732415500,5.64541552734375,-1.0141143798828125,-0.019775390625,-0.0328521728515625
1761506020742451500,5.655451416015625,-1.0135345458984375,-0.0200958251953125,-0.032928466796875
1761506020752487400,5.6654873046875,-1.0131988525390625,-0.0200347900390625,-0.0336761474609375
1761506020762523400,5.6755234375,-1.0135040283203125,-0.0197296142578125,-0.0330657958984375
1761506020772559400,5.685559326171875,-1.0138702392578125,-0.0208892822265625,-0.033172607421875
1761506020782594600,5.695594482421875,-1.01287841796875,-0.0202178955078125,-0.0328216552734375
1761506020792630500,5.705630615234375,-1.014068603515625,-0.0199127197265625,-0.0328216552734375
1761506020802666500,5.71566650390625,-1.01300048828125,-0.0197906494140625,-0.032562255859375
1761506020812702500,5.725702392578125,-1.0122528076171875,-0.020294189453125,-0.033050537109375
1761506020822737400,5.7357373046875,-1.01263427734375,-0.0206451416015625,-0.0328216552734375
1761506020832773400,5.7457734375,-1.0132293701171875,-0.0211334228515625,-0.031890869140625
1761506020842809300,5.755809326171875,-1.0130767822265625,-0.0200958251953125,-0.0330352783203125
1761506020852845300,5.76584521484375,-1.012786865234375,-0.0209197998046875,-0.0332183837890625
1761506020862881500,5.775881591796875,-1.0126190185546875,-0.02099609375,-0.0330657958984375
1761506020872916500,5.78591650390625,-1.0142822265625,-0.02069091796875,-0.032135009765625
1761506020882952400,5.795952392578125,-1.0130767822265625,-0.020904541015625,-0.033111572265625
1761506020892988400,5.805988525390625,-1.0125579833984375,-0.021087646484375,-0.0323028564453125
1761506020903024400,5.8160244140625,-1.0134735107421875,-0.019378662109375,-0.0322723388671875
1761506020913060400,5.826060302734375,-1.01251220703125,-0.0205841064453125,-0.0329742431640625
1761506020923095600,5.836095458984375,-1.0124053955078125,-0.0200653076171875,-0.0324554443359375
1761506020933131500,5.846131591796875,-1.012908935546875,-0.020111083984375,-0.0330657958984375
1761506020943167500,5.85616748046875,-1.013092041015625,-0.02020263671875,-0.032562255859375
1761506020953203500,5.866203369140625,-1.01409912109375,-0.0203399658203125,-0.0322723388671875
1761506020963239400,5.876239501953125,-1.012786865234375,-0.0204620361328125,-0.033111572265625
1761506020973274400,5.8862744140625,-1.0123291015625,-0.0200042724609375,-0.0326995849609375
1761506020983310300,5.896310302734375,-1.0136871337890625,-0.021026611328125,-0.0332183837890625
1761506020993346600,5.9063466796875,-1.01275634765625,-0.0206451416015625,-0.0324859619140625
1761506021003382500,5.916382568359375,-1.0132598876953125,-0.02001953125,-0.0331878662109375
1761506021013417500,5.92641748046875,-1.013427734375,-0.0202178955078125,-0.033294677734375
1761506021023453400,5.936453369140625,-1.0135498046875,-0.019989013671875,-0.0328216552734375
1761506021033489400,5.946489501953125,-1.0139007568359375,-0.02008056640625,-0.032745361328125
1761506021043525400,5.956525390625,-1.013580322265625,-0.0199432373046875,-0.033172607421875
1761506021053561300,5.966561279296875,-1.0121612548828125,-0.020263671875,-0.03289794921875
1761506021063596500,5.976596435546875,-1.01318359375,-0.0198822021484375,-0.0336456298828125
1761506021073632500,5.986632568359375,-1.013580322265625,-0.02056884765625,-0.032745361328125
1761506021083668500,5.99666845703125,-1.012420654296875,-0.019989013671875,-0.03289794921875
1761506021093704400,6.006704345703125,-1.012451171875,-0.0206756591796875,-0.0326690673828125
1761506021103739400,6.016739501953125,-1.0136871337890625,-0.0207061767578125,-0.0328369140625
1761506021113775600,6.026775634765625,-1.0134124755859375,-0.020721435546875,-0.033233642578125
1761506021123811600,6.0368115234375,-1.0135955810546875,-0.02044677734375,-0.0327606201171875
1761506021133848000,6.04684814453125,-1.0128173828125,-0.020843505859375,-0.0331268310546875
1761506021143884000,6.056884033203125,-1.012237548828125,-0.020416259765625,-0.032989501953125
1761506021153918700,6.066918701171875,-1.0131072998046875,-0.0208740234375,-0.0329742431640625
1761506021163954700,6.07695458984375,-1.013458251953125,-0.0206298828125,-0.032867431640625
1761506021173990700,6.08699072265625,-1.013336181640625,-0.0199127197265625,-0.0329437255859375
1761506021184027000,6.09702685546875,-1.0135650634765625,-0.02032470703125,-0.032501220703125
1761506021194061800,6.107061767578125,-1.0129241943359375,-0.0207366943359375,-0.03240966796875
1761506021204097800,6.117097900390625,-1.012664794921875,-0.0192413330078125,-0.03363037109375
1761506021214133800,6.1271337890625,-1.01409912109375,-0.0198211669921875,-0.0334930419921875
1761506021224169700,6.137169677734375,-1.013824462890625,-0.020751953125,-0.0336456298828125
1761506021234205700,6.147205810546875,-1.0125885009765625,-0.0198211669921875,-0.0328826904296875
1761506021244240600,6.15724072265625,-1.012908935546875,-0.02081298828125,-0.0324859619140625
1761506021254276900,6.16727685546875,-1.013671875,-0.019989013671875,-0.0324859619140625
1761506021264312800,6.177312744140625,-1.01324462890625,-0.0194854736328125,-0.032470703125
1761506021274348800,6.187348876953125,-1.01361083984375,-0.0189666748046875,-0.0325164794921875
1761506021284384800,6.197384765625,-1.0138092041015625,-0.0199127197265625,-0.03302001953125
1761506021294419700,6.207419677734375,-1.0139007568359375,-0.0200042724609375,-0.033203125
1761506021304455700,6.21745556640625,-1.0132293701171875,-0.020294189453125,-0.0333099365234375
1761506021314491600,6.22749169921875,-1.012603759765625,-0.0204315185546875,-0.0327911376953125
1761506021324527600,6.237527587890625,-1.0140533447265625,-0.02081298828125,-0.0333709716796875
1761506021334562800,6.247562744140625,-1.0119171142578125,-0.020843505859375,-0.0330810546875
1761506021344598800,6.257598876953125,-1.012359619140625,-0.0205078125,-0.032318115234375
1761506021354634800,6.267634765625,-1.01318359375,-0.02001953125,-0.033203125
1761506021364670700,6.277670654296875,-1.012664794921875,-0.0200653076171875,-0.032135009765625
1761506021374706700,6.287706787109375,-1.0133056640625,-0.0203399658203125,-0.0323486328125
1761506021384742000,6.297741943359375,-1.0121307373046875,-0.0207366943359375,-0.03302001953125
1761506021394777900,6.30777783203125,-1.01312255859375,-0.01995849609375,-0.032958984375
1761506021404813800,6.317813720703125,-1.01300048828125,-0.019866943359375,-0.032958984375
1761506021414849800,6.327849853515625,-1.012542724609375,-0.0214691162109375,-0.0331268310546875
1761506021424884700,6.337884765625,-1.012847900390625,-0.0205078125,-0.03271484375
1761506021434920700,6.347920654296875,-1.0137786865234375,-0.019744873046875,-0.0326690673828125
1761506021444956700,6.357956787109375,-1.013031005859375,-0.0209197998046875,-0.03314208984375
1761506021454993000,6.367992919921875,-1.0133209228515625,-0.0200653076171875,-0.032379150390625
1761506021465028900,6.37802880859375,-1.0135650634765625,-0.02093505859375,-0.0323028564453125
1761506021475063800,6.388063720703125,-1.013427734375,-0.0205078125,-0.033203125
1761506021485099800,6.398099853515625,-1.0126495361328125,-0.0195159912109375,-0.0330810546875
1761506021495135700,6.4081357421875,-1.013092041015625,-0.019622802734375,-0.032867431640625
1761506021505171700,6.418171630859375,-1.0134429931640625,-0.0206298828125,-0.033416748046875
1761506021515207000,6.42820703125,-1.013458251953125,-0.020355224609375,-0.0329742431640625
1761506021525243000,6.438242919921875,-1.0127410888671875,-0.0205230712890625,-0.0333099365234375
1761506021535278800,6.44827880859375,-1.0133056640625,-0.0205230712890625,-0.031982421875
1761506021545314800,6.458314697265625,-1.0142364501953125,-0.0200958251953125,-0.032989501953125
1761506021555350800,6.468350830078125,-1.0130615234375,-0.020965576171875,-0.0329132080078125
1761506021565385700,6.4783857421875,-1.014617919921875,-0.01995849609375,-0.0328521728515625
1761506021575421700,6.488421630859375,-1.0142974853515625,-0.0206451416015625,-0.0332794189453125
1761506021585458000,6.4984580078125,-1.013580322265625,-0.020263671875,-0.033294677734375
1761506021595494000,6.508493896484375,-1.013397216796875,-0.0201416015625,-0.0331573486328125
1761506021605528800,6.51852880859375,-1.01312255859375,-0.020416259765625,-0.0326690673828125
1761506021615564800,6.528564697265625,-1.013702392578125,-0.0200653076171875,-0.0322113037109375
1761506021625600800,6.538600830078125,-1.0142974853515625,-0.020721435546875,-0.033447265625
1761506021635636700,6.54863671875,-1.0131072998046875,-0.020416259765625,-0.0330963134765625
1761506021645672000,6.558671875,-1.01336669921875,-0.0206756591796875,-0.0327606201171875
1761506021655708000,6.5687080078125,-1.0131378173828125,-0.020263671875,-0.0334320068359375
1761506021665744000,6.578743896484375,-1.0127716064453125,-0.01953125,-0.03302001953125
1761506021675779800,6.58877978515625,-1.01287841796875,-0.0194854736328125,-0.0323333740234375
1761506021685815800,6.59881591796875,-1.0134429931640625,-0.0207366943359375,-0.032318115234375
1761506021695850800,6.608850830078125,-1.01434326171875,-0.02056884765625,-0.03302001953125
1761506021705886700,6.61888671875,-1.012908935546875,-0.0209503173828125,-0.0329132080078125
1761506021715923000,6.6289228515625,-1.0130615234375,-0.020477294921875,-0.0323028564453125
1761506021725959000,6.638958984375,-1.01324462890625,-0.0202484130859375,-0.0332489013671875
1761506021735993900,6.648993896484375,-1.0131683349609375,-0.019989013671875,-0.0329437255859375
1761506021746029800,6.65902978515625,-1.0144500732421875,-0.0207366943359375,-0.0330047607421875
1761506021756065800,6.669065673828125,-1.0140533447265625,-0.021331787109375,-0.033233642578125
1761506021766101800,6.679101806640625,-1.0131683349609375,-0.0203399658203125,-0.03277587890625
1761506021776137700,6.6891376953125,-1.01275634765625,-0.0195159912109375,-0.0327911376953125
1761506021786173000,6.6991728515625,-1.01220703125,-0.0206298828125,-0.032958984375
1761506021796209000,6.709208984375,-1.0128326416015625,-0.0201416015625,-0.032684326171875
1761506021806244900,6.719244873046875,-1.0129852294921875,-0.02020263671875,-0.0325927734375
1761506021816280800,6.72928076171875,-1.0139007568359375,-0.02099609375,-0.033203125
1761506021826315800,6.739315673828125,-1.0130157470703125,-0.020263671875,-0.0326690673828125
1761506021836351700,6.749351806640625,-1.0138092041015625,-0.019561767578125,-0.03314208984375
1761506021846388000,6.759387939453125,-1.0125579833984375,-0.0206451416015625,-0.03271484375
1761506021856424000,6.769423828125,-1.01300048828125,-0.021270751953125,-0.0329437255859375
1761506021866459000,6.779458984375,-1.013763427734375,-0.020263671875,-0.0326385498046875
1761506021876494800,6.789494873046875,-1.0130615234375,-0.020660400390625,-0.0329742431640625
1761506021886530800,6.79953076171875,-1.0133819580078125,-0.0201873779296875,-0.0328216552734375
1761506021896566800,6.80956689453125,-1.0133056640625,-0.02069091796875,-0.032440185546875
1761506021906602800,6.819602783203125,-1.013031005859375,-0.02069091796875,-0.032867431640625
1761506021916638000,6.829637939453125,-1.013427734375,-0.019866943359375,-0.0318756103515625
1761506021926674000,6.839673828125,-1.0131378173828125,-0.0198822021484375,-0.031982421875
1761506021936710000,6.8497099609375,-1.01318359375,-0.019622802734375,-0.0326080322265625
1761506021946745900,6.859745849609375,-1.013153076171875,-0.01995849609375,-0.0333404541015625
1761506021956780800,6.86978076171875,-1.0139312744140625,-0.019775390625,-0.0330810546875
1761506021966817000,6.879817138671875,-1.012664794921875,-0.020050048828125,-0.0330047607421875
1761506021976853000,6.88985302734375,-1.013336181640625,-0.0207061767578125,-0.03350830078125
1761506021986889000,6.899888916015625,-1.0135345458984375,-0.0204925537109375,-0.0332794189453125
1761506021996925000,6.909925048828125,-1.012420654296875,-0.0206298828125,-0.03277587890625
1761506022006959900,6.9199599609375,-1.01361083984375,-0.0196990966796875,-0.033111572265625
1761506022016995800,6.929995849609375,-1.01361083984375,-0.0204315185546875,-0.033233642578125
1761506022027031800,6.94003173828125,-1.013397216796875,-0.020111083984375,-0.033477783203125
1761506022037067800,6.95006787109375,-1.01324462890625,-0.0206298828125,-0.032470703125
1761506022047103000,6.96010302734375,-1.0138092041015625,-0.0205535888671875,-0.0323333740234375
1761506022057139000,6.970138916015625,-1.0132293701171875,-0.0199127197265625,-0.0334320068359375
1761506022067175000,6.9801748046875,-1.0128326416015625,-0.02001953125,-0.0328369140625
1761506022077211000,6.9902109375,-1.0131072998046875,-0.01983642578125,-0.032623291015625
1761506022087245800,7.000245849609375,-1.013275146484375,-0.0204010009765625,-0.0333099365234375
1761506022097282000,7.010281982421875,-1.012969970703125,-0.020538330078125,-0.033477783203125
1761506022107318000,7.020318115234375,-1.0131988525390625,-0.020599365234375,-0.0326080322265625
1761506022117354000,7.03035400390625,-1.013092041015625,-0.0203857421875,-0.0338134765625
1761506022127389200,7.04038916015625,-1.0132293701171875,-0.019775390625,-0.032501220703125
1761506022137425200,7.050425048828125,-1.013153076171875,-0.0206756591796875,-0.033203125
1761506022147461000,7.060461181640625,-1.0133056640625,-0.020538330078125,-0.0324249267578125
1761506022157497000,7.0704970703125,-1.0124664306640625,-0.0198822021484375,-0.032196044921875
1761506022167533000,7.080532958984375,-1.013336181640625,-0.0194244384765625,-0.0326385498046875
1761506022177568300,7.090568359375,-1.01361083984375,-0.0206451416015625,-0.0334014892578125
1761506022187604200,7.100604248046875,-1.0131683349609375,-0.020233154296875,-0.033203125
1761506022197640200,7.11064013671875,-1.01348876953125,-0.019989013671875,-0.032806396484375
1761506022207676200,7.12067626953125,-1.0125579833984375,-0.0198211669921875,-0.0319671630859375
1761506022217710800,7.1307109375,-1.0129547119140625,-0.0198974609375,-0.0321197509765625
1761506022227747300,7.140747314453125,-1.013153076171875,-0.0194854736328125,-0.03277587890625
1761506022237783300,7.150783203125,-1.012359619140625,-0.019775390625,-0.0324554443359375
1761506022247819300,7.1608193359375,-1.0135650634765625,-0.0209808349609375,-0.03302001953125
1761506022257854000,7.17085400390625,-1.01287841796875,-0.0196685791015625,-0.0329437255859375
1761506022267890000,7.180889892578125,-1.0140838623046875,-0.0206146240234375,-0.033203125
1761506022277926100,7.190926025390625,-1.0126800537109375,-0.0190887451171875,-0.032501220703125
1761506022287962000,7.200962158203125,-1.013458251953125,-0.0201263427734375,-0.0324859619140625
1761506022297998000,7.210998046875,-1.0133819580078125,-0.0203094482421875,-0.0329437255859375
1761506022308033000,7.221032958984375,-1.01397705078125,-0.0203857421875,-0.032196044921875
1761506022318069000,7.231069091796875,-1.0123138427734375,-0.0203094482421875,-0.0325469970703125
1761506022328105000,7.24110498046875,-1.0129241943359375,-0.0209503173828125,-0.03314208984375
1761506022338141200,7.25114111328125,-1.013671875,-0.021453857421875,-0.0328369140625
1761506022348176100,7.261176025390625,-1.0137786865234375,-0.0203094482421875,-0.0327301025390625
1761506022358212000,7.271212158203125,-1.0135955810546875,-0.0208740234375,-0.0326690673828125
1761506022368248000,7.281248046875,-1.013916015625,-0.0201416015625,-0.0328369140625
1761506022378284000,7.291283935546875,-1.013214111328125,-0.01983642578125,-0.032928466796875
1761506022388319000,7.301319091796875,-1.0118865966796875,-0.02032470703125,-0.0325927734375
1761506022398355000,7.31135498046875,-1.0126190185546875,-0.0195159912109375,-0.0323333740234375
1761506022408391000,7.321390869140625,-1.013214111328125,-0.0200347900390625,-0.0328521728515625
1761506022418427000,7.331427001953125,-1.0120086669921875,-0.0202178955078125,-0.032196044921875
1761506022428462000,7.341462158203125,-1.013092041015625,-0.01922607421875,-0.0331268310546875
1761506022438498000,7.351498046875,-1.014190673828125,-0.020263671875,-0.0329742431640625
1761506022448534000,7.361533935546875,-1.01416015625,-0.0194244384765625,-0.0326995849609375
1761506022458570000,7.371570068359375,-1.0125579833984375,-0.0209197998046875,-0.0331573486328125
1761506022468605000,7.38160498046875,-1.0125579833984375,-0.0203857421875,-0.0326385498046875
1761506022478641200,7.39164111328125,-1.0125885009765625,-0.020050048828125,-0.0339508056640625
1761506022488677000,7.401677001953125,-1.01416015625,-0.019989013671875,-0.0331573486328125
1761506022498713000,7.411713134765625,-1.013885498046875,-0.02032470703125,-0.032684326171875
1761506022508749000,7.4217490234375,-1.0137939453125,-0.0203857421875,-0.032562255859375
1761506022518784000,7.431783935546875,-1.0141754150390625,-0.02099609375,-0.0323333740234375
1761506022528820000,7.441820068359375,-1.0127716064453125,-0.019989013671875,-0.0329437255859375
1761506022538856000,7.45185595703125,-1.01177978515625,-0.020904541015625,-0.032684326171875
1761506022548892000,7.461891845703125,-1.01300048828125,-0.0208740234375,-0.03289794921875
1761506022558927000,7.471927001953125,-1.0128173828125,-0.019989013671875,-0.03350830078125
1761506022568963000,7.481963134765625,-1.01300048828125,-0.0192718505859375,-0.033172607421875
1761506022578999000,7.4919990234375,-1.0138702392578125,-0.0204010009765625,-0.032470703125
1761506022589035000,7.502034912109375,-1.0132904052734375,-0.02032470703125,-0.03271484375
1761506022599070000,7.512070068359375,-1.0127716064453125,-0.0205841064453125,-0.0328521728515625
1761506022609106200,7.522106201171875,-1.0123748779296875,-0.0201416015625,-0.03240966796875
1761506022619142100,7.53214208984375,-1.013031005859375,-0.0208282470703125,-0.032867431640625
1761506022629178000,7.54217822265625,-1.01361083984375,-0.0198516845703125,-0.0325775146484375
1761506022639213000,7.552213134765625,-1.01361083984375,-0.020965576171875,-0.033233642578125
1761506022649249000,7.5622490234375,-1.0129547119140625,-0.0202789306640625,-0.0332794189453125
1761506022659285000,7.572284912109375,-1.0123443603515625,-0.0201263427734375,-0.032379150390625
1761506022669321000,7.582321044921875,-1.0130615234375,-0.02032470703125,-0.0325469970703125
1761506022679356200,7.592356201171875,-1.0132293701171875,-0.019927978515625,-0.033294677734375
1761506022689392000,7.60239208984375,-1.013214111328125,-0.020294189453125,-0.0322265625
1761506022699428000,7.612427978515625,-1.01220703125,-0.0196380615234375,-0.0326385498046875
1761506022709464000,7.622464111328125,-1.0126953125,-0.0203399658203125,-0.0328826904296875
1761506022719500000,7.6325,-1.0138702392578125,-0.0196533203125,-0.03240966796875
1761506022729535000,7.642534912109375,-1.013641357421875,-0.0190582275390625,-0.0326690673828125
1761506022739571200,7.6525712890625,-1.013916015625,-0.0202484130859375,-0.0325927734375
1761506022749607200,7.662607177734375,-1.012542724609375,-0.02008056640625,-0.03271484375
1761506022759643100,7.67264306640625,-1.0125274658203125,-0.020233154296875,-0.0322113037109375
1761506022769678000,7.682677978515625,-1.0120086669921875,-0.0195465087890625,-0.0329437255859375
1761506022779714000,7.692714111328125,-1.01287841796875,-0.0197296142578125,-0.0331878662109375
1761506022789750000,7.70275,-1.01397705078125,-0.020538330078125,-0.0326080322265625
1761506022799786000,7.712785888671875,-1.011993408203125,-0.02044677734375,-0.032257080078125
1761506022809821200,7.7228212890625,-1.013397216796875,-0.0203704833984375,-0.032958984375
1761506022819857200,7.732857177734375,-1.0129547119140625,-0.01983642578125,-0.032379150390625
1761506022829893000,7.74289306640625,-1.013397216796875,-0.020721435546875,-0.0330352783203125
1761506022839929000,7.75292919921875,-1.0133514404296875,-0.020599365234375,-0.0327301025390625
1761506022849964000,7.762964111328125,-1.0127410888671875,-0.0204010009765625,-0.03326416015625
1761506022860000300,7.773000244140625,-1.013458251953125,-0.0206298828125,-0.033233642578125
1761506022870036200,7.7830361328125,-1.0127105712890625,-0.0201263427734375,-0.0326690673828125
1761506022880072200,7.793072265625,-1.0126190185546875,-0.019683837890625,-0.0333709716796875
1761506022890107100,7.803107177734375,-1.01385498046875,-0.0198974609375,-0.0328521728515625
1761506022900143000,7.81314306640625,-1.0128021240234375,-0.020263671875,-0.0334014892578125
1761506022910179000,7.823178955078125,-1.012664794921875,-0.0208587646484375,-0.032318115234375
1761506022920215000,7.833215087890625,-1.0134735107421875,-0.02105712890625,-0.03314208984375
1761506022930250200,7.843250244140625,-1.01373291015625,-0.0203399658203125,-0.0325469970703125
1761506022940286200,7.8532861328125,-1.01373291015625,-0.0205230712890625,-0.0325164794921875
1761506022950322200,7.863322265625,-1.01263427734375,-0.0204620361328125,-0.0335693359375
1761506022960358100,7.873358154296875,-1.01318359375,-0.020782470703125,-0.033172607421875
1761506022970393000,7.88339306640625,-1.014251708984375,-0.0199127197265625,-0.0327911376953125
1761506022980429000,7.893428955078125,-1.0122528076171875,-0.02008056640625,-0.0325469970703125
1761506022990465300,7.90346533203125,-1.01275634765625,-0.020263671875,-0.03289794921875
1761506023000501200,7.913501220703125,-1.0133209228515625,-0.0205230712890625,-0.032867431640625
1761506023010537200,7.923537109375,-1.01348876953125,-0.0201263427734375,-0.03302001953125
1761506023020572200,7.933572265625,-1.01287841796875,-0.0202178955078125,-0.033355712890625
1761506023030608100,7.943608154296875,-1.011688232421875,-0.0196685791015625,-0.033203125
1761506023040644000,7.95364404296875,-1.01275634765625,-0.020355224609375,-0.0332794189453125
1761506023050680000,7.96368017578125,-1.0135345458984375,-0.0201873779296875,-0.03350830078125
1761506023060715300,7.97371533203125,-1.01397705078125,-0.0198516845703125,-0.0333404541015625
1761506023070751200,7.983751220703125,-1.0133514404296875,-0.02044677734375,-0.033203125
1761506023080787200,7.993787109375,-1.0124053955078125,-0.020050048828125,-0.0331878662109375
1761506023090823200,8.0038232421875,-1.0127410888671875,-0.020050048828125,-0.0328521728515625
1761506023100857000,8.013857177734375,-1.0135040283203125,-0.0198974609375,-0.0326995849609375
1761506023110893000,8.02389306640625,-1.013641357421875,-0.0200347900390625,-0.03271484375
1761506023120928000,8.033927978515624,-1.0120086669921875,-0.0201568603515625,-0.0322265625
1761506023130963200,8.043963134765624,-1.01202392578125,-0.0205535888671875,-0.03271484375
1761506023140999400,8.05399951171875,-1.014007568359375,-0.0203857421875,-0.03363037109375
1761506023151035400,8.064035400390624,-1.0135955810546875,-0.019500732421875,-0.033538818359375
1761506023161070300,8.0740703125,-1.0125579833984375,-0.0197906494140625,-0.0323333740234375
1761506023171106300,8.084106201171876,-1.0128173828125,-0.02099609375,-0.0326995849609375
1761506023181142300,8.094142333984376,-1.01324462890625,-0.0200958251953125,-0.03314208984375
1761506023191178200,8.10417822265625,-1.0117645263671875,-0.0200042724609375,-0.0332183837890625
1761506023201213400,8.11421337890625,-1.012664794921875,-0.021026611328125,-0.032623291015625
1761506023211249400,8.12424951171875,-1.012939453125,-0.021026611328125,-0.0334930419921875
1761506023221285400,8.134285400390626,-1.013153076171875,-0.020904541015625,-0.0335845947265625
1761506023231321300,8.1443212890625,-1.0128021240234375,-0.02117919921875,-0.03240966796875
1761506023241356300,8.154356201171876,-1.0127716064453125,-0.020172119140625,-0.032684326171875
1761506023251392300,8.164392333984376,-1.01318359375,-0.020263671875,-0.0330657958984375
1761506023261428500,8.174428466796876,-1.01263427734375,-0.020538330078125,-0.032806396484375
1761506023271464400,8.18446435546875,-1.0124359130859375,-0.02093505859375,-0.03369140625
1761506023281499400,8.19449951171875,-1.0136566162109375,-0.0197906494140625,-0.0323028564453125
1761506023291535400,8.204535400390625,-1.0129241943359375,-0.0194549560546875,-0.032257080078125
1761506023301571300,8.2145712890625,-1.0130462646484375,-0.020233154296875,-0.03240966796875
1761506023311607300,8.224607177734375,-1.0128173828125,-0.019317626953125,-0.0327911376953125
1761506023321642500,8.234642578125,-1.0122528076171875,-0.02008056640625,-0.0318450927734375
1761506023331678500,8.244678466796875,-1.0126190185546875,-0.020416259765625,-0.03253173828125
1761506023341714400,8.25471435546875,-1.0133056640625,-0.0203399658203125,-0.0329132080078125
1761506023351750400,8.26475048828125,-1.014007568359375,-0.020263671875,-0.0334014892578125
1761506023361785300,8.274785400390625,-1.013275146484375,-0.0202178955078125,-0.0328369140625
1761506023371821300,8.2848212890625,-1.0135650634765625,-0.0203704833984375,-0.03302001953125
1761506023381857300,8.294857177734375,-1.0129241943359375,-0.020751953125,-0.0326690673828125
1761506023391893500,8.3048935546875,-1.0121307373046875,-0.0207366943359375,-0.0327606201171875
1761506023401928400,8.314928466796875,-1.0127105712890625,-0.0206451416015625,-0.0324249267578125
1761506023411964400,8.32496435546875,-1.0128173828125,-0.020477294921875,-0.032806396484375
1761506023422000400,8.33500048828125,-1.0124359130859375,-0.0209503173828125,-0.0329437255859375
1761506023432036400,8.345036376953125,-1.0123138427734375,-0.0210113525390625,-0.0328521728515625
1761506023442071600,8.355071533203125,-1.012420654296875,-0.020111083984375,-0.033416748046875
1761506023452107500,8.365107421875,-1.012786865234375,-0.0191497802734375,-0.0331268310546875
1761506023462143500,8.3751435546875,-1.012908935546875,-0.0196380615234375,-0.0330963134765625
1761506023472179500,8.385179443359375,-1.0135498046875,-0.020751953125,-0.033203125
1761506023482214400,8.39521435546875,-1.01361083984375,-0.020355224609375,-0.03350830078125
1761506023492250400,8.40525048828125,-1.013275146484375,-0.0201263427734375,-0.032958984375
1761506023502286300,8.415286376953125,-1.013458251953125,-0.02093505859375,-0.0323486328125
1761506023512322300,8.425322265625,-1.01324462890625,-0.0204925537109375,-0.03253173828125
1761506023522357200,8.435357177734375,-1.0124969482421875,-0.0207366943359375,-0.0330352783203125
1761506023532393500,8.4453935546875,-1.01251220703125,-0.0202484130859375,-0.0331573486328125
1761506023542429400,8.455429443359375,-1.0134735107421875,-0.020294189453125,-0.0325927734375
1761506023552465400,8.46546533203125,-1.013641357421875,-0.0216522216796875,-0.032440185546875
1761506023562501400,8.47550146484375,-1.01239013671875,-0.01971435546875,-0.03265380859375
1761506023572536300,8.485536376953124,-1.0125274658203125,-0.0205230712890625,-0.0332489013671875
1761506023582572300,8.495572265625,-1.0134735107421875,-0.02032470703125,-0.0331573486328125
1761506023592608500,8.5056083984375,-1.0131683349609375,-0.0198974609375,-0.0319061279296875
1761506023602644500,8.51564453125,-1.0136871337890625,-0.020782470703125,-0.032958984375
1761506023612679200,8.52567919921875,-1.0125732421875,-0.0206146240234375,-0.032440185546875
1761506023622715100,8.535715087890624,-1.013641357421875,-0.02020263671875,-0.032318115234375
1761506023632751000,8.545751220703124,-1.012054443359375,-0.0207061767578125,-0.033172607421875
1761506023642787600,8.55578759765625,-1.012420654296875,-0.020355224609375,-0.0327606201171875
1761506023652822300,8.565822265625,-1.0127410888671875,-0.020751953125,-0.0324859619140625
1761506023662858200,8.575858154296874,-1.01416015625,-0.0204925537109375,-0.033477783203125
1761506023672894200,8.585894287109374,-1.0123138427734375,-0.0203704833984375,-0.0336456298828125
1761506023682930200,8.59593017578125,-0.996551513671875,-0.020355224609375,-0.0360260009765625
1761506023692966100,8.605966064453124,-1.0005340576171875,-0.015106201171875,-0.0491790771484375
1761506023703001300,8.61600146484375,-1.0371246337890625,-0.0225830078125,-0.021575927734375
1761506023713037300,8.626037353515626,-1.0475921630859375,-0.03076171875,0.0133056640625
1761506023723073300,8.6360732421875,-0.996612548828125,-0.0159454345703125,-0.0555419921875
1761506023733109200,8.646109130859376,-1.0113677978515625,-0.0213470458984375,-0.0289459228515625
1761506023743145200,8.656145263671876,-1.0271453857421875,-0.02587890625,-0.0173187255859375
