time,seconds_elapsed,z,y,x
1761506015218996000,0.131995849609375,-0.12464403227865695,-0.01753551056012511,-0.0017436287969350814
1761506015229032000,0.142031982421875,-0.1279354750394821,-0.003415671928692609,-0.009883607567474246
1761506015239068000,0.15206787109375,-0.12988660910725594,-0.0009567710018716752,0.0011875658167526126
1761506015249104100,0.162104248046875,-0.13168109130859373,-0.008187672103475778,-0.000026741876453161238
1761506015259139000,0.17213916015625,-0.13481822029054163,-0.009478880957793444,0.005866882739402353
1761506015269175000,0.182175048828125,-0.12524082912802695,-0.0037920126941055057,-0.004941949914209544
1761506015279211000,0.1922109375,-0.13182488369345663,-0.0024053441086784003,0.0012730156105011702
1761506015289247000,0.2022470703125,-0.12928513608276843,-0.008034600433614104,-0.0017814765892922876
1761506015299283000,0.212282958984375,-0.13347615803182125,-0.013323591953516005,-0.0017171426488086581
1761506015309318100,0.222318115234375,-0.13078268116414546,-0.009120002783834933,0.001714475767686963
1761506015319354000,0.23235400390625,-0.11806933006346225,-0.00017732932828366755,-0.001975903182849288
1761506015329390000,0.24239013671875,-0.12286357860267162,-0.011676317936833948,0.0017835589485242962
1761506015339426000,0.252426025390625,-0.133791799852252,-0.013338351131230592,-0.0018023732468485831
1761506015349461000,0.2624609375,-0.13363631702959536,-0.00672570979213342,0.007516768838278949
1761506015359497000,0.2724970703125,-0.12405424969196319,-0.013647179618384688,-0.001448774036206305
1761506015369533200,0.282533203125,-0.12136135734617709,-0.011939334520883858,-0.006022329029440879
1761506015379569200,0.292569091796875,-0.13184183482825756,-0.008699585414677857,0.00456913454644382
1761506015389605000,0.302605224609375,-0.12091536714434623,-0.012507928189076482,0.007661145745031535
1761506015399640000,0.31264013671875,-0.12720482267737387,-0.0002779766911640763,-0.0037750980919227
1761506015409676000,0.322676025390625,-0.1264595572680235,-0.008200951710157096,0.005429916094243526
1761506015419712000,0.3327119140625,-0.1246679976761341,-0.0184923911598511,-0.0004424830704927444
1761506015429748000,0.342748046875,-0.13200725452303885,-0.011760068963840603,0.0034087855301797388
1761506015439784000,0.352783935546875,-0.14338029693067073,-0.009290390914678573,0.00023804653957486152
1761506015449819100,0.362819091796875,-0.13096271390616893,-0.010162808101344853,-0.0020831994822248815
1761506015459855000,0.372855224609375,-0.14083938027620316,-0.010099917199276387,-0.0034621962178498504
1761506015469891000,0.38289111328125,-0.1230342589944601,-0.004921783909015357,0.0013262071024626493
1761506015479927000,0.392927001953125,-0.12902151671051978,-0.005098108590301126,0.005444090750068426
1761506015489962000,0.4029619140625,-0.13441606923043728,-0.006663914868608117,0.0008273907348513603
1761506015499998200,0.412998291015625,-0.13112579551339149,-0.009145447752345354,0.003100048374570906
1761506015510034200,0.4230341796875,-0.13322072196602822,0.001727006455697119,0.0035667525708675384
1761506015520070100,0.433070068359375,-0.11630758108794688,0.0014384353052824734,-0.005744790729694068
1761506015530106000,0.443106201171875,-0.12304185777902603,-0.002257788864150643,0.0014201689962297678
1761506015540141000,0.45314111328125,-0.12693009738922117,-0.001519976108893752,0.003302037220075726
1761506015550177000,0.463177001953125,-0.1318710609227419,-0.007481953253224491,0.003974456588923931
1761506015560213000,0.473212890625,-0.12154781982898712,-0.007758925297390669,0.008804324430786072
1761506015570249000,0.4832490234375,-0.12813012082874775,-0.011318334812019019,0.00739836662299931
1761506015580285200,0.49328515625,-0.1402490131676197,-0.0007260675185360014,-0.0005685571355745196
1761506015590320000,0.503320068359375,-0.12318798825144767,-0.008364051583688706,-0.0020413696344941854
1761506015600356000,0.513356201171875,-0.13470891469717025,-0.010701901680417358,-0.003977379198372364
1761506015610392000,0.52339208984375,-0.12154080556631087,-0.005342164745554327,0.005772738182544708
1761506015620428000,0.533427978515625,-0.12647884649038313,-0.010525248205568641,-0.0017386603608727455
1761506015630464000,0.543464111328125,-0.12378536962270736,-0.010812887774221598,-0.009987652463838457
1761506015640499200,0.553499267578125,-0.12138824535310268,-0.008525854549277572,-0.0006696428898721933
1761506015650535200,0.56353515625,-0.1266296531379223,-0.004468487183563411,-0.0017483780372887848
1761506015660571100,0.573571044921875,-0.12992811016142367,-0.010208747868612408,-0.0045141529561951756
1761506015670607000,0.583607177734375,-0.12184300338327884,0.0008551737909205258,0.0011892828498035668
1761506015680643000,0.59364306640625,-0.12214286311268806,-0.0025554931690916416,0.0008014525759965181
1761506015690678000,0.603677978515625,-0.12603577889800072,0.0004802943302318454,0.0009958791695535182
1761506015700714000,0.6137138671875,-0.12813362796008587,-0.006180734461545944,-0.00210749367326498
1761506015710750200,0.623750244140625,-0.12185410929918289,-0.000739566320925951,0.0035487419901415705
1761506015720786200,0.6337861328125,-0.13112404194772243,-0.003798058842401951,0.006352072440460324
1761506015730822100,0.643822265625,-0.12887947789132595,-0.0024892595324665307,0.003533471355773508
1761506015740857000,0.653857177734375,-0.13051789274811743,-0.0065406172825023525,0.0013652239385992288
1761506015750893000,0.66389306640625,-0.12692308312654493,-0.013225428808666765,-0.003764686295762658
1761506015760929000,0.673928955078125,-0.1173439383983612,-0.009967504724953323,0.0015773688519373536
1761506015770965000,0.683965087890625,-0.12766834853589534,-0.006541256603319197,-0.008157697090320288
1761506015781001200,0.694001220703125,-0.12242752527296542,-0.013035276531428098,-0.000010448328778147698
1761506015791036000,0.704035888671875,-0.11329963144361972,-0.005863850532099604,0.0035918870121240615
1761506015801072000,0.714072021484375,-0.13126140459179877,-0.0035033136795274912,0.001437412391975522
1761506015811108000,0.724108154296875,-0.12931436217725276,-0.016399839327391235,0.0017038082432001829
1761506015821144000,0.73414404296875,-0.1225806700080633,-0.008629406255297362,-0.0017348609685897826
1761506015831180000,0.744179931640625,-0.12243863118886947,-0.011374138386175035,-0.00874232857786119
1761506015841215000,0.754215087890625,-0.12767828540802,0.0006202690565027296,-0.0048059755096212025
1761506015851251200,0.764251220703125,-0.12873042480945587,-0.0008430632280185818,0.004208338410034775
1761506015861287200,0.774287109375,-0.12739070063829422,-0.006459861930180341,0.009171732971072197
1761506015871323100,0.7843232421875,-0.1233481472492218,-0.005849091354385018,0.007750285333208739
1761506015881359000,0.794359130859375,-0.12409867335557936,0.0015012166094966232,-0.0011736468892544507
1761506015891393800,0.804393798828125,-0.12499123828113079,-0.003355009516328573,0.0017888196455314754
1761506015901430000,0.814429931640625,-0.11855799036324023,-0.004824150487128645,0.004953969145566225
1761506015911466200,0.82446630859375,-0.12483633998036384,-0.006493216210510582,0.00702328623291105
1761506015921502200,0.834502197265625,-0.1239361762702465,-0.003907309636846185,0.0008673939516767859
1761506015931538200,0.8445380859375,-0.13291034084260464,-0.003376636826246977,0.006929726197943091
1761506015941572900,0.85457275390625,-0.13215864569246769,-0.004881050039827823,0.00173241328317672
1761506015951608800,0.86460888671875,-0.12303133638501167,-0.0031426088746637102,-0.003006232611276209
1761506015961644800,0.874644775390625,-0.1326104811131954,-0.001074241635389626,-0.0017206497801467776
1761506015971681000,0.884680908203125,-0.12303308995068073,-0.005525101830717176,-0.0014502718735486268
1761506015981717000,0.894717041015625,-0.13021744849681854,-0.008748959248047321,-0.0018929741397500036
1761506015991752000,0.904751953125,-0.12857377294301986,-0.001990278768073767,-0.0007845014411956071
1761506016001788000,0.914787841796875,-0.12752397162914275,-0.010254925097897648,-0.011918803189508616
1761506016011823900,0.924823974609375,-0.13290449562370776,-0.00847392343264073,0.0022684563886374233
1761506016021860000,0.934860107421875,-0.13664426667392254,0.0013568031701259313,-0.00029437983669340607
1761506016031896000,0.94489599609375,-0.13724398613274097,-0.008700973654165863,0.0015605273149907589
1761506016041932000,0.95493212890625,-0.12722294285595417,-0.005404781652987003,0.004095671815797687
1761506016051967000,0.964967041015625,-0.11569909380078315,0.0021367197677493095,0.004549991454556584
1761506016062003000,0.9750029296875,-0.11914192773103713,-0.005743238093424588,-0.006528671116381883
1761506016072039000,0.985038818359375,-0.12557634469270706,0.0014203881919384001,-0.00031337679810822006
1761506016082075100,0.9950751953125,-0.13410802619457243,0.0005452127926051616,0.006170541861094534
1761506016092111000,1.005111083984375,-0.1266197162657976,-0.005441935325600207,-0.00888882437646389
1761506016102145800,1.015145751953125,-0.13529811276197432,-0.0036183366276323794,-0.0010585691422224045
1761506016112182000,1.02518212890625,-0.12797229991853237,-0.0087643394802697,-0.0004737184589728713
1761506016122217500,1.035217529296875,-0.1266284840941429,-0.013333930684439837,-0.007010645947046578
1761506016132253400,1.04525341796875,-0.13246376611888408,-0.009353902871254831,-0.000035034780763089655
1761506016142289400,1.055289306640625,-0.1314174719363451,-0.009388353130128235,-0.0008806918246671557
1761506016152324400,1.065324462890625,-0.12617723319530486,-0.015574110826663672,-0.00273019214887172
1761506016162360300,1.0753603515625,-0.13365619077384472,-0.01725534191187471,-0.0047514323107898234
1761506016172396500,1.085396484375,-0.13245967446565626,-0.015121489954646676,-0.00032780718225985765
1761506016182432500,1.0954326171875,-0.14129121569693087,-0.011422544105164707,0.0005989888064563275
1761506016192468500,1.105468505859375,-0.13380582837760446,-0.005154113093856722,0.003350296808592975
1761506016202504400,1.11550439453125,-0.1243804129064083,-0.00454294065926224,-0.001466273160278797
1761506016212539400,1.125539306640625,-0.13366378955841063,-0.0005036752058193087,0.0042557577483356
1761506016222575400,1.135575439453125,-0.13501461964547634,-0.006264649885334074,-0.006738697137869894
1761506016232611300,1.145611328125,-0.1326192489415407,-0.015334548183437435,0.0023230726527050135
1761506016242647300,1.155647216796875,-0.1302232937157154,-0.00666002414477989,-0.004019720502756536
1761506016252683500,1.16568359375,-0.13666121780872345,-0.0015667378600686787,0.0043167672205716365
1761506016262718500,1.175718505859375,-0.13935703276395797,-0.004200173369888216,0.002255852635391056
1761506016272754400,1.18575439453125,-0.12125263627469539,0.0030921755953691897,-0.0013476152166724204
1761506016282790400,1.195790283203125,-0.1321750123053789,0.0034186858696863055,0.0005549670016393065
1761506016292826400,1.205826416015625,-0.12993044824898242,-0.0009816862474195658,0.0027350509870797393
1761506016302862300,1.2158623046875,-0.1285889705121517,-0.007298449912481009,0.0016299392893910406
1761506016312897500,1.2258974609375,-0.12320669295191763,-0.01417186107961461,-0.004214622020348906
1761506016322933500,1.23593359375,-0.12919278162419795,-0.013120123536977916,0.001174304476380348
1761506016332969500,1.245969482421875,-0.12949381039738656,-0.009032196636218577,0.0036101167885586615
1761506016343005400,1.25600537109375,-0.1366764153778553,-0.004973441031016409,0.009568659866787493
1761506016353041400,1.26604150390625,-0.12889584450423716,-0.008419800358917564,0.0052575917346403
1761506016363077400,1.276077392578125,-0.12754910607039927,-0.01570849606236443,0.011521036043576896
1761506016373112300,1.2861123046875,-0.13233926295638085,-0.001194178220629692,0.003195836899243295
1761506016383148500,1.2961484375,-0.13368483234643935,-0.005633987298980355,-0.00435790294855833
1761506016393184500,1.3061845703125,-0.13024258293807506,-0.0016003296024166046,0.0005721738647669553
1761506016403220500,1.316220458984375,-0.13817220689356327,-0.008430961073748766,-0.0004037584953010082
1761506016413256400,1.32625634765625,-0.13158873685002326,-0.011877868390921503,0.0025341581201180816
1761506016423291400,1.33629150390625,-0.1342839672833681,-0.002616119048837572,0.001385389943793416
1761506016433327400,1.346327392578125,-0.13053952005803585,-0.008802534332498908,0.0003308393895626068
1761506016443363300,1.35636328125,-0.1363753866046667,0.001971939393784851,0.0015797800047323107
1761506016453399300,1.3663994140625,-0.1338268711656332,-0.002971289162058383,0.0036273967169225215
1761506016463435500,1.376435546875,-0.14041501738429069,-0.005516260937135666,-0.0011777750751003622
1761506016473471500,1.386471435546875,-0.13891747230291365,0.0024837796397507187,0.0021229835033416745
1761506016483506400,1.39650634765625,-0.13577099097073078,-0.006240428759530186,0.0005211743298918008
1761506016493542400,1.40654248046875,-0.12514847466945647,-0.0038514147311449047,0.007767894055135548
1761506016503578400,1.416578369140625,-0.1285895550340414,-0.00801322885202244,-0.0028961598329246044
1761506016513614300,1.4266142578125,-0.13024199841618536,-0.013809694970026612,0.0011657558437436818
1761506016523650300,1.436650390625,-0.13502631008327007,-0.009576989303715526,0.002214351581223309
1761506016533685500,1.446685546875,-0.13621990378201007,-0.00597204188061878,-0.006278020823560655
1761506016543721500,1.456721435546875,-0.13307868314683435,-0.007064166232571005,0.0006654051061719655
1761506016553757400,1.46675732421875,-0.1347241122663021,0.0004145904165692627,0.00305599003713578
1761506016563793400,1.47679345703125,-0.12978548682034016,0.0029687318787910044,-0.003851305133290589
1761506016573829400,1.486829345703125,-0.1278448741465807,-0.0029819749528542158,-0.004429726075753569
1761506016583865300,1.496865234375,-0.13547639193832872,-0.00416725748097524,-0.0026354630701243874
1761506016593900500,1.506900634765625,-0.1296434480011463,-0.002376392008829862,0.004343947488442063
1761506016603936500,1.5169365234375,-0.13502864817082882,-0.00436924632648006,0.004470386879704892
1761506016613972500,1.526972412109375,-0.13816811524033545,-0.001855765668209642,-0.005027947697229683
1761506016624008400,1.537008544921875,-0.12455343138575553,0.00353692368818447,0.0035540757523849606
1761506016634044400,1.54704443359375,-0.13367957164943217,-0.007879957861173898,-0.0021521730652078984
1761506016644079400,1.557079345703125,-0.1315828916311264,-0.01488671308439225,0.0037627865996211767
1761506016654115300,1.567115234375,-0.1369669227570295,-0.008991225305013359,0.0025861805683001873
1761506016664151600,1.577151611328125,-0.13577274453639984,-0.00769892047215253,-0.001628733712993562
1761506016674187500,1.5871875,-0.1428022047817707,0.001186542903445661,-0.00018733926564455032
1761506016684223500,1.597223388671875,-0.13382336403429507,0.004750190201774239,-0.0009309972397983073
1761506016694259500,1.607259521484375,-0.13113047168850897,-0.006325440161861479,-0.006451879553124308
1761506016704294400,1.61729443359375,-0.14295651856064795,-0.013633973076939582,0.0029597631210461256
1761506016714330400,1.627330322265625,-0.13323591953516006,-0.013460424874629824,0.005370915916003287
1761506016724366300,1.637366455078125,-0.12935001801252363,-0.0069874477345496415,0.0037526305317878723
1761506016734402300,1.64740234375,-0.12620821285545825,-0.011749912896007299,0.00045855742245912547
1761506016744438500,1.6574384765625,-0.123814011195302,-0.008156473247613757,-0.0026915041062980888
1761506016754473500,1.667473388671875,-0.1414741710484028,-0.0020850443794392048,-0.0035357729107141495
1761506016764509400,1.677509521484375,-0.1381844818532467,-0.00660783729981631,0.0039327363390475505
1761506016774545400,1.68754541015625,-0.14058569777607918,-0.007219448125828057,0.0009371712522581219
1761506016784581400,1.697581298828125,-0.14044365895688532,0.0004304821054451167,-0.0000573562104254961
1761506016794617300,1.707617431640625,-0.1350555361777544,-0.004655716851353645,-0.00398059406876564
1761506016804653300,1.7176533203125,-0.12741992673277855,-0.009065075992513447,0.002081993905827403
1761506016814688500,1.7276884765625,-0.12861585851907728,-0.0009929017611779271,0.0013053104449063538
1761506016824724500,1.737724365234375,-0.14073825798928738,-0.002087327668070793,0.003182539026252925
1761506016834760400,1.747760498046875,-0.12862111921608446,0.0007411189571954309,0.004929053900018334
1761506016844796400,1.75779638671875,-0.12607669543027877,0.0031996910904534158,-0.0010115516627207397
1761506016854832400,1.767832275390625,-0.1355079561203718,-0.0011245470505207777,0.004778174187242985
1761506016864868400,1.777868408203125,-0.13595979154109955,-0.006358228186611086,0.0002370601588860154
1761506016874903600,1.787903564453125,-0.12937281436622142,-0.003600161650124937,0.005945866259746253
1761506016884939500,1.797939453125,-0.13999474614560603,-0.0016345971981994807,0.007512750250287354
1761506016894975500,1.8079755859375,-0.13594693205952643,-0.0037991182883270083,0.004774155599251389
1761506016905011500,1.818011474609375,-0.13295476450622082,0.006596530454512685,0.0018523133357986807
1761506016915047400,1.82804736328125,-0.13580138610899448,-0.008371851297654212,0.0076374360758811235
1761506016925082400,1.838082275390625,-0.13595160823464392,-0.006728157477546483,0.007366656310483813
1761506016935118300,1.848118408203125,-0.13311083185076714,-0.007094415240362286,0.005517375181987881
1761506016945154300,1.858154296875,-0.13430442554950714,-0.008354388706199825,-0.001130611465126276
1761506016955190500,1.8681904296875,-0.13595511536598204,-0.009223791951872408,0.004587400855496525
1761506016965226500,1.8782265625,-0.13610592201352117,-0.005502561205346137,0.004635623911395668
1761506016975262500,1.888262451171875,-0.13940028738379479,-0.007512640652433037,-0.0014664923559874294
1761506016985297400,1.89829736328125,-0.14060323343276976,-0.007941442257445305,-0.005047931039333343
1761506016995333400,1.90833349609375,-0.13582009080946444,0.002516476332955062,0.0008006123257800936
1761506017005369300,1.918369384765625,-0.13432196120619774,-0.00614931640997529,0.007771474251709878
1761506017015405300,1.9284052734375,-0.14000702110528945,-0.006455752010643482,-0.0015304244376718997
1761506017025441500,1.938441650390625,-0.13312369133234023,-0.013203600569348781,0.0007283873397856951
1761506017035476500,1.9484765625,-0.13642273287773132,-0.016083667783997953,-0.0004900485392659902
1761506017045512400,1.958512451171875,-0.13118424770236015,-0.0038626119785942136,0.00445416639726609
1761506017055548400,1.96854833984375,-0.13313245916068553,-0.006132182612083852,0.007105667286738753
1761506017065584400,1.97858447265625,-0.13791910891532896,-0.004280015406757593,0.0012591332156211138
1761506017075620400,1.988620361328125,-0.13941373138725757,-0.01135742471339181,0.008276355033926666
1761506017085656300,1.99865625,-0.1259492696583271,0.00268496476765722,0.004237199178338051
1761506017095691500,2.00869140625,-0.13178630524873733,-0.00671416548481211,-0.002026172065362334
1761506017105727500,2.0187275390625,-0.13358195649385451,-0.0037763402009382842,-0.0019828078476712106
1761506017115763500,2.028763427734375,-0.13313713533580301,0.000379372972715646,0.0023386720806360243
1761506017125799400,2.03879931640625,-0.12820377058684826,-0.01122565155988559,0.006583031652122736
1761506017135835400,2.04883544921875,-0.14076865312755107,-0.00500281325597316,0.0026463863229379057
1761506017145871400,2.058871337890625,-0.14017360984385013,0.0011006547182798386,0.00006740268040448426
1761506017155906600,2.068906494140625,-0.13299392747282981,-0.004765625232923776,0.001218508944287896
1761506017165942500,2.078942626953125,-0.1355395203024149,-0.001139854217506945,-0.0009048033526167273
1761506017175978500,2.088978515625,-0.13000409800708293,-0.0063860660416074095,0.005883541613258421
1761506017186014500,2.099014404296875,-0.13568798886239528,0.0005869147761724889,0.005989157412201166
1761506017196050400,2.109050537109375,-0.14361469020843504,-0.005528956021927297,-0.0028873189393430945
1761506017206085400,2.11908544921875,-0.14660451967418192,-0.0057195832232013345,0.004841192953474819
1761506017216121300,2.129121337890625,-0.1392734461337328,-0.008532101626973598,0.005595481919497251
1761506017226157300,2.1391572265625,-0.13477905732393264,-0.011261106465756893,0.005006210789456963
1761506017236193500,2.149193603515625,-0.1443529413551092,-0.009127144910674541,-0.0014408099254593252
1761506017246229500,2.1592294921875,-0.13537526965141294,-0.009619805532135069,0.001589315018057823
1761506017256265500,2.169265380859375,-0.14899930585622786,-0.004497530614957213,0.01225373423229903
1761506017266300400,2.179300537109375,-0.13732698824107645,-0.01614264969592914,0.006846687556989491
1761506017276336400,2.18933642578125,-0.14091419907808303,-0.004969057116843759,0.0036039062434807417
1761506017286372400,2.199372314453125,-0.1281932491928339,-0.003434029569290578,0.008394757249206304
1761506017296408300,2.209408203125,-0.14330430908501146,0.0004159238571301102,0.0014644465293735265
1761506017306444300,2.2194443359375,-0.13671850095391272,0.0007103036938235163,0.007402019884809851
1761506017316479500,2.2294794921875,-0.12998013260960578,-0.011660992503538727,0.005077230199053883
1761506017326515500,2.239515380859375,-0.13910568835139273,-0.004851714347489178,0.005212291288189589
1761506017336551400,2.249551513671875,-0.13460896145403384,-0.010185750585515052,0.006237177356518805
1761506017346587400,2.25958740234375,-0.13879238461852073,-0.011354666500724852,0.0006350099679082632
1761506017356623400,2.269623291015625,-0.1313134270399809,-0.0069358636777848,-0.0017238281179219484
1761506017366659300,2.279659423828125,-0.13101239826679228,-0.008414612727146595,0.010189458646252751
1761506017376694500,2.289694580078125,-0.13834814798235892,0.0002075600697658956,0.0005167173504829406
1761506017386730500,2.29973046875,-0.1462795255035162,-0.0062152029867284,0.003818206581287086
1761506017396766500,2.309766357421875,-0.14119652315080164,0.000437605965975672,0.0013765855828300117
1761506017406802400,2.319802490234375,-0.13370996678769587,0.0033604894090443847,0.003132525872066617
1761506017416838400,2.32983837890625,-0.12727613434791565,-0.005996701397839933,-0.005418042993359268
1761506017426873300,2.339873291015625,-0.1410468855470419,-0.01038198554366827,-0.0011739756828173995
1761506017436909300,2.349909423828125,-0.1356599318116903,-0.009715831518825144,-0.00046878655552864073
1761506017446945500,2.359945556640625,-0.14434358900487423,0.004921674311161041,0.0008011237824335694
1761506017456981500,2.3699814453125,-0.14284838201105593,-0.0074569284098222844,-0.0011389043694362043
1761506017467017500,2.380017578125,-0.13057342232763766,-0.0067928567442111665,-0.006256064720079302
1761506017477053400,2.390053466796875,-0.1370119309425354,-0.00304579743668437,0.0031394305368885396
1761506017487088400,2.40008837890625,-0.13296996207535267,-0.007713661383558064,-0.000027435996197164058
1761506017497124400,2.410124267578125,-0.13940262547135351,-0.0010485044059343636,0.008640219910256564
1761506017507160300,2.420160400390625,-0.13970131615698336,-0.014654913622513413,0.004869651862978935
1761506017517196500,2.430196533203125,-0.12832593566179273,-0.011375654489826411,0.002485935064218938
1761506017527232500,2.440232421875,-0.13401158008277417,0.000002392886485904455,-0.0005246449286118149
1761506017537267500,2.450267333984375,-0.14089490985572337,-0.00019957769270986317,0.00015266981106251478
1761506017547303400,2.460303466796875,-0.1268242989271879,-0.0006355944897979498,0.001055427337065339
1761506017557339400,2.47033935546875,-0.13759879091978072,-0.007916216484643518,0.00008756868559867143
1761506017567375400,2.480375244140625,-0.1329641168564558,0.0007135733631439507,0.003981178590655327
1761506017577411300,2.490411376953125,-0.13251637308895586,-0.005639704653713852,-0.0035716479416936634
1761506017587446500,2.500446533203125,-0.13131518060564995,-0.005307623155135661,-0.0005722103973850607
1761506017597482500,2.510482421875,-0.14373743980526923,-0.011673998115584254,0.002446516369283199
1761506017607518500,2.5205185546875,-0.1416425133526325,-0.002592975635267794,-0.006439860321767628
1761506017617554400,2.530554443359375,-0.14268646944761276,-0.014277239416539668,0.0016877338912338017
1761506017627590400,2.54059033203125,-0.13266133451759815,-0.007307309072371572,0.001597388726659119
1761506017637626400,2.55062646484375,-0.13939561120867727,0.0013283625269308685,0.0050735038720071315
1761506017647661600,2.56066162109375,-0.1387982298374176,-0.00329261180460453,0.00480217611733824
1761506017657697500,2.570697509765625,-0.13161620937883853,-0.006020319735445082,0.008426540626958011
1761506017667733500,2.5807333984375,-0.12921440893411634,-0.009003628128860146,0.0020109014309942722
1761506017677769500,2.59076953125,-0.12831366070210934,0.005797890890110284,-0.0004698460014536977
1761506017687805400,2.600805419921875,-0.13864274701476095,0.00014265987370163202,0.002775236866995692
1761506017697840400,2.61084033203125,-0.13369944539368153,-0.004071231494285166,0.0005363718990236521
1761506017707876400,2.62087646484375,-0.13519231429994105,0.0011683131270110606,0.002276237836293876
1761506017717912300,2.630912353515625,-0.12995207555890081,-0.008921575868595391,0.0022413857186213133
1761506017727948500,2.640948486328125,-0.14147943174540994,0.00009622691608965396,-0.0001727627510204911
1761506017737984500,2.650984619140625,-0.14386720366477965,-0.0057792227222584185,0.0018455913340672848
1761506017748020500,2.6610205078125,-0.13877367991805076,-0.011815726407524197,0.007828830462135374
1761506017758055400,2.671055419921875,-0.1446095464646816,-0.01242008550884202,0.00738594553284347
1761506017768091400,2.68109130859375,-0.14370938275456427,-0.005644198165740817,0.007830291766859591
1761506017778127400,2.69112744140625,-0.130240829372406,0.0006616057138890027,0.0002859042692929506
1761506017788163300,2.701163330078125,-0.14266308857202528,-0.007100296991877257,-0.0006947773311287164
1761506017798199300,2.71119921875,-0.1444622469484806,-0.014303396771103143,-0.007011011273227632
1761506017808234500,2.721234375,-0.14416764791607856,-0.012793083539698272,0.0006134557232260703
1761506017818270500,2.7312705078125,-0.14371581249535084,-0.005567351803556084,0.006346081091091037
1761506017828306400,2.741306396484375,-0.13249591482281683,-0.00862162480764091,-0.0008579320035874843
1761506017838342400,2.75134228515625,-0.14491466689109803,-0.0009008030309341847,-0.003036737347394228
1761506017848378400,2.76137841796875,-0.1401262635707855,-0.00047970980834215876,0.0020597455414012073
1761506017858413600,2.77141357421875,-0.1332423492759466,-0.002180887703038752,0.0018389058649539945
1761506017868449500,2.781449462890625,-0.1401268480926752,-0.012287344240956007,-0.00285893309507519
1761506017878485500,2.791485595703125,-0.14537410109639168,-0.01753589415261522,-0.003085216131620109
1761506017888521500,2.801521484375,-0.13908932173848151,-0.01263847749987617,0.0038787411294877528
1761506017898557400,2.811557373046875,-0.13175532558858394,-0.011948924333136528,-0.007893821989744901
1761506017908593400,2.821593505859375,-0.13100070782899856,-0.00011573533415794372,-0.0043705432344228025
1761506017918628400,2.83162841796875,-0.14445990886092186,-0.0022973171569406984,-0.0008162848189473151
1761506017928664300,2.841664306640625,-0.1371253281891346,-0.010736260607745497,-0.002949789716303348
1761506017938700500,2.851700439453125,-0.12889876711368561,-0.008671966755390167,-0.005071238849684596
1761506017948736500,2.861736572265625,-0.13802724546492098,0.0009700871411710977,0.0018872750513255596
1761506017958772500,2.8717724609375,-0.13848200349509715,-0.004599694081488997,0.0005029445534572005
1761506017968807400,2.881807373046875,-0.13908230747580527,-0.004426182411797344,-0.000663943801447749
1761506017978843400,2.891843505859375,-0.14102584275901317,-0.00707750063817948,0.002250153546966612
1761506017988879400,2.90187939453125,-0.1384796654075384,-0.012015212768688797,-0.001260484922491014
1761506017998915300,2.911915283203125,-0.15164777453839778,-0.0038061690836213528,-0.004087817302905023
1761506018008951600,2.92195166015625,-0.14371581249535084,-0.011544380386546253,0.007217968554794788
1761506018018986500,2.931986572265625,-0.1365326229929924,-0.013723770252242683,0.0065653498649597165
1761506018029022500,2.9420224609375,-0.13534078285992146,-0.013188147271890192,0.001439385153353214
1761506018039058400,2.952058349609375,-0.13953414289653301,-0.003873809226043522,0.009666384620219468
1761506018049094400,2.962094482421875,-0.13699497980773448,-0.0027299546868540343,0.0033027678724378345
1761506018059130400,2.97213037109375,-0.13190379414856432,-0.018542641776055097,-0.0018231237739324568
1761506018069166300,2.982166259765625,-0.13339724757671356,-0.004145958964619785,0.00016662527117878198
1761506018079201500,2.992201416015625,-0.1362403620481491,-0.002965681405179202,0.0030079496443271635
1761506018089237500,3.002237548828125,-0.13848141897320745,-0.006156239341106266,0.006386741895042359
1761506018099273500,3.0122734375,-0.1386328101426363,-0.010591701037902385,-0.005953720772638916
1761506018109309400,3.022309326171875,-0.13728373362123966,-0.00894228986306116,0.006394961734116077
1761506018119345400,3.032345458984375,-0.1336912620872259,-0.0003987717929296195,-0.00104220252931118
1761506018129381400,3.04238134765625,-0.13459025675356387,-0.01182891468266025,0.0023174831621348858
1761506018139417300,3.052417236328125,-0.12875205211937427,-0.012612575873639434,0.004811747663281857
1761506018149453300,3.062453369140625,-0.1357820968866348,-0.011825827676430345,0.00358289998807013
1761506018159489300,3.0724892578125,-0.13862287327051162,-0.007455887230206281,-0.007717917433567345
1761506018169525500,3.082525390625,-0.13247837916612623,-0.00815155961047858,0.005512625941634178
1761506018179560400,3.092560546875,-0.13740706773996353,0.004304912385996431,0.0067144029468297955
1761506018189596400,3.102596435546875,-0.1411462542682886,-0.008037870102934538,-0.0022838000882416964
1761506018199632400,3.11263232421875,-0.1393511875450611,-0.011489910252951084,-0.0032952786857262254
1761506018209668400,3.12266845703125,-0.1383060624063015,0.0016333002902567386,-0.0030594606358557938
1761506018219704300,3.132704345703125,-0.14055705620348452,-0.004016797893308103,-0.002135696854442358
1761506018229739500,3.142739501953125,-0.13786416385769842,-0.010563735318742691,-0.0027412615321576596
1761506018239775500,3.152775390625,-0.13591186074614525,-0.0034821430273354053,0.0014499430799856782
1761506018249811500,3.1628115234375,-0.13501403512358665,-0.005877184937708079,-0.0006434490026906132
1761506018259847400,3.172847412109375,-0.1333691905260086,-0.0011021525556221604,-0.001349624510668218
1761506018269883400,3.18288330078125,-0.13397007902860641,-0.005591518130432814,-0.005376907265372574
1761506018279918300,3.19291845703125,-0.1335170745640993,0.0028162264645099637,-0.0012440817769616842
1761506018289954300,3.202954345703125,-0.14653496156930923,-0.001698638877738267,0.0037038594866171475
1761506018299990500,3.212990478515625,-0.1395078394114971,-0.0032408085521310566,0.00021240064166486261
1761506018310026500,3.223026611328125,-0.14384557635486125,-0.008244699520338326,0.003951952496170997
1761506018320062500,3.2330625,-0.13980068487823008,-0.007593359472136944,-0.002715834829956293
1761506018330098400,3.243098388671875,-0.1356125855386257,-0.009273585910350084,-0.0023567922592163085
1761506018340133400,3.25313330078125,-0.13756371960639951,-0.011770736488327384,0.0035719402026385067
1761506018350169300,3.26316943359375,-0.1438514215737581,-0.0034472178444266317,-0.0013283259943127632
1761506018360205300,3.273205322265625,-0.13816285454332827,-0.009085205465089528,0.0014194748764857648
1761506018370241300,3.2832412109375,-0.13337035956978796,-0.005575845637265592,0.002691613704152405
1761506018380277500,3.293277587890625,-0.13591536787748337,-0.006205393978767097,0.005047894506715238
1761506018390312400,3.3033125,-0.13396774094104766,-0.014323928102478385,0.0036542116586118934
1761506018400348400,3.313348388671875,-0.1393511875450611,-0.0077134969867765895,0.006464337175898253
1761506018410384400,3.32338427734375,-0.13740940582752226,-0.009813318810239434,0.002882277438044548
1761506018420420400,3.33342041015625,-0.134114455935359,-0.006399199517816305,0.001329823831655085
1761506018430456300,3.343456298828125,-0.13171850070953367,-0.008441263272054493,0.00401961090490222
1761506018440491500,3.353491455078125,-0.13965046275258064,-0.0057575954123400145,0.006751739282533526
1761506018450527500,3.363527587890625,-0.12977613447010516,-0.0008665354351513087,0.0021926512060686945
1761506018460563500,3.3735634765625,-0.1418956113308668,-0.004559599533118307,-0.004810505554266274
1761506018470599400,3.383599365234375,-0.135464701500535,-0.007250190323963761,-0.004257438248768448
1761506018480635400,3.393635498046875,-0.1411515149652958,-0.004980053434893488,-0.0038024610228836533
1761506018490670300,3.40367041015625,-0.14429332012236118,-0.004167695872392505,0.0010210866760462522
1761506018500706600,3.41370654296875,-0.1383048933625221,-0.01688208815269172,0.0046620004616677755
1761506018510742500,3.423742431640625,-0.13156652501821517,0.00017734759459272026,-0.002724164266884327
1761506018520778500,3.433778564453125,-0.1400952839106321,-0.00772038338528946,-0.000071640464104712
1761506018530814500,3.443814453125,-0.14068974267244339,-0.001431329711060971,0.0031974808670580386
1761506018540849400,3.453849365234375,-0.13514964420199393,-0.0017810381978750228,-0.001977510618045926
1761506018550885400,3.463885498046875,-0.1382885267496109,-0.009189451290853322,-0.0003968903630971908
1761506018560921300,3.47392138671875,-0.14517010295689106,-0.00912266966495663,-0.0038342444006353614
1761506018570957300,3.483957275390625,-0.13739128564894199,-0.012551402004621922,-0.003480718255229294
1761506018580993500,3.49399365234375,-0.1354436587125063,-0.006554134351201355,-0.00864343478064984
1761506018591028500,3.504028564453125,-0.1357400113105774,-0.006156842129305005,-0.003019713147357106
1761506018601064400,3.514064453125,-0.13528817588984965,-0.006096545043122023,-0.00013765490502119063
1761506018611100400,3.524100341796875,-0.1385802031725645,-0.007115037903282791,0.0016394377700984478
1761506018621136400,3.534136474609375,-0.1508440569400787,-0.009191150057595222,0.005468750267289579
1761506018631172400,3.54417236328125,-0.14590309340655802,-0.005164342226926237,0.003295169087871909
1761506018641207600,3.55420751953125,-0.13093524137735366,-0.004897928109392524,-0.0001977510618045926
1761506018651243500,3.564243408203125,-0.13647066367268562,-0.003639781274460256,-0.0017602876707911491
1761506018661279500,3.574279541015625,-0.14036357945799827,-0.0035658027227967975,0.005598550659418106
1761506018671315500,3.5843154296875,-0.13632453320026397,-0.01595470764208585,0.000020019874721765516
1761506018681351400,3.594351318359375,-0.13078209664225576,0.0019171952655538916,-0.002647811095044017
1761506018691386000,3.60438623046875,-0.14948504354655742,-0.0007995711461640894,-0.0005894903257489204
1761506018701422300,3.61442236328125,-0.1261369011849165,-0.0032787294097244737,0.000948715559579432
1761506018711458600,3.62445849609375,-0.12374036143720149,-0.01212418956849724,0.0040418227367103095
1761506018721494500,3.63449462890625,-0.13990180716514586,-0.0074095090715214605,0.002163425111584365
1761506018731530500,3.644530517578125,-0.1469324364542961,0.006203622146788984,0.0010439195623621344
1761506018741565200,3.654565185546875,-0.13092238189578057,-0.002659501532837748,-0.0030425825662910937
1761506018751601400,3.664601318359375,-0.13855799134075641,-0.016891641432326285,-0.0045404199086129665
1761506018761637400,3.674637451171875,-0.12958499581217764,-0.004333371295500547,0.00011697744317352772
1761506018771673300,3.68467333984375,-0.13991057499349116,-0.003871946062520146,-0.002579202838242054
1761506018781709300,3.694709228515625,-0.13078735733926294,-0.003735770728532225,-0.0035526509802788495
1761506018791744300,3.704744140625,-0.1400613816410303,-0.0028434980639256537,-0.0010627703933045267
1761506018801780200,3.7147802734375,-0.14829320341348648,0.001495517521072179,-0.009091690004803239
1761506018811816400,3.72481640625,-0.1366273155391216,-0.007959489370789379,0.005839958199858665
1761506018821852400,3.734852294921875,-0.14156360289752482,-0.007197291092947125,0.00847202373649925
1761506018831888400,3.744888427734375,-0.13228548694252967,-0.010349343649391085,-0.0035205388089641926
1761506018841923300,3.75492333984375,-0.13317980543375013,-0.01018986050505191,-0.0031877266580238937
1761506018851959300,3.764959228515625,-0.14096212987303733,-0.002545812025293708,0.004181596533581614
1761506018861995500,3.77499560546875,-0.13812135348916052,-0.015201350257825106,-0.005870097609795629
1761506018872031500,3.785031494140625,-0.1375216340303421,-0.003845313783921301,0.00292509366646409
1761506018882067500,3.7950673828125,-0.14096096082925796,-0.005777195161953568,0.004579546342603862
1761506018892102100,3.80510205078125,-0.13991408212482928,-0.01093300702255219,0.004787088146060705
1761506018902138000,3.81513818359375,-0.13842179774045943,-0.004941748984809965,0.0015399594509974122
1761506018912174300,3.82517431640625,-0.14036357945799827,-0.006758552615810185,0.0009982903223484754
1761506018922210600,3.83521044921875,-0.13662263936400412,-0.011256686018966138,-0.00469699870981276
1761506018932246500,3.84524658203125,-0.1396118843078613,-0.0050432913968339555,0.002120535817928612
1761506018942281200,3.85528125,-0.14021335733234883,-0.004807491613272577,0.006596475655585527
1761506018952317200,3.865317138671875,-0.1376695180684328,-0.011329897385649382,0.005208016971871256
1761506018962353200,3.875353271484375,-0.1388677879422903,-0.006955810487270355,-0.002107639803737402
1761506018972389000,3.88538916015625,-0.14934008211791513,-0.0047852067162282765,0.0003185278972610831
1761506018982425300,3.89542529296875,-0.12958616485595703,-0.00663936494924128,0.0008128507528454065
1761506018992460300,3.905460205078125,-0.1409580382198095,-0.0033531280864961444,-0.00024071342069655654
1761506019002496300,3.915496337890625,-0.15546762508749962,-0.009455079957097769,-0.001026749231852591
1761506019012532200,3.9255322265625,-0.1321142220288515,0.003162683548312634,-0.0032116555228829382
1761506019022568200,3.935568115234375,-0.13256079675257204,0.00004126359215006232,0.0006001213176175952
1761506019032604400,3.9456044921875,-0.14752221904098986,-0.008144782809820025,0.004241911886073649
1761506019042639400,3.955639404296875,-0.14318389757573605,-0.00967206544233486,-0.0018390154628083108
1761506019052675300,3.96567529296875,-0.13256021223068237,-0.008409900019410997,-0.0009604059973731637
1761506019062711300,3.975711181640625,-0.14438684362471102,-0.010616031761560589,0.0024680340813472866
1761506019072747300,3.985747314453125,-0.13915420366823672,-0.0047196854656562206,-0.0038697541054338214
1761506019082783200,3.995783203125,-0.1322708738952875,-0.003524429532792419,0.003471183241903782
1761506019092818200,4.005818115234375,-0.14678513693809508,-0.003713230103161186,0.0009323489466682076
1761506019102853400,4.015853271484375,-0.14543606041669846,-0.008881846646405756,0.001950622611120343
1761506019112889300,4.025889404296875,-0.14034253666996954,-0.008568652511388063,-0.0009305588483810425
1761506019122925300,4.03592529296875,-0.1327151105314493,-0.008206121075619011,-0.009514555059373379
1761506019132960300,4.045960205078125,-0.12987199606001376,-0.004461052795778959,-0.002636303320340812
1761506019142995500,4.055995361328125,-0.14094634778201579,-0.0007817432285286486,-0.0036984161265194416
1761506019153031400,4.066031494140625,-0.13795008857548235,-0.00473513876311481,0.0028685777062550186
1761506019163067400,4.0760673828125,-0.13541034096479415,-0.011049564340617508,-0.002666296599805355
1761506019173103400,4.086103271484375,-0.13540566478967667,-0.00727921548904851,-0.004022058590315282
1761506019183139300,4.096139404296875,-0.14258359359502792,-0.004330686148069799,-0.004890658118389546
1761506019193174300,4.10617431640625,-0.14407529345750808,-0.004491520999278873,-0.003230652484297752
1761506019203210200,4.116210205078125,-0.13524842840135096,-0.008424896659143269,-0.004291778909787536
1761506019213246500,4.12624658203125,-0.13614859211146832,-0.010156433159485459,-0.005521722563542425
1761506019223282400,4.136282470703125,-0.13315584003627298,0.00390005791215226,0.0007737608514726161
1761506019233318400,4.146318359375,-0.13809505000412464,-0.010933865539077669,0.0038805677603930234
1761506019243353300,4.156353271484375,-0.13494330797493456,-0.0049711029434576625,-0.0019326485630124805
1761506019253389300,4.166389404296875,-0.1431687000066042,0.00021408114209771155,0.002084770384803414
1761506019263425300,4.17642529296875,-0.1388280404537916,-0.007641290267091244,0.01053023490794003
1761506019273461200,4.186461181640625,-0.1344926415979862,-0.00684195658294484,-0.0011263006161898374
1761506019283497200,4.196497314453125,-0.14422025488615034,-0.008377331190370024,-0.005864142793044448
1761506019293532400,4.206532470703125,-0.13360066119432448,-0.0032557686592452227,-0.0011064268719404935
1761506019303568400,4.216568359375,-0.14033435336351394,-0.003915913068410009,0.0025810660017654297
1761506019313604400,4.226604248046875,-0.13315408647060392,-0.005358166032284498,0.006816182820871472
1761506019323640300,4.236640380859375,-0.137352122682333,-0.013838738401420414,-0.0019519743179902433
1761506019333676300,4.24667626953125,-0.13900047441124916,-0.008395305238477885,0.0012361907314509153
1761506019343711500,4.25671142578125,-0.13899988988935946,-0.004357062698341906,-0.0008725085182115435
1761506019353747500,4.26674755859375,-0.13286533265709877,-0.006532580106519162,-0.0035923619361594317
1761506019363783400,4.276783447265625,-0.13630465945601464,-0.004494461875036358,0.0029517624776810407
1761506019373819400,4.2868193359375,-0.13734452389776705,-0.008483494978584348,0.0027857582610100505
1761506019383854300,4.296854248046875,-0.13269523678719997,-0.0029325097879394886,-0.005396159955114126
1761506019393890300,4.306890380859375,-0.13583996455371378,-0.0011720577203668653,-0.006338299643434584
1761506019403926300,4.31692626953125,-0.1310562374085188,-0.0028220716834068296,0.007422953074984252
1761506019413962200,4.326962158203125,-0.13733458702564239,-0.007016527698561549,-0.0016095175558701158
1761506019423998500,4.33699853515625,-0.14032850814461706,-0.00006427914155647158,-0.003994586061500013
1761506019434033400,4.347033447265625,-0.13449497968554497,-0.005205167427659034,-0.0021038769440725443
1761506019444069400,4.3570693359375,-0.13419862708747385,-0.008363759322743863,0.0029319617986679077
1761506019454105300,4.367105224609375,-0.14363047229945658,-0.007891191641241312,0.0003615267887711525
1761506019464141300,4.377141357421875,-0.14841946014165877,-0.010731803628336638,0.000981302654929459
1761506019474177300,4.38717724609375,-0.13599486285448073,-0.0030311113242059945,-0.004883936116658151
1761506019484212500,4.39721240234375,-0.13584522525072096,-0.006701251204311847,0.001953691351041198
1761506019494248400,4.40724853515625,-0.13285188865363598,-0.003675546707585454,0.003565400863997638
1761506019504284400,4.417284423828125,-0.13569617216885088,-0.0042571825204417105,0.003891016089171171
1761506019514320400,4.4273203125,-0.13540040409266949,-0.0049271907364949585,-0.002341960016265511
1761506019524356400,4.4373564453125,-0.14228607195317744,-0.014918825255706905,0.0014451573070138693
1761506019534391300,4.447391357421875,-0.13854805446863175,-0.008117365079931915,-0.0034405323753133412
1761506019544427500,4.457427490234375,-0.14663082315921783,-0.004201598141994327,-0.008025777806341648
1761506019554463500,4.46746337890625,-0.138105571398139,0.0040418592693284155,-0.002520093062147498
1761506019564499500,4.47749951171875,-0.1358621763855219,-0.011881612984277307,-0.0027338454106822607
1761506019574535400,4.487535400390625,-0.1390069041520357,-0.0033408713931217787,0.0003087371556088328
1761506019584570400,4.4975703125,-0.13586626803874968,-0.011667513575870543,0.000582622193545103
1761506019594606300,4.5076064453125,-0.13467325886189938,-0.01118426010357216,0.0002389598550274968
1761506019604642300,4.517642333984375,-0.12375438996255397,-0.007268694095034152,-0.0018809549083933232
1761506019614678300,4.52767822265625,-0.13303192139565945,-0.00733403268251568,0.00772599114216864
1761506019624713500,4.53771337890625,-0.1449982535213232,-0.016897797178477048,0.0038444370010867713
1761506019634749400,4.54774951171875,-0.14395079029500485,-0.006388897319510579,0.004055705131590366
1761506019644785400,4.557785400390625,-0.14126023603677748,0.004190565291326493,0.0004970262693241238
1761506019654821400,4.5678212890625,-0.14320903201699256,-0.010732004557736218,-0.002713496742397547
1761506019664857300,4.577857421875,-0.14111878173947334,-0.0011605682119727133,0.0007792042115703225
1761506019674893300,4.587893310546875,-0.14411620998978614,0.0016464702990837395,0.0012963964860886335
1761506019684929300,4.59792919921875,-0.1315384679675102,-0.00699506478542462,-0.0023145240200683473
1761506019694965200,4.60796533203125,-0.1394657538354397,-0.009891553411912172,-0.003592325403541326
1761506019705001500,4.61800146484375,-0.12869243088662624,-0.0071953365978784855,-0.0005877367600798606
1761506019715037400,4.628037353515625,-0.13662263936400412,-0.005578092393279075,0.0030051366327330468
1761506019725072400,4.638072265625,-0.13168869009315967,-0.006509838551748544,0.0021110738698393106
1761506019735108400,4.6481083984375,-0.13842179774045943,-0.0052421567034907635,-0.003994805257208645
1761506019745144300,4.658144287109375,-0.14231471352577207,-0.0016685907993465661,-0.0009245674990117549
1761506019755180300,4.66818017578125,-0.1394686764448881,-0.008745835709199309,0.00619859891179949
1761506019765216300,4.67821630859375,-0.13767127163410187,-0.008025175018142908,-0.0016293182348832487
1761506019775251500,4.68825146484375,-0.13588263465166092,-0.0011668700885958969,-0.004686988772451877
1761506019785287400,4.698287353515625,-0.14112345791459083,0.0005275310054421424,0.001972176855802536
1761506019795323400,4.708323486328125,-0.13768003946244717,-0.00912246873555705,-0.006718275404348969
1761506019805359400,4.718359375,-0.1327408294945955,-0.008676496800035238,-0.0015163593797013163
1761506019815394300,4.728394287109375,-0.12585516163408755,-0.010831775137782097,-0.0026013781374320385
1761506019825430300,4.73843017578125,-0.14216858305335045,-0.007232928661908954,-0.0033393370231613517
1761506019835466500,4.748466552734375,-0.1375304018586874,-0.005254504728410393,-0.0037962504778057335
1761506019845502500,4.75850244140625,-0.1373860249519348,-0.01252411213889718,-0.005239763817004859
1761506019855538400,4.768538330078125,-0.1349894852042198,-0.005809216001722961,-0.00004643295761197805
1761506019865573400,4.778573486328125,-0.13917933810949323,-0.00165828860104084,0.006556435906141996
1761506019875609300,4.788609375,-0.1334913556009531,-0.0030261428881436583,0.0031615327708423135
1761506019885645300,4.798645263671875,-0.1385796186506748,-0.00256844398221001,0.0033306422600522636
1761506019895681300,4.808681396484375,-0.13319266491532325,-0.010604249992221593,0.0029385376699268815
1761506019905717200,4.81871728515625,-0.133644500336051,-0.01725176171530038,-0.0064594418050721285
1761506019915752400,4.82875244140625,-0.13604220912754536,-0.007643171696923673,0.0008118643721565604
1761506019925788400,4.838788330078125,-0.13080781560540197,-0.013581146911159157,-0.005774418682977557
1761506019935824400,4.848824462890625,-0.1333557465225458,-0.003915803470555692,-0.003669518825598061
1761506019945860400,4.8588603515625,-0.1420306358873844,0.0011182086412794888,-0.005702047566510737
1761506019955896300,4.868896240234375,-0.134095751234889,-0.00025167320612818,0.0019739304214715955
1761506019965931500,4.878931640625,-0.13723580282628536,-0.004369191527552902,0.002897584605030715
1761506019975967500,4.888967529296875,-0.13543605992794036,-0.0014977642770856619,0.0008200476786121726
1761506019986003500,4.89900341796875,-0.13737901068925856,-0.008049396143946796,-0.00023848493099212645
1761506019996039400,4.909039306640625,-0.13513678472042082,-0.00803801623340696,0.0016322043117135761
1761506020006075400,4.919075439453125,-0.13483634046912193,0.0033048319653607903,0.0029631241219118237
1761506020016110300,4.9291103515625,-0.12825637755692004,0.0008122296983376144,-0.004286810473725199
1761506020026146300,4.939146240234375,-0.13992752612829207,-0.007051197153143584,0.0012861308204010129
1761506020036182500,4.9491826171875,-0.13707505930662153,-0.007558982278499752,0.0014916998624801634
1761506020046218500,4.959218505859375,-0.13108312541544437,-0.006268668473325669,-0.007209712183102965
1761506020056254500,4.96925439453125,-0.1367676007926464,-0.00935045053884387,-0.003913410584069788
1761506020066289400,4.979289306640625,-0.13572072208821773,-0.0056195751811377705,-0.007619936951808631
1761506020076325400,4.989325439453125,-0.12569558715820311,-0.008748648720793426,0.0020989085080102086
1761506020086361300,4.999361328125,-0.13062719834148884,-0.009609649464301765,-0.0007218845337629318
1761506020096397300,5.009397216796875,-0.12883154709637165,-0.007950155286863447,-0.008799867451377213
1761506020106432500,5.0194326171875,-0.13377192610800265,-0.005826495930086821,0.0036782866539433598
1761506020116468500,5.029468505859375,-0.13960487004518507,-0.007851736413687468,0.005786036055535078
1761506020126504400,5.03950439453125,-0.13781155688762664,-0.00670700509166345,0.0008517579911276698
1761506020136540400,5.04954052734375,-0.1494862125903368,-0.01332498019300401,0.005303330572508275
1761506020146576400,5.059576416015625,-0.1405102944523096,0.0015812047768384218,0.006307393048517406
1761506020156611300,5.069611328125,-0.12959084103107452,-0.005003178582154214,0.0005970160450786352
1761506020166647600,5.0796474609375,-0.1358697751700878,-0.006628204234410077,-0.002335164949297905
1761506020176683500,5.08968359375,-0.14170681076049804,-0.006572181464545428,0.003341967371664941
1761506020186719500,5.099719482421875,-0.13332418234050272,-0.008231602576747536,-0.006009761808812618
1761506020196755500,5.10975537109375,-0.13452245221436024,-0.013319061908870935,0.001202690320648253
1761506020206790400,5.119790283203125,-0.14260405186116695,-0.009950791052170097,-0.001954239340312779
1761506020216826400,5.129826416015625,-0.1390069041520357,-0.006148183898814022,-0.0014819456534460186
1761506020226862300,5.1398623046875,-0.13481880481243133,0.00021030001612380145,0.0005753156699240207
1761506020236898300,5.149898193359375,-0.15337386767864225,-0.01024845882449299,-0.0038358518358319995
1761506020246934500,5.1599345703125,-0.1412561443835497,-0.009035502838157117,0.00027308132033795115
1761506020256969500,5.169969482421875,-0.12674772655963898,-0.01418267473457381,-0.008923420765809714
1761506020267005400,5.18000537109375,-0.1367728614896536,-0.010040186368674039,-0.008316540913842619
1761506020277041400,5.19004150390625,-0.13811492374837397,-0.011711115255579352,-0.0021575068274512885
1761506020287077400,5.200077392578125,-0.13841244539022446,-0.006322152226231992,-0.0010054507154971361
1761506020297113300,5.21011328125,-0.13182605273723602,-0.0065429736363701516,-0.0011912190785631537
1761506020307148500,5.2201484375,-0.1430465349316597,-0.010946889417432248,-0.001072999526374042
1761506020317184500,5.2301845703125,-0.14035013545453548,-0.010652984504774213,0.001690766098536551
1761506020327220500,5.240220458984375,-0.12209610136151314,-0.0015414207557216287,0.005641951409727335
1761506020337256400,5.25025634765625,-0.13661211796998976,-0.008309143058676272,-0.002532368021830916
1761506020347291400,5.26029150390625,-0.1393032567501068,-0.0074142217792570585,0.009073825554549693
1761506020357327400,5.270327392578125,-0.1261357321411371,-0.0030905316275544464,0.001905687490850687
1761506020367363300,5.28036328125,-0.1291214699536562,-0.0016369170194491744,-0.0011780308034271
1761506020377399600,5.290399658203125,-0.13794716596603393,0.0008176730584353208,0.002227941715158522
1761506020387435500,5.300435546875,-0.1313642804443836,-0.009220869342423974,-0.005814641095511615
1761506020397470500,5.310470458984375,-0.1259761576652527,-0.012776552530005574,-0.0066127692032605405
1761506020407506400,5.32050634765625,-0.13884791419804096,0.0003758841076865792,0.0022266630735248327
1761506020417542400,5.33054248046875,-0.13346271402835846,-0.011491517688147723,0.005592924636229873
1761506020427578400,5.340578369140625,-0.13436112417280674,-0.010308664579130709,0.008312924184650182
1761506020437614300,5.3506142578125,-0.13585925377607344,-0.0058027679946273565,-0.0024172902747988697
1761506020447649500,5.3606494140625,-0.15112170483767987,-0.012126326726656407,-0.005103387553617358
1761506020457685500,5.370685546875,-0.13376198923587798,-0.006362703432328999,-0.0037715909605845806
1761506020467721500,5.380721435546875,-0.1384019239962101,-0.010340758484136313,-0.0020262085979804397
1761506020477757400,5.39075732421875,-0.14499357734620572,-0.006015680092945694,-0.0007442424960434436
1761506020487793400,5.40079345703125,-0.13406652514040468,-0.006764032508525997,0.00521715012639761
1761506020497828600,5.41082861328125,-0.12793255243003368,-0.009852006852813065,0.0008815320748835801
1761506020507864600,5.420864501953125,-0.14214695574343203,-0.008106186098791658,-0.005343516452424228
1761506020517900500,5.430900634765625,-0.14484393974244594,-0.010973375565558672,-0.0009756766317412257
1761506020527936500,5.4409365234375,-0.1397521695613861,-0.016081585424765944,-0.0037787513537332414
1761506020537972500,5.450972412109375,-0.13047580717206,-0.01161200226265937,-0.00014222148228436708
1761506020548007400,5.46100732421875,-0.1400531983345747,-0.016293091017287223,0.0013971534468233584
1761506020558043400,5.47104345703125,-0.14004969120323657,-0.004145429241657257,0.0017176541054621337
1761506020568079400,5.481079345703125,-0.13481295959353445,0.0039163331935182216,-0.006856295635551214
1761506020578115600,5.491115478515625,-0.14574293440878391,-0.0067144212131388485,-0.007796645225584506
1761506020588150500,5.501150634765625,-0.14844342553913592,-0.018025869626644996,0.000002776478976011276
1761506020598186500,5.5111865234375,-0.13826923752725123,-0.012401618270389735,-0.0038925504591315985
1761506020608222500,5.521222412109375,-0.13302724522054193,0.007319985890854149,0.000022577157989144324
1761506020618258400,5.531258544921875,-0.13333236564695836,-0.004622727897204458,-0.005658610283583402
1761506020628294400,5.54129443359375,-0.12809797212481497,-0.00835510109225288,-0.000631174043007195
1761506020638329600,5.55132958984375,-0.14351064531207083,-0.015071842126641422,-0.006095869189687073
1761506020648365600,5.561365478515625,-0.13168869009315967,-0.016157098346389828,-0.0025832579588517543
1761506020658401500,5.571401611328125,-0.14186813880205154,-0.006204754657950252,0.003021503245644271
1761506020668437500,5.5814375,-0.14036884015500545,-0.0020558913501910864,-0.00048157297186553476
1761506020678473500,5.591473388671875,-0.1319914724320173,-0.005646079595573246,-0.0005506196200847625
1761506020688508400,5.60150830078125,-0.14246552017331124,-0.013674122424237429,0.004034662343561649
1761506020698544400,5.61154443359375,-0.14007657921016214,-0.017357414046861232,-0.0013818828124552965
1761506020708580600,5.62158056640625,-0.1324456459403038,-0.007343092771805822,0.00014397504795342684
1761506020718616600,5.631616455078125,-0.13513678472042082,-0.013415489754360169,0.0025713848579674956
1761506020728652500,5.641652587890625,-0.1432154617577791,-0.005808759343996644,-0.0012889072993770242
1761506020738687500,5.6516875,-0.1456125860273838,-0.0021544015549123286,0.0008588453190401196
1761506020748723500,5.661723388671875,-0.1399263570845127,-0.005327843959257006,0.00012632979340851307
1761506020758759400,5.671759521484375,-0.13663549884557724,-0.0046686493981629605,-0.0072063146496191615
1761506020768795400,5.68179541015625,-0.13962708187699316,-0.00163121793102473,-0.0012855462985113262
1761506020778830600,5.69183056640625,-0.14321838436722756,-0.01305715956967324,-0.0023049159415066242
1761506020788866600,5.701866455078125,-0.1334913556009531,-0.006386979357060045,0.0010805983109399677
1761506020798902500,5.711902587890625,-0.1451595815628767,-0.003355557505600154,0.0009364040672779082
1761506020808938500,5.7219384765625,-0.13468728738725186,-0.0021234218947589396,0.003531571659632027
1761506020818974500,5.731974365234375,-0.12735504480302334,-0.007120353399217128,-0.0012133943777531385
1761506020829009400,5.742009521484375,-0.13110066107213497,-0.01055326872365549,0.0011602028857916594
1761506020839045600,5.752045654296875,-0.13693477405309676,-0.015281557620875536,0.010208309477195143
1761506020849081600,5.76208154296875,-0.13543781349360942,-0.004916230951063335,-0.0011497545570135115
1761506020859117600,5.77211767578125,-0.1325935299783945,-0.013044829811062662,-0.0029456980630755423
1761506020869153500,5.782153564453125,-0.13094576277136802,-0.013764266659412532,-0.001523446707613766
1761506020879188500,5.7921884765625,-0.14725859966874122,-0.010742726881150156,0.007660488157905637
1761506020889224400,5.802224365234375,-0.13544073610305785,-0.012895995924901217,-0.0017849837206304073
1761506020899260400,5.812260498046875,-0.1303536420971155,-0.014682148689310996,0.006161920163221657
1761506020909296600,5.822296630859375,-0.13932722214758395,0.002126618498843163,0.006300890242494642
1761506020919331600,5.83233154296875,-0.12990648285150527,-0.009684102940000593,-0.00040083588585257526
1761506020929367600,5.842367431640625,-0.12886194223463535,-0.004546977513562887,0.004753149343840778
1761506020939403500,5.852403564453125,-0.13380290576815604,-0.004892594347149133,-0.0012156959326937793
1761506020949439500,5.862439453125,-0.13559972605705262,-0.005822312945313751,0.0037797377344220874
1761506020959475500,5.872475341796875,-0.145472300773859,-0.007252491878904402,0.006561331276968121
1761506020969510700,5.8825107421875,-0.13260346685051919,-0.008363521860726177,-0.0017187135513871906
1761506020979546600,5.892546630859375,-0.1281108316063881,-0.00381371306926012,0.0021776363000273703
1761506020989582600,5.90258251953125,-0.14142682477533816,-0.013716061869822441,-0.003028334845229983
1761506020999618600,5.91261865234375,-0.13230185355544088,-0.009808405173104256,0.0041403146751224995
1761506021009654500,5.922654541015625,-0.13724340161085127,-0.0036419001663103696,-0.0026566519886255264
1761506021019689500,5.932689453125,-0.13889526047110556,-0.005522782009467482,-0.0035671178970485924
1761506021029725400,5.942725341796875,-0.14008885416984557,-0.003455821275990456,0.0010822788113728165
1761506021039761700,5.95276171875,-0.1435293500125408,-0.004506846432574093,0.0018735022542998195
1761506021049797600,5.962797607421875,-0.14039046746492384,-0.003129584996309131,-0.002219064288958907
1761506021059832600,5.97283251953125,-0.12647007866203785,-0.006310406989511102,0.0003720847154036164
1761506021069868500,5.98286865234375,-0.13650047428905962,-0.0024561792467720804,-0.00689238986223936
1761506021079904500,5.992904541015625,-0.14039046746492384,-0.009079561175592244,0.0018472353018820285
1761506021089940500,6.0029404296875,-0.12901917862296103,-0.003466470534168184,0.000438720210827887
1761506021099976400,6.0129765625,-0.12931962287425994,-0.010318784114345907,0.0027830913798883557
1761506021110011600,6.02301171875,-0.14144552947580813,-0.010590751189831644,0.001291829908825457
1761506021120047600,6.033047607421875,-0.13875263713002203,-0.010714231439027935,-0.002598126734420657
1761506021130083800,6.043083740234375,-0.14054185863435267,-0.008139101987704634,0.0019118980359286069
1761506021140119800,6.053119873046875,-0.13290449562370776,-0.012055837040022015,-0.0018472718345001339
1761506021150154800,6.06315478515625,-0.1272165131151676,-0.007970467422530055,-0.0004820844285190105
1761506021160190700,6.073190673828125,-0.13574468748569488,-0.012458444757852703,-0.00037453240081667896
1761506021170226700,6.083226806640625,-0.1391851833283901,-0.010145783901307732,0.000697225016541779
1761506021180263000,6.093262939453125,-0.13798399084508417,-0.0032539602946490046,-0.00010806348435580729
1761506021190299000,6.103298828125,-0.14022738585770128,-0.0073078387953341,0.004220284576155245
1761506021200333800,6.113333740234375,-0.13394611363112927,-0.011376549538969993,0.0052351241745054716
1761506021210369800,6.123369873046875,-0.13139642914831637,0.003173296273872256,-0.006840330881439149
1761506021220405800,6.13340576171875,-0.14545885677039622,-0.0025600232137367126,-0.005587042884714901
1761506021230441700,6.143441650390625,-0.14276479538083076,-0.011701835970580577,-0.007089300673827528
1761506021240477700,6.153477783203125,-0.13064824112951753,-0.002518850953131914,0.00048442251607775684
1761506021250513000,6.163512939453125,-0.1337912153303623,-0.012379954427853225,0.004470606075413525
1761506021260548900,6.173548828125,-0.1412771871715784,-0.0042516660951077935,0.004568696155026555
1761506021270584800,6.183584716796875,-0.1370809045255184,0.0006734057495370507,0.004537935690581798
1761506021280620800,6.193620849609375,-0.14066869988441466,0.005660473447106778,0.0040402153015136714
1761506021290655700,6.20365576171875,-0.1426104816019535,-0.003765051621943712,-0.0009130231916904449
1761506021300692000,6.21369189453125,-0.14350538461506365,-0.004764876314252615,-0.002748348860070109
1761506021310728000,6.22372802734375,-0.13692074552774428,-0.007645217523537575,-0.0037914647048339248
1761506021320764000,6.233763916015625,-0.130789110904932,-0.009008468700759113,0.0014127528747543692
1761506021330799900,6.2437998046875,-0.14500526778399944,-0.012760496444348245,-0.004237053047865629
1761506021340834800,6.253834716796875,-0.12406535560786723,-0.01305189887266606,-0.0011216609736904501
1761506021350870800,6.263870849609375,-0.12840952229201794,-0.009679700759518892,0.0064613415012136095
1761506021360906800,6.27390673828125,-0.13649112193882465,-0.0047514323107898234,-0.0022655337791889904
1761506021370942700,6.283942626953125,-0.13140110532343388,-0.0051732013868168,0.008115428851172328
1761506021380978000,6.29397802734375,-0.13768062398433684,-0.008102021380327642,0.006002089959010482
1761506021391014000,6.304013916015625,-0.1261585284948349,-0.012125797003693877,-0.0005103241423144937
1761506021401049900,6.3140498046875,-0.13588029656410217,-0.004535140945296734,-0.000015380232222378254
1761506021411085800,6.3240859375,-0.13468787190914153,-0.003482398755662143,0.000023527006059885023
1761506021421121800,6.334121826171875,-0.1302022509276867,-0.019179788902122526,-0.001514825009740889
1761506021431157000,6.344156982421875,-0.13319266491532325,-0.009688158060610293,0.0024047595867887138
1761506021441193000,6.35419287109375,-0.14232114326655865,-0.0021676994279026984,0.0028579467143863436
1761506021451229000,6.36422900390625,-0.13498656259477138,-0.013707732432894408,-0.0018410978220403194
1761506021461265000,6.374264892578125,-0.13782441636919973,-0.005507876701280475,0.00558116113319993
1761506021471299800,6.3842998046875,-0.14021101924479007,-0.014162125136889516,0.006175108438357711
1761506021481335800,6.394335693359375,-0.13886486533284187,-0.010066562918946146,-0.002580371882021427
1761506021491371800,6.404371826171875,-0.1312245797127485,-0.00034187224023044107,-0.0016510551426559686
1761506021501407700,6.41440771484375,-0.13555822500288486,-0.0014531214177608488,0.00030628947019577024
1761506021511444000,6.42444384765625,-0.13899930536746977,-0.011344145106710493,-0.005083952200785279
1761506021521479000,6.43447900390625,-0.13914602036178111,-0.008843925788812339,-0.0007314560797065496
1761506021531515000,6.444514892578125,-0.13211246846318245,-0.010624836122523993,-0.003950600789301097
1761506021541550800,6.45455078125,-0.13764613719284532,-0.010720825576595962,0.009028817369043826
1761506021551586800,6.4645869140625,-0.1467711084127426,-0.006525584110151976,-0.0009320201531052589
1761506021561622000,6.4746220703125,-0.13524842840135096,-0.0150524615727365,-0.00020925883650779723
1761506021571658000,6.484657958984375,-0.15050678780972956,-0.005311312949564308,0.00033471184708178044
1761506021581694000,6.49469384765625,-0.14736322908699512,-0.012150529586151242,-0.003836509422957897
1761506021591730000,6.50472998046875,-0.14032090936005115,-0.008547335728723555,-0.004177687543444335
1761506021601764900,6.514764892578125,-0.13852175098359584,-0.007462262172065675,-0.0028858211020007726
1761506021611800800,6.52480078125,-0.13582359794080257,-0.010140176144428551,0.0017579130506142973
1761506021621836800,6.5348369140625,-0.14150515070855615,-0.006714329881593584,0.00610942279100418
1761506021631872800,6.544872802734375,-0.14733575655817985,-0.013229191668331622,-0.006117642630077898
1761506021641909000,6.554908935546875,-0.13566285442113876,-0.010209752515610307,-0.0027227029621601103
1761506021651944000,6.56494384765625,-0.13820844725072384,-0.012911010830942541,0.0007026318440213799
1761506021661980000,6.57497998046875,-0.1359668058037758,-0.008948628272302448,-0.005736315162293612
1761506021672016000,6.585015869140625,-0.13237842592298985,-0.0017420578943565487,-0.0016305603438988327
1761506021682051800,6.5950517578125,-0.13342764271497726,-0.001212992518953979,0.005116758491843939
1761506021692087000,6.605087158203125,-0.1389677411854267,-0.01340356185454875,0.005317614826187491
1761506021702123000,6.615123046875,-0.14779285267591474,-0.011848587497510015,-0.001619490960612893
1761506021712159000,6.625158935546875,-0.13372984053194523,-0.015477007127739488,-0.0005491583153605461
1761506021722195000,6.63519482421875,-0.13522621656954287,-0.010894940034486354,0.005475508801639079
1761506021732231000,6.64523095703125,-0.13702186781466005,-0.008811557889170945,-0.0037142347501590844
1761506021742265900,6.655265869140625,-0.1362707571864128,-0.006316361806262284,-0.0007794599398970604
1761506021752301800,6.6653017578125,-0.1488414849460125,-0.013553436920326203,-0.0013910159669816493
1761506021762338000,6.675338134765625,-0.14495382985770702,-0.019240615711268037,-0.0036298809349536894
1761506021772374000,6.6853740234375,-0.13628244762420655,-0.009395696186367422,0.001020794415101409
1761506021782409000,6.695408935546875,-0.13224749301970004,-0.0013397607037797569,0.0010417641378939152
1761506021792445000,6.70544482421875,-0.12686287737190724,-0.012211100666970015,-0.0005604468943551182
1761506021802481000,6.71548095703125,-0.13299626556038854,-0.007403462923225015,0.002071180250868201
1761506021812516900,6.725516845703125,-0.13449088803231715,-0.007953662418201566,0.002873253881372511
1761506021822552800,6.735552734375,-0.14346212999522684,-0.01592115243235603,-0.0032018282486125827
1761506021832588000,6.745588134765625,-0.13477379662692546,-0.008778897728584706,0.0017587167682126164
1761506021842624000,6.7556240234375,-0.14255202941298484,-0.0019858035223558543,-0.0029164719685912132
1761506021852660000,6.765659912109375,-0.13028525303602217,-0.012511398787796496,0.0013234671561047433
1761506021862696000,6.775696044921875,-0.1346288351982832,-0.01856892699478194,-0.0008442688044160604
1761506021872730600,6.785730712890625,-0.1421101308643818,-0.008621661340259015,0.0021018676500767467
1761506021882766800,6.795766845703125,-0.13522797013521193,-0.012401435607299208,-0.0012231851194053887
1761506021892803000,6.805802978515625,-0.13836802172660828,-0.007818838791083544,0.00024217472542077301
1761506021902839000,6.815839111328125,-0.137616911098361,-0.012818729437608272,0.0039292292077094315
1761506021912873700,6.825873779296875,-0.13492284970879553,-0.012754103236179799,-0.0003314239114522934
1761506021922909700,6.83590966796875,-0.13880875123143196,-0.004800130290724337,0.009330905588157475
1761506021932945700,6.845945556640625,-0.1359668058037758,-0.0049546632653102276,0.008325491405278444
1761506021942982000,6.85598193359375,-0.136423317399621,-0.002212853743880987,0.0023006781578063964
1761506021953017900,6.866017822265625,-0.1361269648015499,-0.00549879834568128,-0.004787745733186602
1761506021963052800,6.876052734375,-0.14376257424652575,-0.0036686055101454256,-0.002152574924007058
1761506021973088800,6.8860888671875,-0.13134557574391365,-0.006387198552768677,-0.0012859116246923803
1761506021983124700,6.896124755859375,-0.13792846126556396,-0.012803221341222524,-0.006279737856611609
1761506021993160700,6.90616064453125,-0.1398690739393234,-0.010722067685611545,-0.004169138910807669
1761506022003195600,6.916195556640625,-0.1289379300802946,-0.012122856127936392,0.0005646481454372405
1761506022013231900,6.92623193359375,-0.14060557152032852,-0.0029332039076834914,-0.002886697884835303
1761506022023267800,6.936267822265625,-0.14060674056410788,-0.010085011891089379,-0.004054791816137731
1761506022033303800,6.9463037109375,-0.13851765933036803,-0.006875548325292765,-0.006318535497039556
1761506022043338800,6.9563388671875,-0.1370288820773363,-0.011857154396455735,0.003735058342479169
1761506022053374700,6.966374755859375,-0.14256956506967544,-0.011018493348918855,0.005144815542548894
1761506022063410700,6.97641064453125,-0.13688333612680434,-0.004711155099328607,-0.00564421643204987
1761506022073446700,6.98644677734375,-0.13298925129771233,-0.005698613500408828,0.00005618716664612293
1761506022083482600,6.996482666015625,-0.13568155912160873,-0.003747461166325956,0.0020133491164073345
1761506022093517800,7.006517822265625,-0.13733283345997332,-0.00927855434641242,-0.0045591976743191475
1761506022103553800,7.0165537109375,-0.13434768016934395,-0.010605802628491073,-0.00597750350702554
1761506022113589800,7.02658984375,-0.13659867396652697,-0.01124245656421408,0.002764057885855436
1761506022123625700,7.036625732421875,-0.13555179526209832,-0.009141100370790809,-0.009036233490519225
1761506022133661000,7.046660888671875,-0.13689210395514964,-0.003170136202406138,0.0036316345006227493
1761506022143697000,7.05669677734375,-0.13614625402390956,-0.011976542992424219,-0.0031807854605838655
1761506022153733000,7.066733154296875,-0.13764789075851439,-0.010574439375847577,0.00457318966705352
1761506022163769000,7.07676904296875,-0.12941489994227887,-0.004166417230758816,0.006746478585526346
1761506022173804000,7.086803955078125,-0.1379436588346958,0.00033580782562494274,0.0023725012850016355
1761506022183840000,7.096840087890625,-0.14063830474615097,-0.011742131448350845,-0.005013188519515097
1761506022193876000,7.1068759765625,-0.13630056780278682,-0.007641856522671878,-0.0030392215654253957
1761506022203912000,7.116911865234375,-0.13944646461308002,-0.005287055291142314,0.0009834946120157837
1761506022213947100,7.126947021484375,-0.130319155305624,-0.0036645869221538304,0.009247172827459871
1761506022223983000,7.136983154296875,-0.1342103175252676,-0.004437324860319495,0.007778598112240433
1761506022234019000,7.14701904296875,-0.13615677541792393,-0.00032093905005604027,0.0013256956458091735
1761506022244055000,7.157054931640625,-0.1283762045443058,-0.0030905864264816046,0.004442439426854253
1761506022254091000,7.167091064453125,-0.14019874428510665,-0.014760492888838052,-0.0011364566840231418
1761506022264126000,7.1771259765625,-0.13346622115969656,-0.0018874759807251393,-0.0003512611230835318
1761506022274162200,7.187162109375,-0.1452899299442768,-0.01114982811100781,-0.002845817885175347
1761506022284198100,7.1971982421875,-0.13151859422326087,0.0037220161978155373,0.003949687473848462
1761506022294234000,7.207234130859375,-0.13914894297122954,-0.006478128239233046,0.0040881095638498665
1761506022304269000,7.21726904296875,-0.138409522780776,-0.008064977305568754,-0.0002721314722672105
1761506022314305000,7.227304931640625,-0.14424948098063467,-0.008667929901089519,0.007107530450262129
1761506022324341000,7.237341064453125,-0.12793722860515117,-0.007853489979356526,0.003571173017658293
1761506022334377000,7.247376953125,-0.13391981014609336,-0.014071670374460518,-0.0023900004090741276
1761506022344412200,7.257412109375,-0.14124854559898375,-0.01913344727605581,0.0005686667334288358
1761506022354448100,7.2674482421875,-0.14229191717207432,-0.008037833570316434,0.0015592852059751747
1761506022364484000,7.277484130859375,-0.14049451236128807,-0.01345708214007318,0.002046849527209997
1761506022374520000,7.28752001953125,-0.14363281038701534,-0.006266586114093661,0.00027180267870426176
1761506022384555000,7.297554931640625,-0.13674538896083832,-0.0031866306794807314,-0.0008040098592638969
1761506022394591000,7.307591064453125,-0.12372516386806964,-0.007912362293433398,0.002390329202637076
1761506022404627200,7.317627197265625,-0.13090659980475902,0.0000785633952356875,0.004869542265124619
1761506022414663200,7.3276630859375,-0.13674655800461769,-0.004897708913683891,-0.0001654196947813034
1761506022424699100,7.33769921875,-0.12492752539515495,-0.006697104752156883,0.006354154799692332
1761506022434734000,7.347734130859375,-0.1355553023934364,0.0030565745590254664,-0.002696143748797476
1761506022444770000,7.35777001953125,-0.1463268717765808,-0.007111695168726145,-0.0012636267276480793
1761506022454806000,7.367805908203125,-0.14602759656906128,0.0010977869077585637,0.0014409195233136415
1761506022464842000,7.377842041015625,-0.13031740173995493,-0.01355477036088705,-0.0030043694477528333
1761506022474877200,7.387877197265625,-0.1303197398275137,-0.008313837500102818,0.0021407383557409047
1761506022484913200,7.3979130859375,-0.1306155079036951,-0.004955594847071916,-0.010870938104391097
1761506022494949000,7.40794921875,-0.14602935013473034,-0.004356149382889271,-0.0030523367753252386
1761506022504985000,7.417985107421875,-0.1433341197013855,-0.00781306663742289,0.0016397665636613964
1761506022515020000,7.42802001953125,-0.14243863216638564,-0.00839682134212926,0.002901457062549889
1761506022525056000,7.438055908203125,-0.14618074130415915,-0.014377594518475234,0.00517462615892291
1761506022535092200,7.44809228515625,-0.13241583532392978,-0.0044443208566866815,-0.0008045943811535835
1761506022545128200,7.458128173828125,-0.12269056012332438,-0.013307188807986675,0.0017093977337703109
1761506022555163100,7.4681630859375,-0.1346586458146572,-0.01305905926581472,-0.0004453691473230719
1761506022565199000,7.47819921875,-0.13286533265709877,-0.004343710026424378,-0.006370704075694083
1761506022575235000,7.488235107421875,-0.13466156842410565,0.0027899595120921728,-0.003122004478052258
1761506022585271000,7.49827099609375,-0.14319208088219165,-0.00815216239867732,0.003719349316693842
1761506022595307000,7.50830712890625,-0.1375040983736515,-0.007459814486652613,0.0013050912491977215
1761506022605342200,7.51834228515625,-0.13241291271448136,-0.00997950569000095,-0.0001676116518676281
1761506022615378200,7.528378173828125,-0.12852175049483774,-0.005617858148086816,0.004148644112050533
1761506022625414100,7.5384140625,-0.13496318171918392,-0.012262410729099064,-0.00017784078493714332
1761506022635450000,7.5484501953125,-0.1406540868371725,-0.002468874331563711,0.0026722148839384316
1761506022645485000,7.558485107421875,-0.1406581784904003,-0.013310604607779532,-0.0036836934814229606
1761506022655521300,7.568521240234375,-0.13422668413817881,-0.006528908578399569,-0.004083652584441006
1761506022665557200,7.57855712890625,-0.12823358120322226,-0.0050719329694285985,0.004547945627942681
1761506022675593200,7.58859326171875,-0.13526362597048283,-0.007144337063003331,0.0028781857848167417
1761506022685628200,7.598628173828125,-0.13690963961184024,-0.003247201760299504,-0.004459025235474109
1761506022695664000,7.6086640625,-0.1367588329643011,-0.006901011560112237,0.006017579789087176
1761506022705700000,7.6187001953125,-0.12687982850670815,-0.0006208718447014689,0.001983538500033319
1761506022715736000,7.628736083984375,-0.1316688163489103,-0.007581869963742792,-0.0003443199256435036
1761506022725771300,7.638771240234375,-0.1431944189697504,-0.0008677227452397346,0.004406966254673898
1761506022735807200,7.64880712890625,-0.14094634778201579,0.004895626554451882,0.0018001082245260476
1761506022745843200,7.65884326171875,-0.14363631751835346,-0.006817899853922426,0.0024675956899300215
1761506022755879200,7.668879150390625,-0.1301759474426508,-0.005071366713847965,0.0014362068155780435
1761506022765914000,7.6789140625,-0.13002163366377353,-0.006662234368175268,0.00627893413901329
1761506022775950000,7.6889501953125,-0.12492752539515495,0.00004955649645999074,-0.001077091179601848
1761506022785986300,7.698986328125,-0.1334475164592266,-0.001778736642934382,-0.003736994571238756
1761506022796022300,7.709022216796875,-0.14421850132048128,-0.009641779901925473,0.0018197262404486536
1761506022806057000,7.719056884765625,-0.1247638592660427,-0.008734985521622001,0.005201550698466599
1761506022816093200,7.72909326171875,-0.13853285689949987,-0.0079906882266514,-0.0016118921760469673
1761506022826129200,7.739129150390625,-0.13419570447802542,-0.0028086642125621434,0.004173522824980318
1761506022836165000,7.7491650390625,-0.1385410402059555,-0.011468173345178365,-0.0020933920826762915
1761506022846201000,7.759201171875,-0.13808920478522776,-0.010213515375275165,0.0007835881257429718
1761506022856236000,7.769236083984375,-0.13210428515672684,-0.008294128152634948,-0.004426365074887872
1761506022866272000,7.77927197265625,-0.13913959062099457,-0.010422335820365697,-0.004122998214140534
1761506022876308200,7.78930810546875,-0.13180384090542793,-0.0054496985069476065,0.0012886150384321807
1761506022886344200,7.79934423828125,-0.1309030926734209,-0.0010183467296883463,-0.005736607423238456
1761506022896379000,7.80937890625,-0.14302490762174128,-0.0030651414579711852,-0.0006427914155647159
1761506022906415000,7.8194150390625,-0.13269991296231745,-0.006631473903730511,-0.0060553545162081715
1761506022916451000,7.829451171875,-0.13135317452847955,-0.01243027810929343,0.004551087433099747
1761506022926487300,7.8394873046875,-0.13928279848396777,-0.014273293893784284,-0.003631378772296011
1761506022936522000,7.84952197265625,-0.1418307294011116,-0.0070258617824874815,0.0022005787841975688
1761506022946558000,7.859557861328125,-0.14183189844489097,-0.008741908452752977,0.0025000731874257323
1761506022956594000,7.869593994140625,-0.13105857549607752,-0.008150865490734576,-0.007809102848358452
1761506022966630000,7.8796298828125,-0.1364449447095394,-0.01129429634930566,-0.003938946884125471
1761506022976665000,7.8896650390625,-0.1469149007976055,-0.0028404110576957463,-0.0002883884873241186
1761506022986701000,7.899701171875,-0.1273129592269659,-0.0044474809281528,0.002091601984389126
1761506022996737000,7.909737060546875,-0.13225100015103816,-0.006322152226231992,-0.0012935834744945169
1761506023006773000,7.91977294921875,-0.13778642244637013,-0.008917064090259373,-0.000999240170419216
1761506023016808000,7.929807861328125,-0.13943535869717597,-0.004993059046939015,-0.0024356296490877865
1761506023026844000,7.939843994140625,-0.1334475164592266,-0.005941372747719288,-0.005761595734022558
1761506023036880100,7.949880126953125,-0.12177812145352362,-0.00045393604626879093,-0.004263064271956682
1761506023046916000,7.959916015625,-0.13226152154505252,-0.007038885660842061,-0.004829977439716458
1761506023056951000,7.969950927734375,-0.13989362385869025,-0.005523476129211485,-0.006976670612208545
1761506023066987000,7.979987060546875,-0.14423311436772346,-0.002325648202281445,-0.005266249965131283
1761506023077023000,7.99002294921875,-0.1380968035697937,-0.008168967403005808,-0.003949870136938989
1761506023087059000,8.000058837890625,-0.12881693404912947,-0.004361337014660239,-0.003830298877879977
1761506023097093000,8.010093017578125,-0.13211129941940306,-0.004333206898719072,-0.000478577297180891
1761506023107129000,8.020129150390625,-0.13959434865117074,-0.0026799963315948844,0.0009567162029445171
1761506023117165000,8.0301650390625,-0.14094693230390548,-0.004013071566261351,0.0009752017077058553
1761506023127201000,8.040200927734375,-0.12493921583294867,-0.005278196131251752,0.005914630871266127
1761506023137235500,8.0502353515625,-0.12509119152426718,-0.009244414614792912,0.001246200668811798
1761506023147271400,8.060271484375,-0.1445452490568161,-0.007619425495155156,-0.007693586709909141
1761506023157307400,8.070307373046875,-0.14051204801797865,0.001157188944797963,-0.006631035512313246
1761506023167343400,8.08034326171875,-0.13033786000609396,-0.001718567420914769,0.00523274955432862
1761506023177378300,8.09037841796875,-0.1328770230948925,-0.013494729003030805,0.001484283741004765
1761506023187414500,8.10041455078125,-0.1370715521752834,-0.004705730005539953,-0.0027015140436589717
1761506023197450500,8.110450439453125,-0.12255553556680679,-0.003832783095911145,-0.0034684798281639814
1761506023207486500,8.120486572265625,-0.13138532323241234,-0.013946966282557696,0.002462956047430634
1761506023217522400,8.1305224609375,-0.1340793846219778,-0.01388434937512502,-0.0060808908162638545
1761506023227557400,8.140557373046875,-0.13617372655272483,-0.012727196962945162,-0.006980652667582034
1761506023237593300,8.15059326171875,-0.1327326461881399,-0.015516078762803226,0.004609941480867565
1761506023247629300,8.16062939453125,-0.13242518767416475,-0.0056685654220171265,0.0016864187169820068
1761506023257665300,8.170665283203125,-0.13646481845378874,-0.0065198484891094265,-0.0020966069530695677
1761506023267700500,8.180700439453124,-0.13107026593387125,-0.00918114012023434,0.0001913578536361456
1761506023277736400,8.190736328125,-0.1291214699536562,-0.013030344627983867,-0.008606208042800425
1761506023287772400,8.2007724609375,-0.14109247825443744,-0.0017495105484500526,0.00496507506147027
1761506023297808400,8.210808349609374,-0.13390695066452027,0.0014260872803628444,0.005395721563696861
1761506023307843300,8.22084326171875,-0.13510580506026745,-0.006048888242803514,0.0038601825594902035
1761506023317879600,8.230879638671874,-0.13286182552576065,0.00285049406029284,0.00019099252745509148
1761506023327915500,8.24091552734375,-0.12732757227420807,-0.0045949265748262405,0.00951835445165634
1761506023337951500,8.250951416015624,-0.13091770572066305,-0.007973225635197013,0.0027967545790597795
1761506023347986200,8.260986083984376,-0.13765022884607314,-0.007350454094354063,-0.0009073241032660007
1761506023358022400,8.2710224609375,-0.14453238957524298,-0.006584383358992636,-0.005731419791467488
1761506023368058400,8.281058349609374,-0.13734861555099487,-0.006146704327780753,-0.00023289544042199848
1761506023378094300,8.29109423828125,-0.14018939193487168,-0.007621379990223795,-0.0021072014123201368
1761506023388129300,8.30112939453125,-0.13390227448940276,-0.011449687840417026,0.0013151011865586042
1761506023398165200,8.311165283203126,-0.126122872659564,-0.0113846963128075,0.0005181786552071571
1761506023408201500,8.321201416015626,-0.13180676351487636,-0.010549122271500528,0.0037677550356835124
1761506023418237400,8.331237548828126,-0.13285305769741534,-0.008877243536524474,-0.000024988310784101486
1761506023428272000,8.341272216796876,-0.1291080259501934,-0.013615067447070032,-0.0014362068155780435
1761506023438308400,8.351308349609376,-0.1279138477295637,-0.01424275262504816,-0.00043218087218701835
1761506023448344300,8.36134423828125,-0.1289601419121027,-0.0053978952544741325,-0.006014620647020638
1761506023458380300,8.37138037109375,-0.1325543670117855,0.004078136159107089,-0.003106879974156618
1761506023468415200,8.381415283203125,-0.13375263688564298,-0.0006906491452828049,-0.00277636937815696
1761506023478451200,8.391451171875,-0.14004092337489127,-0.01166243554195389,-0.0036914749290794134
1761506023488487200,8.401487060546875,-0.14064356544315815,-0.007675283868238329,-0.006614815029874444
1761506023498523100,8.411523193359375,-0.1373550452917814,-0.00541475505772978,-0.0011403656741604208
1761506023508558300,8.421558349609375,-0.13915361914634702,-0.013118607433326542,0.00480129933450371
1761506023518594300,8.43159423828125,-0.13706161530315875,-0.008638228882569819,0.0030116759713739154
1761506023528630300,8.44163037109375,-0.12973287985026835,-0.010863010526262222,-0.0019260726917535065
1761506023538666200,8.451666259765625,-0.12988251745402812,-0.00606189385484904,-0.0031231735218316316
1761506023548701200,8.461701171875,-0.1393079329252243,-0.006499116228334606,0.0023612127060070633
1761506023558737200,8.471737060546875,-0.14095394656658172,-0.01970605953224003,0.003784998431429267
1761506023568773400,8.4817734375,-0.12867898688316345,-0.0006642543287016451,0.0015314838835969566
1761506023578809300,8.491809326171875,-0.13002572531700132,-0.0085726163004525,-0.004331964789703488
1761506023588844300,8.50184423828125,-0.13931085553467273,-0.006527794333547354,-0.0032543986860662697
1761506023598880300,8.51188037109375,-0.1363186879813671,-0.0024268252881243825,0.009088402069173752
1761506023608916200,8.521916259765625,-0.141412211728096,-0.01095662536015734,-0.0011486585784703492
1761506023618952200,8.5319521484375,-0.1304898356974125,-0.009390198027342558,0.004018770654685795
1761506023628987400,8.5419873046875,-0.1409673905700445,-0.005267345943674445,0.005253317418321967
1761506023639023400,8.5520234375,-0.12540098812580108,-0.010174827332701534,-0.003262326264195144
1761506023649059300,8.562059326171875,-0.12899345965981482,-0.006805277834367006,0.0008612199392169713
1761506023659095300,8.57209521484375,-0.13213935647010802,-0.010680438767280429,0.0036357626864686604
1761506023669130200,8.582130126953125,-0.14605857622921467,-0.008092851693183183,-0.006015899288654327
1761506023679166200,8.592166259765625,-0.1278659169346094,-0.0057647192728705705,-0.010988025145418941
1761506023689202400,8.602202392578125,0.027166239345073697,-0.0011421923050656914,-0.051573444039281456
1761506023699238400,8.61223828125,-0.011164368093013763,0.05647350930683315,-0.20961957784527913
1761506023709273300,8.6222734375,-0.3704372404575348,-0.02034885094780475,0.07898967609005049
1761506023719309300,8.632309326171875,-0.47338557375669477,-0.10316066087558864,0.4326306617811322
1761506023729345300,8.64234521484375,0.026494623693823813,0.04129849906666204,-0.24008847546493634
1761506023739381200,8.65238134765625,-0.11861644255220889,-0.01598380587240681,0.03633578035905957
