time,seconds_elapsed,z,y,x
1761506015218996000,0.131995849609375,-0.005640575196594,0.0011110707418993115,-0.0013036173768341541
1761506015229032000,0.142031982421875,-0.006070143077522516,-0.005653358530253172,0.00008681904728291556
1761506015239068000,0.15206787109375,-0.0065079666674137115,-0.006106628105044365,-0.0016500946367159486
1761506015249104100,0.162104248046875,-0.008025702089071274,-0.004703674931079149,-0.003555053612217307
1761506015259139000,0.17213916015625,-0.004865328781306744,-0.003251453395932913,0.0002980077115353197
1761506015269175000,0.182175048828125,-0.005922870244830847,-0.002359027974307537,-0.00239231763407588
1761506015279211000,0.1922109375,-0.006159092765301466,-0.003955593332648277,0.0013824469642713666
1761506015289247000,0.2022470703125,-0.006659234408289194,-0.004192348103970289,-0.0008519452530890703
1761506015299283000,0.212282958984375,-0.005890113301575184,-0.002826679265126586,-0.0023299995809793472
1761506015309318100,0.222318115234375,-0.006130330264568329,-0.0019297265680506825,-0.00021385183208622038
1761506015319354000,0.23235400390625,-0.006155364215373993,-0.004261590540409088,-0.0008673915872350335
1761506015329390000,0.24239013671875,-0.0052323127165436745,-0.002478603972122073,-0.0017334514996036887
1761506015339426000,0.252426025390625,-0.00899509247392416,-0.0008910936885513365,-0.0017275925492867827
1761506015349461000,0.2624609375,-0.004065847955644131,0.00003728425508597866,-0.002377670258283615
1761506015359497000,0.2724970703125,-0.008027033880352974,-0.003908987622708082,-0.003328418591991067
1761506015369533200,0.282533203125,-0.006850449368357658,-0.003775297198444605,0.0005518069956451654
1761506015379569200,0.292569091796875,-0.006960437633097172,-0.00401737866923213,-0.00224930583499372
1761506015389605000,0.302605224609375,-0.00691969133913517,-0.0011297129094600677,-0.0022602248936891556
1761506015399640000,0.31264013671875,-0.005065598525106907,-0.004069576505571604,-0.0015371765475720167
1761506015409676000,0.322676025390625,-0.005997971165925264,-0.0038432078436017036,-0.0011012171162292361
1761506015419712000,0.3327119140625,-0.005584915168583393,-0.005679723806679249,0.0002961435238830745
1761506015429748000,0.342748046875,-0.008785235695540905,-0.005962285213172436,0.0013377057621255517
1761506015439784000,0.352783935546875,-0.004464523401111364,-0.0009451558580622077,-0.001862614881247282
1761506015449819100,0.362819091796875,-0.00669305631890893,-0.004320978652685881,-0.002088450826704502
1761506015459855000,0.372855224609375,-0.007848069071769714,-0.002590989461168647,-0.0013409015955403447
1761506015469891000,0.38289111328125,-0.005518868565559387,-0.004634699318557978,-0.0012636699248105288
1761506015479927000,0.392927001953125,-0.005308212712407112,-0.0019489012192934752,-0.0003294330381322652
1761506015489962000,0.4029619140625,-0.0068243504501879215,-0.005857090000063181,-0.0008399609941989183
1761506015499998200,0.412998291015625,-0.0037417414132505655,-0.0025563682429492474,-0.0017688715597614646
1761506015510034200,0.4230341796875,-0.003421895671635866,-0.004430967383086681,-0.004273840691894293
1761506015520070100,0.433070068359375,-0.005936718545854092,-0.0018836538074538112,-0.002552906284108758
1761506015530106000,0.443106201171875,-0.008589493110775948,-0.0012178635224699974,-0.0012937636347487569
1761506015540141000,0.45314111328125,-0.00875088106840849,-0.002019474981352687,-0.0006583334179595113
1761506015550177000,0.463177001953125,-0.00544403400272131,-0.002965696156024933,-0.0016492956783622503
1761506015560213000,0.473212890625,-0.00694871973246336,-0.0036719664931297302,0.0013345100451260805
1761506015570249000,0.4832490234375,-0.005301821045577526,-0.004107659682631493,0.0005049353349022567
1761506015580285200,0.49328515625,-0.004523379262536764,-0.0018700717482715845,-0.0055122110061347485
1761506015590320000,0.503320068359375,-0.006131928414106369,-0.002433330286294222,-0.0005198490689508617
1761506015600356000,0.513356201171875,-0.005516205448657274,-0.0007800398743711412,-0.0023124227300286293
1761506015610392000,0.52339208984375,-0.005681055132299662,-0.002231728984043002,-0.000621848099399358
1761506015620428000,0.533427978515625,-0.004246943164616823,-0.0032021848019212484,-0.0005203816690482199
1761506015630464000,0.543464111328125,-0.007520766928792,-0.002715625334531069,-0.0031878037843853235
1761506015640499200,0.553499267578125,-0.003933222498744726,-0.0039009982720017433,-0.0010197244118899107
1761506015650535200,0.56353515625,-0.006135390605777502,-0.005742041394114494,-0.0020413128659129143
1761506015660571100,0.573571044921875,-0.008286425843834877,-0.0021827267482876778,-0.0019765980541706085
1761506015670607000,0.583607177734375,-0.004552674014121294,-0.0022956449538469315,-0.0008343683439306915
1761506015680643000,0.59364306640625,-0.007315437309443951,-0.0006953513366170228,-0.0003992078418377787
1761506015690678000,0.603677978515625,-0.004114317707717419,-0.0026165556628257036,-0.0009265137487091124
1761506015700714000,0.6137138671875,-0.005075985100120306,-0.0028128307312726974,-0.0031473238486796618
1761506015710750200,0.623750244140625,-0.005484247580170631,-0.00344586418941617,-0.0006828344776295125
1761506015720786200,0.6337861328125,-0.006191849708557129,-0.0010641991393640637,-0.001207743538543582
1761506015730822100,0.643822265625,-0.0076272934675216675,0.00042504051816649735,-0.0009137305896729231
1761506015740857000,0.653857177734375,-0.00666482700034976,-0.001984853995963931,-0.002207494108006358
1761506015750893000,0.66389306640625,-0.0041010016575455666,-0.0021662150975316763,-0.002924683503806591
1761506015760929000,0.673928955078125,-0.0049617355689406395,-0.004482366610318422,0.000592287047766149
1761506015770965000,0.683965087890625,-0.006429669912904501,-0.00011158645065734163,-0.0007760451408103108
1761506015781001200,0.694001220703125,-0.00643845833837986,-0.0036732980515807867,-0.0010527475969865918
1761506015791036000,0.704035888671875,-0.0070645674131810665,-0.003111903788521886,-0.0025451830588281155
1761506015801072000,0.714072021484375,-0.007243265397846699,-0.003638677066192031,-0.0018010957865044475
1761506015811108000,0.724108154296875,-0.005784918554127216,-0.0030005834996700287,-0.0021949773654341698
1761506015821144000,0.73414404296875,-0.008493087254464626,-0.00424241553992033,-0.0021872541401535273
1761506015831180000,0.744179931640625,-0.006485862657427788,-0.00364693277515471,-0.0010932276491075754
1761506015841215000,0.754215087890625,-0.0036826191935688257,-0.0032266860362142324,-0.0007960188668221235
1761506015851251200,0.764251220703125,-0.005971073638647795,-0.00367143377661705,-0.0006929545197635889
1761506015861287200,0.774287109375,-0.006163619924336672,-0.0011707255616784096,-0.0020519655663520098
1761506015871323100,0.7843232421875,-0.003946005832403898,-0.002748914761468768,-0.0009329052991233766
1761506015881359000,0.794359130859375,-0.005887982901185751,-0.004787831101566553,-0.004583033733069897
1761506015891393800,0.804393798828125,-0.005970008205622435,-0.0007030745036900043,-0.0023289343807846308
1761506015901430000,0.814429931640625,-0.006529538426548243,-0.002341717481613159,-0.001785116852261126
1761506015911466200,0.82446630859375,-0.005852296482771635,-0.0017411747248843312,-0.003195260651409626
1761506015921502200,0.834502197265625,-0.004920722916722298,-0.006214752793312073,-0.002329467097297311
1761506015931538200,0.8445380859375,-0.006502640433609486,-0.0006490123341791332,-0.0013201289111748338
1761506015941572900,0.85457275390625,-0.007149255834519863,-0.001538241864182055,-0.00140987744089216
1761506015951608800,0.86460888671875,-0.005242166109383106,-0.0031459920573979616,-0.0016706009628251195
1761506015961644800,0.874644775390625,-0.0033875408116728067,-0.004465322010219097,-0.002216815249994397
1761506015971681000,0.884680908203125,-0.0039087217301130295,-0.002401106059551239,-0.0024141555186361074
1761506015981717000,0.894717041015625,-0.0065588331781327724,-0.0025867284275591373,-0.0012905678013339639
1761506015991752000,0.904751953125,-0.0065649584867060184,-0.00031611722079105675,-0.0007342335302382708
1761506016001788000,0.914787841796875,-0.0049103363417088985,-0.0013488910626620054,-0.0041191112250089645
1761506016011823900,0.924823974609375,-0.005239769350737333,-0.0020562265999615192,-0.0006628608098253608
1761506016021860000,0.934860107421875,-0.0083687175065279,-0.0018871158827096224,-0.0016538230702280998
1761506016031896000,0.94489599609375,-0.005514874123036861,-0.002698314841836691,-0.0015675366157665849
1761506016041932000,0.95493212890625,-0.006918626371771097,-0.0030362699180841446,0.00041545313433744013
1761506016051967000,0.964967041015625,-0.007315969560295343,-0.002814162289723754,-0.0012149340473115444
1761506016062003000,0.9750029296875,-0.007429686840623617,-0.0018333201296627522,-0.00002370213405811228
1761506016072039000,0.985038818359375,-0.004997954238206148,-0.004395014606416225,0.000020240024241502397
1761506016082075100,0.9950751953125,-0.007583084981888533,-0.001856755930930376,-0.0016564861871302128
1761506016092111000,1.005111083984375,-0.005921006202697754,-0.00026365293888375163,-0.004711132030934095
1761506016102145800,1.015145751953125,-0.005508216097950935,-0.004720186814665794,-0.000990695902146399
1761506016112182000,1.02518212890625,-0.007239803206175566,-0.005017661955207586,-0.00041998049709945917
1761506016122217500,1.035217529296875,-0.0048858351074159145,-0.005346562247723341,0.00043782367720268667
1761506016132253400,1.04525341796875,-0.005991047248244286,-0.001829591696150601,-0.002472212305292487
1761506016142289400,1.055289306640625,-0.006067213602364063,-0.002017344580963254,-0.001055943313986063
1761506016152324400,1.065324462890625,-0.005263205152004957,-0.0008101335843093693,-0.0018897791160270572
1761506016162360300,1.0753603515625,-0.006328203249722719,-0.003311907174065709,-0.0017307883827015758
1761506016172396500,1.085396484375,-0.00529596209526062,-0.005096757784485817,-0.0022210762836039066
1761506016182432500,1.0954326171875,-0.007395864464342594,-0.0022943131625652313,0.00009108010999625549
1761506016192468500,1.105468505859375,-0.004458930809050798,-0.0018309232546016574,-0.0036245621740818024
1761506016202504400,1.11550439453125,-0.0041585261933505535,-0.00464588450267911,-0.0028008464723825455
1761506016212539400,1.125539306640625,-0.006623547989875078,-0.005915679503232241,-0.00025832661776803434
1761506016222575400,1.135575439453125,-0.006841128226369619,-0.001942509668879211,0.000032490566809428856
1761506016232611300,1.145611328125,-0.007580954115837812,-0.0005020058597438037,-0.0021635519806295633
1761506016242647300,1.155647216796875,-0.006874151527881622,-0.0012040151050314307,-0.000395745737478137
1761506016252683500,1.16568359375,-0.0043505397625267506,-0.0031217574141919613,-0.0008980178972706199
1761506016262718500,1.175718505859375,-0.004620584659278393,-0.0022501046769320965,-0.0010396981379017234
1761506016272754400,1.18575439453125,-0.006129265297204256,-0.0016330503858625889,-0.0015899071004241705
1761506016282790400,1.195790283203125,-0.005363606382161379,-0.001773132593370974,0.0014085458824411035
1761506016292826400,1.205826416015625,-0.007666974328458309,-0.003070624778047204,0.000687361869495362
1761506016302862300,1.2158623046875,-0.006164152640849352,-0.003385676769539714,-0.001333178486675024
1761506016312897500,1.2258974609375,-0.005498894955962896,-0.003061836352571845,-0.0018961706664413214
1761506016322933500,1.23593359375,-0.008229168131947517,-0.004764395300298929,-0.0009329052991233766
1761506016332969500,1.245969482421875,-0.005533515941351652,-0.003762780223041773,-0.0007808388327248394
1761506016343005400,1.25600537109375,-0.006244580261409283,-0.0033864756114780903,-0.002283926820382476
1761506016353041400,1.26604150390625,-0.004662662278860807,-0.0006719155353493989,-0.0009691243176348507
1761506016363077400,1.276077392578125,-0.005306348204612732,-0.0035902075469493866,-0.0009062737226486206
1761506016373112300,1.2861123046875,-0.006398510653525591,-0.0015747271245345473,-0.0020940436515957117
1761506016383148500,1.2961484375,-0.006250439211726189,-0.0036551884841173887,0.00013795174891129136
1761506016393184500,1.3061845703125,-0.0065135592594742775,-0.0018879148410633206,-0.0032650355715304613
1761506016403220500,1.316220458984375,-0.004857073072344065,-0.0007249124464578927,0.0002812298189383
1761506016413256400,1.32625634765625,-0.006441387813538313,-0.0026162895374000072,0.0012756541837006807
1761506016423291400,1.33629150390625,-0.005678924731910229,-0.00261868629604578,-0.0012796488590538502
1761506016433327400,1.346327392578125,-0.0065468489192426205,-0.002304965863004327,0.0007339671719819307
1761506016443363300,1.35636328125,-0.006452040281146765,-0.004198207054287195,-0.0019459717441350222
1761506016453399300,1.3663994140625,-0.005086371209472418,-0.0028367992490530014,-0.004320712294429541
1761506016463435500,1.376435546875,-0.00577852688729763,-0.002591255819424987,-0.0024258734192699194
1761506016473471500,1.386471435546875,-0.006758303847163916,-0.001207743538543582,-0.0017086841398850083
1761506016483506400,1.39650634765625,-0.0068113007582724094,-0.002369148191064596,-0.0007629956235177815
1761506016493542400,1.40654248046875,-0.005515406373888254,-0.0033862092532217503,-0.0025742114521563053
1761506016503578400,1.416578369140625,-0.006399043370038271,-0.0031292142812162638,0.00004953479583491571
1761506016513614300,1.4266142578125,-0.0062371231615543365,-0.0017736653098836541,-0.000969656917732209
1761506016523650300,1.436650390625,-0.004972388036549091,0.0001781654718797654,-0.0019089538836851716
1761506016533685500,1.446685546875,-0.0043835630640387535,-0.0029800771735608578,-0.0008487494196742773
1761506016543721500,1.456721435546875,-0.006416620220988989,-0.00202267081476748,-0.00041492050513625145
1761506016553757400,1.46675732421875,-0.0033220271579921246,-0.0030186930671334267,-0.0020868529099971056
1761506016563793400,1.47679345703125,-0.0065681543201208115,-0.0023941819090396166,0.001094559207558632
1761506016573829400,1.486829345703125,-0.0054152715019881725,-0.002317216480150819,0.00023515711654908955
1761506016583865300,1.496865234375,-0.007547664921730757,-0.004054929129779339,-0.0012183962389826775
1761506016593900500,1.506900634765625,-0.006863232236355543,-0.001891909632831812,-0.0018365158466622233
1761506016603936500,1.5169365234375,-0.005089567042887211,-0.0032527849543839693,-0.0027867318131029606
1761506016613972500,1.526972412109375,-0.0062067629769444466,-0.003157177474349737,-0.0007251787465065718
1761506016624008400,1.537008544921875,-0.003984089009463787,-0.003683151677250862,-0.0020754013676196337
1761506016634044400,1.54704443359375,-0.005330849438905716,-0.0026375947054475546,-0.003123355330899358
1761506016644079400,1.557079345703125,-0.0059721386060118675,-0.00017230652156285942,-0.000687361869495362
1761506016654115300,1.567115234375,-0.004059189930558205,-0.0020471718162298203,-0.0009262474486604333
1761506016664151600,1.577151611328125,-0.007406517397612333,-0.0035236284602433443,-0.0018317222129553556
1761506016674187500,1.5871875,-0.005056011490523815,-0.0028716865926980972,-0.0022205437999218702
1761506016684223500,1.597223388671875,-0.007382548879832029,-0.0032431974541395903,-0.0011733887949958444
1761506016694259500,1.607259521484375,-0.005322327371686697,-0.003973702434450388,-0.00013129384024068713
1761506016704294400,1.61729443359375,-0.006699447985738516,-0.003966245800256729,-0.001677791471593082
1761506016714330400,1.627330322265625,-0.004022172186523676,-0.004188353195786476,0.000434361572843045
1761506016724366300,1.637366455078125,-0.005816876422613859,-0.0046661244705319405,-0.002526274649426341
1761506016734402300,1.64740234375,-0.0065596322529017925,-0.0020991035271435976,-0.0010018812026828527
1761506016744438500,1.6574384765625,-0.0062554990872740746,-0.001969141187146306,-0.001969673903658986
1761506016754473500,1.667473388671875,-0.008711998350918293,-0.006837399676442146,0.00027856664382852614
1761506016764509400,1.677509521484375,-0.00535561703145504,-0.00133903743699193,-0.0006085322820581496
1761506016774545400,1.68754541015625,-0.005619269795715809,-0.004844556096941233,-0.0011137339752167463
1761506016784581400,1.697581298828125,-0.004077299498021603,-0.0035598473623394966,0.0006799050024710596
1761506016794617300,1.707617431640625,-0.007723699789494276,-0.0008602010202594101,-0.000023435817638528533
1761506016804653300,1.7176533203125,-0.005967345088720322,-0.003177683800458908,-0.0020098877139389515
1761506016814688500,1.7276884765625,-0.005801163613796234,-0.003576359013095498,-0.0022716764360666275
1761506016824724500,1.737724365234375,-0.005286907311528921,-0.0037731665652245283,-0.003035204717889428
1761506016834760400,1.747760498046875,-0.005308479070663452,-0.003261040663346648,-0.0009017463307827711
1761506016844796400,1.75779638671875,-0.0073468624614179134,-0.0035720979794859886,-0.0033742249943315983
1761506016854832400,1.767832275390625,-0.00418329332023859,-0.00202240445651114,0.0015566176734864712
1761506016864868400,1.777868408203125,-0.0046357642859220505,-0.0007430219557136297,-0.0021017666440457106
1761506016874903600,1.787903564453125,-0.0043832967057824135,-0.0022367890924215317,0.0005075985100120306
1761506016884939500,1.797939453125,-0.007812915369868279,-0.001586178783327341,-0.0017576862592250109
1761506016894975500,1.8079755859375,-0.005143895745277405,-0.0035459990613162518,-0.002141714096069336
1761506016905011500,1.818011474609375,-0.007529288996011019,-0.0032898029312491417,-0.001064998097717762
1761506016915047400,1.82804736328125,-0.006953513715416193,-0.003014432033523917,-0.0018434401135891676
1761506016925082400,1.838082275390625,-0.004972388036549091,-0.005622731987386942,-0.0010327738709747791
1761506016935118300,1.848118408203125,-0.005161206237971783,-0.0022391858510673046,-0.0019560917280614376
1761506016945154300,1.858154296875,-0.005331382155418396,-0.001856223214417696,-0.0015816513914614916
1761506016955190500,1.8681904296875,-0.007533017545938492,-0.002835201332345605,-0.0010748518398031592
1761506016965226500,1.8782265625,-0.00577959232032299,-0.002525209216400981,-0.0010964233661070466
1761506016975262500,1.888262451171875,-0.004188087303191423,-0.0032288164366036654,-0.0006428870838135481
1761506016985297400,1.89829736328125,-0.00782436691224575,-0.0054307179525494576,-0.0007504787645302713
1761506016995333400,1.90833349609375,-0.004291950259357691,-0.004602741450071335,-0.0007560714147984982
1761506017005369300,1.918369384765625,-0.005058141890913248,-0.0032320122700184584,-0.001740642124786973
1761506017015405300,1.9284052734375,-0.0049012815579771996,-0.0014426343841478229,-0.0014684670604765415
1761506017025441500,1.938441650390625,-0.006359096150845289,-0.005982525181025267,-0.0011147991754114628
1761506017035476500,1.9484765625,-0.006690393202006817,-0.004022438544780016,0.0011323761427775025
1761506017045512400,1.958512451171875,-0.005906624719500542,-0.004820588044822216,-0.001657285145483911
1761506017055548400,1.96854833984375,-0.007177751511335373,-0.003585413796827197,0.00005858954318682663
1761506017065584400,1.97858447265625,-0.005097024142742157,-0.002150236163288355,-0.0025987126864492893
1761506017075620400,1.988620361328125,-0.006731672212481499,-0.0015214639715850353,-0.0026173547375947237
1761506017085656300,1.99865625,-0.006104764062911272,-0.0018876485992223024,0.0008580705034546554
1761506017095691500,2.00869140625,-0.005964149255305529,-0.0036131106317043304,-0.0035441347863525152
1761506017105727500,2.0187275390625,-0.0038072550669312477,-0.0035321505274623632,-0.00011930961773032323
1761506017115763500,2.028763427734375,-0.008962335996329784,-0.007867776788771152,-0.002085521351546049
1761506017125799400,2.03879931640625,-0.007308512926101685,-0.0013731258222833276,-0.0018972359830513597
1761506017135835400,2.04883544921875,-0.006159092765301466,-0.0033103092573583126,0.0012399677652865648
1761506017145871400,2.058871337890625,-0.005577990785241127,-0.006735134404152632,-0.0015968313673511147
1761506017155906600,2.068906494140625,-0.007382815238088369,-0.004280232358723879,-0.002569950418546796
1761506017165942500,2.078942626953125,-0.0049196574836969376,-0.0033390712924301624,-0.002150768879801035
1761506017175978500,2.088978515625,-0.006044044159352779,-0.0037356161046773195,-0.002237321576103568
1761506017186014500,2.099014404296875,-0.006922354456037283,-0.002551840851083398,-0.0020823257509618998
1761506017196050400,2.109050537109375,-0.005074120592325926,-0.0025505092926323414,-0.0028695559594780207
1761506017206085400,2.11908544921875,-0.005622731987386942,-0.004625378176569939,-0.001630387152545154
1761506017216121300,2.129121337890625,-0.002758768619969487,-0.0014442323008552194,-0.0012221246724948287
1761506017226157300,2.1391572265625,-0.0051782503724098206,-0.003507116809487343,-0.0016916398890316486
1761506017236193500,2.149193603515625,-0.00577959232032299,-0.001764077926054597,-0.0034085798542946577
1761506017246229500,2.1592294921875,-0.005962018854916096,-0.005374791566282511,-0.0013672668719664216
1761506017256265500,2.169265380859375,-0.008037686347961426,-0.0043625240214169025,-0.0004753742541652173
1761506017266300400,2.179300537109375,-0.005508482456207275,-0.0010215885704383254,-0.0015550197567790747
1761506017276336400,2.18933642578125,-0.0065444521605968475,-0.0027779433876276016,-0.0028932581190019846
1761506017286372400,2.199372314453125,-0.0034296188969165087,-0.0027710190042853355,-0.0022333269007503986
1761506017296408300,2.209408203125,-0.005410477984696627,-0.00170788518153131,0.0002103897277265787
1761506017306444300,2.2194443359375,-0.005765477195382118,-0.0008258462767116725,-0.0020330571569502354
1761506017316479500,2.2294794921875,-0.008713862858712673,-0.0004410194815136492,-0.002886600326746702
1761506017326515500,2.239515380859375,-0.006597981322556734,-0.004609665367752314,-0.001823732745833695
1761506017336551400,2.249551513671875,-0.006856308318674564,0.0004644552827812731,-0.0006194512825459242
1761506017346587400,2.25958740234375,-0.007877363823354244,-0.002240251051262021,-0.0008255799184553325
1761506017356623400,2.269623291015625,-0.004216582980006933,-0.002575809368863702,-0.000020772657080669887
1761506017366659300,2.279659423828125,-0.0068001155741512775,-0.003515905234962702,-0.0021696772892028093
1761506017376694500,2.289694580078125,-0.008384962566196918,-0.0035390746779739857,0.0005475459038279951
1761506017386730500,2.29973046875,-0.007168164476752281,-0.004788896068930626,-0.0018732674652710557
1761506017396766500,2.309766357421875,-0.0038978024385869503,-0.0018783274572342634,-0.0021667478140443563
1761506017406802400,2.319802490234375,-0.0067788101732730865,-0.001398159540258348,0.000107858024421148
1761506017416838400,2.32983837890625,-0.006169745232909918,-0.004808870144188404,-0.0012207929976284504
1761506017426873300,2.339873291015625,-0.0057311225682497025,-0.003915379289537668,-0.0013598100049421191
1761506017436909300,2.349909423828125,-0.005270662251859903,-0.00126766471657902,0.00004873584839515388
1761506017446945500,2.359945556640625,-0.005064267199486494,-0.006074403878301382,-0.0009478190331719816
1761506017456981500,2.3699814453125,-0.00532525684684515,-0.003031476167961955,-0.0012008192716166377
1761506017467017500,2.380017578125,-0.006792658474296331,-0.0023403859231621027,-0.0007036071619950235
1761506017477053400,2.390053466796875,-0.0057593523524701595,-0.0028631645254790783,-0.0017339842161163688
1761506017487088400,2.40008837890625,-0.007279484532773495,-0.004711398389190435,-0.0005936186062172055
1761506017497124400,2.410124267578125,-0.0051689292304217815,-0.002680471632629633,-0.0008093346259556711
1761506017507160300,2.420160400390625,-0.006036054342985153,-0.004065048880875111,-0.0026138925459235907
1761506017517196500,2.430196533203125,-0.002945722546428442,-0.0013012205017730594,-0.003073287894949317
1761506017527232500,2.440232421875,-0.006874950136989355,-0.0006639260682277381,0.0004977448261342943
1761506017537267500,2.450267333984375,-0.005317800212651491,-0.0002511360798962414,-0.001332645770162344
1761506017547303400,2.460303466796875,-0.0060299295000731945,-0.0020562265999615192,-0.002310824813321233
1761506017557339400,2.47033935546875,-0.007608384825289249,-0.004388622939586639,-0.00242134602740407
1761506017567375400,2.480375244140625,-0.005253617651760578,-0.004544151946902275,-0.0010900318156927824
1761506017577411300,2.490411376953125,-0.007029680069535971,-0.0020751350093632936,-0.0007928230334073305
1761506017587446500,2.500446533203125,-0.005311408545821905,-0.00279046013019979,-0.0014223942998796701
1761506017597482500,2.510482421875,-0.006220878101885319,-0.0028940571937710047,-0.00016218650853261352
1761506017607518500,2.5205185546875,-0.006913832388818264,0.00028628981090150774,0.0005739112384617329
1761506017617554400,2.530554443359375,-0.007513309828937054,-0.0023313311394304037,-0.0016727314796298742
1761506017627590400,2.54059033203125,-0.005841377656906843,-0.003239202778786421,-0.0025869945529848337
1761506017637626400,2.55062646484375,-0.007396130822598934,-0.00347435986623168,-0.0008719189208932221
1761506017647661600,2.56066162109375,-0.0059905145317316055,-0.00478436890989542,-0.002129729837179184
1761506017657697500,2.570697509765625,-0.005794506054371595,-0.003364371368661523,-0.002412024885416031
1761506017667733500,2.5807333984375,-0.007831557653844357,-0.0013464941876009107,-0.0023398532066494226
1761506017677769500,2.59076953125,-0.005167864263057709,-0.0020530307665467262,0.000036751622246811166
1761506017687805400,2.600805419921875,-0.008437160402536392,-0.002989664673805237,-0.001401355373673141
1761506017697840400,2.61084033203125,-0.005995574407279491,0.0010000169277191162,0.000023435817638528533
1761506017707876400,2.62087646484375,-0.006640325766056776,-0.002840793924406171,0.0003462109307292849
1761506017717912300,2.630912353515625,-0.005891178734600544,-0.005916744936257601,-0.0021944446489214897
1761506017727948500,2.640948486328125,-0.006028864067047834,-0.005004612263292074,-0.0027422569692134857
1761506017737984500,2.650984619140625,-0.0049649314023554325,-0.00006604639202123508,-0.0025337315164506435
1761506017748020500,2.6610205078125,-0.0060112872160971165,-0.0023310647811740637,-0.000672181835398078
1761506017758055400,2.671055419921875,-0.005797169171273708,-0.0017781927017495036,-0.004653075244277716
1761506017768091400,2.68109130859375,-0.007545800413936377,-0.0018687400734052062,-0.00035952674807049334
1761506017778127400,2.69112744140625,-0.0065263425931334496,-0.003985154442489147,-0.0002844255941454321
1761506017788163300,2.701163330078125,-0.003448260948061943,-0.0020849888678640127,-0.001395496423356235
1761506017798199300,2.71119921875,-0.004972920753061771,-0.004977181553840637,-0.0009241168736480176
1761506017808234500,2.721234375,-0.0065476479940116405,-0.0022021678742021322,-0.0008918926469050348
1761506017818270500,2.7312705078125,-0.005022455472499132,-0.005934055428951979,-0.0018277274211868644
1761506017828306400,2.741306396484375,-0.005525526590645313,-0.0010138654615730047,-0.002168612089008093
1761506017838342400,2.75134228515625,-0.006916229147464037,-0.0019403791520744562,-0.0002639192680362612
1761506017848378400,2.76137841796875,-0.009021458216011524,-0.0035774242132902145,0.00013076121103949845
1761506017858413600,2.77141357421875,-0.005824067164212465,-0.002182993106544018,0.0004743089957628399
1761506017868449500,2.781449462890625,-0.005151352379471064,-0.005660548806190491,-0.0019265307346358895
1761506017878485500,2.791485595703125,-0.006235525477677584,-0.0036016590893268585,-0.001472461735829711
1761506017888521500,2.801521484375,-0.006371346767991781,-0.0005957491230219603,0.0009387642494402826
1761506017898557400,2.811557373046875,-0.007255516014993191,-0.0014000238152220845,-0.0014287859667092562
1761506017908593400,2.821593505859375,-0.00580888707190752,-0.001276186783798039,-0.00021678130724467337
1761506017918628400,2.83162841796875,-0.007808388210833073,-0.0017614146927371621,-0.0018884475575760007
1761506017928664300,2.841664306640625,-0.007505586836487055,-0.005560413934290409,-0.0032597091048955917
1761506017938700500,2.851700439453125,-0.008917595259845257,-0.0027595674619078636,0.0001893507578643039
1761506017948736500,2.861736572265625,-0.006440588738769293,-0.0032645028550177813,-0.0014018879737704992
1761506017958772500,2.8717724609375,-0.005173190496861935,-0.00782809592783451,-0.0023840616922825575
1761506017968807400,2.881807373046875,-0.0049319081008434296,-0.002281263703480363,-0.0009536779834888875
1761506017978843400,2.891843505859375,-0.0065138256177306175,-0.0004010720585938543,-0.0026935210917145014
1761506017988879400,2.90187939453125,-0.00478463526815176,-0.004508731886744499,-0.0009760485263541341
1761506017998915300,2.911915283203125,-0.005283178761601448,-0.0027896612882614136,-0.0014274542918428779
1761506018008951600,2.92195166015625,-0.005077582783997059,-0.003976366017013788,-0.0006165218073874712
1761506018018986500,2.931986572265625,-0.006193713750690222,-0.0036005936563014984,-0.0008721852791495621
1761506018029022500,2.9420224609375,-0.007888282649219036,-0.0036770266015082598,0.0018985675415024161
1761506018039058400,2.952058349609375,-0.007099987473338842,-0.004494084510952234,0.00007190534961409867
1761506018049094400,2.962094482421875,-0.004757470916956663,-0.0026498453225940466,-0.0027355989441275597
1761506018059130400,2.97213037109375,-0.006761499680578709,-0.0017720673931762576,-0.0019196064677089453
1761506018069166300,2.982166259765625,-0.005951632279902697,-0.002642388455569744,-0.001416002749465406
1761506018079201500,2.992201416015625,-0.0054789213463664055,-0.00370179396122694,-0.0035891421139240265
1761506018089237500,3.002237548828125,-0.005693572107702494,-0.001898034941405058,0.00040293627534992993
1761506018099273500,3.0122734375,-0.008565258234739304,-0.0034751589410007,-0.0010684601729735732
1761506018109309400,3.022309326171875,-0.0035515916533768177,-0.0020764668006449938,-0.003180080559104681
1761506018119345400,3.032345458984375,-0.005665875039994717,-0.0025065671652555466,-0.000999750685878098
1761506018129381400,3.04238134765625,-0.00421471893787384,-0.0036794233601540327,-0.003176884725689888
1761506018139417300,3.052417236328125,-0.008266451768577099,-0.0010703244479373097,-0.0006974819116294384
1761506018149453300,3.062453369140625,-0.004535363521426916,-0.002121474128216505,-0.0009089368977583945
1761506018159489300,3.0724892578125,-0.007084807381033897,-0.001651426195167005,0.0014863101532682776
1761506018169525500,3.082525390625,-0.006374808494001627,0.0037894118577241898,-0.0016519587952643633
1761506018179560400,3.092560546875,-0.005079447291791439,-0.0019228023011237383,-0.002374208066612482
1761506018189596400,3.102596435546875,-0.007445931900292635,-0.003224289044737816,-0.0014929680619388819
1761506018199632400,3.11263232421875,-0.005820604972541332,-0.0026495789643377066,-0.002689792774617672
1761506018209668400,3.12266845703125,-0.005626726895570755,-0.004593953024595976,-0.002132392954081297
1761506018219704300,3.132704345703125,-0.007446464616805315,-0.005563876125961542,-0.0006868292111903429
1761506018229739500,3.142739501953125,-0.006172674708068371,-0.0032692966051399708,-0.002546514617279172
1761506018239775500,3.152775390625,-0.005056011490523815,-0.00037257623625919223,-0.0021584921050816774
1761506018249811500,3.1628115234375,-0.005213404074311256,-0.004518052563071251,-0.002100701443850994
1761506018259847400,3.172847412109375,-0.009123723953962326,-0.003775563556700945,-0.0005589975044131279
1761506018269883400,3.18288330078125,-0.004674380179494619,-0.0033100428991019726,-0.0020130835473537445
1761506018279918300,3.19291845703125,-0.004476773552596569,-0.0012412993237376213,-0.0015667376574128866
1761506018289954300,3.202954345703125,-0.0030658310279250145,-0.005215534474700689,-0.0019385149935260415
1761506018299990500,3.212990478515625,-0.005847502965480089,-0.0026312030386179686,-0.002552107209339738
1761506018310026500,3.223026611328125,-0.007387608755379915,-0.0020149475894868374,-0.003427488263696432
1761506018320062500,3.2330625,-0.007738879881799221,-0.002665291540324688,-0.0025150892324745655
1761506018330098400,3.243098388671875,-0.005813946947455406,-0.005885319784283638,-0.0026618295814841986
1761506018340133400,3.25313330078125,-0.0060946443118155,-0.004832305945456028,-0.0009483516332693398
1761506018350169300,3.26316943359375,-0.0071127708069980145,-0.0021193434949964285,0.0009510148083791137
1761506018360205300,3.273205322265625,-0.004877845756709576,-0.002889529801905155,-0.0018900453578680754
1761506018370241300,3.2832412109375,-0.007960987277328968,-0.0025832662358880043,-0.0015925703337416053
1761506018380277500,3.293277587890625,-0.005589708685874939,-0.0029236183036118746,-0.0001310275256400928
1761506018390312400,3.3033125,-0.004879177547991276,-0.002040247665718198,-0.0027047062758356333
1761506018400348400,3.313348388671875,-0.005858155433088541,-0.0010138654615730047,-0.001008539111353457
1761506018410384400,3.32338427734375,-0.004947354551404715,-0.00344479875639081,-0.0007265103631652892
1761506018420420400,3.33342041015625,-0.006903712637722492,-0.00293320557102561,-0.003078614128753543
1761506018430456300,3.343456298828125,-0.0054301852360367775,-0.0034234935883432627,-0.0015845808666199446
1761506018440491500,3.353491455078125,-0.008641957305371761,-0.0036184368655085564,-0.0008780442294664681
1761506018450527500,3.363527587890625,-0.006127400789409876,-0.0026932547334581614,-0.003366768127307296
1761506018460563500,3.3735634765625,-0.005827528890222311,-0.003169161733239889,-0.0018407768802717328
1761506018470599400,3.383599365234375,-0.005271460860967636,-0.004205930046737194,-0.0007334345718845725
1761506018480635400,3.393635498046875,-0.004656004719436169,-0.0032653016969561577,-0.002317482838407159
1761506018490670300,3.40367041015625,-0.004804875236004591,-0.0044141896069049835,-0.0016695356462150812
1761506018500706600,3.41370654296875,-0.005053082015365362,0.00022956448083277792,-0.003480751533061266
1761506018510742500,3.423742431640625,-0.007991880178451538,-0.003964115399867296,-0.0015781891997903585
1761506018520778500,3.433778564453125,-0.006512760184705257,-0.004626443609595299,-0.002276470186188817
1761506018530814500,3.443814453125,-0.006586529780179262,-0.0035340148024260998,-0.0035979305393993855
1761506018540849400,3.453849365234375,-0.005402222275733948,-0.002293514320626855,-0.001847434788942337
1761506018550885400,3.463885498046875,-0.008474711328744888,-0.0028458540327847004,-0.0030455910600721836
1761506018560921300,3.47392138671875,-0.00541500560939312,-0.0043899547308683395,-0.0009677927591837943
1761506018570957300,3.483957275390625,-0.004896221682429314,-0.004187021870166063,-0.0007076018955558538
1761506018580993500,3.49399365234375,-0.005594236310571432,-0.0018841864075511694,-0.0009584716754034162
1761506018591028500,3.504028564453125,-0.006110623013228178,-0.0015433018561452627,-0.0021672805305570364
1761506018601064400,3.514064453125,-0.005170527379959822,-0.002234924817457795,-0.0019044264918193221
1761506018611100400,3.524100341796875,-0.004964132327586412,-0.002438922878354788,-0.0013366405619308352
1761506018621136400,3.534136474609375,-0.007162039168179035,-0.0007731156656518579,-0.002260491019114852
1761506018631172400,3.54417236328125,-0.005126052536070347,-0.002356897573918104,-0.002385925967246294
1761506018641207600,3.55420751953125,-0.008041680790483952,-0.0013350426452234387,-0.001573928166180849
1761506018651243500,3.564243408203125,-0.00600462919101119,-0.003442135639488697,0.0008791094878688455
1761506018661279500,3.574279541015625,-0.006448578089475632,-0.004454935900866985,-0.0017635452095419168
1761506018671315500,3.5843154296875,-0.004123372491449118,-0.002130795270204544,-0.0020535634830594063
1761506018681351400,3.594351318359375,-0.006839530076831579,-0.0026727484073489904,-0.0023310647811740637
1761506018691386000,3.60438623046875,-0.007917577400803566,-0.0017779263434931636,-0.002954244613647461
1761506018701422300,3.61442236328125,-0.00777749577537179,-0.001987250754609704,-0.001955026527866721
1761506018711458600,3.62445849609375,-0.006738063879311085,-0.0017116136150434613,-0.0011022823164239526
1761506018721494500,3.63449462890625,-0.008027566596865654,-0.0035808864049613476,-0.0028727517928928137
1761506018731530500,3.644530517578125,-0.00740198977291584,-0.001967277145013213,0.0008396946941502392
1761506018741565200,3.654565185546875,-0.003995007835328579,-0.004530569538474083,-0.0006996124284341931
1761506018751601400,3.664601318359375,-0.00561021501198411,-0.00560941593721509,-0.003599794814363122
1761506018761637400,3.674637451171875,-0.006888798903673887,-0.002965696156024933,-0.0007073355955071747
1761506018771673300,3.68467333984375,-0.007320763543248177,-0.004643487744033337,-0.0016841830220073462
1761506018781709300,3.694709228515625,-0.005309544038027525,-0.0020751350093632936,0.0005310343112796545
1761506018791744300,3.704744140625,-0.004120176658034325,-0.00041012681322172284,-0.001874332781881094
1761506018801780200,3.7147802734375,-0.008358864113688469,-0.0059841228649020195,-0.0010634001810103655
1761506018811816400,3.72481640625,-0.007021424360573292,-0.003884752979502082,-0.00013502225920092314
1761506018821852400,3.734852294921875,-0.005116465035825968,-0.0005837649223394692,-0.0018410432385280728
1761506018831888400,3.744888427734375,-0.007388674188405275,-0.001678057829849422,-0.00009853696246864274
1761506018841923300,3.75492333984375,-0.00777509855106473,-0.0032107068691402674,-0.001365668955259025
1761506018851959300,3.764959228515625,-0.004032558295875788,-0.0039012646302580833,0.000532632227987051
1761506018861995500,3.77499560546875,-0.004971855320036411,-0.001374457380734384,-0.0011281149927526712
1761506018872031500,3.785031494140625,-0.0086603332310915,-0.0029952572658658028,-0.0032288164366036654
1761506018882067500,3.7950673828125,-0.007194529753178358,-0.0031377363484352827,-0.0033417344093322754
1761506018892102100,3.80510205078125,-0.005860019475221634,-0.002691656816750765,-0.0009523464250378311
1761506018902138000,3.81513818359375,-0.005613144487142563,-0.004793157335370779,-0.000358461489668116
1761506018912174300,3.82517431640625,-0.004892493132501841,-0.0007853662245906889,-0.0024825986474752426
1761506018922210600,3.83521044921875,-0.005215268116444349,-0.0020442423410713673,-0.0025483788922429085
1761506018932246500,3.84524658203125,-0.004435760900378227,-0.00689199473708868,-0.0026261431630700827
1761506018942281200,3.85528125,-0.007464041467756033,-0.003418167121708393,-0.0014096111990511417
1761506018952317200,3.865317138671875,-0.006511428859084845,-0.0003856257244478911,-0.0013680658303201199
1761506018962353200,3.875353271484375,-0.006268282420933247,-0.0024780714884400368,-0.0006202502408996224
1761506018972389000,3.88538916015625,-0.004059722647070885,-0.0016136092599481344,-0.00031851406674832106
1761506018982425300,3.89542529296875,-0.008009457029402256,-0.004082093480974436,-0.0003451456723269075
1761506018992460300,3.905460205078125,-0.0049103363417088985,-0.00006711165769957006,-0.0027148264925926924
1761506019002496300,3.915496337890625,-0.006633135490119457,0.001290834159590304,-0.003677292726933956
1761506019012532200,3.9255322265625,-0.007380950730293989,-0.003032008884474635,-0.0023635553661733866
1761506019022568200,3.935568115234375,-0.005528722424060106,-0.0008101335843093693,-0.0016522251535207033
1761506019032604400,3.9456044921875,-0.0072778863832354546,-0.002269812161102891,-0.002523611532524228
1761506019042639400,3.955639404296875,-0.004056793171912432,-0.001978195970878005,-0.002579271560534835
1761506019052675300,3.96567529296875,-0.008301072753965855,-0.0026469158474355936,0.0005270395777188241
1761506019062711300,3.975711181640625,-0.00717508839443326,-0.0034202977549284697,-0.0019004317000508308
1761506019072747300,3.985747314453125,-0.005894640926271677,-0.005167597904801369,-0.0006950850365683436
1761506019082783200,3.995783203125,-0.005032042972743511,-0.0030565098859369755,-0.0012013519881293178
1761506019092818200,4.005818115234375,-0.005476790945976973,-0.0012551478575915098,-0.0027214842848479748
1761506019102853400,4.015853271484375,-0.006199306342750788,-0.0013632721966132522,-0.0010665960144251585
1761506019112889300,4.025889404296875,-0.006963367108255625,-0.003296194365248084,-0.0018277274211868644
1761506019122925300,4.03592529296875,-0.007644071243703365,-0.003706587478518486,0.00045806370326317847
1761506019132960300,4.045960205078125,-0.004293015692383051,-0.002043709857389331,0.0009912285022437572
1761506019142995500,4.055995361328125,-0.007678159512579441,-0.002287389012053609,-0.0013600763631984591
1761506019153031400,4.066031494140625,-0.006593986880034208,-0.003367833560332656,-0.0010921623324975371
1761506019163067400,4.0760673828125,-0.006163619924336672,-0.0038011297583580017,0.0005400890368036926
1761506019173103400,4.086103271484375,-0.005287173669785261,-0.000598145998083055,-0.0017896442441269755
1761506019183139300,4.096139404296875,-0.007528756279498339,-0.0014713965356349945,-0.002525741932913661
1761506019193174300,4.10617431640625,-0.005298092495650053,-0.0023225427139550447,0.0014748586108908057
1761506019203210200,4.116210205078125,-0.00782836228609085,-0.0048975530080497265,-0.001175252953544259
1761506019213246500,4.12624658203125,-0.006140184123069048,-0.003862116253003478,-0.0021795309148728848
1761506019223282400,4.136282470703125,-0.004487426485866308,-0.002496180823072791,-0.000940095866099
1761506019233318400,4.146318359375,-0.0057492321357131,-0.000904409505892545,-0.0021888520568609238
1761506019243353300,4.156353271484375,-0.0062946476973593235,-0.0038008634001016617,-0.0027142937760800123
1761506019253389300,4.166389404296875,-0.006654174067080021,-0.0021931130904704332,-0.00024154871061909944
1761506019263425300,4.17642529296875,-0.006741259712725878,-0.004454403184354305,-0.0006623281515203416
1761506019273461200,4.186461181640625,-0.006611297372728586,0.00015925703337416053,-0.00016245282313320786
1761506019283497200,4.196497314453125,-0.004715925548225641,-0.0048767803236842155,0.0002364887041039765
1761506019293532400,4.206532470703125,-0.004175570327788591,-0.004687163513153791,-0.0019587550777941942
1761506019303568400,4.216568359375,-0.007640875410288572,-0.0006045375484973192,-0.00011105381418019533
1761506019313604400,4.226604248046875,-0.005627259146422148,-0.0031880701426416636,-0.0019443739438429475
1761506019323640300,4.236640380859375,-0.005081844050437212,-0.006819556467235088,-0.0017502295086160302
1761506019333676300,4.24667626953125,-0.006044310517609119,-0.00253453035838902,0.00040240364614874125
1761506019343711500,4.25671142578125,-0.005617139395326376,-0.002525741932913661,-0.0017680726014077663
1761506019353747500,4.26674755859375,-0.008018511347472668,-0.0018660769565030932,-0.0005829659639857709
1761506019363783400,4.276783447265625,-0.005288505461066961,-0.00296276668086648,-0.004026699345558882
1761506019373819400,4.2868193359375,-0.005066131241619587,-0.00015952334797475487,-0.004590757191181183
1761506019383854300,4.296854248046875,-0.005477589555084705,-0.0019124159589409828,-0.00041332258842885494
1761506019393890300,4.306890380859375,-0.004097007215023041,-0.0057343184016644955,-0.002993126632645726
1761506019403926300,4.31692626953125,-0.00398728484287858,-0.004723649006336927,0.0010964233661070466
1761506019413962200,4.326962158203125,-0.005508482456207275,-0.0029499835800379515,-0.0019443739438429475
1761506019423998500,4.33699853515625,-0.007473362609744072,-0.0015931029338389635,-0.003622964257374406
1761506019434033400,4.347033447265625,-0.005655488930642605,-0.0021105550695210695,0.0003230414295103401
1761506019444069400,4.3570693359375,-0.0075724320486187935,-0.006895456463098526,-0.00006870955257909372
1761506019454105300,4.367105224609375,-0.005570534151047468,-0.002787264296784997,-0.0009632653673179448
1761506019464141300,4.377141357421875,-0.006205431651324034,-0.00347542529925704,-0.0005584649043157697
1761506019474177300,4.38717724609375,-0.004764661658555269,-0.0011677960865199566,-0.002246110001578927
1761506019484212500,4.39721240234375,-0.005003280472010374,-0.0016796556301414967,0.00010759170982055366
1761506019494248400,4.40724853515625,-0.004860801622271538,-0.0021646174136549234,-0.0023190807551145554
1761506019504284400,4.417284423828125,-0.0065497783944010735,-0.003296727081760764,0.0004575310740619898
1761506019514320400,4.4273203125,-0.00437956815585494,-0.0033981935121119022,0.000251402409048751
1761506019524356400,4.4373564453125,-0.005363340023905039,-0.0008740494376979768,-0.0008159925346262753
1761506019534391300,4.447391357421875,-0.007133010774850845,-0.003594202222302556,-0.00004900216299574822
1761506019544427500,4.457427490234375,-0.004927114117890596,-0.003153715282678604,-0.0009629990672692657
1761506019554463500,4.46746337890625,-0.006630738265812397,-0.004869057331234217,-0.004177168011665344
1761506019564499500,4.47749951171875,-0.0029052423778921366,-0.003865045728161931,-0.0008247809601016343
1761506019574535400,4.487535400390625,-0.007315437309443951,-0.004348409362137318,-0.00293267285451293
1761506019584570400,4.4975703125,-0.004466920159757137,-0.004543619230389595,-0.0006974819116294384
1761506019594606300,4.5076064453125,-0.006747917737811804,-0.002840793924406171,-0.0020397149492055178
1761506019604642300,4.517642333984375,-0.006448311731219292,-0.005344697739928961,-0.001835716888308525
1761506019614678300,4.52767822265625,-0.0028815402183681726,0.000182959163794294,-0.000841825210954994
1761506019624713500,4.53771337890625,-0.006039250176399946,-0.004306064918637276,-0.0043563987128436565
1761506019634749400,4.54774951171875,-0.003778226673603058,-0.003034938359633088,-0.0022599585354328156
1761506019644785400,4.557785400390625,-0.004905276466161013,-0.005623531062155962,-0.0004751079250127077
1761506019654821400,4.5678212890625,-0.003463174682110548,-0.005348159931600094,0.0006213154993019998
1761506019664857300,4.577857421875,-0.006865895353257656,-0.004364122170954943,-0.0005973470397293568
1761506019674893300,4.587893310546875,-0.0062757390551269054,-0.003450924064964056,-0.0020093549974262714
1761506019684929300,4.59792919921875,-0.00663393409922719,0.00003408846168895252,-0.001555818715132773
1761506019694965200,4.60796533203125,-0.00657481187954545,-0.0018133464036509395,-0.001546763931401074
1761506019705001500,4.61800146484375,-0.003454386256635189,-0.005114334635436535,-0.002983273006975651
1761506019715037400,4.628037353515625,-0.007545001804828644,-0.0033047166652977467,-0.002731071785092354
1761506019725072400,4.638072265625,-0.00430127140134573,-0.004822718445211649,-0.003629355924203992
1761506019735108400,4.6481083984375,-0.007349791936576366,-0.0031033814884722233,-0.0017952368361875415
1761506019745144300,4.658144287109375,-0.005556951742619276,-0.004462392535060644,-0.0021108214277774096
1761506019755180300,4.66818017578125,-0.002913231961429119,-0.0028269453905522823,-0.0021606225054711103
1761506019765216300,4.67821630859375,-0.00515854312106967,-0.002813629573211074,-0.0025542378425598145
1761506019775251500,4.68825146484375,-0.00430207047611475,-0.0022418489679694176,0.00020240024605300277
1761506019785287400,4.698287353515625,-0.005587844643741846,-0.0011182613670825958,-0.0014269216917455196
1761506019795323400,4.708323486328125,-0.0037971350830048323,-0.002686330582946539,-0.0027110979426652193
1761506019805359400,4.718359375,-0.008236091583967209,-0.0023286680225282907,-0.0005222458858042955
1761506019815394300,4.728394287109375,-0.007511978503316641,-0.0018322548130527139,0.00020506340661086142
1761506019825430300,4.73843017578125,-0.0062584285624325275,-0.002977147698402405,-0.00016058860637713224
1761506019835466500,4.748466552734375,-0.005753759294748306,-0.0029116340447217226,-0.0008269115351140499
1761506019845502500,4.75850244140625,-0.004039749037474394,-0.0007411577389575541,-0.0008860336965881288
1761506019855538400,4.768538330078125,-0.0062126219272613525,-0.003233343828469515,-0.002453836612403393
1761506019865573400,4.778573486328125,-0.004727909807115793,-0.0057377805933356285,-0.0035292210523039103
1761506019875609300,4.788609375,-0.0057588196359574795,-0.00301762786693871,-0.0036019254475831985
1761506019885645300,4.798645263671875,-0.0017451694002375007,-0.004022438544780016,-0.0010197244118899107
1761506019895681300,4.808681396484375,-0.006402505561709404,-0.0029409287963062525,-0.00017976337403524667
1761506019905717200,4.81871728515625,-0.005426723510026932,-0.004624845460057259,-0.00046631949953734875
1761506019915752400,4.82875244140625,-0.00452897185459733,-0.003961452282965183,-0.0012490225490182638
1761506019925788400,4.838788330078125,-0.007418768014758825,-0.005563077051192522,-0.00487145408987999
1761506019935824400,4.848824462890625,-0.005452556069940329,-0.0034551850985735655,-0.0006974819116294384
1761506019945860400,4.8588603515625,-0.00802996288985014,-0.0020722055342048407,-0.003864513011649251
1761506019955896300,4.868896240234375,-0.004689293913543224,-0.003719104453921318,0.0005126585019752383
1761506019965931500,4.878931640625,-0.006302637048065662,0.00048176583368331194,-0.0005877596559002995
1761506019975967500,4.888967529296875,-0.006982275750488043,-0.0017246630741283298,-0.0028932581190019846
1761506019986003500,4.89900341796875,-0.007648332044482231,-0.0030834078788757324,-0.003067695302888751
1761506019996039400,4.909039306640625,-0.004559864290058613,-0.002846919232979417,0.00041518680518493056
1761506020006075400,4.919075439453125,-0.005903429351747036,-0.0037177728954702616,-0.0011105381418019533
1761506020016110300,4.9291103515625,-0.007686149328947067,-0.004487692844122648,-0.0017928400775417686
1761506020026146300,4.939146240234375,-0.005091697443276644,-0.0026873957831412554,-0.002551840851083398
1761506020036182500,4.9491826171875,-0.005392102058976889,-0.0012538161827251315,-0.0016964336391538382
1761506020046218500,4.959218505859375,-0.00447011599317193,-0.001957689644768834,-0.0002836266648955643
1761506020056254500,4.96925439453125,-0.007918909192085266,-0.003748399205505848,-0.003579288488253951
1761506020066289400,4.979289306640625,-0.00598492193967104,-0.0035547874867916107,-0.0006910903030075133
1761506020076325400,4.989325439453125,-0.007958058267831802,-0.002478337613865733,-0.0015137407463043928
1761506020086361300,4.999361328125,-0.004253334365785122,-0.0037201696541160345,-0.0017888452857732773
1761506020096397300,5.009397216796875,-0.007760451175272465,-0.0030828751623630524,-0.001645567244850099
1761506020106432500,5.0194326171875,-0.005824599415063858,-0.002299905987456441,0.0016042882343754172
1761506020116468500,5.029468505859375,-0.004926581867039204,0.00018322547839488834,-0.0008349010022357106
1761506020126504400,5.03950439453125,-0.007216900121420622,-0.002430933527648449,0.0008016114588826895
1761506020136540400,5.04954052734375,-0.004471980035305023,-0.002802444389089942,-0.0020008329302072525
1761506020146576400,5.059576416015625,-0.0060051619075238705,-0.00307541829533875,-0.0011262508342042565
1761506020156611300,5.069611328125,-0.006807305850088596,-0.0020538298413157463,-0.002357163932174444
1761506020166647600,5.0796474609375,-0.005524993874132633,-0.0013435647124424577,-0.0022447784431278706
1761506020176683500,5.08968359375,-0.006283195689320564,-0.0023760723415762186,0.001141963410191238
1761506020186719500,5.099719482421875,-0.006589725613594055,-0.0019022959750145674,-0.0015566176734864712
1761506020196755500,5.10975537109375,-0.004062385763972998,-0.00433189794421196,-0.000636761833447963
1761506020206790400,5.119790283203125,-0.007603857666254044,-0.002198705682530999,-0.0008511462947353721
1761506020216826400,5.129826416015625,-0.005316202063113451,-0.0018796591321006417,-0.0030152308754622936
1761506020226862300,5.1398623046875,-0.0048980857245624065,-0.006530337035655975,-0.002499643014743924
1761506020236898300,5.149898193359375,-0.00606268597766757,-0.0032381375785917044,-0.002516953507438302
1761506020246934500,5.1599345703125,-0.004898618441075087,-0.004830974154174328,-0.0009829727932810783
1761506020256969500,5.169969482421875,-0.00430233683437109,-0.0036645096261054277,-0.00253426400013268
1761506020267005400,5.18000537109375,-0.004638161510229111,-0.0020503676496446133,-0.0027915253303945065
1761506020277041400,5.19004150390625,-0.004093811381608248,-0.003096457337960601,-0.001907355966977775
1761506020287077400,5.200077392578125,-0.00698041170835495,-0.0025483788922429085,-0.0016791230300441384
1761506020297113300,5.21011328125,-0.005853894166648388,-0.0018378474051132798,-0.0025009745731949806
1761506020307148500,5.2201484375,-0.0057130130007863045,-0.002266349969431758,-0.00221974472515285
1761506020317184500,5.2301845703125,-0.007878695614635944,-0.0037713022902607918,-0.00293320557102561
1761506020327220500,5.240220458984375,-0.004111654590815306,-0.0038898130878806114,-0.0019856528379023075
1761506020337256400,5.25025634765625,-0.006839796435087919,-0.002347842790186405,-0.0028796761762350798
1761506020347291400,5.26029150390625,-0.005056011490523815,-0.001437041675671935,-0.0016375777777284384
1761506020357327400,5.270327392578125,-0.0068270135670900345,-0.0033017871901392937,-0.0025417208671569824
1761506020367363300,5.28036328125,-0.007189735770225525,-0.0010391654213890433,-0.002514290390536189
1761506020377399600,5.290399658203125,-0.006140983197838068,-0.0030802120454609394,-0.0031108383554965258
1761506020387435500,5.300435546875,-0.004818457178771496,-0.0033036512322723866,-0.0023545008152723312
1761506020397470500,5.310470458984375,-0.007456851191818714,0.0005262406193651259,0.00041811628034338355
1761506020407506400,5.32050634765625,-0.007851265370845795,-0.002365685999393463,-0.001915878034196794
1761506020417542400,5.33054248046875,-0.004989432170987129,-0.0035244273021817207,-0.0015068164793774486
1761506020427578400,5.340578369140625,-0.006659500766545534,-0.004280232358723879,-0.0012405004817992449
1761506020437614300,5.3506142578125,-0.005594768561422825,-0.003460245206952095,-0.002846386516466737
1761506020447649500,5.3606494140625,-0.0051508196629583836,-0.0002620550512801856,-0.0028075044974684715
1761506020457685500,5.370685546875,-0.005834186915308237,-0.004509796854108572,-0.0003014698449987918
1761506020467721500,5.380721435546875,-0.006166283041238785,-0.0037436054553836584,-0.0025901903863996267
1761506020477757400,5.39075732421875,-0.007004379760473967,-0.004493818152695894,-0.0018274611793458462
1761506020487793400,5.40079345703125,-0.006079730577766895,-0.0011179950088262558,-0.0012282498646527529
1761506020497828600,5.41082861328125,-0.0061508365906775,-0.004607268609106541,-0.0004830974212381989
1761506020507864600,5.420864501953125,-0.006648048758506775,-0.0024019049014896154,-0.0007669904152862728
1761506020517900500,5.430900634765625,-0.007192398887127638,-0.0030453247018158436,-0.003093261504545808
1761506020527936500,5.4409365234375,-0.00666456064209342,-0.0023097596131265163,-0.0025867284275591373
1761506020537972500,5.450972412109375,-0.006455236114561558,-0.005125786177814007,-0.002712695859372616
1761506020548007400,5.46100732421875,-0.005510346498340368,-0.0030751521699130535,-0.002435727044939995
1761506020558043400,5.47104345703125,-0.006184392608702183,-0.001722798915579915,0.0003129214164800942
1761506020568079400,5.481079345703125,-0.006110356654971838,-0.0021374530624598265,0.0002745719102676958
1761506020578115600,5.491115478515625,-0.006190517917275429,-0.004123372491449118,0.0009763148264028132
1761506020588150500,5.501150634765625,-0.006474943365901709,-0.005863215308636427,-0.0035169704351574183
1761506020598186500,5.5111865234375,-0.00307541829533875,-0.0014801849611103535,-0.001463673310354352
1761506020608222500,5.521222412109375,-0.007409180514514446,-0.0026373283471912146,-0.0017590179340913892
1761506020618258400,5.531258544921875,-0.0051683965139091015,-0.003722566645592451,-0.0001978728687390685
1761506020628294400,5.54129443359375,-0.007065898738801479,-0.0031313446816056967,-0.0022748722694814205
1761506020638329600,5.55132958984375,-0.005742307752370834,-0.0026841999497264624,0.0004242415598127991
1761506020648365600,5.561365478515625,-0.006106095854192972,-0.000708134553860873,-0.0015486282063648105
1761506020658401500,5.571401611328125,-0.005279184319078922,-0.0041542649269104,-0.0021579593885689974
1761506020668437500,5.5814375,-0.0069503178820014,-0.0024706146214157343,-0.0011235876008868217
1761506020678473500,5.591473388671875,-0.006066414527595043,-0.0029875340405851603,-0.0010045443195849657
1761506020688508400,5.60150830078125,-0.007404120173305273,-0.004354801028966904,-0.0024943165481090546
1761506020698544400,5.61154443359375,-0.008495217189192772,-0.003168629016727209,-0.0020501012913882732
1761506020708580600,5.62158056640625,-0.006607835181057453,-0.0031305458396673203,-0.0036341496743261814
1761506020718616600,5.631616455078125,-0.008653675206005573,-0.0019592875614762306,0.0004886900424025953
1761506020728652500,5.641652587890625,-0.006677077617496252,-0.0025073662400245667,-0.0005552690709009767
1761506020738687500,5.6516875,-0.006720220670104027,-0.0046211169101297855,-0.0007890945998951793
1761506020748723500,5.661723388671875,-0.005371063016355038,-0.004097007215023041,-0.0006471481174230576
1761506020758759400,5.671759521484375,-0.005583050660789013,-0.003073820611461997,-0.0016367788193747401
1761506020768795400,5.68179541015625,-0.0064373929053545,-0.002377670258283615,-0.0013294500531628728
1761506020778830600,5.69183056640625,-0.005812349263578653,-0.003197923768311739,-0.0006141249323263764
1761506020788866600,5.701866455078125,-0.006963633466511965,-0.002180596347898245,-0.000993891735561192
1761506020798902500,5.711902587890625,-0.006013950332999229,-0.0019507654942572117,0.0011494202772155404
1761506020808938500,5.7219384765625,-0.005190767347812653,-0.005825132131576538,-0.003436276689171791
1761506020818974500,5.731974365234375,-0.003930825740098953,-0.004412591457366943,0.00033875409280881286
1761506020829009400,5.742009521484375,-0.005603823345154524,-0.0016351809026673436,-0.002685531508177519
1761506020839045600,5.752045654296875,-0.004880508873611689,-0.0011435613268986344,0.002153698354959488
1761506020849081600,5.76208154296875,-0.006850449368357658,-0.002796319080516696,-0.0006572681595571339
1761506020859117600,5.77211767578125,-0.0070802802219986916,-0.00355931487865746,-0.003228283952921629
1761506020869153500,5.782153564453125,-0.006750314496457577,-0.0027225494850426912,-0.0016170714516192675
1761506020879188500,5.7921884765625,-0.006086920853704214,-0.005879993550479412,0.000027696874894900247
1761506020889224400,5.802224365234375,-0.0056954361498355865,-0.005612345412373543,-0.0032088428270071745
1761506020899260400,5.812260498046875,-0.004960936494171619,-0.0003350256592966616,-0.0008490157779306173
1761506020909296600,5.822296630859375,-0.002083124592900276,-0.0017859158106148243,-0.001014664419926703
1761506020919331600,5.83233154296875,-0.00492125516757369,-0.006253900937736034,-0.0020791299175471067
1761506020929367600,5.842367431640625,-0.004132693167775869,-0.0017206683987751603,0.0015443670563399792
1761506020939403500,5.852403564453125,-0.0041611893102526665,-0.004040015395730734,-0.0015430354978889227
1761506020949439500,5.862439453125,-0.006424077320843935,-0.004055728204548359,-0.0015954998089000583
1761506020959475500,5.872475341796875,-0.00663473317399621,-0.003489007242023945,-0.0011342403013259172
1761506020969510700,5.8825107421875,-0.006031260825693607,-0.0023939155507832766,-0.0010897654574364424
1761506020979546600,5.892546630859375,-0.00526666734367609,-0.0018618159228935838,-0.0030415961518883705
1761506020989582600,5.90258251953125,-0.007240868639200926,-0.0005965480813756585,0.0015675366157665849
1761506020999618600,5.91261865234375,-0.006681604776531458,-0.0032890038564801216,0.0007334345718845725
1761506021009654500,5.922654541015625,-0.0062608253210783005,-0.004605937283486128,-0.000008788431841821875
1761506021019689500,5.932689453125,-0.005712214391678572,-0.004005660768598318,-0.002261556452140212
1761506021029725400,5.942725341796875,-0.006487193983048201,-0.000029294771593413316,-0.002969158347696066
1761506021039761700,5.95276171875,-0.007727960590273142,-0.004296477884054184,-0.002957174088805914
1761506021049797600,5.962797607421875,-0.004198473412543535,-0.00487198680639267,-0.002805107505992055
1761506021059832600,5.97283251953125,-0.0065497783944010735,-0.00358754419721663,-0.0010149306617677212
1761506021069868500,5.98286865234375,-0.007277087774127722,-0.00020053602929692715,0.0013177321525290608
1761506021079904500,5.992904541015625,-0.006872020661830902,-0.002886333968490362,-0.0007731156656518579
1761506021089940500,6.0029404296875,-0.007391870021820068,-0.002624278888106346,-0.0030005834996700287
1761506021099976400,6.0129765625,-0.007185741327702999,-0.0046477485448122025,-0.0009952232940122485
1761506021110011600,6.02301171875,-0.005607285536825657,-0.006472812965512276,-0.0007305050967261195
1761506021120047600,6.033047607421875,-0.006393717136234045,-0.0004601942200679332,-0.00509782275184989
1761506021130083800,6.043083740234375,-0.0066650933586061,-0.002371544949710369,-0.0018130800453945994
1761506021140119800,6.053119873046875,-0.004063451196998358,-0.0012295814231038094,-0.002354234457015991
1761506021150154800,6.06315478515625,-0.007679491303861141,-0.001487375469878316,-0.0025158883072435856
1761506021160190700,6.073190673828125,-0.006905576679855585,-0.0030623688362538815,-0.002764361212030053
1761506021170226700,6.083226806640625,-0.004531634971499443,-0.002978213131427765,-0.005379052832722664
1761506021180263000,6.093262939453125,-0.005573996342718601,-0.0027076357509940863,-0.0018319884547963738
1761506021190299000,6.103298828125,-0.005664010997861624,-0.00472577940672636,-0.002526008291170001
1761506021200333800,6.113333740234375,-0.005548163317143917,-0.005058940965682268,-0.002406165935099125
1761506021210369800,6.123369873046875,-0.005850166082382202,-0.0011994877131655812,-0.0027052389923483133
1761506021220405800,6.13340576171875,-0.007868309505283833,-0.002243446884676814,-0.0024748756550252438
1761506021230441700,6.143441650390625,-0.005519933998584747,-0.0018908443162217736,-0.002064482541754842
1761506021240477700,6.153477783203125,-0.00680171325802803,-0.004860801622271538,-0.001543834456242621
1761506021250513000,6.163512939453125,-0.003999269101768732,-0.004546015989035368,-0.0021228056866675615
1761506021260548900,6.173548828125,-0.006444850005209446,-0.0022775353863835335,-0.0008245146600529552
1761506021270584800,6.183584716796875,-0.0038037928752601147,0.00021731393644586205,-0.0032178976107388735
1761506021280620800,6.193620849609375,-0.005322593729943037,-0.003419232554733753,-0.002019474981352687
1761506021290655700,6.20365576171875,-0.007848868146538734,-0.0013632721966132522,-0.003139334265142679
1761506021300692000,6.21369189453125,-0.004881840664893389,-0.0029294772539287806,-0.001865011639893055
1761506021310728000,6.22372802734375,-0.006383596919476986,-0.00276169809512794,-0.001796834752894938
1761506021320764000,6.233763916015625,-0.006797985173761845,-0.00230816169641912,-0.001169127761386335
1761506021330799900,6.2437998046875,-0.005599828902631998,-0.006905043963342905,-0.0014415690675377846
1761506021340834800,6.253834716796875,-0.005277586169540882,-0.005800630897283554,0.00037950044497847557
1761506021350870800,6.263870849609375,-0.006478139199316502,-0.001977929612621665,-0.00040533312130719423
1761506021360906800,6.27390673828125,-0.007105580065399408,-0.0005310343112796545,0.0004796353168785572
1761506021370942700,6.283942626953125,-0.005745769944041967,-0.00177925790194422,-0.004830707795917988
1761506021380978000,6.29397802734375,-0.006928213406354189,-0.00515801040455699,-0.004077299498021603
1761506021391014000,6.304013916015625,-0.006044842768460512,-0.0020365193486213684,-0.0022596921771764755
1761506021401049900,6.3140498046875,-0.007284810766577721,-0.0006854976527392864,-0.0003685815026983619
1761506021411085800,6.3240859375,-0.005320729687809944,-0.003867442486807704,-0.0005795038305222988
1761506021421121800,6.334121826171875,-0.006082926411181688,-0.0033859428949654102,-0.001047154888510704
1761506021431157000,6.344156982421875,-0.005308479070663452,-0.00475347600877285,-0.0018634138396009803
1761506021441193000,6.35419287109375,-0.006118080113083124,-0.0029997846577316523,-0.0005944175645709038
1761506021451229000,6.36422900390625,-0.006982542108744383,-0.002779541304334998,-0.0020242687314748764
1761506021461265000,6.374264892578125,-0.006791327148675919,-0.00024714134633541107,-0.0028692898340523243
1761506021471299800,6.3842998046875,-0.00615190202370286,-0.0019230686593800783,-0.0023696806747466326
1761506021481335800,6.394335693359375,-0.004994492046535015,-0.0010069411946460605,-0.0029385320376604795
1761506021491371800,6.404371826171875,-0.005683451890945435,0.0013853764394298196,-0.0005973470397293568
1761506021501407700,6.41440771484375,-0.0025963156949728727,-0.0036599822342395782,-0.002511893631890416
1761506021511444000,6.42444384765625,-0.005426723510026932,-0.0017126789316534996,-0.0030123014003038406
1761506021521479000,6.43447900390625,-0.007577758282423019,-0.003962250892072916,-0.0036160401068627834
1761506021531515000,6.444514892578125,-0.00577879324555397,-0.005869074258953333,-0.0018516959389671683
1761506021541550800,6.45455078125,-0.0038088529836386442,-0.0034490597900003195,-0.0010972223244607449
1761506021551586800,6.4645869140625,-0.005450159311294556,-0.001445830101147294,-0.0009624664089642465
1761506021561622000,6.4746220703125,-0.0062485747039318085,-0.00401737866923213,-0.000931041082367301
1761506021571658000,6.484657958984375,-0.004462392535060644,-0.002251702593639493,-0.0028250813484191895
1761506021581694000,6.49469384765625,-0.005006476305425167,-0.0035782232880592346,-0.0018998990999534726
1761506021591730000,6.50472998046875,-0.004535097163170576,-0.0010724549647420645,-0.0031430625822395086
1761506021601764900,6.514764892578125,-0.004197407979518175,-0.0032285500783473253,-0.0011848403373733163
1761506021611800800,6.52480078125,-0.008700546808540821,0.00019813918333966285,-0.0023310647811740637
1761506021621836800,6.5348369140625,-0.006843524985015392,-0.002020274056121707,-0.0025385250337421894
1761506021631872800,6.544872802734375,-0.006936735473573208,-0.00014993596414569765,-0.00019201391842216253
1761506021641909000,6.554908935546875,-0.0065465825609862804,-0.00347542529925704,-0.0033475933596491814
1761506021651944000,6.56494384765625,-0.004852545913308859,-0.004742823541164398,-0.0030282805673778057
1761506021661980000,6.57497998046875,-0.004599545616656542,-0.003994741477072239,-0.0024612934794276953
1761506021672016000,6.585015869140625,-0.0075934710912406445,-0.0022919164039194584,-0.00025246766745112836
1761506021682051800,6.5950517578125,-0.0038336203433573246,-0.002341983839869499,-0.0016916398890316486
1761506021692087000,6.605087158203125,-0.0062304651364684105,-0.002493517706170678,0.0003222425002604723
1761506021702123000,6.615123046875,-0.003605387406423688,-0.0033337450586259365,-0.0028186896815896034
1761506021712159000,6.625158935546875,-0.007113303057849407,-0.004595550708472729,-0.00035686357296071947
1761506021722195000,6.63519482421875,-0.007820372469723225,-0.004052532371133566,-0.0030956584960222244
1761506021732231000,6.64523095703125,-0.005624063778668642,-0.004437092691659927,-0.002734001260250807
1761506021742265900,6.655265869140625,-0.006900250446051359,-0.001683916780166328,-0.00096086849225685
1761506021752301800,6.6653017578125,-0.005382248666137457,-0.001761148450896144,0.00039734362508170307
1761506021762338000,6.675338134765625,-0.006481867749243975,-0.005395297892391682,-0.00101173494476825
1761506021772374000,6.6853740234375,-0.006631270982325077,-0.0018024274613708258,-0.0005387574783526361
1761506021782409000,6.695408935546875,-0.005349758081138134,-0.0040765004232525826,-0.0018330537714064121
1761506021792445000,6.70544482421875,-0.0067689563147723675,-0.003510312642902136,-0.0019094864837825298
1761506021802481000,6.71548095703125,-0.004756671842187643,-0.001987783471122384,-0.0003531351685523987
1761506021812516900,6.725516845703125,-0.0054602790623903275,-0.0037388119380921125,-0.002406965009868145
1761506021822552800,6.735552734375,-0.0067569720558822155,-0.0008444883860647678,-0.0029792783316224813
1761506021832588000,6.745588134765625,-0.0063092950731515884,0.0001840244367485866,-0.0018841864075511694
1761506021842624000,6.7556240234375,-0.005596633069217205,-0.002715625334531069,-0.0029265477787703276
1761506021852660000,6.765659912109375,-0.006292783189564943,-0.004975583869963884,-0.00126713200006634
1761506021862696000,6.775696044921875,-0.0068299430422484875,-0.002463690238073468,-0.004309260752052069
1761506021872730600,6.785730712890625,-0.004686897154897451,-0.004018976353108883,0.0002692455891519785
1761506021882766800,6.795766845703125,-0.006360693834722042,-0.0027632960118353367,-0.003320429241284728
1761506021892803000,6.805802978515625,-0.005891178734600544,-0.0043657198548316956,-0.002294047037139535
1761506021902839000,6.815839111328125,-0.004400340840220451,-0.00290364446118474,-0.002086320426315069
1761506021912873700,6.825873779296875,-0.006816094275563955,-0.0007512777228839695,-0.0021228056866675615
1761506021922909700,6.83590966796875,-0.006044044159352779,-0.0021065603941679,-0.0027350664604455233
1761506021932945700,6.845945556640625,-0.006599046755582094,-0.0037444045301526785,0.000023169501218944788
1761506021942982000,6.85598193359375,-0.006433664355427027,-0.004086087923496962,0.0013169331941753626
1761506021953017900,6.866017822265625,-0.0065500447526574135,-0.003163302782922983,-0.002159557305276394
1761506021963052800,6.876052734375,-0.004519650712609291,-0.0037800907157361507,-0.0029848709236830473
1761506021973088800,6.8860888671875,-0.0057404437102377415,-0.0013488910626620054,-0.0005062668933533132
1761506021983124700,6.896124755859375,-0.004867726005613804,0.0008743157959543169,-0.0023763386998325586
1761506021993160700,6.90616064453125,-0.006800914648920298,-0.002040780382230878,-0.0008173241512849927
1761506022003195600,6.916195556640625,-0.006009423173964024,-0.000996821210719645,-0.003291134489700198
1761506022013231900,6.92623193359375,-0.006511428859084845,-0.003117496380582452,0.0010120011866092682
1761506022023267800,6.936267822265625,-0.006215285509824753,-0.0059963734820485115,-0.002282062778249383
1761506022033303800,6.9463037109375,-0.007810784969478846,-0.007441937457770109,-0.0005542038124985993
1761506022043338800,6.9563388671875,-0.005524461157619953,-0.0024016385432332754,-0.0008506136364303529
1761506022053374700,6.966374755859375,-0.006589991971850395,-0.0037412086967378855,-0.0013233247445896268
1761506022063410700,6.97641064453125,-0.007998005487024784,-0.0018836538074538112,-0.0007323693134821951
1761506022073446700,6.98644677734375,-0.006012884899973869,-0.001044491771608591,-0.0007464840309694409
1761506022083482600,6.996482666015625,-0.006039516534656286,-0.003186205867677927,-0.0017800568602979183
1761506022093517800,7.006517822265625,-0.0065537733025848866,-0.0070429956540465355,-0.0010610034223645926
1761506022103553800,7.0165537109375,-0.007288272958248854,-0.0037534593138843775,-0.0016370450612157583
1761506022113589800,7.02658984375,-0.0037864823825657368,-0.0054331147111952305,-0.002552373567596078
1761506022123625700,7.036625732421875,-0.006327936891466379,-0.0018136126454919577,-0.0018916432745754719
1761506022133661000,7.046660888671875,-0.006505836267024279,-0.0016911072889342904,-0.0011749867117032409
1761506022143697000,7.05669677734375,-0.005772401578724384,-0.0041191112250089645,-0.0010218549286946654
1761506022153733000,7.066733154296875,-0.0067788101732730865,-0.003890878288075328,-0.0005904228310100734
1761506022163769000,7.07676904296875,-0.00836951658129692,-0.0013161342358216643,-0.0034730283077806234
1761506022173804000,7.086803955078125,-0.005082909017801285,-0.0005755090969614685,-0.000743820914067328
1761506022183840000,7.096840087890625,-0.005899168085306883,-0.004008323885500431,-0.0031372036319226027
1761506022193876000,7.1068759765625,-0.004770254250615835,-0.002073803450912237,-0.0015249260468408465
1761506022203912000,7.116911865234375,-0.006934072356671095,-0.0054765245877206326,-0.0022825952619314194
1761506022213947100,7.126947021484375,-0.0062911855056881905,-0.002469549188390374,-0.002046106616035104
1761506022223983000,7.136983154296875,-0.0062424493953585625,-0.002570483135059476,-0.0025680861435830593
1761506022234019000,7.14701904296875,-0.0036400086246430874,-0.000027963191314483993,-0.0015784555580466986
1761506022244055000,7.157054931640625,-0.005884787067770958,-0.004803809802979231,0.0005350290448404849
1761506022254091000,7.167091064453125,-0.005934854503720999,-0.0006447513005696237,-0.0012942962348461151
1761506022264126000,7.1771259765625,-0.008014783263206482,-0.003977697342634201,-0.0006207828409969807
1761506022274162200,7.187162109375,-0.005402488633990288,-0.0032692966051399708,-0.0010487528052181005
1761506022284198100,7.1971982421875,-0.006359894759953022,-0.003418433479964733,-0.0019017633749172091
1761506022294234000,7.207234130859375,-0.007533017545938492,-0.005285841878503561,-0.00108284130692482
1761506022304269000,7.21726904296875,-0.005568669643253088,-0.0028479844331741333,-0.0013233247445896268
1761506022314305000,7.227304931640625,-0.006590791046619415,-0.003278617514297366,-0.00013448962999973446
1761506022324341000,7.237341064453125,-0.006287723314017057,0.0004876247840002179,-0.00022264027211349458
1761506022334377000,7.247376953125,-0.0067543089389801025,-0.0028541097417473793,-0.0033723609521985054
1761506022344412200,7.257412109375,-0.0038519962690770626,-0.0015747271245345473,-0.0033534523099660873
1761506022354448100,7.2674482421875,-0.005679723806679249,-0.0016815199051052332,-0.0008314388687722385
1761506022364484000,7.277484130859375,-0.004988367203623056,-0.002305232221260667,-0.0011536814272403717
1761506022374520000,7.28752001953125,-0.006027532275766134,-0.0020594224333763123,-0.0024493092205375433
1761506022384555000,7.297554931640625,-0.008479504846036434,-0.0007038734620437026,-0.0010239854454994202
1761506022394591000,7.307591064453125,-0.0046301716938614845,-0.0032860743813216686,-0.0018996327416971326
1761506022404627200,7.317627197265625,-0.0049438923597335815,-0.0035606464371085167,-0.0010404969798400998
1761506022414663200,7.3276630859375,-0.004449076950550079,-0.002930542454123497,0.00023702133330516517
1761506022424699100,7.33769921875,-0.005255748517811298,-0.009074987843632698,-0.002119077369570732
1761506022434734000,7.347734130859375,-0.005154015496373177,-0.0019947076216340065,-0.00021225394448265433
1761506022444770000,7.35777001953125,-0.005841644015163183,-0.00011265171633567661,-0.0025949841365218163
1761506022454806000,7.367805908203125,-0.007185474969446659,-0.001671666163019836,-0.0006261091912165284
1761506022464842000,7.377842041015625,-0.006594785954803228,-0.0027686222456395626,-0.0018809906905516982
1761506022474877200,7.387877197265625,-0.008263789117336273,-0.004485296085476875,0.0003028014034498483
1761506022484913200,7.3979130859375,-0.004706338047981262,-0.004759601317346096,-0.0022101574577391148
1761506022494949000,7.40794921875,-0.007113036699593067,-0.004285558592528105,-0.002522279741242528
1761506022504985000,7.417985107421875,-0.005147357936948538,-0.0038631814531981945,-0.00324825756251812
1761506022515020000,7.42802001953125,-0.007698133587837219,-0.001787779969163239,0.0002079928817693144
1761506022525056000,7.438055908203125,-0.004547081422060728,-0.004292482975870371,-0.0009672601008787751
1761506022535092200,7.44809228515625,-0.004996889270842075,-0.0027925907634198666,-0.0006838997360318899
1761506022545128200,7.458128173828125,-0.0062485747039318085,-0.00038456046604551375,-0.00019920444174204022
1761506022555163100,7.4681630859375,-0.007500793319195509,-0.004890362732112408,-0.00452790642157197
1761506022565199000,7.47819921875,-0.00720438314601779,-0.002235191175714135,-0.0015720640076324344
1761506022575235000,7.488235107421875,-0.005529787857085466,-0.001508680754341185,-0.0010484865633770823
1761506022585271000,7.49827099609375,-0.005342833697795868,-0.003022421384230256,-0.0006495449924841523
1761506022595307000,7.50830712890625,-0.0039039277471601963,-0.0032208270858973265,-0.001008805469609797
1761506022605342200,7.51834228515625,-0.00518757151439786,-0.0017219999572262168,-0.0018013621447607875
1761506022615378200,7.528378173828125,-0.005036303773522377,-0.004887433256953955,-0.0018607506062835455
1761506022625414100,7.5384140625,-0.006930610164999962,-0.003168895374983549,-0.0005163869354873896
1761506022635450000,7.5484501953125,-0.005587045568972826,-0.0041065942496061325,0.002638926263898611
1761506022645485000,7.558485107421875,-0.006690126843750477,-0.004342816770076752,-0.0020698087755590677
1761506022655521300,7.568521240234375,-0.00762969022616744,-0.0007669904152862728,-0.0006815029191784561
1761506022665557200,7.57855712890625,-0.004476773552596569,-0.0025036376900970936,-0.005391303449869156
1761506022675593200,7.58859326171875,-0.006903712637722492,-0.00213558878749609,-0.0015180017799139023
1761506022685628200,7.598628173828125,-0.006649114191532135,-0.0052208611741662025,-0.0015712650492787361
1761506022695664000,7.6086640625,-0.004849350079894066,-0.004406732507050037,-0.0019148128340020776
1761506022705700000,7.6187001953125,-0.0073351445607841015,-0.0029984530992805958,-0.0025569009594619274
1761506022715736000,7.628736083984375,-0.005754558369517326,-0.0052054147236049175,-0.0032871398143470287
1761506022725771300,7.638771240234375,-0.006129531655460596,-0.0020101540721952915,-0.000800279900431633
1761506022735807200,7.64880712890625,-0.004513259045779705,-0.0027925907634198666,-0.003418433479964733
1761506022745843200,7.65884326171875,-0.0062738750129938126,-0.0025534387677907944,-0.0007960188668221235
1761506022755879200,7.668879150390625,-0.0038599856197834015,-0.0034493261482566595,-0.003073287894949317
1761506022765914000,7.6789140625,-0.006205431651324034,-0.0006215817993506789,-0.0012639362830668688
1761506022775950000,7.6889501953125,-0.006934072356671095,-0.001540638622827828,-0.0032205607276409864
1761506022785986300,7.698986328125,-0.00660543842241168,0.0004218447138555348,-0.0014080132823437452
1761506022796022300,7.709022216796875,-0.004460262134671211,-0.003166498616337776,-0.00042051312630064785
1761506022806057000,7.719056884765625,-0.004808071069419384,-0.002764893928542733,-0.0025917883031070232
1761506022816093200,7.72909326171875,-0.006396380253136158,-0.0027180220931768417,-0.0007068029372021556
1761506022826129200,7.739129150390625,-0.004853877238929272,-0.004046939779073,-0.0011848403373733163
1761506022836165000,7.7491650390625,-0.004704474005848169,-0.0007771103992126882,-0.0006101301987655461
1761506022846201000,7.759201171875,-0.006127667147666216,-0.002127333078533411,-0.0005757753970101476
1761506022856236000,7.769236083984375,-0.005857622716575861,-0.0024852619972079992,-0.0017603494925424457
1761506022866272000,7.77927197265625,-0.006708236411213875,-0.0020125508308410645,0.002296976512297988
1761506022876308200,7.78930810546875,-0.006697317585349083,0.000018375811123405583,-0.0013712616637349129
1761506022886344200,7.79934423828125,-0.004970257636159658,-0.0016937704058364034,-0.0016612798208370805
1761506022896379000,7.80937890625,-0.0054664043709635735,-0.004430434666574001,-0.00037816885742358863
1761506022906415000,7.8194150390625,-0.0075908079743385315,-0.00079735042527318,-0.0016367788193747401
1761506022916451000,7.829451171875,-0.0027361316606402397,-0.0021640846971422434,-0.0026405241806060076
1761506022926487300,7.8394873046875,-0.00729466462507844,-0.002778209513053298,0.00015472965606022626
1761506022936522000,7.84952197265625,-0.004194212146103382,-0.00355931487865746,-0.000028762138754245825
1761506022946558000,7.859557861328125,-0.00640916358679533,-0.0030146983917802572,-0.0014455638593062758
1761506022956594000,7.869593994140625,-0.006687730085104704,-0.0038900794461369514,-0.0005781722720712423
1761506022966630000,7.8796298828125,-0.003893807763233781,-0.0024977787397801876,-0.00048176583368331194
1761506022976665000,7.8896650390625,-0.005961219780147076,0.0003962783666793257,-0.0033574472181499004
1761506022986701000,7.899701171875,-0.006199306342750788,-0.0018868496408686042,-0.0016607472207397223
1761506022996737000,7.909737060546875,-0.007422762457281351,-0.0035079156514257193,-0.0034328147303313017
1761506023006773000,7.91977294921875,-0.005368399899452925,-0.0019118833588436246,-0.001050350721925497
1761506023016808000,7.929807861328125,-0.007381217088550329,-0.00404534162953496,-0.003061569994315505
1761506023026844000,7.939843994140625,-0.0043840957805514336,-0.0023331954143941402,0.0001893507578643039
1761506023036880100,7.949880126953125,-0.007089600898325443,-0.005408347584307194,0.00038482676609419286
1761506023046916000,7.959916015625,-0.006666158325970173,-0.004457865376025438,-0.0000428768944402691
1761506023056951000,7.969950927734375,-0.006139118690043688,-0.0036479979753494263,-0.0035989959724247456
1761506023066987000,7.979987060546875,-0.007140733767300844,-0.003370763035491109,-0.0026471822056919336
1761506023077023000,7.99002294921875,-0.00330285239033401,-0.0015313175972551107,-0.003816842334344983
1761506023087059000,8.000058837890625,-0.00666482700034976,-0.005303951445966959,-0.002984072081744671
1761506023097093000,8.010093017578125,-0.00493217445909977,-0.0013845774810761213,-0.0010159959783777595
1761506023107129000,8.020129150390625,-0.006256031803786755,-0.003498328384011984,-0.00042743736412376165
1761506023117165000,8.0301650390625,-0.007063501980155706,-0.003436010330915451,-0.0020330571569502354
1761506023127201000,8.040200927734375,-0.007132478058338165,-0.003774764481931925,-0.0031169636640697718
1761506023137235500,8.0502353515625,-0.00598572101444006,-0.003169428091496229,-0.0024583640042692423
1761506023147271400,8.060271484375,-0.005332181230187416,-0.0029997846577316523,-0.0006245112745091319
1761506023157307400,8.070307373046875,-0.007224090863019228,-0.007071225438266993,-0.0033835461363196373
1761506023167343400,8.08034326171875,-0.004735100548714399,-0.0017720673931762576,-0.000874582096002996
1761506023177378300,8.09037841796875,-0.00743314903229475,-0.004345479886978865,-0.004339088220149279
1761506023187414500,8.10041455078125,-0.0060262009501457214,-0.005144428461790085,-0.0015574166318401694
1761506023197450500,8.110450439453125,-0.00646562222391367,-0.0031936627347022295,-0.003222425002604723
1761506023207486500,8.120486572265625,-0.006201703101396561,-0.003367300843819976,-0.0016783240716904402
1761506023217522400,8.1305224609375,-0.0065103634260594845,-0.003156644757837057,-0.0005147890187799931
1761506023227557400,8.140557373046875,-0.0067575047723948956,-0.002198439557105303,-0.003534813644364476
1761506023237593300,8.15059326171875,-0.0037822213489562273,-0.0014591459184885025,-0.003965446725487709
1761506023247629300,8.16062939453125,-0.005780657287687063,-0.0035393410362303257,-0.0007342335302382708
1761506023257665300,8.170665283203125,-0.004343083128333092,-0.0007507451227866113,-0.002189384773373604
1761506023267700500,8.180700439453124,-0.0054541537538170815,-0.003010969841852784,0.00031664984999224544
1761506023277736400,8.190736328125,-0.005626726895570755,-0.0021225393284112215,-0.00023622238950338215
1761506023287772400,8.2007724609375,-0.004972121678292751,-0.0027134947013109922,-0.0022272015921771526
1761506023297808400,8.210808349609374,-0.006961236707866192,-0.002267681760713458,-0.0013086773687973619
1761506023307843300,8.22084326171875,-0.00592500064522028,-0.0031127026304602623,-0.0015385081060230732
1761506023317879600,8.230879638671874,-0.0055063520558178425,-0.004463457968086004,-0.003602457931265235
1761506023327915500,8.24091552734375,-0.006025668233633041,-0.0034043188206851482,-0.0023254721891134977
1761506023337951500,8.250951416015624,-0.006670153234153986,-0.004208859521895647,-0.0028455876745283604
1761506023347986200,8.260986083984376,-0.005882656667381525,-0.0032802154310047626,-0.0023667511995881796
1761506023358022400,8.2710224609375,-0.0067724185064435005,-0.0008450209861621261,-0.0011049455497413874
1761506023368058400,8.281058349609374,-0.006163353566080332,-0.0012767193838953972,-0.000511593243572861
1761506023378094300,8.29109423828125,-0.003934287931770086,-0.0029846045654267073,-0.0027020431589335203
1761506023388129300,8.30112939453125,-0.008051002398133278,-0.0018873822409659624,-0.0018812569323927164
1761506023398165200,8.311165283203126,-0.006000900641083717,-0.004611263517290354,-0.0024437166284769773
1761506023408201500,8.321201416015626,-0.006119944155216217,-0.0009864348685368896,-0.0027150926180183887
1761506023418237400,8.331237548828126,-0.005839779507368803,-0.0021973741240799427,-0.002519350266084075
1761506023428272000,8.341272216796876,-0.005336974747478962,-0.004865062423050404,-0.003346261801198125
1761506023438308400,8.351308349609376,-0.00532605592161417,-0.003495931625366211,-0.002478337613865733
1761506023448344300,8.36134423828125,-0.005859753116965294,-0.0044197821989655495,-0.0017438378417864442
1761506023458380300,8.37138037109375,-0.005561745725572109,-0.004635232035070658,-0.0009478190331719816
1761506023468415200,8.381415283203125,-0.005645901430398226,-0.0036557212006300688,-0.0035137746017426252
1761506023478451200,8.391451171875,-0.005768939387053251,-0.004313788376748562,-0.0018639464396983385
1761506023488487200,8.401487060546875,-0.006175870541483164,-0.0032921996898949146,0.00042796999332495034
1761506023498523100,8.411523193359375,-0.007468835450708866,-0.003769438248127699,-0.0010109359864145517
1761506023508558300,8.421558349609375,-0.006130330264568329,-0.003216299694031477,0.0004886900424025953
1761506023518594300,8.43159423828125,-0.005368399899452925,-0.001898301183246076,0.00045353634050115943
1761506023528630300,8.44163037109375,-0.005113269202411175,-0.0025688852183520794,-0.0018690064316615462
1761506023538666200,8.451666259765625,-0.006106362212449312,-0.0026490462478250265,-0.0037923413328826427
1761506023548701200,8.461701171875,-0.006228334736078978,-0.0033396040089428425,-0.0005755090969614685
1761506023558737200,8.471737060546875,-0.005349225364625454,-0.0017680726014077663,-0.0013712616637349129
1761506023568773400,8.4817734375,-0.006346579175442457,0.00043755737715400755,-0.0014644722687080503
1761506023578809300,8.491809326171875,-0.005730589851737022,-0.0026559706311672926,-0.0008356999605894089
1761506023588844300,8.50184423828125,-0.007935155183076859,-0.004405667539685965,-0.0028490496333688498
1761506023598880300,8.51188037109375,-0.004710865672677755,-0.003599794814363122,-0.0016620787791907787
1761506023608916200,8.521916259765625,-0.006040581967681646,-0.00199364242143929,-0.0007163903210312128
1761506023618952200,8.5319521484375,-0.003985154442489147,-0.003555053612217307,-0.0015454323729500175
1761506023628987400,8.5419873046875,-0.005531651899218559,-0.0030514500103890896,-0.0002492718631401658
1761506023639023400,8.5520234375,-0.0016162724932655692,-0.004056260455399752,-0.002828543307259679
1761506023649059300,8.562059326171875,-0.005752161610871553,-0.0037582528311759233,-0.0015126754296943545
1761506023659095300,8.57209521484375,-0.007242200430482626,-0.0037209687288850546,-0.004039482679218054
1761506023669130200,8.582130126953125,-0.004531102254986763,-0.000892425247002393,0.0015243934467434883
1761506023679166200,8.592166259765625,-0.007998538203537464,0.05260462313890457,0.016875119879841805
1761506023689202400,8.602202392578125,-0.01037620846182108,0.3719240128993988,0.08195745199918747
1761506023699238400,8.61223828125,-0.01504180021584034,0.04709640517830849,0.009096292778849602
1761506023709273300,8.6222734375,-0.0017920411191880703,-0.26027712225914,-0.05504141375422478
1761506023719309300,8.632309326171875,-0.005291967187076807,-0.009831857867538929,-0.006076801102608442
1761506023729345300,8.64234521484375,-0.0028842033352702856,-0.08291938155889511,-0.02064535766839981
1761506023739381200,8.65238134765625,0.000005326322025211994,-0.18157298862934113,-0.06432199478149414
1761506023749416400,8.66241650390625,-0.00418515782803297,0.019638415426015854,0.0029350698459893465
