time,seconds_elapsed,z,y,x
1761505974528936200,0.085936279296875,-1.0143890380859375,-0.0197601318359375,-0.0333404541015625
1761505974538972200,0.09597216796875,-1.0134429931640625,-0.0195159912109375,-0.033294677734375
1761505974549008100,0.106008056640625,-1.01251220703125,-0.0199432373046875,-0.0327606201171875
1761505974559044000,0.116044189453125,-1.013336181640625,-0.0198211669921875,-0.0328826904296875
1761505974569080000,0.126080078125,-1.0133819580078125,-0.020263671875,-0.0330657958984375
1761505974579116000,0.136115966796875,-1.013214111328125,-0.020111083984375,-0.032745361328125
1761505974589152000,0.146152099609375,-1.013092041015625,-0.020172119140625,-0.0317840576171875
1761505974599188000,0.15618798828125,-1.0132598876953125,-0.020477294921875,-0.033477783203125
1761505974609224200,0.16622412109375,-1.0136566162109375,-0.0193023681640625,-0.033599853515625
1761505974619260200,0.17626025390625,-1.0133056640625,-0.01995849609375,-0.0333099365234375
1761505974629296000,0.186296142578125,-1.01275634765625,-0.0203704833984375,-0.033294677734375
1761505974639332000,0.19633203125,-1.012420654296875,-0.0206756591796875,-0.03302001953125
1761505974649367000,0.206366943359375,-1.013153076171875,-0.02001953125,-0.03271484375
1761505974659403000,0.216403076171875,-1.01251220703125,-0.019256591796875,-0.0328826904296875
1761505974669439000,0.22643896484375,-1.0134429931640625,-0.0205230712890625,-0.033050537109375
1761505974679475000,0.236474853515625,-1.0130157470703125,-0.02001953125,-0.032623291015625
1761505974689511200,0.24651123046875,-1.013031005859375,-0.0199127197265625,-0.0329437255859375
1761505974699547100,0.256547119140625,-1.0135650634765625,-0.020965576171875,-0.0322265625
1761505974709583000,0.2665830078125,-1.01324462890625,-0.020294189453125,-0.0328216552734375
1761505974719619000,0.276619140625,-1.012420654296875,-0.019256591796875,-0.0331268310546875
1761505974729655000,0.286655029296875,-1.0139007568359375,-0.019805908203125,-0.0330657958984375
1761505974739691000,0.29669091796875,-1.0136871337890625,-0.0203704833984375,-0.0335845947265625
1761505974749727000,0.30672705078125,-1.0134124755859375,-0.0199432373046875,-0.0330963134765625
1761505974759763000,0.316762939453125,-1.01287841796875,-0.019439697265625,-0.0333404541015625
1761505974769799000,0.326798828125,-1.0121002197265625,-0.019989013671875,-0.0332489013671875
1761505974779835000,0.3368349609375,-1.01226806640625,-0.0195465087890625,-0.032806396484375
1761505974789871000,0.34687109375,-1.013427734375,-0.0193328857421875,-0.0328826904296875
1761505974799907000,0.356906982421875,-1.0138092041015625,-0.0198211669921875,-0.0326995849609375
1761505974809943000,0.366943115234375,-1.0135345458984375,-0.02008056640625,-0.032745361328125
1761505974819979000,0.37697900390625,-1.0138397216796875,-0.02020263671875,-0.032257080078125
1761505974830015200,0.38701513671875,-1.0138397216796875,-0.0200042724609375,-0.03253173828125
1761505974840051200,0.39705126953125,-1.012542724609375,-0.019927978515625,-0.032257080078125
1761505974850087200,0.407087158203125,-1.012786865234375,-0.0205841064453125,-0.032623291015625
1761505974860123100,0.417123046875,-1.0131378173828125,-0.020111083984375,-0.03277587890625
1761505974870159000,0.4271591796875,-1.0129547119140625,-0.0193328857421875,-0.0333099365234375
1761505974880195000,0.437195068359375,-1.0136871337890625,-0.020721435546875,-0.03277587890625
1761505974890231000,0.44723095703125,-1.0135498046875,-0.020904541015625,-0.0323333740234375
1761505974900267000,0.45726708984375,-1.012725830078125,-0.020050048828125,-0.032379150390625
1761505974910303200,0.46730322265625,-1.01336669921875,-0.0198974609375,-0.03338623046875
1761505974920339200,0.477339111328125,-1.01300048828125,-0.0198516845703125,-0.0333099365234375
1761505974930375200,0.487375244140625,-1.0130615234375,-0.0202484130859375,-0.0333099365234375
1761505974940411100,0.4974111328125,-1.012908935546875,-0.020050048828125,-0.0329132080078125
1761505974950447000,0.507447021484375,-1.01214599609375,-0.019805908203125,-0.0330352783203125
1761505974960483000,0.517483154296875,-1.0119476318359375,-0.0198211669921875,-0.033447265625
1761505974970519000,0.52751904296875,-1.012420654296875,-0.0210723876953125,-0.0329742431640625
1761505974980555000,0.537554931640625,-1.012115478515625,-0.0196533203125,-0.03338623046875
1761505974990591000,0.547591064453125,-1.011444091796875,-0.0204010009765625,-0.0324249267578125
1761505975000627000,0.557626953125,-1.0122528076171875,-0.0204925537109375,-0.0325775146484375
1761505975010662100,0.567662109375,-1.0127105712890625,-0.019622802734375,-0.033477783203125
1761505975020698000,0.577697998046875,-1.011871337890625,-0.0195465087890625,-0.0331268310546875
1761505975030734000,0.587734130859375,-1.0117340087890625,-0.0203094482421875,-0.03271484375
1761505975040770000,0.59777001953125,-1.0118560791015625,-0.020111083984375,-0.032867431640625
1761505975050806000,0.607805908203125,-1.01171875,-0.0205535888671875,-0.0321044921875
1761505975060842000,0.617842041015625,-1.0126495361328125,-0.0202484130859375,-0.0333404541015625
1761505975070878000,0.6278779296875,-1.0119781494140625,-0.0199737548828125,-0.0328369140625
1761505975080915500,0.63791552734375,-1.0127410888671875,-0.0198211669921875,-0.033203125
1761505975090951400,0.647951416015625,-1.0130767822265625,-0.01910400390625,-0.0332794189453125
1761505975100987400,0.6579873046875,-1.0120086669921875,-0.0193939208984375,-0.0325775146484375
1761505975111023400,0.6680234375,-1.0130767822265625,-0.02020263671875,-0.032470703125
1761505975121059300,0.678059326171875,-1.0129241943359375,-0.020111083984375,-0.0324554443359375
1761505975131095300,0.68809521484375,-1.0124359130859375,-0.02032470703125,-0.0328369140625
1761505975141131500,0.698131591796875,-1.0121307373046875,-0.019683837890625,-0.033233642578125
1761505975151167500,0.70816748046875,-1.0127716064453125,-0.0198211669921875,-0.0326995849609375
1761505975161203500,0.718203369140625,-1.013153076171875,-0.018768310546875,-0.032958984375
1761505975171239400,0.728239501953125,-1.0123138427734375,-0.0205078125,-0.0326690673828125
1761505975181275400,0.738275390625,-1.0120086669921875,-0.02032470703125,-0.0330352783203125
1761505975191311400,0.748311279296875,-1.0123291015625,-0.0197601318359375,-0.0335540771484375
1761505975201347300,0.758347412109375,-1.011627197265625,-0.02032470703125,-0.033203125
1761505975211383300,0.76838330078125,-1.012664794921875,-0.0196685791015625,-0.03271484375
1761505975221419300,0.778419189453125,-1.011810302734375,-0.02032470703125,-0.0330657958984375
1761505975231455200,0.788455322265625,-1.0128173828125,-0.0201416015625,-0.0327606201171875
1761505975241491200,0.7984912109375,-1.0119476318359375,-0.0187530517578125,-0.03265380859375
1761505975251527400,0.80852734375,-1.0129547119140625,-0.019927978515625,-0.0326690673828125
1761505975261563400,0.8185634765625,-1.0128173828125,-0.02032470703125,-0.033355712890625
1761505975271599400,0.828599365234375,-1.012481689453125,-0.0206298828125,-0.032684326171875
1761505975281635300,0.83863525390625,-1.01318359375,-0.020050048828125,-0.032989501953125
1761505975291671300,0.84867138671875,-1.0128631591796875,-0.02056884765625,-0.0326690673828125
1761505975301707300,0.858707275390625,-1.0121917724609375,-0.0204315185546875,-0.0334930419921875
1761505975311743200,0.8687431640625,-1.0136871337890625,-0.01910400390625,-0.033538818359375
1761505975321779200,0.878779296875,-1.0130767822265625,-0.020660400390625,-0.0328369140625
1761505975331815200,0.888815185546875,-1.011138916015625,-0.020904541015625,-0.0327606201171875
1761505975341851400,0.898851318359375,-1.012298583984375,-0.02008056640625,-0.0335235595703125
1761505975351887400,0.908887451171875,-1.0121612548828125,-0.019866943359375,-0.0337066650390625
1761505975361923600,0.918923583984375,-1.0116729736328125,-0.0196685791015625,-0.03216552734375
1761505975371959600,0.92895947265625,-1.0125885009765625,-0.0198211669921875,-0.0328826904296875
1761505975381995500,0.93899560546875,-1.0129852294921875,-0.0189361572265625,-0.0338897705078125
1761505975392031500,0.949031494140625,-1.0123291015625,-0.0185546875,-0.033447265625
1761505975402067500,0.9590673828125,-1.012786865234375,-0.0194549560546875,-0.0324859619140625
1761505975412103400,0.969103515625,-1.012298583984375,-0.0196685791015625,-0.0333404541015625
1761505975422139400,0.979139404296875,-1.0121612548828125,-0.02069091796875,-0.0328521728515625
1761505975432175400,0.98917529296875,-1.0122528076171875,-0.0213775634765625,-0.032318115234375
1761505975442211300,0.99921142578125,-1.0124664306640625,-0.019561767578125,-0.032867431640625
1761505975452247300,1.009247314453125,-1.0135650634765625,-0.0192108154296875,-0.0330047607421875
1761505975462283300,1.019283203125,-1.012664794921875,-0.020050048828125,-0.033294677734375
1761505975472319500,1.029319580078125,-1.0119476318359375,-0.0203857421875,-0.033416748046875
1761505975482354400,1.0393544921875,-1.0124664306640625,-0.020050048828125,-0.032684326171875
1761505975492390400,1.049390380859375,-1.0116119384765625,-0.019927978515625,-0.0327911376953125
1761505975502426400,1.05942626953125,-1.01287841796875,-0.019317626953125,-0.0333709716796875
1761505975512462300,1.06946240234375,-1.012664794921875,-0.01995849609375,-0.033294677734375
1761505975522498300,1.079498291015625,-1.0135040283203125,-0.020263671875,-0.03240966796875
1761505975532534300,1.0895341796875,-1.013153076171875,-0.0202789306640625,-0.0333709716796875
1761505975542570200,1.0995703125,-1.0123138427734375,-0.0200958251953125,-0.0333251953125
1761505975552606500,1.1096064453125,-1.012725830078125,-0.0210723876953125,-0.032989501953125
1761505975562642400,1.119642333984375,-1.0117034912109375,-0.020294189453125,-0.0324554443359375
1761505975572678400,1.129678466796875,-1.0126800537109375,-0.019317626953125,-0.033294677734375
1761505975582714400,1.13971435546875,-1.0124359130859375,-0.0198974609375,-0.0334625244140625
1761505975592750300,1.149750244140625,-1.0119476318359375,-0.0201568603515625,-0.0325469970703125
1761505975602786300,1.159786376953125,-1.01263427734375,-0.019866943359375,-0.0326995849609375
1761505975612822300,1.169822265625,-1.0126495361328125,-0.02001953125,-0.032684326171875
1761505975622858200,1.179858154296875,-1.0131072998046875,-0.0197296142578125,-0.032745361328125
1761505975632894200,1.189894287109375,-1.0120697021484375,-0.0193328857421875,-0.033660888671875
1761505975642930200,1.19993017578125,-1.0126953125,-0.0196380615234375,-0.0326690673828125
1761505975652966100,1.209966064453125,-1.012420654296875,-0.0197296142578125,-0.03289794921875
1761505975663002400,1.22000244140625,-1.012847900390625,-0.0194549560546875,-0.0330963134765625
1761505975673038300,1.230038330078125,-1.0129852294921875,-0.0200042724609375,-0.03338623046875
1761505975683074600,1.240074462890625,-1.0125732421875,-0.01971435546875,-0.03302001953125
1761505975693110500,1.250110595703125,-1.0129241943359375,-0.01995849609375,-0.03265380859375
1761505975703146500,1.260146484375,-1.0125885009765625,-0.0194854736328125,-0.032989501953125
1761505975713182500,1.270182373046875,-1.0131683349609375,-0.019287109375,-0.033416748046875
1761505975723218400,1.280218505859375,-1.013214111328125,-0.021209716796875,-0.032989501953125
1761505975733254400,1.29025439453125,-1.0131683349609375,-0.0203399658203125,-0.032318115234375
1761505975743290400,1.300290283203125,-1.01324462890625,-0.0191497802734375,-0.032440185546875
1761505975753326300,1.310326416015625,-1.012542724609375,-0.019866943359375,-0.0329742431640625
1761505975763362300,1.3203623046875,-1.0134124755859375,-0.02020263671875,-0.0332183837890625
1761505975773398300,1.330398193359375,-1.0125274658203125,-0.020050048828125,-0.03277587890625
1761505975783434500,1.3404345703125,-1.0113677978515625,-0.0204010009765625,-0.032684326171875
1761505975793470500,1.350470458984375,-1.0136260986328125,-0.0198822021484375,-0.03265380859375
1761505975803506400,1.36050634765625,-1.01214599609375,-0.0198974609375,-0.032989501953125
1761505975813542400,1.37054248046875,-1.0133209228515625,-0.0199127197265625,-0.0326690673828125
1761505975823578400,1.380578369140625,-1.0136871337890625,-0.0201263427734375,-0.033294677734375
1761505975833614300,1.3906142578125,-1.0124359130859375,-0.02032470703125,-0.0335235595703125
1761505975843650300,1.400650390625,-1.0121917724609375,-0.0198211669921875,-0.0326080322265625
1761505975853686300,1.410686279296875,-1.0128326416015625,-0.019866943359375,-0.033447265625
1761505975863722200,1.42072216796875,-1.0123748779296875,-0.0199432373046875,-0.0330810546875
1761505975873758200,1.43075830078125,-1.0126800537109375,-0.0192413330078125,-0.032623291015625
1761505975883794400,1.44079443359375,-1.0123138427734375,-0.0191802978515625,-0.032745361328125
1761505975893830400,1.450830322265625,-1.012603759765625,-0.02020263671875,-0.03271484375
1761505975903866400,1.460866455078125,-1.013153076171875,-0.0201568603515625,-0.03314208984375
1761505975913902300,1.47090234375,-1.0128936767578125,-0.0211944580078125,-0.0328369140625
1761505975923938300,1.480938232421875,-1.0132293701171875,-0.0206298828125,-0.0321502685546875
1761505975933974300,1.490974365234375,-1.0132904052734375,-0.0203094482421875,-0.032379150390625
1761505975944010200,1.50101025390625,-1.01263427734375,-0.020294189453125,-0.03314208984375
1761505975954046200,1.511046142578125,-1.0114593505859375,-0.02081298828125,-0.032928466796875
1761505975964082200,1.521082275390625,-1.012603759765625,-0.0203704833984375,-0.032257080078125
1761505975974118400,1.531118408203125,-1.0124664306640625,-0.0203094482421875,-0.0326995849609375
1761505975984154400,1.541154296875,-1.0114593505859375,-0.019927978515625,-0.0332794189453125
1761505975994190300,1.5511904296875,-1.0109710693359375,-0.019500732421875,-0.0329132080078125
1761505976004226600,1.5612265625,-1.011932373046875,-0.019775390625,-0.03271484375
1761505976014262500,1.571262451171875,-1.012939453125,-0.02008056640625,-0.032196044921875
1761505976024298500,1.581298583984375,-1.0126953125,-0.0200653076171875,-0.0326690673828125
1761505976034334500,1.59133447265625,-1.0128021240234375,-0.02008056640625,-0.0326690673828125
1761505976044370400,1.601370361328125,-1.0145111083984375,-0.02130126953125,-0.0330047607421875
1761505976054406400,1.611406494140625,-1.013153076171875,-0.020233154296875,-0.033203125
1761505976064442400,1.6214423828125,-1.011993408203125,-0.019561767578125,-0.0323944091796875
1761505976074478300,1.631478271484375,-1.01336669921875,-0.01971435546875,-0.03302001953125
1761505976084513000,1.641512939453125,-1.0124664306640625,-0.02020263671875,-0.0326690673828125
1761505976094549200,1.65154931640625,-1.0122833251953125,-0.01971435546875,-0.03271484375
1761505976104585200,1.661585205078125,-1.0126190185546875,-0.0200042724609375,-0.03369140625
1761505976114621200,1.67162109375,-1.0125579833984375,-0.0199737548828125,-0.0339508056640625
1761505976124657200,1.6816572265625,-1.012725830078125,-0.0193023681640625,-0.03253173828125
1761505976134693000,1.691693115234375,-1.01348876953125,-0.0199432373046875,-0.032562255859375
1761505976144729000,1.70172900390625,-1.013519287109375,-0.019775390625,-0.0332183837890625
1761505976154765000,1.71176513671875,-1.0114898681640625,-0.0195770263671875,-0.033203125
1761505976164801000,1.721801025390625,-1.0116729736328125,-0.020416259765625,-0.032623291015625
1761505976174837000,1.7318369140625,-1.0121002197265625,-0.0200042724609375,-0.0326385498046875
1761505976184873200,1.741873291015625,-1.0139923095703125,-0.0195465087890625,-0.03326416015625
1761505976194909200,1.7519091796875,-1.0140533447265625,-0.02056884765625,-0.0327606201171875
1761505976204945200,1.761945068359375,-1.013275146484375,-0.0206146240234375,-0.032684326171875
1761505976214981000,1.771981201171875,-1.012542724609375,-0.0208892822265625,-0.0330352783203125
1761505976225017000,1.78201708984375,-1.01263427734375,-0.0198822021484375,-0.032440185546875
1761505976235053000,1.792052978515625,-1.012969970703125,-0.02032470703125,-0.0313873291015625
1761505976245089000,1.802089111328125,-1.013397216796875,-0.0200653076171875,-0.0330047607421875
1761505976255125000,1.812125,-1.013458251953125,-0.0198211669921875,-0.0334320068359375
1761505976265161000,1.822160888671875,-1.0125885009765625,-0.02008056640625,-0.0327606201171875
1761505976275197000,1.832197021484375,-1.0126190185546875,-0.0207061767578125,-0.032501220703125
1761505976285232000,1.842232177734375,-1.013458251953125,-0.0203399658203125,-0.0324859619140625
1761505976295269000,1.85226904296875,-1.0128021240234375,-0.019561767578125,-0.032440185546875
1761505976305304000,1.862303955078125,-1.0117645263671875,-0.019683837890625,-0.0327606201171875
1761505976315340000,1.872340087890625,-1.0123443603515625,-0.0193023681640625,-0.03216552734375
1761505976325376000,1.8823759765625,-1.0140838623046875,-0.0197601318359375,-0.0326080322265625
1761505976335412000,1.892411865234375,-1.01287841796875,-0.0198516845703125,-0.03289794921875
1761505976345448000,1.902447998046875,-1.0134124755859375,-0.02044677734375,-0.033905029296875
1761505976355484000,1.91248388671875,-1.01275634765625,-0.019866943359375,-0.0325775146484375
1761505976365520100,1.92252001953125,-1.0141754150390625,-0.019775390625,-0.0326080322265625
1761505976375556000,1.93255615234375,-1.013397216796875,-0.020233154296875,-0.0327301025390625
1761505976385592000,1.942592041015625,-1.011688232421875,-0.0210113525390625,-0.032379150390625
1761505976395628000,1.9526279296875,-1.0133819580078125,-0.0205078125,-0.0328826904296875
1761505976405664000,1.9626640625,-1.0127410888671875,-0.020538330078125,-0.0330810546875
1761505976415700000,1.972699951171875,-1.0129547119140625,-0.0198974609375,-0.0333099365234375
1761505976425736000,1.98273583984375,-1.01275634765625,-0.020233154296875,-0.0328369140625
1761505976435772200,1.992772216796875,-1.012664794921875,-0.01934814453125,-0.0335693359375
1761505976445808000,2.00280810546875,-1.0133056640625,-0.0197296142578125,-0.0334014892578125
1761505976455844000,2.012843994140625,-1.01318359375,-0.0196990966796875,-0.0331268310546875
1761505976465880000,2.022880126953125,-1.0133056640625,-0.0191802978515625,-0.0332489013671875
1761505976475916000,2.032916015625,-1.0135650634765625,-0.0194091796875,-0.032745361328125
1761505976485952300,2.0429521484375,-1.0133056640625,-0.0205078125,-0.0326690673828125
1761505976495988200,2.05298828125,-1.0130157470703125,-0.0207366943359375,-0.03240966796875
1761505976506024200,2.063024169921875,-1.0133056640625,-0.0193328857421875,-0.0328521728515625
1761505976516060200,2.07306005859375,-1.013519287109375,-0.0189208984375,-0.03326416015625
1761505976526096100,2.08309619140625,-1.014129638671875,-0.0203399658203125,-0.0337677001953125
1761505976536132000,2.093132080078125,-1.0143280029296875,-0.0195770263671875,-0.0331573486328125
1761505976546168000,2.10316796875,-1.013580322265625,-0.0209503173828125,-0.0324859619140625
1761505976556204000,2.1132041015625,-1.012664794921875,-0.0201873779296875,-0.0329742431640625
1761505976566240000,2.123239990234375,-1.0137939453125,-0.0200653076171875,-0.033477783203125
1761505976576276000,2.13327587890625,-1.013519287109375,-0.01904296875,-0.03363037109375
1761505976586312000,2.14331201171875,-1.0133056640625,-0.01983642578125,-0.0333404541015625
1761505976596348200,2.15334814453125,-1.0126953125,-0.0196380615234375,-0.0335693359375
1761505976606384000,2.163384033203125,-1.012237548828125,-0.0213775634765625,-0.033203125
1761505976616420000,2.173420166015625,-1.01397705078125,-0.0203704833984375,-0.032867431640625
1761505976626456000,2.1834560546875,-1.0123443603515625,-0.019561767578125,-0.032257080078125
1761505976636492000,2.193491943359375,-1.013702392578125,-0.02008056640625,-0.033111572265625
1761505976646528000,2.203528076171875,-1.0134124755859375,-0.021026611328125,-0.03228759765625
1761505976656564000,2.21356396484375,-1.01361083984375,-0.0205535888671875,-0.032867431640625
1761505976666600000,2.223599853515625,-1.013397216796875,-0.0201873779296875,-0.0330810546875
1761505976676636000,2.233635986328125,-1.013275146484375,-0.0200347900390625,-0.0334625244140625
1761505976686672000,2.243671875,-1.0130767822265625,-0.0200347900390625,-0.032623291015625
1761505976696707800,2.253707763671875,-1.01300048828125,-0.0200958251953125,-0.0324859619140625
1761505976706744000,2.263744140625,-1.0134124755859375,-0.0197296142578125,-0.03271484375
1761505976716780000,2.273780029296875,-1.013214111328125,-0.02001953125,-0.0333099365234375
1761505976726816300,2.283816162109375,-1.013519287109375,-0.020782470703125,-0.032928466796875
1761505976736852200,2.293852294921875,-1.0132598876953125,-0.0208892822265625,-0.0333709716796875
1761505976746888200,2.30388818359375,-1.0133209228515625,-0.0198516845703125,-0.0327911376953125
1761505976756924200,2.313924072265625,-1.0129547119140625,-0.019989013671875,-0.032440185546875
1761505976766960000,2.323960205078125,-1.0136566162109375,-0.019287109375,-0.03326416015625
1761505976776996000,2.33399609375,-1.0133209228515625,-0.01983642578125,-0.0326690673828125
1761505976787032000,2.344031982421875,-1.01220703125,-0.02020263671875,-0.0321807861328125
1761505976797068000,2.354068115234375,-1.013427734375,-0.020263671875,-0.0326995849609375
1761505976807104000,2.36410400390625,-1.0141754150390625,-0.0204315185546875,-0.0326690673828125
1761505976817140200,2.37414013671875,-1.013916015625,-0.020233154296875,-0.0329742431640625
1761505976827176200,2.38417626953125,-1.01348876953125,-0.0206298828125,-0.03302001953125
1761505976837212200,2.394212158203125,-1.0126953125,-0.0192108154296875,-0.0332794189453125
1761505976847248100,2.404248046875,-1.0133209228515625,-0.0198974609375,-0.0327606201171875
1761505976857284000,2.4142841796875,-1.01300048828125,-0.0198974609375,-0.0334930419921875
1761505976867320000,2.424320068359375,-1.01336669921875,-0.0189056396484375,-0.03350830078125
1761505976877356000,2.43435595703125,-1.01336669921875,-0.02020263671875,-0.03253173828125
1761505976887392000,2.44439208984375,-1.0131683349609375,-0.02044677734375,-0.0323028564453125
1761505976897428000,2.454427978515625,-1.013763427734375,-0.019683837890625,-0.0332794189453125
1761505976907464000,2.4644638671875,-1.013671875,-0.0200347900390625,-0.0335693359375
1761505976917500000,2.4745,-1.0136566162109375,-0.0204925537109375,-0.032867431640625
1761505976927536000,2.4845361328125,-1.0128173828125,-0.0205841064453125,-0.03302001953125
1761505976937572000,2.494572021484375,-1.0128631591796875,-0.0205230712890625,-0.0332794189453125
1761505976947608000,2.504608154296875,-1.0132293701171875,-0.0199432373046875,-0.0329742431640625
1761505976957644000,2.51464404296875,-1.0128936767578125,-0.019775390625,-0.032470703125
1761505976967679000,2.524678955078125,-1.0127410888671875,-0.0200042724609375,-0.03363037109375
1761505976977715000,2.53471484375,-1.01312255859375,-0.0202484130859375,-0.032470703125
1761505976987751000,2.5447509765625,-1.01251220703125,-0.019989013671875,-0.03240966796875
1761505976997787000,2.554786865234375,-1.0132598876953125,-0.019073486328125,-0.033203125
1761505977007823000,2.564822998046875,-1.0130462646484375,-0.0203857421875,-0.03302001953125
1761505977017859000,2.574859130859375,-1.012359619140625,-0.0201416015625,-0.0335540771484375
1761505977027895000,2.58489501953125,-1.012847900390625,-0.0210418701171875,-0.033355712890625
1761505977037931000,2.594930908203125,-1.0141448974609375,-0.019805908203125,-0.03277587890625
1761505977047967000,2.604967041015625,-1.0131683349609375,-0.020172119140625,-0.0330047607421875
1761505977058003000,2.6150029296875,-1.0135345458984375,-0.019378662109375,-0.0321502685546875
1761505977068039200,2.6250390625,-1.0131378173828125,-0.0208587646484375,-0.03338623046875
1761505977078075100,2.6350751953125,-1.0129241943359375,-0.0201568603515625,-0.0322723388671875
1761505977088112000,2.645112060546875,-1.013092041015625,-0.020721435546875,-0.0325164794921875
1761505977098148000,2.655148193359375,-1.0130462646484375,-0.020172119140625,-0.032958984375
1761505977108184000,2.66518408203125,-1.0132598876953125,-0.019805908203125,-0.0331573486328125
1761505977118220000,2.675219970703125,-1.0130615234375,-0.020721435546875,-0.03302001953125
1761505977128256000,2.685256103515625,-1.01348876953125,-0.020538330078125,-0.0318756103515625
1761505977138292000,2.6952919921875,-1.0124969482421875,-0.0190582275390625,-0.032806396484375
1761505977148328200,2.705328125,-1.013916015625,-0.02056884765625,-0.0330657958984375
1761505977158364400,2.715364501953125,-1.013641357421875,-0.0205230712890625,-0.0335693359375
1761505977168400400,2.725400390625,-1.0124664306640625,-0.0204315185546875,-0.03314208984375
1761505977178436400,2.735436279296875,-1.013031005859375,-0.0194854736328125,-0.0332489013671875
1761505977188472300,2.745472412109375,-1.0127410888671875,-0.0203704833984375,-0.03314208984375
1761505977198508300,2.75550830078125,-1.013427734375,-0.019683837890625,-0.032562255859375
1761505977208544300,2.765544189453125,-1.0135955810546875,-0.02020263671875,-0.0326385498046875
1761505977218580200,2.775580322265625,-1.013580322265625,-0.0196533203125,-0.0329437255859375
1761505977228616200,2.7856162109375,-1.013702392578125,-0.0197601318359375,-0.0330047607421875
1761505977238652200,2.795652099609375,-1.0129852294921875,-0.0201568603515625,-0.032867431640625
1761505977248688000,2.805688232421875,-1.0132598876953125,-0.0205535888671875,-0.032501220703125
1761505977258724000,2.81572412109375,-1.0130615234375,-0.02001953125,-0.0330352783203125
1761505977268760300,2.82576025390625,-1.0125579833984375,-0.0200653076171875,-0.03271484375
1761505977278796300,2.83579638671875,-1.0123748779296875,-0.0197906494140625,-0.03375244140625
1761505977288832300,2.845832275390625,-1.01263427734375,-0.01995849609375,-0.033660888671875
1761505977298868200,2.8558681640625,-1.012969970703125,-0.0200653076171875,-0.03265380859375
1761505977308904200,2.865904296875,-1.0141754150390625,-0.019866943359375,-0.0325927734375
1761505977318940200,2.875940185546875,-1.0142364501953125,-0.0203704833984375,-0.03289794921875
1761505977328976100,2.88597607421875,-1.0140838623046875,-0.020172119140625,-0.031646728515625
1761505977339012000,2.89601220703125,-1.012359619140625,-0.01934814453125,-0.032623291015625
1761505977349048000,2.906048095703125,-1.0129852294921875,-0.0203094482421875,-0.0332183837890625
1761505977359084000,2.916083984375,-1.0127716064453125,-0.0198516845703125,-0.0333251953125
1761505977369120000,2.9261201171875,-1.0131683349609375,-0.020263671875,-0.0326995849609375
1761505977379156200,2.93615625,-1.0146636962890625,-0.019989013671875,-0.0323486328125
1761505977389192200,2.946192138671875,-1.014068603515625,-0.0202484130859375,-0.0331878662109375
1761505977399228200,2.956228271484375,-1.0133209228515625,-0.0197296142578125,-0.033172607421875
1761505977409264000,2.96626416015625,-1.013092041015625,-0.0195465087890625,-0.0328521728515625
1761505977419300000,2.976300048828125,-1.0129852294921875,-0.021209716796875,-0.0322418212890625
1761505977429336000,2.986336181640625,-1.013763427734375,-0.019683837890625,-0.0330352783203125
1761505977439372300,2.996372314453125,-1.0137176513671875,-0.0207672119140625,-0.03314208984375
1761505977449407000,3.006406982421875,-1.013580322265625,-0.0202484130859375,-0.0335845947265625
1761505977459443200,3.016443115234375,-1.0126953125,-0.01995849609375,-0.0334014892578125
1761505977469479200,3.026479248046875,-1.012603759765625,-0.0200042724609375,-0.033111572265625
1761505977479515100,3.03651513671875,-1.013092041015625,-0.0193634033203125,-0.0326995849609375
1761505977489551400,3.04655126953125,-1.0131378173828125,-0.0210418701171875,-0.03302001953125
1761505977499587300,3.05658740234375,-1.014190673828125,-0.01971435546875,-0.0327301025390625
1761505977509623300,3.066623291015625,-1.014495849609375,-0.0196075439453125,-0.0321807861328125
1761505977519659300,3.0766591796875,-1.0135498046875,-0.0200042724609375,-0.0326995849609375
1761505977529695200,3.0866953125,-1.0135498046875,-0.020660400390625,-0.03289794921875
1761505977539731200,3.096731201171875,-1.012237548828125,-0.0208740234375,-0.03302001953125
1761505977549767200,3.10676708984375,-1.0125732421875,-0.020538330078125,-0.0322113037109375
1761505977559803100,3.11680322265625,-1.0131988525390625,-0.0194244384765625,-0.0330963134765625
1761505977569839400,3.12683935546875,-1.01275634765625,-0.0196075439453125,-0.0333404541015625
1761505977579875300,3.136875244140625,-1.0127716064453125,-0.0200042724609375,-0.0326690673828125
1761505977589911300,3.146911376953125,-1.01409912109375,-0.0208892822265625,-0.032623291015625
1761505977599947300,3.156947265625,-1.012451171875,-0.020355224609375,-0.0325927734375
1761505977609983200,3.166983154296875,-1.012969970703125,-0.0205230712890625,-0.0321502685546875
1761505977620019200,3.177019287109375,-1.0137176513671875,-0.019805908203125,-0.0330047607421875
1761505977630055200,3.18705517578125,-1.0132904052734375,-0.0196380615234375,-0.0328216552734375
1761505977640091100,3.197091064453125,-1.0138702392578125,-0.019989013671875,-0.033447265625
1761505977650127000,3.207127197265625,-1.0135498046875,-0.0203704833984375,-0.033172607421875
1761505977660163000,3.2171630859375,-1.0128021240234375,-0.020111083984375,-0.0331573486328125
1761505977670199000,3.227198974609375,-1.013519287109375,-0.0204620361328125,-0.03253173828125
1761505977680235300,3.2372353515625,-1.01300048828125,-0.02001953125,-0.033203125
1761505977690271200,3.247271240234375,-1.0141143798828125,-0.0188140869140625,-0.0330047607421875
1761505977700307200,3.25730712890625,-1.012359619140625,-0.0200347900390625,-0.03302001953125
1761505977710343200,3.26734326171875,-1.0125885009765625,-0.0204315185546875,-0.032928466796875
1761505977720379100,3.277379150390625,-1.013397216796875,-0.020111083984375,-0.0328826904296875
1761505977730415000,3.2874150390625,-1.013092041015625,-0.0192718505859375,-0.0328216552734375
1761505977740451000,3.297451171875,-1.0125274658203125,-0.0196990966796875,-0.0325164794921875
1761505977750487000,3.307487060546875,-1.01202392578125,-0.01953125,-0.0322265625
1761505977760523000,3.31752294921875,-1.0129852294921875,-0.019775390625,-0.0334625244140625
1761505977770559000,3.32755908203125,-1.0126495361328125,-0.020294189453125,-0.0334320068359375
1761505977780595200,3.33759521484375,-1.0122833251953125,-0.0189361572265625,-0.0330810546875
1761505977790631200,3.347631103515625,-1.0136260986328125,-0.018829345703125,-0.0332794189453125
1761505977800667400,3.35766748046875,-1.0139617919921875,-0.0200958251953125,-0.033447265625
1761505977810703400,3.367703369140625,-1.013458251953125,-0.01995849609375,-0.0327911376953125
1761505977820738000,3.377738037109375,-1.0129547119140625,-0.020904541015625,-0.032928466796875
1761505977830774300,3.387774169921875,-1.0140838623046875,-0.02093505859375,-0.0323638916015625
1761505977840810200,3.397810302734375,-1.01318359375,-0.02032470703125,-0.0327301025390625
1761505977850846200,3.40784619140625,-1.0131072998046875,-0.019927978515625,-0.033660888671875
1761505977860882200,3.417882080078125,-1.01336669921875,-0.0196533203125,-0.0324249267578125
1761505977870918400,3.42791845703125,-1.013275146484375,-0.019775390625,-0.03289794921875
1761505977880954400,3.437954345703125,-1.01300048828125,-0.0195770263671875,-0.0330810546875
1761505977890990300,3.447990234375,-1.0137939453125,-0.019744873046875,-0.0326995849609375
1761505977901026300,3.4580263671875,-1.0131072998046875,-0.0199127197265625,-0.0333709716796875
1761505977911062300,3.468062255859375,-1.013336181640625,-0.02020263671875,-0.033721923828125
1761505977921098200,3.47809814453125,-1.0137176513671875,-0.0201416015625,-0.0330352783203125
1761505977931134200,3.48813427734375,-1.0126800537109375,-0.020477294921875,-0.0325164794921875
1761505977941170200,3.498170166015625,-1.012969970703125,-0.0201263427734375,-0.03271484375
1761505977951206100,3.5082060546875,-1.01312255859375,-0.02105712890625,-0.03326416015625
1761505977961242000,3.5182421875,-1.0130462646484375,-0.0188446044921875,-0.03271484375
1761505977971278000,3.528278076171875,-1.0128021240234375,-0.019195556640625,-0.03277587890625
1761505977981314300,3.538314208984375,-1.013427734375,-0.0192718505859375,-0.0321807861328125
1761505977991350300,3.548350341796875,-1.01373291015625,-0.020111083984375,-0.0326690673828125
1761505978001386200,3.55838623046875,-1.0139617919921875,-0.0204010009765625,-0.03277587890625
1761505978011422200,3.568422119140625,-1.012054443359375,-0.020477294921875,-0.03350830078125
1761505978021458200,3.578458251953125,-1.0128631591796875,-0.02032470703125,-0.033111572265625
1761505978031494100,3.588494140625,-1.013092041015625,-0.0197906494140625,-0.03228759765625
1761505978041530000,3.598530029296875,-1.01275634765625,-0.0197296142578125,-0.0323638916015625
1761505978051566000,3.608566162109375,-1.012939453125,-0.019989013671875,-0.03271484375
1761505978061602000,3.61860205078125,-1.0133514404296875,-0.0201263427734375,-0.0322723388671875
1761505978071638000,3.628637939453125,-1.0137786865234375,-0.020263671875,-0.0332489013671875
1761505978081673700,3.638673828125,-1.0137481689453125,-0.020172119140625,-0.033447265625
1761505978091709700,3.648709716796875,-1.01220703125,-0.020477294921875,-0.0332489013671875
1761505978101745700,3.65874560546875,-1.01312255859375,-0.019500732421875,-0.0329132080078125
1761505978111781600,3.66878173828125,-1.013275146484375,-0.0203094482421875,-0.0330047607421875
1761505978121817600,3.678817626953125,-1.014617919921875,-0.019317626953125,-0.032928466796875
1761505978131853600,3.688853515625,-1.014404296875,-0.020172119140625,-0.0334014892578125
1761505978141888500,3.698888427734375,-1.0132598876953125,-0.0200042724609375,-0.0338134765625
1761505978151924700,3.7089248046875,-1.0136260986328125,-0.02032470703125,-0.0328521728515625
1761505978161960700,3.718960693359375,-1.01348876953125,-0.019866943359375,-0.03240966796875
1761505978171996700,3.72899658203125,-1.0129547119140625,-0.0200347900390625,-0.03326416015625
1761505978182032600,3.73903271484375,-1.0132293701171875,-0.0208282470703125,-0.033172607421875
1761505978192068600,3.749068603515625,-1.01336669921875,-0.0199737548828125,-0.0324859619140625
1761505978202104600,3.7591044921875,-1.012725830078125,-0.0204925537109375,-0.0331268310546875
1761505978212140500,3.769140625,-1.013397216796875,-0.0202789306640625,-0.0328216552734375
1761505978222176500,3.779176513671875,-1.0131988525390625,-0.0190582275390625,-0.0337371826171875
1761505978232212500,3.78921240234375,-1.01275634765625,-0.0196990966796875,-0.0334625244140625
1761505978242248400,3.79924853515625,-1.013824462890625,-0.0199127197265625,-0.0332489013671875
1761505978252284400,3.809284423828125,-1.0149993896484375,-0.0204925537109375,-0.033172607421875
1761505978262320600,3.819320556640625,-1.014190673828125,-0.0201263427734375,-0.033416748046875
1761505978272356600,3.829356689453125,-1.012725830078125,-0.019317626953125,-0.0328521728515625
1761505978282392600,3.839392578125,-1.01348876953125,-0.02044677734375,-0.0334625244140625
1761505978292428500,3.849428466796875,-1.0122528076171875,-0.020477294921875,-0.03265380859375
1761505978302464500,3.859464599609375,-1.01348876953125,-0.019805908203125,-0.0325927734375
1761505978312500500,3.86950048828125,-1.01397705078125,-0.0201568603515625,-0.032928466796875
1761505978322536400,3.879536376953125,-1.013214111328125,-0.019500732421875,-0.032867431640625
1761505978332572400,3.889572509765625,-1.0127716064453125,-0.01983642578125,-0.032684326171875
1761505978342608400,3.8996083984375,-1.0140838623046875,-0.019744873046875,-0.033111572265625
1761505978352644600,3.90964453125,-1.0127105712890625,-0.0205230712890625,-0.0328369140625
1761505978362680600,3.9196806640625,-1.0135650634765625,-0.0211334228515625,-0.0334014892578125
1761505978372716500,3.929716552734375,-1.0131683349609375,-0.0195770263671875,-0.032989501953125
1761505978382752800,3.939752685546875,-1.0138397216796875,-0.019927978515625,-0.032012939453125
1761505978392788700,3.949788818359375,-1.013519287109375,-0.01898193359375,-0.032958984375
1761505978402824700,3.95982470703125,-1.0125732421875,-0.019744873046875,-0.0333099365234375
1761505978412859600,3.969859619140625,-1.013092041015625,-0.020477294921875,-0.033416748046875
1761505978422895600,3.9798955078125,-1.01416015625,-0.0204010009765625,-0.0330047607421875
1761505978432931600,3.989931640625,-1.014739990234375,-0.01953125,-0.0324249267578125
1761505978442967600,3.999967529296875,-1.0143585205078125,-0.020111083984375,-0.0315704345703125
1761505978453003500,4.01000341796875,-1.013458251953125,-0.01947021484375,-0.0328369140625
1761505978463038700,4.020038818359375,-1.0135955810546875,-0.0201873779296875,-0.0342254638671875
1761505978473074700,4.03007470703125,-1.0132293701171875,-0.020172119140625,-0.032928466796875
1761505978483110700,4.040110595703125,-1.0130157470703125,-0.02032470703125,-0.0340728759765625
1761505978493146600,4.050146728515625,-1.01239013671875,-0.01898193359375,-0.03363037109375
1761505978503182600,4.0601826171875,-1.0129241943359375,-0.020294189453125,-0.0332794189453125
1761505978513218600,4.070218505859375,-1.01287841796875,-0.0201568603515625,-0.0322723388671875
1761505978523254500,4.080254638671875,-1.0137176513671875,-0.01959228515625,-0.0324859619140625
1761505978533290800,4.090290771484375,-1.0132904052734375,-0.0206451416015625,-0.0325164794921875
1761505978543326700,4.10032666015625,-1.013580322265625,-0.020050048828125,-0.032867431640625
1761505978553361700,4.110361572265625,-1.0131988525390625,-0.02044677734375,-0.0324249267578125
1761505978563397600,4.120397705078125,-1.01312255859375,-0.019683837890625,-0.0336456298828125
1761505978573433600,4.13043359375,-1.0138397216796875,-0.020416259765625,-0.033538818359375
1761505978583469600,4.140469482421875,-1.0143890380859375,-0.0196685791015625,-0.032623291015625
1761505978593505500,4.150505615234375,-1.013946533203125,-0.0200347900390625,-0.032257080078125
1761505978603541500,4.16054150390625,-1.01312255859375,-0.021087646484375,-0.0332489013671875
1761505978613577700,4.17057763671875,-1.0133056640625,-0.01983642578125,-0.0336761474609375
1761505978623613700,4.18061376953125,-1.01348876953125,-0.019622802734375,-0.032867431640625
1761505978633649700,4.190649658203125,-1.0139007568359375,-0.020477294921875,-0.0328521728515625
1761505978643685600,4.200685546875,-1.0130767822265625,-0.0203399658203125,-0.03350830078125
1761505978653721600,4.2107216796875,-1.01483154296875,-0.0202484130859375,-0.033447265625
1761505978663757600,4.220757568359375,-1.0138397216796875,-0.019622802734375,-0.0329132080078125
1761505978673793500,4.23079345703125,-1.01409912109375,-0.02044677734375,-0.0335693359375
1761505978683829500,4.24082958984375,-1.0138092041015625,-0.0202789306640625,-0.0326080322265625
1761505978693865500,4.250865478515625,-1.01324462890625,-0.02056884765625,-0.033203125
1761505978703901400,4.2609013671875,-1.0128326416015625,-0.020904541015625,-0.0328369140625
1761505978713937400,4.2709375,-1.0127410888671875,-0.0206756591796875,-0.0326995849609375
1761505978723973600,4.2809736328125,-1.013153076171875,-0.0198822021484375,-0.0337371826171875
1761505978734009600,4.291009521484375,-1.01348876953125,-0.019744873046875,-0.0334014892578125
1761505978744045600,4.301045654296875,-1.0131072998046875,-0.019500732421875,-0.032867431640625
1761505978754081500,4.31108154296875,-1.0124664306640625,-0.019439697265625,-0.0331573486328125
1761505978764117500,4.321117431640625,-1.0136566162109375,-0.0204925537109375,-0.0335235595703125
1761505978774153500,4.331153564453125,-1.013336181640625,-0.0205841064453125,-0.03253173828125
1761505978784189400,4.341189453125,-1.013153076171875,-0.0208282470703125,-0.0331573486328125
1761505978794224400,4.351224365234375,-1.013885498046875,-0.0194091796875,-0.0338592529296875
1761505978804260600,4.361260498046875,-1.013916015625,-0.02032470703125,-0.0330810546875
1761505978814296600,4.371296630859375,-1.01336669921875,-0.020172119140625,-0.0332489013671875
1761505978824332500,4.38133251953125,-1.0134429931640625,-0.0200958251953125,-0.0336151123046875
1761505978834368500,4.391368408203125,-1.0131072998046875,-0.0201568603515625,-0.0329742431640625
1761505978844404500,4.401404541015625,-1.013031005859375,-0.0206146240234375,-0.0326385498046875
1761505978854440400,4.4114404296875,-1.0122833251953125,-0.0198211669921875,-0.033172607421875
1761505978864476700,4.4214765625,-1.0120391845703125,-0.0208282470703125,-0.0330657958984375
1761505978874512600,4.4315126953125,-1.01312255859375,-0.0207366943359375,-0.0326080322265625
1761505978884548600,4.441548583984375,-1.013458251953125,-0.0206298828125,-0.0327911376953125
1761505978894584600,4.45158447265625,-1.0124359130859375,-0.019439697265625,-0.0329132080078125
1761505978904620500,4.46162060546875,-1.0126190185546875,-0.019683837890625,-0.0324554443359375
1761505978914656500,4.471656494140625,-1.0130615234375,-0.0196533203125,-0.0330047607421875
1761505978924692700,4.481692626953125,-1.01300048828125,-0.019622802734375,-0.0326690673828125
1761505978934728700,4.491728759765625,-1.0136260986328125,-0.0200653076171875,-0.0332489013671875
1761505978944764700,4.5017646484375,-1.01385498046875,-0.01971435546875,-0.0330963134765625
1761505978954800600,4.511800537109375,-1.013427734375,-0.0209197998046875,-0.032867431640625
1761505978964836600,4.521836669921875,-1.0129547119140625,-0.0202789306640625,-0.0331573486328125
1761505978974872600,4.53187255859375,-1.01385498046875,-0.0197296142578125,-0.0320892333984375
1761505978984908500,4.541908447265625,-1.0144805908203125,-0.0207977294921875,-0.0327911376953125
1761505978994944500,4.551944580078125,-1.0130157470703125,-0.01947021484375,-0.033477783203125
1761505979004980500,4.56198046875,-1.013519287109375,-0.019439697265625,-0.032958984375
1761505979015016400,4.572016357421875,-1.0136566162109375,-0.020904541015625,-0.03271484375
1761505979025051600,4.5820517578125,-1.0137176513671875,-0.020050048828125,-0.032623291015625
1761505979035089400,4.59208935546875,-1.0133819580078125,-0.0199737548828125,-0.0330963134765625
1761505979045125400,4.60212548828125,-1.0139617919921875,-0.020172119140625,-0.0328826904296875
1761505979055161600,4.61216162109375,-1.0134124755859375,-0.0203094482421875,-0.0334014892578125
1761505979065197600,4.622197509765625,-1.013916015625,-0.0204620361328125,-0.031982421875
1761505979075233500,4.632233642578125,-1.0134429931640625,-0.0198822021484375,-0.0329742431640625
1761505979085270000,4.64227001953125,-1.0131072998046875,-0.019134521484375,-0.0333709716796875
1761505979095306000,4.652305908203125,-1.0122528076171875,-0.0201263427734375,-0.032470703125
1761505979105342000,4.662342041015625,-1.0130157470703125,-0.0198974609375,-0.0329742431640625
1761505979115378000,4.6723779296875,-1.0132904052734375,-0.020050048828125,-0.032867431640625
1761505979125414000,4.682413818359375,-1.013275146484375,-0.02056884765625,-0.0334625244140625
1761505979135448800,4.69244873046875,-1.0122528076171875,-0.0201416015625,-0.0328216552734375
1761505979145484800,4.70248486328125,-1.01239013671875,-0.02001953125,-0.032562255859375
1761505979155521000,4.71252099609375,-1.013397216796875,-0.01995849609375,-0.033447265625
1761505979165557000,4.722556884765625,-1.0127716064453125,-0.0198516845703125,-0.0333709716796875
1761505979175593000,4.732593017578125,-1.011871337890625,-0.0201873779296875,-0.03265380859375
1761505979185629000,4.74262890625,-1.0129547119140625,-0.0210113525390625,-0.033111572265625
1761505979195665000,4.752664794921875,-1.0130157470703125,-0.020050048828125,-0.0331878662109375
1761505979205700900,4.762700927734375,-1.01239013671875,-0.0204315185546875,-0.03302001953125
1761505979215736800,4.77273681640625,-1.012847900390625,-0.0204315185546875,-0.032073974609375
1761505979225772800,4.782772705078125,-1.012725830078125,-0.0201416015625,-0.0329742431640625
1761505979235808800,4.792808837890625,-1.0121612548828125,-0.01995849609375,-0.0331878662109375
1761505979245844700,4.8028447265625,-1.0131988525390625,-0.0191192626953125,-0.03271484375
1761505979255881000,4.812880859375,-1.0121002197265625,-0.0201873779296875,-0.032989501953125
1761505979265917000,4.8229169921875,-1.0124359130859375,-0.0204315185546875,-0.033172607421875
1761505979275953200,4.832953125,-1.013916015625,-0.020263671875,-0.0330963134765625
1761505979285989000,4.842989013671875,-1.0131378173828125,-0.019805908203125,-0.0324554443359375
1761505979296025000,4.853025146484375,-1.0136871337890625,-0.01959228515625,-0.03289794921875
1761505979306061000,4.86306103515625,-1.01300048828125,-0.019805908203125,-0.0328521728515625
1761505979316097000,4.873096923828125,-1.0130615234375,-0.0202484130859375,-0.032470703125
1761505979326133000,4.883133056640625,-1.0132904052734375,-0.0192718505859375,-0.0333404541015625
1761505979336169000,4.8931689453125,-1.01409912109375,-0.0196533203125,-0.033416748046875
1761505979346205000,4.903204833984375,-1.012847900390625,-0.0200347900390625,-0.0327606201171875
1761505979356241000,4.913240966796875,-1.013153076171875,-0.019775390625,-0.0329437255859375
1761505979366276900,4.92327685546875,-1.0128631591796875,-0.0194854736328125,-0.0331573486328125
1761505979376313000,4.93331298828125,-1.0129852294921875,-0.0201263427734375,-0.031982421875
1761505979386348000,4.94334814453125,-1.013885498046875,-0.0202789306640625,-0.033050537109375
1761505979396384000,4.953384033203125,-1.0142822265625,-0.0198211669921875,-0.0329437255859375
1761505979406420000,4.963419921875,-1.012969970703125,-0.01983642578125,-0.032806396484375
1761505979416456000,4.9734560546875,-1.0130462646484375,-0.019378662109375,-0.0324554443359375
1761505979426492000,4.983491943359375,-1.0122528076171875,-0.0196380615234375,-0.032501220703125
1761505979436527900,4.99352783203125,-1.013153076171875,-0.0203094482421875,-0.0329742431640625
1761505979446563800,5.003563720703125,-1.0134735107421875,-0.0199432373046875,-0.0336456298828125
1761505979456600000,5.01360009765625,-1.0123748779296875,-0.02044677734375,-0.033050537109375
1761505979466636000,5.023635986328125,-1.013214111328125,-0.0205841064453125,-0.0328521728515625
1761505979476672000,5.033672119140625,-1.0135498046875,-0.019927978515625,-0.032501220703125
1761505979486708000,5.0437080078125,-1.0130615234375,-0.0192718505859375,-0.0328521728515625
1761505979496744000,5.053743896484375,-1.0134735107421875,-0.0205535888671875,-0.0320587158203125
1761505979506780000,5.06377978515625,-1.0127716064453125,-0.020263671875,-0.0323333740234375
1761505979516816000,5.07381591796875,-1.012603759765625,-0.0202178955078125,-0.0327606201171875
1761505979526851800,5.083851806640625,-1.0124664306640625,-0.019866943359375,-0.033660888671875
1761505979536887800,5.0938876953125,-1.013153076171875,-0.02008056640625,-0.0329742431640625
1761505979546923800,5.103923828125,-1.0128936767578125,-0.0203857421875,-0.0334320068359375
1761505979556959700,5.113959716796875,-1.01336669921875,-0.0204010009765625,-0.033416748046875
1761505979566996000,5.123995849609375,-1.0130615234375,-0.019989013671875,-0.03277587890625
1761505979577032000,5.134031982421875,-1.0129547119140625,-0.0198822021484375,-0.033447265625
1761505979587068000,5.14406787109375,-1.0125274658203125,-0.019561767578125,-0.0324859619140625
1761505979597103900,5.154103759765625,-1.0135040283203125,-0.0199737548828125,-0.032867431640625
1761505979607139800,5.164139892578125,-1.013397216796875,-0.0200958251953125,-0.033111572265625
1761505979617176000,5.174176025390625,-1.01226806640625,-0.021331787109375,-0.0336456298828125
1761505979627210800,5.184210693359375,-1.0124359130859375,-0.0201263427734375,-0.03216552734375
1761505979637246700,5.194246826171875,-1.012115478515625,-0.0190277099609375,-0.0332183837890625
1761505979647283000,5.204282958984375,-1.013153076171875,-0.0205230712890625,-0.032928466796875
1761505979657319000,5.21431884765625,-1.0107879638671875,-0.02001953125,-0.0328521728515625
1761505979667355000,5.22435498046875,-1.0128326416015625,-0.020172119140625,-0.0330352783203125
1761505979677391000,5.23439111328125,-1.0136566162109375,-0.0206451416015625,-0.03302001953125
1761505979687427000,5.244427001953125,-1.013336181640625,-0.0214080810546875,-0.03302001953125
1761505979697463000,5.254463134765625,-1.0131988525390625,-0.020599365234375,-0.0326080322265625
1761505979707499000,5.2644990234375,-1.013275146484375,-0.0201416015625,-0.03326416015625
1761505979717535000,5.274534912109375,-1.01397705078125,-0.019927978515625,-0.0327911376953125
1761505979727571000,5.284571044921875,-1.0127105712890625,-0.0205535888671875,-0.03350830078125
1761505979737607000,5.29460693359375,-1.0131378173828125,-0.0204620361328125,-0.03277587890625
1761505979747643000,5.304642822265625,-1.0134124755859375,-0.0196075439453125,-0.0324554443359375
1761505979757679000,5.31467919921875,-1.0125885009765625,-0.0197296142578125,-0.0330963134765625
1761505979767715000,5.324715087890625,-1.01239013671875,-0.019256591796875,-0.0340118408203125
1761505979777751000,5.3347509765625,-1.013702392578125,-0.0199737548828125,-0.033111572265625
1761505979787787000,5.344787109375,-1.012603759765625,-0.0206146240234375,-0.0332489013671875
1761505979797823000,5.354822998046875,-1.0141754150390625,-0.020172119140625,-0.032562255859375
1761505979807859000,5.36485888671875,-1.013153076171875,-0.020477294921875,-0.032440185546875
1761505979817895000,5.37489501953125,-1.0134429931640625,-0.0199737548828125,-0.0328216552734375
1761505979827931000,5.384930908203125,-1.013336181640625,-0.01995849609375,-0.0334320068359375
1761505979837966800,5.394966796875,-1.0128021240234375,-0.0198516845703125,-0.0333404541015625
1761505979848002800,5.4050029296875,-1.0126190185546875,-0.01971435546875,-0.032623291015625
1761505979858038000,5.4150380859375,-1.0130157470703125,-0.0198822021484375,-0.032867431640625
1761505979868074000,5.425073974609375,-1.0124359130859375,-0.0201568603515625,-0.0331878662109375
1761505979878110000,5.43510986328125,-1.012725830078125,-0.019866943359375,-0.0337677001953125
1761505979888146000,5.44514599609375,-1.0130157470703125,-0.01971435546875,-0.03302001953125
1761505979898182000,5.455181884765625,-1.0131683349609375,-0.019256591796875,-0.032623291015625
1761505979908217900,5.4652177734375,-1.012847900390625,-0.019775390625,-0.033172607421875
1761505979918253800,5.47525390625,-1.01300048828125,-0.0206146240234375,-0.0323333740234375
1761505979928289800,5.485289794921875,-1.0130462646484375,-0.02032470703125,-0.0329742431640625
1761505979938325800,5.49532568359375,-1.0135650634765625,-0.0196533203125,-0.03289794921875
1761505979948362000,5.505362060546875,-1.012939453125,-0.020416259765625,-0.0329742431640625
1761505979958398000,5.51539794921875,-1.013397216796875,-0.019989013671875,-0.033233642578125
1761505979968434000,5.525433837890625,-1.0133819580078125,-0.0193939208984375,-0.032745361328125
1761505979978470000,5.535469970703125,-1.0131378173828125,-0.0195465087890625,-0.0327301025390625
1761505979988505900,5.545505859375,-1.012908935546875,-0.02001953125,-0.032867431640625
1761505979998541800,5.555541748046875,-1.01348876953125,-0.0197906494140625,-0.03289794921875
1761505980008577800,5.565577880859375,-1.0137176513671875,-0.019927978515625,-0.0329742431640625
1761505980018614000,5.575614013671875,-1.0131683349609375,-0.0207061767578125,-0.0325927734375
1761505980028650000,5.58564990234375,-1.01312255859375,-0.0199432373046875,-0.032928466796875
1761505980038686000,5.59568603515625,-1.0130767822265625,-0.0202178955078125,-0.0336761474609375
1761505980048722000,5.605721923828125,-1.0140228271484375,-0.019989013671875,-0.03240966796875
1761505980058758100,5.615758056640625,-1.0133056640625,-0.0191192626953125,-0.0330657958984375
1761505980068794000,5.625794189453125,-1.012908935546875,-0.02020263671875,-0.033111572265625
1761505980078829000,5.6358291015625,-1.012603759765625,-0.0200653076171875,-0.03338623046875
1761505980088864000,5.645864013671875,-1.01312255859375,-0.019775390625,-0.03302001953125
1761505980098900000,5.65589990234375,-1.01214599609375,-0.0196685791015625,-0.0329437255859375
1761505980108936200,5.665936279296875,-1.0122222900390625,-0.0205841064453125,-0.033050537109375
1761505980118972200,5.67597216796875,-1.013458251953125,-0.0204925537109375,-0.0330810546875
1761505980129008000,5.686008056640625,-1.01263427734375,-0.020599365234375,-0.0327911376953125
1761505980139044000,5.696044189453125,-1.0128936767578125,-0.020965576171875,-0.03265380859375
1761505980149080000,5.706080078125,-1.01251220703125,-0.0202789306640625,-0.032623291015625
1761505980159116000,5.716115966796875,-1.0128021240234375,-0.02044677734375,-0.0332794189453125
1761505980169152000,5.726152099609375,-1.0127105712890625,-0.0200347900390625,-0.0332794189453125
1761505980179188000,5.73618798828125,-1.0125885009765625,-0.0196380615234375,-0.033050537109375
1761505980189224000,5.746223876953125,-1.0130615234375,-0.0202789306640625,-0.032928466796875
1761505980199260000,5.756260009765625,-1.0128021240234375,-0.0213470458984375,-0.032867431640625
1761505980209296000,5.7662958984375,-1.0133056640625,-0.02099609375,-0.0331878662109375
1761505980219332000,5.77633203125,-1.0133514404296875,-0.0196685791015625,-0.033416748046875
1761505980229368000,5.7863681640625,-1.01263427734375,-0.02032470703125,-0.032623291015625
1761505980239404000,5.796404052734375,-1.01336669921875,-0.0201568603515625,-0.0336151123046875
1761505980249440000,5.80643994140625,-1.01318359375,-0.020355224609375,-0.032470703125
1761505980259476000,5.81647607421875,-1.0131683349609375,-0.0195159912109375,-0.03363037109375
1761505980269512200,5.82651220703125,-1.0131378173828125,-0.019683837890625,-0.0327301025390625
1761505980279548200,5.836548095703125,-1.0137786865234375,-0.0204315185546875,-0.0323028564453125
1761505980289582800,5.846582763671875,-1.0129241943359375,-0.0205535888671875,-0.0325469970703125
1761505980299619000,5.856619140625,-1.01300048828125,-0.0204315185546875,-0.032989501953125
1761505980309655000,5.866655029296875,-1.01318359375,-0.0205841064453125,-0.033111572265625
1761505980319691300,5.876691162109375,-1.01300048828125,-0.0205841064453125,-0.033477783203125
1761505980329727200,5.886727294921875,-1.012908935546875,-0.020050048828125,-0.03338623046875
1761505980339763200,5.89676318359375,-1.0128326416015625,-0.0198211669921875,-0.03240966796875
1761505980349799200,5.906799072265625,-1.0138092041015625,-0.0198211669921875,-0.032623291015625
1761505980359835100,5.916835205078125,-1.012847900390625,-0.020111083984375,-0.0320281982421875
1761505980369871000,5.92687109375,-1.01287841796875,-0.02008056640625,-0.0322418212890625
1761505980379907000,5.936906982421875,-1.01263427734375,-0.0195465087890625,-0.033355712890625
1761505980389943000,5.946943115234375,-1.0126800537109375,-0.0199432373046875,-0.0329742431640625
1761505980399979000,5.95697900390625,-1.0130767822265625,-0.0193634033203125,-0.033111572265625
1761505980410015200,5.96701513671875,-1.0128021240234375,-0.0203704833984375,-0.033172607421875
1761505980420051200,5.97705126953125,-1.01361083984375,-0.0210418701171875,-0.032318115234375
1761505980430087200,5.987087158203125,-1.012115478515625,-0.019805908203125,-0.033172607421875
1761505980440123100,5.997123046875,-1.01153564453125,-0.019866943359375,-0.032867431640625
1761505980450159000,6.0071591796875,-1.01214599609375,-0.0205535888671875,-0.0323944091796875
1761505980460195000,6.017195068359375,-1.0121307373046875,-0.0210113525390625,-0.0328369140625
1761505980470231000,6.02723095703125,-1.0128631591796875,-0.0202484130859375,-0.0325775146484375
1761505980480267000,6.03726708984375,-1.0133819580078125,-0.0205230712890625,-0.0328216552734375
1761505980490303000,6.047302978515625,-1.0133056640625,-0.0194244384765625,-0.0329742431640625
1761505980500339000,6.0573388671875,-1.012847900390625,-0.0199432373046875,-0.0325927734375
1761505980510375000,6.067375,-1.01239013671875,-0.0198974609375,-0.032623291015625
1761505980520410000,6.07741015625,-1.0125579833984375,-0.0201263427734375,-0.032623291015625
1761505980530446000,6.087446044921875,-1.013153076171875,-0.0203704833984375,-0.0326995849609375
1761505980540482000,6.09748193359375,-1.0137481689453125,-0.01885986328125,-0.03271484375
1761505980550518000,6.10751806640625,-1.01348876953125,-0.0201873779296875,-0.0327606201171875
1761505980560554000,6.117553955078125,-1.012786865234375,-0.020111083984375,-0.0327301025390625
1761505980570590000,6.12758984375,-1.0135498046875,-0.0194549560546875,-0.0330810546875
1761505980580626000,6.1376259765625,-1.0139007568359375,-0.0202789306640625,-0.032989501953125
1761505980590662000,6.147661865234375,-1.0140533447265625,-0.019805908203125,-0.0327606201171875
1761505980600698000,6.157697998046875,-1.012420654296875,-0.0191192626953125,-0.0325164794921875
1761505980610734000,6.167734130859375,-1.013275146484375,-0.02069091796875,-0.0328369140625
1761505980620770000,6.17777001953125,-1.01287841796875,-0.0203857421875,-0.032257080078125
1761505980630806000,6.187805908203125,-1.0125732421875,-0.0196075439453125,-0.0331878662109375
1761505980640842000,6.197842041015625,-1.0137939453125,-0.021087646484375,-0.032135009765625
1761505980650878000,6.2078779296875,-1.0122833251953125,-0.0202484130859375,-0.0322265625
1761505980660914200,6.2179140625,-1.013427734375,-0.0200958251953125,-0.03314208984375
1761505980670950100,6.2279501953125,-1.01287841796875,-0.0199737548828125,-0.032867431640625
1761505980680986000,6.237986083984375,-1.0130615234375,-0.0197601318359375,-0.032684326171875
1761505980691022000,6.24802197265625,-1.0130615234375,-0.0204315185546875,-0.032501220703125
1761505980701058000,6.25805810546875,-1.013336181640625,-0.0207061767578125,-0.0330657958984375
1761505980711094000,6.268093994140625,-1.0128326416015625,-0.0199127197265625,-0.0330810546875
1761505980721130200,6.278130126953125,-1.01324462890625,-0.02001953125,-0.0328826904296875
1761505980731165200,6.288165283203125,-1.01348876953125,-0.020294189453125,-0.0327911376953125
1761505980741201200,6.298201171875,-1.013580322265625,-0.0203857421875,-0.03265380859375
1761505980751237000,6.308237060546875,-1.01318359375,-0.0196990966796875,-0.033050537109375
1761505980761273000,6.318273193359375,-1.0128326416015625,-0.0198211669921875,-0.033172607421875
1761505980771309000,6.32830908203125,-1.013763427734375,-0.020660400390625,-0.03302001953125
1761505980781345000,6.338344970703125,-1.0126495361328125,-0.0198822021484375,-0.032440185546875
1761505980791381200,6.34838134765625,-1.0132598876953125,-0.01995849609375,-0.0326690673828125
1761505980801417200,6.358417236328125,-1.0132293701171875,-0.0201568603515625,-0.0330810546875
1761505980811453200,6.368453125,-1.01324462890625,-0.0198822021484375,-0.0328521728515625
1761505980821489200,6.3784892578125,-1.01287841796875,-0.0200653076171875,-0.03228759765625
1761505980831525000,6.388525146484375,-1.011932373046875,-0.0202789306640625,-0.033050537109375
1761505980841561000,6.39856103515625,-1.0125274658203125,-0.0201416015625,-0.0330352783203125
1761505980851597000,6.40859716796875,-1.0126190185546875,-0.0195159912109375,-0.0324859619140625
1761505980861633000,6.418633056640625,-1.0125732421875,-0.0198516845703125,-0.0325164794921875
1761505980871669000,6.4286689453125,-1.0136871337890625,-0.0199127197265625,-0.0328826904296875
1761505980881705000,6.438705078125,-1.0138092041015625,-0.0201873779296875,-0.0325927734375
1761505980891741000,6.448740966796875,-1.011962890625,-0.0202178955078125,-0.0317535400390625
1761505980901777200,6.458777099609375,-1.0138397216796875,-0.0196075439453125,-0.0335235595703125
1761505980911813000,6.468813232421875,-1.014129638671875,-0.0205841064453125,-0.033294677734375
1761505980921849000,6.47884912109375,-1.012359619140625,-0.0205841064453125,-0.0322723388671875
1761505980931885000,6.488885009765625,-1.0135955810546875,-0.0198516845703125,-0.0331878662109375
1761505980941920000,6.498919921875,-1.0140838623046875,-0.0206451416015625,-0.03277587890625
1761505980951956000,6.5089560546875,-1.0141143798828125,-0.0203857421875,-0.03326416015625
1761505980961992000,6.518991943359375,-1.0125579833984375,-0.019561767578125,-0.0330352783203125
1761505980972028000,6.52902783203125,-1.012969970703125,-0.020172119140625,-0.033172607421875
1761505980982064000,6.539064208984375,-1.0134429931640625,-0.0202789306640625,-0.033050537109375
1761505980992100000,6.54910009765625,-1.0126495361328125,-0.0208587646484375,-0.03253173828125
1761505981002136000,6.559135986328125,-1.012725830078125,-0.01953125,-0.03277587890625
1761505981012172000,6.569172119140625,-1.0127410888671875,-0.0193328857421875,-0.0330963134765625
1761505981022208000,6.5792080078125,-1.0130615234375,-0.0206451416015625,-0.0330352783203125
1761505981032244000,6.589243896484375,-1.012481689453125,-0.019866943359375,-0.033172607421875
1761505981042280000,6.599280029296875,-1.0136566162109375,-0.019927978515625,-0.0326385498046875
1761505981052316000,6.60931591796875,-1.013397216796875,-0.020172119140625,-0.032806396484375
1761505981062352100,6.61935205078125,-1.0125732421875,-0.0194854736328125,-0.0332794189453125
1761505981072388000,6.62938818359375,-1.0128173828125,-0.02008056640625,-0.0332183837890625
1761505981082424000,6.639424072265625,-1.014434814453125,-0.0200042724609375,-0.032440185546875
1761505981092461300,6.64946142578125,-1.013519287109375,-0.0203399658203125,-0.032684326171875
1761505981102497300,6.659497314453125,-1.0136260986328125,-0.0208892822265625,-0.0325775146484375
1761505981112533200,6.669533203125,-1.0131988525390625,-0.020904541015625,-0.03326416015625
1761505981122569200,6.6795693359375,-1.012603759765625,-0.02008056640625,-0.0334320068359375
1761505981132605400,6.68960546875,-1.0130615234375,-0.0200347900390625,-0.0331268310546875
1761505981142640400,6.699640380859375,-1.0128173828125,-0.019927978515625,-0.0323944091796875
1761505981152676400,6.70967626953125,-1.01336669921875,-0.0202178955078125,-0.0326080322265625
1761505981162712300,6.71971240234375,-1.0138702392578125,-0.0203399658203125,-0.032989501953125
1761505981172748300,6.729748291015625,-1.0129852294921875,-0.0195770263671875,-0.0338897705078125
1761505981182784500,6.739784423828125,-1.0137481689453125,-0.019378662109375,-0.03369140625
1761505981192820500,6.749820556640625,-1.013641357421875,-0.0198974609375,-0.033294677734375
1761505981202856400,6.7598564453125,-1.0137481689453125,-0.01934814453125,-0.0328369140625
1761505981212892400,6.769892333984375,-1.0135498046875,-0.0205230712890625,-0.0331268310546875
1761505981222928600,6.7799287109375,-1.0130462646484375,-0.0203399658203125,-0.0332489013671875
1761505981232964600,6.789964599609375,-1.0129241943359375,-0.01910400390625,-0.0325164794921875
1761505981243000600,6.80000048828125,-1.012939453125,-0.0201873779296875,-0.0321807861328125
1761505981253036500,6.81003662109375,-1.012908935546875,-0.019317626953125,-0.0333404541015625
1761505981263072500,6.820072509765625,-1.0136871337890625,-0.0195159912109375,-0.0332183837890625
1761505981273108500,6.8301083984375,-1.0122528076171875,-0.01971435546875,-0.0326690673828125
1761505981283144400,6.84014453125,-1.0124053955078125,-0.0197601318359375,-0.0324859619140625
1761505981293180400,6.850180419921875,-1.014556884765625,-0.0195770263671875,-0.0323944091796875
1761505981303216400,6.86021630859375,-1.0124664306640625,-0.0196380615234375,-0.032623291015625
1761505981313252400,6.87025244140625,-1.0120391845703125,-0.0198974609375,-0.03289794921875
1761505981323288300,6.880288330078125,-1.0132904052734375,-0.019775390625,-0.0329437255859375
1761505981333323500,6.890323486328125,-1.01263427734375,-0.020050048828125,-0.0329437255859375
1761505981343359500,6.900359375,-1.012359619140625,-0.0205230712890625,-0.0327301025390625
1761505981353395500,6.9103955078125,-1.01214599609375,-0.0202178955078125,-0.0331268310546875
1761505981363431400,6.920431396484375,-1.012481689453125,-0.0204010009765625,-0.0334320068359375
1761505981373467400,6.93046728515625,-1.0138702392578125,-0.0208892822265625,-0.0327301025390625
1761505981383503400,6.94050341796875,-1.013916015625,-0.0197296142578125,-0.0320281982421875
1761505981393539300,6.950539306640625,-1.013153076171875,-0.020294189453125,-0.033172607421875
1761505981403575300,6.9605751953125,-1.0124664306640625,-0.020416259765625,-0.03338623046875
1761505981413611500,6.970611572265625,-1.0132293701171875,-0.01995849609375,-0.0323028564453125
1761505981423647500,6.9806474609375,-1.0137176513671875,-0.020751953125,-0.03271484375
1761505981433683500,6.990683349609375,-1.012847900390625,-0.019989013671875,-0.0326995849609375
1761505981443719400,7.000719482421875,-1.013458251953125,-0.02069091796875,-0.03277587890625
1761505981453755400,7.01075537109375,-1.0123443603515625,-0.020263671875,-0.033111572265625
1761505981463791400,7.020791259765625,-1.01220703125,-0.0199432373046875,-0.033111572265625
1761505981473827300,7.030827392578125,-1.0135345458984375,-0.0209503173828125,-0.032928466796875
1761505981483863300,7.04086328125,-1.012542724609375,-0.0205078125,-0.032806396484375
1761505981493899300,7.050899169921875,-1.0128021240234375,-0.0206146240234375,-0.0326385498046875
1761505981503935200,7.060935302734375,-1.0135955810546875,-0.020263671875,-0.0328369140625
1761505981513971500,7.070971435546875,-1.0136260986328125,-0.019805908203125,-0.033111572265625
1761505981524006400,7.08100634765625,-1.01263427734375,-0.0205841064453125,-0.03228759765625
1761505981534042400,7.09104248046875,-1.01226806640625,-0.020172119140625,-0.0327606201171875
1761505981544078300,7.101078369140625,-1.0124664306640625,-0.020965576171875,-0.032623291015625
1761505981554114300,7.1111142578125,-1.01324462890625,-0.019195556640625,-0.0328369140625
1761505981564150300,7.121150390625,-1.0131072998046875,-0.020294189453125,-0.0325775146484375
1761505981574186200,7.131186279296875,-1.012908935546875,-0.02001953125,-0.0325775146484375
1761505981584222500,7.141222412109375,-1.0137481689453125,-0.0200958251953125,-0.032928466796875
1761505981594258400,7.151258544921875,-1.01318359375,-0.019622802734375,-0.032989501953125
1761505981604294700,7.161294677734375,-1.0130615234375,-0.01971435546875,-0.0329132080078125
1761505981614330600,7.17133056640625,-1.0129547119140625,-0.020477294921875,-0.0325927734375
1761505981624366600,7.18136669921875,-1.013641357421875,-0.0195770263671875,-0.0328369140625
1761505981634402600,7.191402587890625,-1.0132293701171875,-0.0200958251953125,-0.03314208984375
1761505981644438500,7.2014384765625,-1.01318359375,-0.0198211669921875,-0.03326416015625
1761505981654474500,7.211474609375,-1.0139312744140625,-0.020782470703125,-0.0328521728515625
1761505981664510500,7.221510498046875,-1.0132598876953125,-0.0199432373046875,-0.032806396484375
1761505981674546400,7.23154638671875,-1.0124359130859375,-0.019866943359375,-0.0327606201171875
1761505981684582400,7.24158251953125,-1.0129241943359375,-0.0196685791015625,-0.0329437255859375
1761505981694618400,7.251618408203125,-1.0133056640625,-0.01971435546875,-0.0333709716796875
1761505981704654300,7.261654296875,-1.013763427734375,-0.020751953125,-0.032745361328125
1761505981714689500,7.271689453125,-1.01300048828125,-0.0206146240234375,-0.033233642578125
1761505981724725500,7.2817255859375,-1.0137481689453125,-0.0200958251953125,-0.0330810546875
1761505981734761500,7.291761474609375,-1.012939453125,-0.0204925537109375,-0.0326690673828125
1761505981744797400,7.30179736328125,-1.0130462646484375,-0.020050048828125,-0.0328369140625
1761505981754833400,7.31183349609375,-1.01220703125,-0.0197296142578125,-0.032623291015625
1761505981764869400,7.321869384765625,-1.0132598876953125,-0.0204925537109375,-0.032196044921875
1761505981774905300,7.3319052734375,-1.01287841796875,-0.0198516845703125,-0.0326385498046875
1761505981784941300,7.34194140625,-1.0135650634765625,-0.020599365234375,-0.033721923828125
1761505981794977500,7.3519775390625,-1.01263427734375,-0.021148681640625,-0.0332794189453125
1761505981805013500,7.362013427734375,-1.0132598876953125,-0.019622802734375,-0.0329132080078125
1761505981815049500,7.372049560546875,-1.0132598876953125,-0.0199737548828125,-0.033660888671875
1761505981825085400,7.38208544921875,-1.0135650634765625,-0.0199432373046875,-0.0325164794921875
1761505981835121400,7.392121337890625,-1.012359619140625,-0.020660400390625,-0.032623291015625
1761505981845157400,7.402157470703125,-1.012603759765625,-0.0206298828125,-0.0328216552734375
1761505981855193300,7.412193359375,-1.0137176513671875,-0.01953125,-0.03271484375
1761505981865229300,7.422229248046875,-1.0136260986328125,-0.0200958251953125,-0.0327911376953125
1761505981875265300,7.432265380859375,-1.0137176513671875,-0.0194549560546875,-0.0326080322265625
1761505981885301200,7.44230126953125,-1.013397216796875,-0.0193939208984375,-0.033294677734375
1761505981895336400,7.45233642578125,-1.0132293701171875,-0.0197601318359375,-0.0325469970703125
1761505981905372400,7.462372314453125,-1.012451171875,-0.0204010009765625,-0.0319976806640625
1761505981915408400,7.472408447265625,-1.012908935546875,-0.020721435546875,-0.0335845947265625
1761505981925444400,7.4824443359375,-1.0135040283203125,-0.02099609375,-0.0324249267578125
1761505981935480300,7.492480224609375,-1.012908935546875,-0.0203399658203125,-0.03326416015625
1761505981945516300,7.502516357421875,-1.0128173828125,-0.019622802734375,-0.0328216552734375
1761505981955552300,7.51255224609375,-1.01318359375,-0.0210113525390625,-0.0330047607421875
1761505981965588200,7.522588134765625,-1.013336181640625,-0.0208892822265625,-0.03314208984375
1761505981975624400,7.53262451171875,-1.011993408203125,-0.0206146240234375,-0.03228759765625
1761505981985660700,7.54266064453125,-1.0124969482421875,-0.0200042724609375,-0.0333251953125
1761505981995696600,7.552696533203125,-1.0126190185546875,-0.0199127197265625,-0.0330047607421875
1761505982005732600,7.562732666015625,-1.012481689453125,-0.0200958251953125,-0.032989501953125
1761505982015768600,7.5727685546875,-1.0128021240234375,-0.02044677734375,-0.0329437255859375
1761505982025804500,7.582804443359375,-1.0123748779296875,-0.0204315185546875,-0.03277587890625
1761505982035840500,7.592840576171875,-1.0132598876953125,-0.0204010009765625,-0.0321044921875
1761505982045876500,7.60287646484375,-1.014312744140625,-0.020538330078125,-0.033294677734375
1761505982055912400,7.612912353515625,-1.011932373046875,-0.0201416015625,-0.033111572265625
1761505982065948400,7.622948486328125,-1.0119171142578125,-0.02056884765625,-0.032989501953125
1761505982075983600,7.632983642578125,-1.0123138427734375,-0.019866943359375,-0.0330047607421875
1761505982086019300,7.643019287109375,-1.0125885009765625,-0.0191497802734375,-0.0330810546875
1761505982096055300,7.65305517578125,-1.0126800537109375,-0.019989013671875,-0.0331573486328125
1761505982106091300,7.66309130859375,-1.0126495361328125,-0.020172119140625,-0.0334930419921875
1761505982116127200,7.673127197265625,-1.0125885009765625,-0.0206146240234375,-0.0326995849609375
1761505982126163200,7.6831630859375,-1.0139923095703125,-0.0191650390625,-0.0333099365234375
1761505982136199200,7.69319921875,-1.0128173828125,-0.0201416015625,-0.0323944091796875
1761505982146235100,7.703235107421875,-1.01324462890625,-0.0200958251953125,-0.0330352783203125
1761505982156271000,7.71327099609375,-1.0131378173828125,-0.01934814453125,-0.0321807861328125
1761505982166307300,7.723307373046875,-1.0128936767578125,-0.0193634033203125,-0.031982421875
1761505982176343300,7.73334326171875,-1.0137481689453125,-0.020172119140625,-0.0331573486328125
1761505982186379500,7.743379638671875,-1.0133056640625,-0.020294189453125,-0.032318115234375
1761505982196415500,7.75341552734375,-1.01336669921875,-0.019561767578125,-0.0326080322265625
1761505982206451500,7.763451416015625,-1.01220703125,-0.0202789306640625,-0.03363037109375
1761505982216487400,7.7734873046875,-1.0143890380859375,-0.0206298828125,-0.0332794189453125
1761505982226523400,7.7835234375,-1.0127716064453125,-0.0205230712890625,-0.03271484375
1761505982236559400,7.793559326171875,-1.012451171875,-0.0194854736328125,-0.0332794189453125
1761505982246594300,7.80359423828125,-1.0130462646484375,-0.0199432373046875,-0.0333099365234375
1761505982256630500,7.813630615234375,-1.012420654296875,-0.01971435546875,-0.0332794189453125
1761505982266666500,7.82366650390625,-1.012420654296875,-0.0204315185546875,-0.0332489013671875
1761505982276702500,7.833702392578125,-1.013763427734375,-0.0204315185546875,-0.033599853515625
1761505982286738400,7.843738525390625,-1.013092041015625,-0.02117919921875,-0.033050537109375
1761505982296774400,7.8537744140625,-1.0124053955078125,-0.0206756591796875,-0.032684326171875
1761505982306810400,7.863810302734375,-1.012542724609375,-0.0204315185546875,-0.0326080322265625
1761505982316846300,7.873846435546875,-1.0130157470703125,-0.020721435546875,-0.033050537109375
1761505982326882300,7.88388232421875,-1.012359619140625,-0.0204315185546875,-0.0321044921875
1761505982336918300,7.893918212890625,-1.0120086669921875,-0.021209716796875,-0.032501220703125
1761505982346954200,7.903954345703125,-1.01287841796875,-0.02056884765625,-0.03289794921875
1761505982356990500,7.913990478515625,-1.0123443603515625,-0.01995849609375,-0.0332794189453125
1761505982367026400,7.9240263671875,-1.0125885009765625,-0.020751953125,-0.032623291015625
1761505982377062400,7.9340625,-1.0125732421875,-0.020721435546875,-0.0334014892578125
1761505982387098400,7.944098388671875,-1.012603759765625,-0.0199737548828125,-0.0336456298828125
1761505982397134300,7.95413427734375,-1.01312255859375,-0.0198822021484375,-0.032867431640625
1761505982407170300,7.96417041015625,-1.0128173828125,-0.0206756591796875,-0.0327301025390625
1761505982417206300,7.974206298828125,-1.0136260986328125,-0.020233154296875,-0.0323944091796875
1761505982427241200,7.9842412109375,-1.0125274658203125,-0.0194244384765625,-0.0320281982421875
1761505982437277400,7.99427734375,-1.01226806640625,-0.019134521484375,-0.0322265625
1761505982447313400,8.0043134765625,-1.013092041015625,-0.02032470703125,-0.0333404541015625
1761505982457348400,8.014348388671875,-1.0129852294921875,-0.0203704833984375,-0.03375244140625
1761505982467384300,8.02438427734375,-1.011962890625,-0.0206756591796875,-0.0333404541015625
1761505982477420300,8.034420166015625,-1.0133819580078125,-0.020416259765625,-0.03228759765625
1761505982487456300,8.044456298828125,-1.0127105712890625,-0.0211181640625,-0.03253173828125
1761505982497492200,8.0544921875,-1.0128173828125,-0.0206298828125,-0.032562255859375
1761505982507527400,8.06452734375,-1.012359619140625,-0.019989013671875,-0.0331878662109375
1761505982517563400,8.0745634765625,-1.0132293701171875,-0.0198516845703125,-0.032379150390625
1761505982527599400,8.084599365234375,-1.012725830078125,-0.020416259765625,-0.0328369140625
1761505982537635300,8.09463525390625,-1.01214599609375,-0.0198822021484375,-0.0330657958984375
1761505982547671300,8.10467138671875,-1.0123443603515625,-0.0202178955078125,-0.03265380859375
1761505982557707300,8.114707275390625,-1.011566162109375,-0.0208740234375,-0.033233642578125
1761505982567743200,8.1247431640625,-1.012542724609375,-0.0195770263671875,-0.0332489013671875
1761505982577779200,8.134779296875,-1.0124664306640625,-0.0198516845703125,-0.0326690673828125
1761505982587815200,8.144815185546875,-1.0125885009765625,-0.019439697265625,-0.0328369140625
1761505982597851400,8.154851318359375,-1.0128326416015625,-0.019622802734375,-0.033538818359375
1761505982607887400,8.164887451171875,-1.01324462890625,-0.0204925537109375,-0.03271484375
1761505982617923300,8.17492333984375,-1.0130615234375,-0.020416259765625,-0.032379150390625
1761505982627959300,8.184959228515625,-1.0123138427734375,-0.02044677734375,-0.0326690673828125
1761505982637995300,8.194995361328125,-1.012786865234375,-0.019439697265625,-0.0325927734375
1761505982648031200,8.20503125,-1.0123443603515625,-0.01995849609375,-0.0322723388671875
1761505982658067200,8.215067138671875,-1.012664794921875,-0.0204620361328125,-0.032684326171875
1761505982668103200,8.225103271484375,-1.0133514404296875,-0.020294189453125,-0.03277587890625
1761505982678139100,8.23513916015625,-1.01422119140625,-0.02032470703125,-0.032745361328125
1761505982688175000,8.245175048828125,-1.013397216796875,-0.02056884765625,-0.033355712890625
1761505982698210300,8.255210205078125,-1.0132293701171875,-0.019775390625,-0.0328369140625
1761505982708246300,8.265246337890625,-1.0126495361328125,-0.020294189453125,-0.032806396484375
1761505982718282200,8.2752822265625,-1.01263427734375,-0.019256591796875,-0.032745361328125
1761505982728318200,8.285318115234375,-1.012908935546875,-0.020050048828125,-0.03363037109375
1761505982738354200,8.295354248046875,-1.0123748779296875,-0.0199127197265625,-0.0328521728515625
1761505982748390100,8.30539013671875,-1.0129852294921875,-0.0201416015625,-0.032745361328125
1761505982758426400,8.31542626953125,-1.011932373046875,-0.020172119140625,-0.0331573486328125
1761505982768462300,8.32546240234375,-1.0123748779296875,-0.0212249755859375,-0.03338623046875
1761505982778498300,8.335498291015625,-1.01153564453125,-0.020172119140625,-0.0319976806640625
1761505982788534500,8.345534423828125,-1.011444091796875,-0.0207977294921875,-0.0328826904296875
1761505982798570500,8.355570556640625,-1.0124053955078125,-0.0198516845703125,-0.0334320068359375
1761505982808606500,8.3656064453125,-1.012451171875,-0.019439697265625,-0.0321502685546875
1761505982818642400,8.375642333984375,-1.0133514404296875,-0.0192108154296875,-0.032745361328125
1761505982828678400,8.385678466796875,-1.013519287109375,-0.0199127197265625,-0.0324554443359375
1761505982838714400,8.39571435546875,-1.0126190185546875,-0.0201873779296875,-0.0326080322265625
1761505982848750300,8.405750244140625,-1.012908935546875,-0.0196075439453125,-0.032684326171875
1761505982858786300,8.415786376953125,-1.0127716064453125,-0.0194854736328125,-0.0333709716796875
1761505982868822300,8.425822265625,-1.0132904052734375,-0.0201416015625,-0.0329132080078125
1761505982878857500,8.435857421875,-1.0129241943359375,-0.020050048828125,-0.033538818359375
1761505982888893400,8.4458935546875,-1.0126953125,-0.019744873046875,-0.0332183837890625
1761505982898929400,8.455929443359375,-1.0131988525390625,-0.019744873046875,-0.0324554443359375
1761505982908965400,8.46596533203125,-1.012054443359375,-0.020263671875,-0.0324859619140625
1761505982919001300,8.47600146484375,-1.01214599609375,-0.0195770263671875,-0.0328369140625
1761505982929037300,8.486037353515625,-1.0134429931640625,-0.0194091796875,-0.033203125
1761505982939073300,8.4960732421875,-1.013580322265625,-0.0195770263671875,-0.03326416015625
1761505982949109200,8.506109130859375,-1.0120391845703125,-0.0195770263671875,-0.0325469970703125
1761505982959145200,8.516145263671875,-1.012115478515625,-0.0209197998046875,-0.0325164794921875
1761505982969181200,8.52618115234375,-1.0131378173828125,-0.020111083984375,-0.0336761474609375
1761505982979217400,8.536217529296875,-1.0120697021484375,-0.0206146240234375,-0.0335235595703125
1761505982989253400,8.54625341796875,-1.012542724609375,-0.020477294921875,-0.0332183837890625
1761505982999289300,8.556289306640625,-1.0124359130859375,-0.02081298828125,-0.0335845947265625
1761505983009325300,8.5663251953125,-1.011871337890625,-0.0196533203125,-0.0328826904296875
1761505983019361300,8.576361328125,-1.01361083984375,-0.0199432373046875,-0.032379150390625
1761505983029397200,8.586397216796875,-1.013092041015625,-0.020263671875,-0.032470703125
1761505983039433200,8.59643310546875,-1.012969970703125,-0.0202789306640625,-0.0334625244140625
1761505983049469200,8.60646923828125,-1.01214599609375,-0.0192718505859375,-0.0333099365234375
1761505983059505200,8.616505126953125,-1.011016845703125,-0.0198211669921875,-0.0329742431640625
1761505983069541000,8.626541015625,-1.0128936767578125,-0.0197906494140625,-0.032379150390625
1761505983079577000,8.6365771484375,-1.01239013671875,-0.01934814453125,-0.0331268310546875
1761505983089611300,8.646611328125,-1.00970458984375,-0.019744873046875,-0.0338134765625
1761505983099647200,8.656647216796875,-1.0052032470703125,-0.018768310546875,-0.039276123046875
1761505983109683200,8.66668310546875,-0.99249267578125,-0.0146026611328125,-0.0514373779296875
1761505983119719200,8.67671923828125,-1.043731689453125,-0.030426025390625,0.003143310546875
1761505983129755100,8.686755126953125,-1.028717041015625,-0.0236053466796875,-0.0129547119140625
1761505983139791400,8.696791259765625,-0.989288330078125,-0.01531982421875,-0.054229736328125
1761505983149827300,8.706827392578125,-1.0040435791015625,-0.01910400390625,-0.0374603271484375
1761505983159863300,8.71686328125,-1.0269012451171875,-0.024261474609375,-0.0164031982421875
1761505983169899300,8.726899169921875,-1.0221405029296875,-0.022430419921875,-0.022430419921875
1761505983179935200,8.736935302734375,-1.0171356201171875,-0.021697998046875,-0.027801513671875
1761505983189971200,8.74697119140625,-1.0084075927734375,-0.01751708984375,-0.0421600341796875
