time,seconds_elapsed,z,y,x
1761505974557788200,0.1147880859375,-0.13750643646121025,-0.003051679188199341,0.02273706125859171
1761505974567824100,0.12482421875,-0.1401969907194376,0.00032218115907162425,0.019697291703894733
1761505974577860000,0.134860107421875,-0.13659458231329918,-0.005464384619425982,0.01854461453743279
1761505974587896000,0.14489599609375,-0.1397305422514677,-0.002052146756835282,0.02525883482117206
1761505974597932000,0.15493212890625,-0.13763327771127223,-0.005661313697323203,0.025203853230923414
1761505974607968000,0.164968017578125,-0.14032383196949957,-0.002303765164036304,0.010507511619478464
1761505974618004000,0.17500390625,-0.13942308373749254,0.0036122539467178284,0.01465571734011173
1761505974628040200,0.185040283203125,-0.13777064035534858,-0.0021924502766691146,0.013389752524904906
1761505974638076200,0.195076171875,-0.12924480407238007,-0.0074848027974367135,0.017031068169325588
1761505974648112000,0.205112060546875,-0.13627718692719937,-0.009198675776924937,0.021104564685933292
1761505974658147000,0.21514697265625,-0.13223697162568568,0.005919690638873726,0.019898805625364183
1761505974668183000,0.22518310546875,-0.13702595946788787,-0.0036491701573133466,0.016314225136861205
1761505974678219000,0.235218994140625,-0.13328326580822467,-0.00724701198618859,0.020315204406529664
1761505974688255000,0.2452548828125,-0.14001228180229663,-0.0004389211402274668,0.02007869223691523
1761505974698291000,0.255291015625,-0.13328326580822467,-0.007506631036754697,0.02097439896762371
1761505974708327200,0.2653271484375,-0.14405015901625157,-0.010081760488077997,0.02512793845050037
1761505974718363100,0.275363037109375,-0.13492343423068523,0.00014125336790457368,0.016309841222688554
1761505974728399000,0.285399169921875,-0.1359749891102314,0.00392868121843785,0.018795739754289387
1761505974738435000,0.29543505859375,-0.14239888467788694,-0.004480999605264514,0.01596997827645391
1761505974748471000,0.305470947265625,-0.14359715455174446,-0.003545454054512083,0.012527911531180142
1761505974758507000,0.315507080078125,-0.1376087277919054,0.001199511982873082,0.015170096603035926
1761505974768543000,0.32554296875,-0.12877484847307205,0.00020651889014989137,0.015217698604427277
1761505974778579000,0.335578857421875,-0.12652210111021994,-0.00046699645724147554,0.0165281966811046
1761505974788615000,0.345614990234375,-0.12995616721212863,0.000968023048248142,0.01903513800073415
1761505974798651000,0.35565087890625,-0.1441664788722992,0.0030430940229445695,0.018899967313744128
1761505974808686800,0.365686767578125,-0.14207622859477995,-0.0030005700554698706,0.02001746356897056
1761505974818723000,0.37572314453125,-0.14117548036277294,-0.002979161941260099,0.022016345768608152
1761505974828759000,0.385759033203125,-0.1443219616949558,-0.0035057796312496065,0.02374265810456127
1761505974838795000,0.395794921875,-0.1390863991290331,-0.0027246574572287498,0.021976671345345675
1761505974848831200,0.405831298828125,-0.13025544241964818,-0.00043462855760008096,0.025860673171840605
1761505974858867200,0.4158671875,-0.13803192164003847,-0.011250329343415796,0.01925002286043018
1761505974868903200,0.425903076171875,-0.1318874275356531,0.002233458140492439,0.019661197477206585
1761505974878939100,0.435939208984375,-0.13890987351834774,-0.002021075765136629,0.01459865339063108
1761505974888975000,0.44597509765625,-0.14160101229846478,-0.01227284079156816,0.022219503657892346
1761505974899011000,0.456010986328125,-0.13905834207832812,-0.009533478955551981,0.025214593820646405
1761505974909047000,0.466047119140625,-0.13232581895291803,0.00025348157072439787,0.019236505791731178
1761505974919083000,0.4760830078125,-0.13770985007882117,-0.0024829393895342946,0.014835238625481724
1761505974929119200,0.486119140625,-0.13216507543325423,-0.0013473229557275771,0.012680069885589182
1761505974939155200,0.4961552734375,-0.13934008162915706,-0.0036024449387565254,0.013518676134198904
1761505974949191200,0.506191162109375,-0.12960545407831667,-0.004145831100456417,0.01887731709051877
1761505974959227100,0.51622705078125,-0.12541150951981545,0.0029318522008135914,0.01168835543449968
1761505974969263000,0.52626318359375,-0.12780746474564075,-0.008519917998835443,0.015743293381109833
1761505974979299000,0.536299072265625,-0.12914777343869208,-0.008074475786276162,0.011439093381166457
1761505974989335000,0.5463349609375,-0.12420739442706108,-0.0015381876190192997,0.01827357904370874
1761505974999370000,0.556369873046875,-0.12121405782997607,-0.006836184429284185,0.020015929199010133
1761505975009407000,0.566406982421875,-0.1309428401619196,-0.007247340779751539,0.015422500461526214
1761505975019442200,0.576442138671875,-0.13214052551388739,0.00633375133248046,0.011115012525953353
1761505975029478100,0.58647802734375,-0.12226035201251506,-0.003759462131373584,0.014024579829722642
1761505975039514000,0.59651416015625,-0.12600363019406793,-0.0024518135989084837,0.017928784194029868
1761505975049550000,0.606550048828125,-0.12210662275552749,-0.002610219031013548,0.021336291082575915
1761505975059586000,0.6165859375,-0.12765139740109444,-0.007395115219987929,0.020874555322341618
1761505975069622000,0.6266220703125,-0.13079963229894637,-0.00516132828593254,0.012522723899409173
1761505975079658000,0.636657958984375,-0.12406184847652911,0.0009198547912761568,0.018426723778806626
1761505975089695500,0.646695556640625,-0.13857260438799857,0.00015983020421117544,0.013304558459483086
1761505975099731500,0.6567314453125,-0.1282493632942438,0.009283157456293701,0.01546655879896134
1761505975109767400,0.666767333984375,-0.12794774999916553,-0.0038631051689386364,0.02285992045328021
1761505975119803400,0.676803466796875,-0.1373696583390236,-0.000626826661452651,0.020420199150964616
1761505975129839400,0.68683935546875,-0.13198153555989264,-0.008546075353398918,0.019766594080440698
1761505975139875300,0.696875244140625,-0.12838789498209952,-0.00445511624533683,0.018036518884822727
1761505975149911300,0.706911376953125,-0.12898293826580046,0.0026649448929354546,0.014594379074312746
1761505975159947500,0.716947509765625,-0.1376601657181978,0.0005841200308874249,0.01932213824857026
1761505975169983500,0.7269833984375,-0.13272738549113272,0.004978519064933061,0.016088965013623238
1761505975180019500,0.73701953125,-0.12644026804566383,-0.007997355429455637,0.01747954258918762
1761505975190055400,0.747055419921875,-0.12762860104739665,-0.002573211488872766,0.013920388802886008
1761505975200091400,0.75709130859375,-0.12627835548222063,-0.0013917466193437576,0.009329919207468628
1761505975210127400,0.76712744140625,-0.1255225686788559,-0.00577829114049673,0.017077902985736727
1761505975220163300,0.777163330078125,-0.12761691060960292,-0.00018280922099947927,0.016727262917160986
1761505975230199300,0.78719921875,-0.12866086670458315,-0.006301091171894222,0.015281265359930693
1761505975240235300,0.7972353515625,-0.13015022847950458,0.0034800241354852914,0.01512070450335741
1761505975250271200,0.807271240234375,-0.1274520754367113,0.006580583966709673,0.0165032083703205
1761505975260307200,0.81730712890625,-0.13627718692719937,-0.004047138232644647,0.017907924069091676
1761505975270343400,0.827343505859375,-0.1343283909469843,-0.008376016016118228,0.013019677103497088
1761505975280379400,0.83737939453125,-0.1328384446501732,-0.007272091628517955,0.016310462277196347
1761505975290415400,0.847415283203125,-0.13598200337290764,-0.002003211314883083,0.016328034466505048
1761505975300451300,0.857451416015625,-0.12955050902068616,-0.011125186860095709,0.017009440859407185
1761505975310487300,0.8674873046875,-0.12955109354257582,0.0014170819899998605,0.007317666069604456
1761505975320523300,0.877523193359375,-0.14854747043550012,0.0006842194044962525,0.01195595686212182
1761505975330559200,0.887559326171875,-0.12400456533133983,-0.010537541431561112,0.015927052450180054
1761505975340595200,0.89759521484375,-0.12145546537041664,-0.008394081395771354,0.014489384329877793
1761505975350631400,0.90763134765625,-0.1296913787961006,-0.0013401442962698638,0.0075177552189677945
1761505975360667400,0.91766748046875,-0.12430091792941093,-0.0014556787010282276,0.01353661364968866
1761505975370703400,0.927703369140625,-0.12309914092421531,-0.00030345819229260084,0.01986545134503394
1761505975380739300,0.9377392578125,-0.13342764271497726,0.0002757664677686989,0.013545746804215013
1761505975390775600,0.947775634765625,-0.12953238884210586,0.009074848467856646,0.0028540011916309595
1761505975400811500,0.9578115234375,-0.13311843063533305,0.010806969490088521,0.01366520846541971
1761505975410847500,0.967847412109375,-0.12937515245378017,0.0013904497114010153,0.015098310008458793
1761505975420883500,0.977883544921875,-0.12877894012629984,-0.005503584118653089,0.010894793904013931
1761505975430919400,0.98791943359375,-0.1289250705987215,-0.010615867364779114,0.016781879181228577
1761505975440955400,0.997955322265625,-0.12727788791358471,-0.012341175053734332,0.018515972964838145
1761505975450991400,1.007991455078125,-0.13416063316464424,0.004873158994317055,0.012494155392050742
1761505975461027300,1.01802734375,-0.1417880593031645,0.006056614891532809,0.013517214829474686
1761505975471063300,1.028063232421875,-0.12472703438699245,-0.008968118424061686,0.009006897798180579
1761505975481099300,1.038099365234375,-0.12711655987203122,-0.003986969010625035,0.011470621030591427
1761505975491135200,1.04813525390625,-0.1254693771868944,-0.004299816085770726,0.019372443663701413
1761505975501170400,1.05817041015625,-0.12352175025045871,-0.0006398140071891248,0.01247928661648184
1761505975511206400,1.068206298828125,-0.1345931793630123,0.004481456262990832,0.007846548781916499
1761505975521242400,1.078242431640625,-0.1342886434584856,-0.005251271591708064,0.014430311086401342
1761505975531278300,1.0882783203125,-0.13817688306868076,-0.007129979744087904,0.01860989832598716
1761505975541314300,1.098314208984375,-0.1357820968866348,-0.0027896672511473295,0.007356354112178087
1761505975551350300,1.108350341796875,-0.12664835783839226,-0.008786861839331686,0.011685104031488298
1761505975561386200,1.11838623046875,-0.1338268711656332,-0.009890841025859116,0.016085604012757538
1761505975571422500,1.12842236328125,-0.12230068402290344,-0.0027163097539916635,0.014927921877615153
1761505975581458400,1.13845849609375,-0.13381985690295695,0.003795519825443625,0.007408193897269666
1761505975591494400,1.148494384765625,-0.12932546809315681,-0.004065915998350829,0.010591207847557961
1761505975601530400,1.1585302734375,-0.12393734531402587,-0.002899520833790302,0.018423435843177138
1761505975611566300,1.16856640625,-0.135160750117898,-0.003767042649630457,0.01347889211308211
1761505975621602300,1.178602294921875,-0.13231179042756558,-0.0008615852653980255,0.018209208570607007
1761505975631638300,1.18863818359375,-0.12916647813916204,0.002505297351814806,0.009787636379711329
1761505975641674200,1.19867431640625,-0.1308119072586298,0.0034990210969001053,0.008900514814257621
1761505975651710200,1.208710205078125,-0.13036416349112986,-0.0006998370987363159,0.015079386112280189
1761505975661746200,1.21874609375,-0.13006488828361035,0.0005583462688140571,0.012789704272523522
1761505975671782100,1.2287822265625,-0.13650047428905962,0.003288465352449566,0.010863010526262222
1761505975681818400,1.238818359375,-0.1347013159126043,-0.005923873623646795,0.008626337515376508
1761505975691854300,1.248854248046875,-0.12960720764398573,0.0013342808110639451,0.01581920816153288
1761505975701890600,1.258890625,-0.13663783693313597,-0.005366385871358215,0.016479096842370925
1761505975711926500,1.268926513671875,-0.13094868538081644,0.005926997162494808,0.010957155083119868
1761505975721962500,1.27896240234375,-0.1384317346125841,-0.0013610226875171065,0.009924231838807463
1761505975731998500,1.28899853515625,-0.13334230251908302,-0.01801699220044538,0.01393470958918333
1761505975742034400,1.299034423828125,-0.1414209795564413,-0.0009461948089301586,0.017922756312042473
1761505975752070400,1.3090703125,-0.13109715394079685,0.0026519758135080335,0.014066775003634393
1761505975762106400,1.3191064453125,-0.13618249438107013,-0.003438121222518384,0.007172375847399234
1761505975772142300,1.329142333984375,-0.13842238226234913,-0.00325642624637112,0.014881561985239386
1761505975782178300,1.33917822265625,-0.12331190689206123,-0.004808258798252791,0.01290492815002799
1761505975792214300,1.34921435546875,-0.12555530190467834,-0.005208583227451891,0.01832300767600536
1761505975802250500,1.35925048828125,-0.13842004417479037,-0.0012881949133239686,0.012137414376251399
1761505975812286500,1.369286376953125,-0.12899229061603545,-0.001584291783068329,0.012564371084049343
1761505975822322400,1.379322509765625,-0.1414168879032135,-0.0013883856184780598,0.015068170598521828
1761505975832358400,1.3893583984375,-0.1378308461099863,-0.007140081012994051,0.006190598268434405
1761505975842394400,1.399394287109375,-0.1257049395084381,-0.0022715616611763832,0.011922383386082947
1761505975852430300,1.409430419921875,-0.1310907242000103,-0.0005692695216275751,0.012241751533560455
1761505975862466300,1.41946630859375,-0.13259060736894607,-0.004464176334626972,0.008149294588156044
1761505975872502300,1.429502197265625,-0.13004443001747132,-0.0001961618929170072,0.01492277077846229
1761505975882538200,1.439538330078125,-0.13243921619951723,0.005821016037371009,0.014922807311080396
1761505975892574200,1.44957421875,-0.12779811239540576,-0.0006703552759252488,0.011442344784177839
1761505975902610200,1.459610107421875,-0.13228256433308125,-0.0027901421751827,0.014762502182833849
1761505975912646400,1.469646484375,-0.138418875131011,-0.008302329725399613,0.009337737187743186
1761505975922682400,1.479682373046875,-0.13542729209959506,-0.014098686245549469,0.01397420134935528
1761505975932718300,1.48971826171875,-0.13946283122599124,-0.0066908759407699105,0.018730127172172067
1761505975942754300,1.49975439453125,-0.1373696583390236,-0.006963774598017334,0.013835596596263348
1761505975952790300,1.509790283203125,-0.12420388729572296,-0.006597717764601111,0.010576119876280427
1761505975962826200,1.519826171875,-0.12360709044635296,-0.01076597989257425,0.013817732146009802
1761505975972862200,1.5298623046875,-0.1325853466719389,-0.004114157320559025,0.02110503960996866
1761505975982898400,1.5398984375,-0.12645137396156786,-0.00823392239799723,0.009737513627670705
1761505975992934400,1.549934326171875,-0.12076456049680709,0.001589936072565615,0.011086297888122498
1761505976002970400,1.559970458984375,-0.11388298428952694,0.0023942929917015136,0.014558723239041864
1761505976013006300,1.57000634765625,-0.1315390524893999,-0.0031218766138888894,0.018846483560837804
1761505976023042600,1.58004248046875,-0.1354249540120363,-0.001766242487542331,0.018406484708376226
1761505976033078500,1.59007861328125,-0.12764204505085944,-0.004987798349931836,0.015551570201292633
1761505976043114500,1.600114501953125,-0.1422971778690815,-0.007891502168495207,0.015548464928753673
1761505976053150500,1.610150390625,-0.14663023863732813,-0.011891184530220925,0.007557137381285429
1761505976063186400,1.6201865234375,-0.12912322351932526,-0.0019756291882134973,0.014282500113546847
1761505976073222400,1.630222412109375,-0.13061024720668793,0.004389485396910459,0.015101853672415018
1761505976083256800,1.6402568359375,-0.14002981745898724,-0.004392718533612787,0.012398147671669722
1761505976093293000,1.65029296875,-0.12760755825936793,-0.005178462083823979,0.01638908047135919
1761505976103329300,1.660329345703125,-0.12999825278818605,-0.0024672851626761257,0.009848645851947366
1761505976113365200,1.670365234375,-0.13074527176320552,-0.003566094983741641,0.0019658567128703
1761505976123401200,1.680401123046875,-0.13059914129078387,0.0008827559175901115,0.005595554984733462
1761505976133437200,1.690437255859375,-0.1332984633773565,0.0015556319441646337,0.01545015565343201
1761505976143473200,1.70047314453125,-0.14316986905038356,-0.0040892786076292395,0.014539214820973574
1761505976153509000,1.710509033203125,-0.1307464408069849,0.003222286514751613,0.00951422626581043
1761505976163545000,1.720545166015625,-0.11981705051362514,-0.0029864684648811817,0.010742379821278155
1761505976173581000,1.7305810546875,-0.12190963887870311,-0.008550441001262515,0.016069091269373892
1761505976183617000,1.740616943359375,-0.1358212598532438,0.0022241971218027175,0.012277918825484811
1761505976193653000,1.750653076171875,-0.1449503227263689,-0.0020254048803821207,0.007552242010459303
1761505976203689200,1.760689208984375,-0.14270926580131052,-0.008553564540110529,0.015702924838103354
1761505976213725200,1.77072509765625,-0.13373860836029053,-0.01003039562702179,0.008142061129771172
1761505976223761200,1.78076123046875,-0.13074527176320552,-0.006756616387050598,0.013972703512012958
1761505976233797000,1.790797119140625,-0.1337397774040699,-0.006229797767661511,0.020261209196969866
1761505976243833000,1.8008330078125,-0.1346411101579666,-0.003179433753713965,0.02362703236825764
1761505976253869000,1.810869140625,-0.1418207925289869,-0.004532857656665146,0.0052810456754639745
1761505976263905000,1.820905029296875,-0.13598551050424576,-0.002032254746276885,0.008533946524187923
1761505976273941000,1.83094091796875,-0.1267114862024784,-0.006502714691217988,0.01416296538710594
1761505976283977000,1.84097705078125,-0.13719313272833825,-0.005796593982167542,0.016392404939606784
1761505976294013000,1.851012939453125,-0.1400391698092222,-0.007001805053465068,0.013351539406366646
1761505976304048000,1.861048095703125,-0.12881927213668823,0.0012303455125540494,0.015738251879811285
1761505976314084000,1.871083984375,-0.1186380698621273,0.0024153905786573884,0.012139094876684247
1761505976324120000,1.8811201171875,-0.14032909266650676,0.0007989318253472447,0.018955095034465193
1761505976334156000,1.891156005859375,-0.1406271988302469,-0.0006937726841308176,0.013976722100004554
1761505976344192000,1.90119189453125,-0.13433540520966053,-0.00102357089407742,0.007515234468318522
1761505976354228000,1.91122802734375,-0.13747604132294655,-0.008189571799617261,0.003714015554450452
1761505976364264000,1.921263916015625,-0.13837795859873295,0.0002473075582645833,0.018018106445297596
1761505976374300000,1.9312998046875,-0.14286884027719496,-0.0026121369934640824,0.011859729946032165
1761505976384336000,1.9413359375,-0.13239654610157012,-0.007156557223759591,0.01539553938936442
1761505976394372000,1.9513720703125,-0.1244721828430891,-0.00768865480646491,0.012847133548185228
1761505976404408000,1.961407958984375,-0.13958441177904604,-0.01099328584242612,0.011019625860080122
1761505976414444000,1.971444091796875,-0.13269991296231745,-0.001859985185600817,0.0078431877810508
1761505976424480000,1.98147998046875,-0.13584230264127253,-0.0041073074546642595,0.00791899296361953
1761505976434516000,1.991515869140625,-0.13090601528286933,0.0000199650757946074,0.00955824807062745
1761505976444552200,2.00155224609375,-0.13299568103849888,0.0004933912738226354,0.005806348191201687
1761505976454588200,2.011588134765625,-0.14167057040333747,0.0012464929297566413,0.0070282181363552805
1761505976464624000,2.0216240234375,-0.13224457041025162,0.0028708792611956595,0.005334931287169456
1761505976474660000,2.03166015625,-0.1406283678740263,0.007467340205982327,0.012132482472807168
1761505976484696000,2.041696044921875,-0.13778525340259073,-0.003074658204987645,0.011127945072762668
1761505976494732000,2.05173193359375,-0.13883622376024723,-0.007466974879801273,0.01715988218076527
1761505976504768300,2.061768310546875,-0.13719137916266919,-0.007920271605253219,0.014339271802082656
1761505976514804200,2.07180419921875,-0.13719371725022791,0.008990786913596093,0.010011654393933712
1761505976524840200,2.081840087890625,-0.14198387413620947,0.0026825901474803685,0.005735474912077188
1761505976534876200,2.091876220703125,-0.14706570744514463,-0.004516637174226343,0.0025235271282494066
1761505976544912100,2.101912109375,-0.14527590141892432,-0.004931227590795606,0.014414675125852226
1761505976554948000,2.111947998046875,-0.13524959744513035,-0.008602956639789045,0.014439444240927695
1761505976564984000,2.121984130859375,-0.13479542393684388,-0.0022807861472479997,0.007613762939348816
1761505976575020000,2.13202001953125,-0.14301847788095473,0.00018618848817422985,0.0035675928210839626
1761505976585056000,2.142055908203125,-0.1379307993531227,0.003171761903911829,0.006402779714390635
1761505976595092000,2.152092041015625,-0.13778057722747325,0.0009222294114530086,0.005338986407779157
1761505976605128000,2.1621279296875,-0.12895429669320582,-0.0032842093024402857,0.004679901444539427
1761505976615164200,2.1721640625,-0.1332896955490112,-0.014168847138620912,0.010973119837231933
1761505976625200000,2.1822001953125,-0.14166764779388905,-0.003906250190921128,0.01415087309051305
1761505976635236000,2.192236083984375,-0.1307417646318674,0.00270893016513437,0.015119571992196141
1761505976645272000,2.20227197265625,-0.14285598079562187,-0.006881612739898264,0.00903627002313733
1761505976655308000,2.21230810546875,-0.13956336899101734,-0.012003193537332117,0.016221395754255352
1761505976665344000,2.222343994140625,-0.14090952290296554,-0.004912066232599318,0.01042695719655603
1761505976675380000,2.2323798828125,-0.13672142356336117,-0.005904986260086298,0.008342040681280196
1761505976685416000,2.242416015625,-0.1373217275440693,-0.0023541801770217714,0.005282543512806296
1761505976695452000,2.252451904296875,-0.13552841438651084,-0.001832987580820918,0.018719313517212868
1761505976705488000,2.26248779296875,-0.13388181622326373,-0.0048138117562048135,0.012794599643349646
1761505976715523800,2.27252392578125,-0.14180910209119318,-0.0015450740175321697,0.011204005983658134
1761505976725560000,2.28256005859375,-0.13701719163954257,-0.0034042554855346677,0.007999912712723016
1761505976735596300,2.29259619140625,-0.13911445617973803,-0.012072495913878083,0.009846198166534304
1761505976745632300,2.30263232421875,-0.1401572432309389,-0.00825558624053374,0.009227372148446739
1761505976755668200,2.312668212890625,-0.13926234021782874,-0.00164762107655406,0.014980601912923157
1761505976765704200,2.3227041015625,-0.1317827981173992,-0.0007743453733623027,0.01236256490163505
1761505976775740200,2.332740234375,-0.14300094222426413,0.0039946956593543284,0.006556874297559261
1761505976785776000,2.342776123046875,-0.1353694244325161,-0.00643359497776255,0.018583996699750423
1761505976795812000,2.35281201171875,-0.1269856269687414,-0.0012600282647646963,0.016263481330312787
1761505976805848000,2.36284814453125,-0.1462882933318615,-0.008765380659885705,0.014158618005551397
1761505976815884000,2.372884033203125,-0.14374211598038672,-0.002656304928753525,0.013209902445971965
1761505976825920000,2.382919921875,-0.14224749350845814,-0.00902552943341434,0.00813913852032274
1761505976835956200,2.392956298828125,-0.13520926543474196,-0.0035784430086612698,0.009079963034391403
1761505976845992200,2.4029921875,-0.13610183036029339,0.0018734839879907667,0.008920973080396652
1761505976856028200,2.413028076171875,-0.13504852191507816,-0.005914283811394125,0.0112847796022892
1761505976866064100,2.423064208984375,-0.1337006144374609,0.0030691600459627805,0.00018375906907021998
1761505976876100000,2.43310009765625,-0.13983809427917002,0.00717504272852093,0.00993994086459279
1761505976886136000,2.443135986328125,-0.13579729445576666,-0.010258030370436608,0.017498685681074856
1761505976896172000,2.453172119140625,-0.13789280543029309,-0.005114456936903298,0.01105714485887438
1761505976906208000,2.4632080078125,-0.1449193430662155,-0.0005288461796939373,0.005362659544311464
1761505976916244000,2.473243896484375,-0.14177695338726043,-0.0040974984467029565,0.004058079751767218
1761505976926280000,2.483280029296875,-0.13773615356385707,-0.009288235490210354,0.010308153122477232
1761505976936316000,2.49331591796875,-0.12965747652649878,-0.009047394205350428,0.009412665587477385
1761505976946352000,2.50335205078125,-0.13489829978942872,-0.007870294983685017,0.00908109554555267
1761505976956388000,2.51338818359375,-0.1359405023187399,-0.00005834259111434221,0.011076470613852142
1761505976966424000,2.523424072265625,-0.13204992462098597,-0.0022549758525565265,0.009645707158371805
1761505976976460000,2.5334599609375,-0.13653963725566864,-0.0026837591912597415,0.007548333020322024
1761505976986495000,2.543494873046875,-0.1312953068614006,-0.00597352145165205,0.0152698306504637
1761505976996531000,2.553531005859375,-0.13218845630884168,0.00624294951017946,0.012622969403490423
1761505977006567000,2.56356689453125,-0.13696633823513985,-0.0004655534188263118,0.008655746272951364
1761505977016603000,2.573602783203125,-0.13292963006496428,-0.0034903628664091227,0.007635097988322377
1761505977026639000,2.58363916015625,-0.13098667930364608,-0.009185158708225935,0.0017896233631297944
1761505977036675000,2.593675048828125,-0.13816811524033545,-0.009153357064165174,0.008024499164707958
1761505977046711000,2.6037109375,-0.14161620986759663,-0.00205598268173635,0.01012059466112405
1761505977056747000,2.6137470703125,-0.13877484896183012,0.0007656506102532148,0.011820055522769688
1761505977066783000,2.623782958984375,-0.13592764283716677,-0.0030986601350829,0.014167860757932067
1761505977076819200,2.633819091796875,-0.13547931454777717,-0.011626341315265744,0.006712210989743471
1761505977086856200,2.643856201171875,-0.13532558529078959,-0.0051888556136749685,0.01819956395942718
1761505977096892200,2.65389208984375,-0.13562544502019883,-0.012188706172071396,0.011162139603309333
1761505977106928000,2.66392822265625,-0.1383224290192127,-0.003049194970168173,0.006471789829991757
1761505977116964000,2.673964111328125,-0.1348848557859659,-0.0002306669507175684,0.010398169493488967
1761505977127000000,2.684,-0.13938275172710418,-0.014786175319366155,0.011042897137813269
1761505977137036000,2.6940361328125,-0.13728431814312933,-0.00043740503657609223,0.019634930524788794
1761505977147072000,2.704072021484375,-0.13293956693708897,-0.00008108414588496089,0.008307955748587847
1761505977157108200,2.714108154296875,-0.14820610965192318,-0.010454119198117404,0.0076879972193390125
1761505977167144200,2.724144287109375,-0.1350385850429535,-0.005165237276069819,0.0033372911965474485
1761505977177180400,2.734180419921875,-0.13204291035830973,-0.006402450920827686,0.006712174457125365
1761505977187216400,2.74421630859375,-0.13533376859724522,0.001428717628866434,0.007194222353026271
1761505977197252400,2.75425244140625,-0.13548106811344623,-0.0054959853340871626,0.009249510915018617
1761505977207288300,2.764288330078125,-0.1407154616355896,-0.0005555880561470986,0.011698767230659723
1761505977217324300,2.77432421875,-0.13861819709539414,-0.004640537548530847,0.011959902384877204
1761505977227360300,2.7843603515625,-0.14400631987452506,0.001965272190980613,0.010324008278734982
1761505977237396200,2.794396240234375,-0.13666998563706875,-0.003694653266854584,0.007497260420210659
1761505977247432200,2.80443212890625,-0.13921090229153632,-0.004770703266840428,0.01387165429033339
1761505977257468200,2.81446826171875,-0.13366846573352814,-0.009544183012656866,0.010921754976175724
1761505977267504000,2.824504150390625,-0.1363619426012039,-0.0019291048990562557,0.012741517749242483
1761505977277540000,2.8345400390625,-0.12603753246366978,-0.00033975334838032723,0.006647255994752049
1761505977287576300,2.844576416015625,-0.1323228963434696,-0.004809994097612798,0.0006689853027462959
1761505977297612300,2.8546123046875,-0.13247019585967063,-0.002508110363408923,0.0029563655875623224
1761505977307648300,2.864648193359375,-0.1399479843944311,-0.0027687705935910342,0.013375833597406744
1761505977317684200,2.874684326171875,-0.14174422016143798,-0.0032259763091802597,0.008312412727996706
1761505977327720200,2.88472021484375,-0.15042203213572503,-0.009191698046866804,0.011353059065528213
1761505977337756200,2.894756103515625,-0.13769815964102744,-0.0008342223344370722,0.021455095156654714
1761505977347792100,2.904792236328125,-0.13081015369296073,0.0028248664286918937,0.008715367505699395
1761505977357828000,2.914828125,-0.13500059112012386,-0.006225724380742758,0.0044274245208129285
1761505977367864000,2.924864013671875,-0.1324585054218769,-0.0014836992191150783,0.007950228352099657
1761505977377900000,2.934900146484375,-0.14158055403232572,-0.00994938454637304,0.013284428986907005
1761505977387936000,2.94493603515625,-0.1504056655228138,-0.005037226982228458,0.014092384368926287
1761505977397972200,2.95497216796875,-0.14486673609614373,-0.0043529710451141,0.004481748523935675
1761505977408008200,2.96500830078125,-0.1346849492996931,-0.0008378573299385606,0.007930391140468418
1761505977418044200,2.975044189453125,-0.1325894383251667,-0.005383866729121655,0.010554857892543077
1761505977428080000,2.985080078125,-0.1373772571235895,-0.010221826545894146,0.010107406385987996
1761505977438116000,2.9951162109375,-0.1424666892170906,-0.0021302534943446515,0.007008344392105937
1761505977448151000,3.005151123046875,-0.14440847093462944,-0.010396251531038432,0.0014015373609960078
1761505977458187000,3.01518701171875,-0.138418875131011,-0.004142543164826929,0.0024910130981355906
1761505977468223000,3.025222900390625,-0.1303320147871971,-0.0046494697736576196,0.005626315449178219
1761505977478259200,3.03525927734375,-0.13227321198284625,0.0018436185726895928,0.007350216632336377
1761505977488295200,3.045295166015625,-0.13705927721560002,-0.006142630940862,0.009710735218599439
1761505977498331400,3.055331298828125,-0.13856149847209454,-0.011265453847311436,0.008162994319945573
1761505977508367400,3.065367431640625,-0.14933189881145953,0.004407715173345059,0.012882095263712107
1761505977518403300,3.0754033203125,-0.14409049102663993,-0.004619951418228447,0.014067322992905973
1761505977528439300,3.085439208984375,-0.1406505797058344,-0.004149045970849693,0.01036065049469471
1761505977538475300,3.095475341796875,-0.13406535609662532,-0.01129584898557514,0.0064154565328732125
1761505977548511200,3.10551123046875,-0.1268774904191494,-0.013731405569426714,0.012565284399501978
1761505977558547200,3.115547119140625,-0.13360825997889042,-0.0030369930757209655,0.014690496392548083
1761505977568583200,3.125583251953125,-0.1391430977523327,0.0012281900880858302,0.0020217516185715794
1761505977578619100,3.135619140625,-0.13032149339318275,-0.0015201953046023846,0.00906111220344901
1761505977588655400,3.1456552734375,-0.13870529085695743,-0.006123378251120448,0.011405848698690532
1761505977598691300,3.15569140625,-0.1427460906803608,-0.012661292119883,0.011540617526881396
1761505977608727300,3.165727294921875,-0.12852759571373462,-0.007705204082466661,0.012936784593015909
1761505977618763300,3.17576318359375,-0.13900339702069758,-0.0069964530249126255,0.01351089468654245
1761505977628799200,3.18579931640625,-0.14199556457400322,-0.00013641279600560665,0.004824278351292014
1761505977638835200,3.195835205078125,-0.13944821817874908,-0.0014151640275493263,0.00852083131428808
1761505977648871200,3.20587109375,-0.1439338391602039,-0.008658869811799377,0.002469495386071503
1761505977658907100,3.2159072265625,-0.13630232136845588,-0.0033413097845390437,0.003992576767504215
1761505977668943000,3.225943115234375,-0.13554887265264987,-0.00863452082183212,0.008669044145941733
1761505977678979000,3.23597900390625,-0.13599427833259106,-0.007180705284327268,0.01014806718993932
1761505977689015000,3.24601513671875,-0.14332710543870925,-0.0004903408002108335,0.004406527863256633
1761505977699051300,3.25605126953125,-0.1373386786788702,0.0056081952705979345,0.0047867593524977565
1761505977709087200,3.266087158203125,-0.13045593342781067,-0.011996161008346825,0.008979279138892888
1761505977719123200,3.276123291015625,-0.13165537234544752,-0.006618632688466459,0.004464322465099394
1761505977729159200,3.2861591796875,-0.13959142604172228,-0.0022405089357867836,0.01013834951352328
1761505977739195100,3.296195068359375,-0.13405600374639035,0.0032067418857477602,0.008050802649743855
1761505977749231000,3.306231201171875,-0.12763210817873477,-0.001183620293997228,0.015937573844194412
1761505977759267000,3.31626708984375,-0.13152385492026805,0.0028925979026593264,0.009661050857976078
1761505977769303000,3.326302978515625,-0.13421733178794384,-0.006238748259097337,0.0002988368161022663
1761505977779339000,3.336339111328125,-0.13047405360639094,-0.00032092078374698754,0.006173537535779178
1761505977789375200,3.346375244140625,-0.12673778968751429,0.009894603885523974,0.0041799160331487655
1761505977799411200,3.3564111328125,-0.14708382762372493,0.00017486337656155227,0.004044233889505267
1761505977809447200,3.366447265625,-0.1369102241337299,-0.002350545181520283,0.003793291335739195
1761505977819482000,3.376482177734375,-0.1379565183162689,-0.0037875191820785402,0.008054711639881133
1761505977829518000,3.38651806640625,-0.13720423864424228,-0.01365251338062808,0.008218450834229589
1761505977839554000,3.396553955078125,-0.14617840321660042,-0.011562738027144222,0.016337167621031403
1761505977849590300,3.40659033203125,-0.13136194235682486,-0.006183912799321114,0.0011559651020914316
1761505977859626200,3.416626220703125,-0.13899170658290386,0.0013330752346664666,0.002730301746726036
1761505977869662200,3.426662109375,-0.1415302851498127,-0.0032952786857262254,0.012382584776356816
1761505977879698200,3.4366982421875,-0.134789578717947,0.001383398916106671,0.006251425077579915
1761505977889734100,3.446734130859375,-0.13658230735361576,0.0009127857296727598,0.005882957091368735
1761505977899770400,3.456770263671875,-0.1410772806853056,0.0007157835865393281,0.00854344500489533
1761505977909806300,3.466806396484375,-0.13718904107511043,-0.0019118249706923962,-0.002955342674255371
1761505977919842300,3.47684228515625,-0.13928513657152652,-0.00774454971216619,0.0035213790591806173
1761505977929878300,3.486878173828125,-0.14302666118741034,-0.005194974827207624,0.006312251886725425
1761505977939914200,3.496914306640625,-0.13120178335905075,-0.008110369083564727,0.013051606611721217
1761505977949950200,3.5069501953125,-0.13809095835089683,-0.0061915115838870405,0.006406359910964965
1761505977959986200,3.516986083984375,-0.13435995512902735,-0.006927680371329188,0.0037667321223765608
1761505977970022100,3.527022216796875,-0.13451076177656648,0.010689918981678783,0.010468348652869462
1761505977980058000,3.53705810546875,-0.1328641636133194,0.0014874986113980412,0.0083184406099841
1761505977990094000,3.547093994140625,-0.14109189373254774,0.004425835351925343,0.01665989676937461
1761505978000130300,3.55713037109375,-0.14184066627323627,-0.008846684001479298,0.009612133682332932
1761505978010166300,3.567166259765625,-0.13615209924280644,-0.001468136323802173,0.00876636704057455
1761505978020202200,3.5772021484375,-0.12762275582849977,-0.0121340533753857,0.0005684475377202034
1761505978030238200,3.58723828125,-0.135552379783988,-0.0027833471082150934,0.008050656519271433
1761505978040274200,3.597274169921875,-0.13555179526209832,0.0019335618784651158,0.014272965100221335
1761505978050310100,3.60731005859375,-0.13136369592249392,-0.0017811295294202863,0.010795863574184477
1761505978060346000,3.61734619140625,-0.13795359570682048,-0.0028210853027179836,0.012662789957225322
1761505978070382000,3.627382080078125,-0.14034838188886642,-0.004946699154563248,0.009262260798737406
1761505978080418000,3.63741796875,-0.14617840321660042,-0.005243124817870557,0.0014567746795713901
1761505978090453500,3.64745361328125,-0.13390811970829963,-0.0045882411057129495,0.0020207652378827334
1761505978100489700,3.65748974609375,-0.13480769889652727,-0.005589855896309018,0.004734554241225123
1761505978110525700,3.667525634765625,-0.13002163366377353,0.0023984577101655302,0.006711443804763257
1761505978120561700,3.677561767578125,-0.14678221432864666,-0.0035791005957871674,0.005095386910252272
1761505978130596600,3.6875966796875,-0.15216799902021885,0.0031550847637467085,0.006706840694881975
1761505978140632600,3.697632568359375,-0.1425888542920351,-0.005975804740283638,-0.002931450342014432
1761505978150668500,3.70766845703125,-0.13750117576420307,-0.0023860914189368487,-0.0006931698959320783
1761505978160704500,3.71770458984375,-0.13974164816737175,-0.006573514905106276,0.010568082700297236
1761505978170740500,3.727740478515625,-0.13810031070113182,0.0018715660255402325,0.0071317515760660165
1761505978180776700,3.737776611328125,-0.13376140471398829,-0.006940338923502713,0.001911203916184604
1761505978190812700,3.747812744140625,-0.1382446876078844,-0.007035396795812994,0.008671345700882375
1761505978200848600,3.7578486328125,-0.13719780890345573,-0.000639247751608491,0.007659867103397846
1761505978210884600,3.767884521484375,-0.13196107729375361,-0.007610182742774486,0.007035049735940992
1761505978220920600,3.777920654296875,-0.1383937406897545,0.0006260960090905428,0.008189115141890942
1761505978230956500,3.78795654296875,-0.13779402123093604,0.006356438088323921,-0.002194112510792911
1761505978240992500,3.797992431640625,-0.13165887947678565,-0.00031206162385642527,0.00463657375946641
1761505978251028500,3.808028564453125,-0.14991525165736674,-0.0035854755376465617,0.0007659428711980581
1761505978261064400,3.818064453125,-0.1484095232695341,-0.005213241136260331,0.003614756431058049
1761505978271100400,3.828100341796875,-0.14511808050870895,0.00000681333327665925,0.003702544312365353
1761505978281136600,3.83813671875,-0.13254676822721959,0.0032899449234828353,0.0026015242679044604
1761505978291172600,3.848172607421875,-0.14151859471201897,-0.008932955779135226,0.003663856269791722
1761505978301208600,3.85820849609375,-0.12669687315523623,-0.00028117329524829983,0.013335757315345108
1761505978311244500,3.86824462890625,-0.1425619662851095,-0.0021386011975817383,0.006299684666097163
1761505978321280500,3.878280517578125,-0.14211714512705803,-0.0012882862448692321,0.007249532736837864
1761505978331316500,3.88831640625,-0.1328384446501732,0.0017815131219103932,0.007923559540882707
1761505978341352400,3.8983525390625,-0.13942425278127193,0.0021736542446538806,0.0036728432938456534
1761505978351388400,3.908388427734375,-0.14241408224701882,-0.0022107713846489787,0.005261208463832736
1761505978361424400,3.91842431640625,-0.12954583284556864,-0.009262333863973618,0.004894603641144931
1761505978371460600,3.928460693359375,-0.14286942479908465,-0.009709237381257117,0.0013908333038911223
1761505978381496600,3.93849658203125,-0.13883330115079878,0.0027447869298048316,0.008229337554425
1761505978391532500,3.948532470703125,-0.1418260532259941,0.002390110006928444,0.01355794869866222
1761505978401568800,3.95856884765625,-0.13808043695688246,0.005016567786689847,0.0026746260367333887
1761505978411604700,3.968604736328125,-0.12999942183196544,-0.00041508360691368577,0.0019352789115160702
1761505978421640700,3.978640625,-0.14092647403776645,-0.004199333119671791,0.0007792772768065333
1761505978431675600,3.988675537109375,-0.15065116471648216,-0.0014335034018382428,0.006015680092945694
1761505978441711600,3.998711669921875,-0.14735738386809824,-0.001760470333881676,0.014961970277689397
1761505978451747600,4.00874755859375,-0.14406769467294214,0.003185333771537989,0.01816610008124262
1761505978461783600,4.018783447265625,-0.13614040880501269,0.0007751856235787272,-0.0037139790218323468
1761505978471819500,4.028819580078125,-0.1416653097063303,-0.003973981664888561,-0.002650441443547606
1761505978481855700,4.038855712890625,-0.13657295500338076,-0.0065826115270145235,0.0038252939091995355
1761505978491891700,4.0488916015625,-0.13193068215548992,0.0043893575327470895,-0.003926306598260998
1761505978501927700,4.058927734375,-0.13118015604913233,0.00392422423902899,-0.002504566699452698
1761505978511963600,4.068963623046875,-0.13223112640678883,-0.005303166175726801,0.00746222563944757
1761505978521999600,4.07899951171875,-0.13656769430637358,0.0025032515252009033,0.011086334420740604
1761505978532035600,4.08903564453125,-0.141207044544816,-0.0025314181737601756,0.010024769603833555
1761505978542071600,4.099071533203125,-0.1359668058037758,-0.005149327320884913,0.007442644156143069
1761505978552107500,4.109107421875,-0.1438999368906021,-0.00028247020319104195,0.007108662961423397
1761505978562143500,4.1191435546875,-0.13297463825047015,-0.003513688943069428,0.0071157137567177415
1761505978572179500,4.129179443359375,-0.13716390663385392,0.00020849165152758359,-0.002033624719455838
1761505978582215400,4.13921533203125,-0.14628653976619244,-0.006368840912170708,0.0019415259892120956
1761505978592251600,4.149251708984375,-0.14613748668432236,0.0008174355964176356,0.012289353534951806
1761505978602287600,4.15928759765625,-0.13836042294204234,-0.005632142401766032,0.010822934244200586
1761505978612323600,4.169323486328125,-0.13790624943375587,-0.008888093724101782,0.00017959435060620308
1761505978622359600,4.179359619140625,-0.13700491667985915,0.001031662868987769,-0.0009951119845733045
1761505978632395500,4.1893955078125,-0.1431342132151127,0.0015470102462917564,0.007243322191759944
1761505978642431500,4.199431396484375,-0.1366892748594284,-0.008115757644735277,-0.000649111558496952
1761505978652467500,4.209467529296875,-0.14087795872092246,-0.004979560244549066,0.0004647679675370454
1761505978662503400,4.21950341796875,-0.1564402695119381,0.0010833747899159788,0.0021486294012516734
1761505978672538600,4.22953857421875,-0.14222995785176754,-0.0035349691931158304,0.004096183272451162
1761505978682574600,4.23957470703125,-0.1422229435890913,-0.0049095089493319385,0.0022581541903316975
1761505978692610600,4.249610595703125,-0.1422223590672016,-0.004176956891082227,0.00485328525006771
1761505978702646500,4.259646484375,-0.1330956342816353,-0.011744944459944963,0.0015494579317048192
1761505978712682500,4.2696826171875,-0.1350508600026369,-0.0065508098829537625,0.005820340183936059
1761505978722718500,4.279718505859375,-0.13191080841124056,-0.008191051370650529,0.004005399716459215
1761505978732754400,4.28975439453125,-0.13640052104592323,0.0015963292807340621,-0.004836443713121116
1761505978742790400,4.299790283203125,-0.13984218593239783,0.00279459915459156,0.0032349633332341907
1761505978752826400,4.309826416015625,-0.1304115097641945,0.00361084744092077,0.003187397864460945
1761505978762862600,4.319862548828125,-0.13414952724874019,-0.0024114450559020043,0.002368701892718673
1761505978772898600,4.329898681640625,-0.14431787004172802,-0.004628646181337535,0.0016908756963908672
1761505978782934800,4.339934814453125,-0.13698738102316857,-0.006967701854463666,0.0064959013579413295
1761505978792970800,4.349970703125,-0.13743746287822722,-0.005577361740916967,-0.0023110899539664385
1761505978803006700,4.3600068359375,-0.14476795189678668,0.0061279082957655185,0.00010093962382525205
1761505978813042700,4.370042724609375,-0.14252163427472114,-0.008210541522409767,0.0026559944014996287
1761505978823078700,4.38007861328125,-0.13578385045230387,0.0004940305946394801,-0.000022175299189984796
1761505978833114600,4.390114501953125,-0.13862404231429099,-0.004772803892381489,0.0015555223463103174
1761505978843150600,4.400150634765625,-0.12980302247703074,-0.0032809213668107983,0.006130977035686373
1761505978853186600,4.4101865234375,-0.13938392077088355,-0.0034303397748619317,0.005796192123368382
1761505978863222500,4.420222412109375,-0.11948738016784191,-0.0013743570931255816,-0.000758745945431292
1761505978873258500,4.430258544921875,-0.13115735969543457,-0.010429423148278147,0.009557590483501553
1761505978883294500,4.44029443359375,-0.1381833128094673,-0.00860759628228843,0.00484835334662348
1761505978893330700,4.45033056640625,-0.13579437184631823,-0.003669427494052797,0.00880458015911281
1761505978903365600,4.46036572265625,-0.12891396468281746,0.00410447617676109,0.005002046070992946
1761505978913401600,4.470401611328125,-0.132950672852993,0.0014472579325549304,0.008566168293356895
1761505978923437600,4.4804375,-0.13759177665710448,0.002934665212407708,0.005053082138486206
1761505978933473500,4.4904736328125,-0.13504326121807098,0.0021550774083472788,0.004932341835647821
1761505978943509500,4.500509521484375,-0.14401917935609818,-0.0003495806226506829,0.002882825427316129
1761505978953545500,4.51054541015625,-0.14102818084657193,-0.002639883516915142,0.003327317791804671
1761505978963581400,4.52058154296875,-0.1380389359027147,-0.010977978675439953,0.0028058146683499216
1761505978973617700,4.53061767578125,-0.13669570460021496,-0.0011540654059499502,0.007645327121391892
1761505978983653600,4.540653564453125,-0.14686930809020995,-0.001901340109296143,0.012524294801987707
1761505978993689600,4.550689697265625,-0.14402560909688472,-0.0073808674989268176,0.0038783392706885932
1761505979003725600,4.5607255859375,-0.1353460435569286,0.0069646513808518645,0.0023881372455507514
1761505979013761500,4.570761474609375,-0.14342004441916942,-0.004495046396926045,0.003888458805903792
1761505979023797500,4.580797607421875,-0.1401268480926752,-0.010883249596692622,0.0099035543769598
1761505979033833500,4.59083349609375,-0.13967910432517527,-0.00015482523553073406,0.0027841508258134124
1761505979043869400,4.600869384765625,-0.13713994123637677,-0.004677855617925525,0.007582417953014373
1761505979053905400,4.610905517578125,-0.14388473932147025,-0.0007989683579653501,-0.0026388240709900855
1761505979063941400,4.62094140625,-0.14044775061011314,-0.006608056495524942,0.010200199235975742
1761505979073977300,4.630977294921875,-0.14030395822525024,-0.006866561301238834,0.012524477465078234
1761505979084013600,4.641013671875,-0.14060440247654915,0.004841156420856714,0.0008062018163502216
1761505979094050000,4.651050048828125,-0.1304284608989954,0.0011323284981772303,0.005871083990484476
1761505979104086000,4.6610859375,-0.12863573226332664,-0.00019000614676624537,0.010880692313425241
1761505979114122000,4.6711220703125,-0.13656418717503546,-0.0024485621958971024,0.003937193318456411
1761505979124158000,4.681157958984375,-0.14001052823662757,-0.005072389627154917,0.003728555536456406
1761505979134193000,4.69119287109375,-0.13147943125665187,-0.006178195444587618,0.0012202990425750613
1761505979144228900,4.701228759765625,-0.12429916436374187,-0.0013619725355878472,0.008905812043882905
1761505979154264800,4.711264892578125,-0.13417290812432764,-0.00012729790778830648,0.007916874071769416
1761505979164300800,4.72130078125,-0.13686696951389313,-0.002713405410852283,-0.0008016352390870452
1761505979174337000,4.7313369140625,-0.1283405487090349,0.0013959661367349326,0.007168612987734377
1761505979184373000,4.741373046875,-0.12654548198580742,-0.009971358916163443,0.006135178286768496
1761505979194409000,4.751408935546875,-0.13612228862643241,-0.010049264724273234,0.0037092663140967487
1761505979204445000,4.76144482421875,-0.13178513620495796,-0.0003654175125993788,0.004018989850394427
1761505979214481000,4.77148095703125,-0.13193828094005583,-0.009700067694112658,0.008555427703633904
1761505979224516900,4.781516845703125,-0.13627251075208185,-0.0017329612724483012,0.009873232303932309
1761505979234552800,4.791552734375,-0.12743337073624134,-0.004494754135981202,0.001359926708973944
1761505979244588800,4.8015888671875,-0.13327040632665157,0.005106364961992949,0.007528422743454575
1761505979254624800,4.811624755859375,-0.1317740302890539,0.003668715107999742,0.005388816898874938
1761505979264660700,4.82166064453125,-0.12488719338476657,-0.005097889394592494,0.0037535438472405076
1761505979274696700,4.83169677734375,-0.13401859434545038,-0.0038880569471046325,0.001609992479905486
1761505979284733200,4.841733154296875,-0.1409013395965099,-0.0015163959123194216,0.004586743268370628
1761505979294769200,4.85176904296875,-0.13731062162816524,0.00017979528000578284,0.007127002335712313
1761505979304805000,4.86180517578125,-0.13760755874812602,0.003744081899151206,0.005121873058378696
1761505979314841000,4.871841064453125,-0.13461597571671008,-0.004640190488658845,0.008609167184866965
1761505979324877000,4.881876953125,-0.13521861778497696,-0.0009443864443339407,0.004770758065767586
1761505979334913000,4.8919130859375,-0.14180033426284788,0.007069719190523028,0.0007022299852222204
1761505979344949000,4.901948974609375,-0.14120061480402946,0.005882701363041996,-0.0011361644230782986
1761505979354985000,4.91198486328125,-0.1322188514471054,-0.003279021670669317,0.009402253791317343
1761505979365021000,4.92202099609375,-0.13446107741594313,0.003942600145936012,0.0009629267480224371
1761505979375057000,4.932056884765625,-0.13475275383889673,-0.00013235767539590597,0.008469429920613765
1761505979385092000,4.942092041015625,-0.13834347180724144,-0.004007080216892063,0.01068557160012424
1761505979395128000,4.952128173828125,-0.14702128378152846,-0.003293780848383903,0.0025063567977398633
1761505979405164000,4.9621640625,-0.14462299046814442,0.0035017427769489583,0.005486322456598282
1761505979415200000,4.972199951171875,-0.1342979958087206,0.00011527867643162607,0.005905972640775144
1761505979425236000,4.982236083984375,-0.13459610197246075,0.0061703226653859015,0.007782507102377712
1761505979435272000,4.99227197265625,-0.1277098495900631,-0.0010023637092672288,0.007533537309989333
1761505979445308000,5.002307861328125,-0.14132277987897396,-0.007437894915789365,0.002618475402705371
1761505979455343900,5.01234375,-0.13413783681094646,0.0006849135242402554,-0.0007679886978119611
1761505979465379800,5.0223798828125,-0.13159399754703044,-0.010547770564630627,0.00543999909684062
1761505979475416000,5.032416015625,-0.14161387178003787,-0.00316872969660908,0.002480235975794494
1761505979485452000,5.0424521484375,-0.14056114785671234,0.003754000504966825,0.010673881162330508
1761505979495488000,5.052488037109375,-0.13367957164943217,0.0006168167240917683,0.0035465135004371403
1761505979505524000,5.06252392578125,-0.14205869293808937,-0.0033485067103058096,0.014051979293301702
1761505979515560000,5.072559814453125,-0.1309896019130945,-0.0013034290150739252,0.00812193165719509
1761505979525596000,5.082595947265625,-0.1259019233852625,-0.003923676249757409,0.001352729783207178
1761505979535632000,5.0926318359375,-0.13397884685695172,0.0006062405311502516,-0.0021297785703092813
1761505979545667800,5.102667724609375,-0.13247954820990562,-0.003911510887928307,0.0025881533296778798
1761505979555703800,5.112703857421875,-0.139660984146595,-0.004607201534509659,-0.001215403671748936
1761505979565739800,5.12273974609375,-0.1336702192991972,-0.00014152736254036425,0.0011933379704132676
1761505979575775700,5.132775634765625,-0.13846212975084782,-0.0028644860530272123,0.007652049123123288
1761505979585812000,5.14281201171875,-0.12977964160144329,0.0010956862822175026,-0.0008794131830334663
1761505979595848000,5.152847900390625,-0.1333645143508911,0.002085775031801313,0.009144589235819876
1761505979605884000,5.1628837890625,-0.14129238474071026,-0.002134820071607828,0.00353186392057687
1761505979615919900,5.172919921875,-0.13171499357819558,-0.005634900614432991,-0.004077953496016562
1761505979625954800,5.182954833984375,-0.1297661975979805,-0.01251675081634894,0.004353884360566735
1761505979635990800,5.19299072265625,-0.1257259822964668,0.004024067884311079,0.008188713283091783
1761505979646026800,5.20302685546875,-0.13290975632071494,0.002783328841906041,-0.0002133139571174979
1761505979656062700,5.213062744140625,-0.12617723319530486,-0.005493154056183993,0.0016385609872639178
1761505979666099000,5.223098876953125,-0.11660685629546641,0.00011208207234740257,0.004929638421908021
1761505979676135000,5.233135009765625,-0.14010288269519805,-0.002498246556520462,0.0007190715221688151
1761505979686171100,5.243171142578125,-0.14009703747630117,-0.010927892456017434,0.0014713877268135547
1761505979696207000,5.25320703125,-0.1357563779234886,-0.013834829411283134,0.0054269204195588824
1761505979706243000,5.2632431640625,-0.13814765697419643,-0.003201298525650054,0.0035374534111469983
1761505979716279000,5.273279052734375,-0.13769406798779962,-0.0019357538355514407,0.002848119440115988
1761505979726315000,5.28331494140625,-0.14024258342683316,-0.004302629097364842,0.003867416017875075
1761505979736351000,5.29335107421875,-0.13216565995514393,-0.006894801015034317,-0.0027324937038123607
1761505979746387000,5.303386962890625,-0.13635083668529988,-0.0035048480494879186,0.006281966346316039
1761505979756423000,5.3134228515625,-0.1394903037548065,0.00019502938175573943,0.005172470734454691
1761505979766459000,5.323458984375,-0.13215104690790175,0.005809873588848859,-0.002917166088335216
1761505979776495000,5.3334951171875,-0.13244389237463475,0.0032541064251214264,-0.007004471934586763
1761505979786531000,5.343531005859375,-0.1388806474238634,-0.007171133738383651,0.0009186857474967837
1761505979796567000,5.353567138671875,-0.13469547069370746,-0.0064637161213904615,0.001085785942710936
1761505979806603000,5.36360302734375,-0.14756488913893698,-0.002834602371416986,0.006908683409914374
1761505979816639000,5.373638916015625,-0.13410627262890337,-0.004895571755524725,0.008802424734644591
1761505979826675000,5.383675048828125,-0.13964578657746315,-0.0000684438600204885,0.000028276246413588524
1761505979836711000,5.3937109375,-0.135308049634099,-0.0038397608259692784,-0.003638210371881723
1761505979846747000,5.403746826171875,-0.13022212467193603,0.0031589937538839875,0.0033801074249669907
1761505979856782000,5.413781982421875,-0.13635960451364518,-0.0020656090266071257,0.0004604936512187123
1761505979866818000,5.423818115234375,-0.13097557338774204,0.0017302578587085008,0.007388941207528114
1761505979876854000,5.43385400390625,-0.1324666887283325,-0.004505659122485667,-0.002276566629856825
1761505979886890000,5.443889892578125,-0.13291384797394276,0.003535736378096044,-0.0029105902170762418
1761505979896926000,5.453926025390625,-0.13486089038848875,0.0033424788283184168,0.005554017397947609
1761505979906962000,5.4639619140625,-0.13456161518096924,0.006341441448591649,0.0013506108913570642
1761505979916998000,5.473997802734375,-0.1333645143508911,-0.003827431067358702,0.005382094897143542
1761505979927033900,5.484033935546875,-0.13694821805655955,-0.005825253821071237,0.0074436670694500206
1761505979937069800,5.49406982421875,-0.13679565784335135,0.0003106368517503142,0.0010611264254897833
1761505979947105800,5.504105712890625,-0.13993804752230643,-0.0005272022118791937,0.002075344969332218
1761505979957141800,5.514141845703125,-0.13365326816439627,-0.005012074274662882,0.0005689224617555737
1761505979967178000,5.524177978515625,-0.14068272840976714,-0.0006084142219275236,-0.0003806698806583881
1761505979977214000,5.5342138671875,-0.13783669132888315,0.006546024109981953,0.005238192914426326
1761505979987250000,5.54425,-0.13559329631626604,-0.000846716489829123,0.004260251260362565
1761505979997286000,5.554285888671875,-0.13663842145502567,-0.0016875146955251693,0.0020666867388412355
1761505980007321900,5.56432177734375,-0.14456921445429324,0.0009297916634008288,0.001206087854132056
1761505980017357800,5.57435791015625,-0.13678455192744732,-0.004077040180563926,0.005927344222366809
1761505980027394000,5.58439404296875,-0.1397737968713045,-0.00841437526512891,0.0055206996502354735
1761505980037430000,5.594429931640625,-0.13303659757077693,0.0011100253348238765,-0.0008265504846349358
1761505980047466000,5.604466064453125,-0.14276187277138233,-0.007743672929331659,0.000493226877041161
1761505980057502000,5.614501953125,-0.14126608125567436,0.00542292009787634,0.007852065207250417
1761505980067538000,5.624537841796875,-0.13991992734372616,0.001735335892625153,0.0006560892885550856
1761505980077572900,5.63457275390625,-0.12720248458981515,-0.0026400113810785115,0.0022289646284654736
1761505980087608000,5.644608154296875,-0.13752338759601115,-0.0038935185735113915,-0.0016043299240991473
1761505980097644000,5.65464404296875,-0.13093582589924335,-0.0018876403775066135,0.0024427535096183416
1761505980107680000,5.664679931640625,-0.12540098812580108,0.0000655760494992137,0.0041246056493371725
1761505980117716000,5.674716064453125,-0.13318448160886764,-0.010238613283913582,-0.002101100465096533
1761505980127752200,5.684752197265625,-0.1379752230167389,-0.004573463661689311,0.004336129508167505
1761505980137788200,5.6947880859375,-0.12884323753416538,-0.00958396703377366,0.004163403289765119
1761505980147824000,5.70482421875,-0.13153437631428241,-0.009752163207530975,0.005895268583670258
1761505980157860000,5.714860107421875,-0.1312345165848732,-0.0028050474833697077,0.0025479309171438217
1761505980167896000,5.72489599609375,-0.13497487215697765,-0.0056650765569880605,-0.0034431261911988258
1761505980177932000,5.73493212890625,-0.12929331938922403,0.0007390548642724751,0.0003685045188292861
1761505980187968000,5.744968017578125,-0.13109130872189997,0.0014370835984125732,0.0004661927396431565
1761505980198004000,5.75500390625,-0.1376695180684328,-0.006204736391641199,0.0040355391263961786
1761505980208040000,5.7650400390625,-0.13377543323934077,-0.016669121255446225,0.0001946092566475272
1761505980218076000,5.775075927734375,-0.14036299493610857,-0.004279741412121802,-0.001568454893119633
1761505980228112000,5.78511181640625,-0.13273615331947802,0.00007719342205673456,0.002351166236028075
1761505980238148000,5.795148193359375,-0.13483224881589412,-0.004157320608850568,0.0013800196489319205
1761505980248184000,5.80518408203125,-0.13797346945106984,-0.0041697234326973556,0.002004690885916352
1761505980258220000,5.815219970703125,-0.1369201610058546,-0.0005093925605528057,0.002479359192959964
1761505980268256000,5.825256103515625,-0.1376695180684328,0.0029685309493914245,-0.0025483693085610864
1761505980278292200,5.835292236328125,-0.13871756581664085,-0.0009894676950760186,0.007545775737054646
1761505980288328200,5.845328125,-0.13796762423217296,-0.005615885386709123,0.008772614118270575
1761505980298363000,5.85536279296875,-0.13602116633951664,-0.005282726175896823,0.0030221973653882742
1761505980308398800,5.86539892578125,-0.1349684424161911,-0.0040916166951879855,-0.001472483705356717
1761505980318435000,5.87543505859375,-0.13691197769939897,-0.007969115715660155,0.0002618658065795898
1761505980328471300,5.88547119140625,-0.1333212597310543,-0.00368942910246551,-0.008510419518128037
1761505980338507300,5.89550732421875,-0.1316699853926897,-0.00021314956033602355,0.0016380860632285476
1761505980348543200,5.905543212890625,-0.13645663514733314,0.002911576597765088,0.0038378976624459027
1761505980358579200,5.9155791015625,-0.14079437209069728,-0.0011728979705832897,0.0068128583526238795
1761505980368615200,5.925615234375,-0.13286124100387095,-0.0027243651962839065,0.008263605150207876
1761505980378651100,5.935651123046875,-0.1342103175252676,0.003188384245149791,0.0049346068579703565
1761505980388687000,5.94568701171875,-0.1304676238656044,0.0022615334575064477,-0.0015269538389518856
1761505980398723000,5.95572314453125,-0.13585399307906626,0.0003737652158364653,0.002004763951152563
1761505980408759000,5.965759033203125,-0.1330120476514101,0.0027472346152178943,-0.0010253975249826907
1761505980418795000,5.975794921875,-0.13435703251957892,-0.0076742609549313775,0.002471687343157828
1761505980428831000,5.9858310546875,-0.13704992486536502,-0.008564158999361098,0.0065014177832752465
1761505980438867200,5.9958671875,-0.11939561023116112,0.003923274390958249,-0.0006951791899278759
1761505980448903200,6.005903076171875,-0.1258358724117279,-0.00028135595833882687,0.0058354646878317
1761505980458939100,6.015939208984375,-0.12224924609661102,-0.009866619900055228,0.004394983555935323
1761505980468975000,6.02597509765625,-0.13047931430339813,-0.008830390453804285,0.004015592316910625
1761505980479011000,6.036010986328125,-0.13512392523884773,-0.0022742102759890255,0.004058773871511221
1761505980489047000,6.046047119140625,-0.13467735051512716,-0.002839242013916373,0.0026665888607501982
1761505980499083000,6.0560830078125,-0.13916121793091296,0.005796429585386067,0.002840484122931957
1761505980509119000,6.066118896484375,-0.12853811710774898,-0.0014734335534274576,0.002682042158208787
1761505980519154200,6.076154296875,-0.1304845750004053,0.005391903905104845,0.006177921449951827
1761505980529190100,6.086190185546875,-0.13138064705729482,-0.007116462675388902,0.005036496329866349
1761505980539226000,6.09622607421875,-0.13706921408772468,0.005674319309368729,0.0037711525691673155
1761505980549262000,6.106261962890625,-0.14290800324380398,0.004476725288946181,0.0035661680489778515
1761505980559298000,6.116298095703125,-0.13587620491087435,-0.0014576514624059199,0.003199234432727098
1761505980569334000,6.126333984375,-0.13513035497963427,0.0005756627297960221,0.002335895601660013
1761505980579370000,6.136369873046875,-0.13901684102416037,0.00044538741363212464,0.0010831921268254518
1761505980589406000,6.146406005859375,-0.1467939047664404,-0.0022841654144227504,0.0015860636150464415
1761505980599442000,6.15644189453125,-0.13991057499349116,0.003527297343313694,0.0047314489686861635
1761505980609478000,6.166477783203125,-0.1294341891646385,0.009631788230873644,0.004611183589883148
1761505980619514000,6.17651416015625,-0.1381178463578224,-0.013780359277687965,0.005749357306957244
1761505980629550000,6.186550048828125,-0.1270429101139307,0.004791545125469565,0.0034483868882060047
1761505980639586000,6.1965859375,-0.1390150874584913,-0.006651950436178594,0.002688691094703972
1761505980649622000,6.2066220703125,-0.13556874639689923,-0.006419602985028177,0.010371208421327173
1761505980659658000,6.216657958984375,-0.12883563874959944,-0.004429744342062622,0.0038697541054338214
1761505980669694000,6.22669384765625,-0.1414075355529785,0.0010509886239655315,-0.001956285166926682
1761505980679730200,6.236730224609375,-0.13003332410156726,0.0015098200410604476,0.004265183163806796
1761505980689766100,6.24676611328125,-0.13781506401896476,-0.0001397920631803572,0.004590359997563064
1761505980699802000,6.256802001953125,-0.13737024286091326,-0.010888820820953696,0.002756495633907616
1761505980709838000,6.266838134765625,-0.13662205484211445,0.00031924028331413863,-0.002624941676110029
1761505980719874000,6.2768740234375,-0.13587211325764656,-0.000925864406954497,0.003098806265555322
1761505980729909200,6.2869091796875,-0.1385620829939842,0.0004282718820497393,0.0022385727070271966
1761505980739945200,6.2969453125,-0.13721943621337412,-0.003452241079416126,0.004293167149275541
1761505980749981200,6.306981201171875,-0.1421568926155567,-0.0020224274720065296,0.0015417495492845773
1761505980760017200,6.31701708984375,-0.1339262398868799,0.0030088812260888513,-0.0007753317540511489
1761505980770053000,6.32705322265625,-0.13661854771077633,-0.0004863770111463964,-0.0005765943115577101
1761505980780089000,6.337089111328125,-0.14244798451662063,-0.0036910365376621483,0.0037518268141895532
1761505980790125000,6.347125,-0.12703998750448225,0.0007680069641210138,0.0064680269703269
1761505980800161000,6.3571611328125,-0.14514847564697264,-0.0010666428508237004,-0.0007199117723852396
1761505980810197000,6.367197021484375,-0.131678753221035,0.0023691037515178323,0.0004661196744069457
1761505980820233200,6.377233154296875,-0.14080313991904259,0.00020125819314271211,0.0043493543159216635
1761505980830269200,6.387269287109375,-0.13166823182702064,-0.000832870627567172,0.003926708457060158
1761505980840305200,6.39730517578125,-0.12283669059574603,-0.0047036293799988926,-0.0017613105840981005
1761505980850341000,6.407341064453125,-0.13331424546837806,0.0005354585835710168,0.00041157647557556626
1761505980860377000,6.417377197265625,-0.1307733288139105,0.005916347904317081,0.00564907527025789
1761505980870413000,6.4274130859375,-0.1361614515930414,0.0008932955779135227,0.0029526392605155704
1761505980880449000,6.437448974609375,-0.14244623095095157,0.001924191261921078,0.001328399059548974
1761505980890485000,6.447485107421875,-0.13930208770632743,-0.0030000951314345,0.009196903944946825
1761505980900521000,6.45752099609375,-0.12329027958214282,0.0017073884397745133,0.007724456772208213
1761505980910557000,6.467556884765625,-0.1514250716984272,0.0009737404029816389,-0.007610146210156381
1761505980920593000,6.477593017578125,-0.14094810134768485,-0.008953048719093203,0.004771232989802956
1761505980930629000,6.487629150390625,-0.1273299103617668,-0.0005406827479600906,0.003303498524799943
1761505980940664000,6.4976640625,-0.1425847626388073,-0.0006675787969492376,0.0022434315452352165
1761505980950700000,6.507699951171875,-0.14602935013473034,-0.007518540670257061,0.0005170461440458893
1761505980960736000,6.517736083984375,-0.14199030387699604,0.000008694763109087944,-0.0012672069242224096
1761505980970772000,6.52777197265625,-0.1322626905888319,0.0019297259535640478,-0.0005540536861866713
1761505980980808000,6.537807861328125,-0.13690028726160525,-0.00005454319883137941,0.00048442251607775684
1761505980990844000,6.547843994140625,-0.1364449447095394,-0.004039228920824826,-0.0006388824254274368
1761505981000880000,6.557880126953125,-0.1282102003276348,-0.005231416113767773,0.00550177575405687
1761505981010916000,6.567916015625,-0.13434300399422644,0.007568791286461055,-0.0008186594391241669
1761505981020952000,6.5779521484375,-0.1344979022949934,0.0022819734573364257,-0.00011288578994572162
1761505981030988000,6.587988037109375,-0.13225333823859692,-0.0025314912389963863,-0.003246726836264133
1761505981041024000,6.59802392578125,-0.13194821781218052,0.0024190438404679297,0.00195391054674983
1761505981051060000,6.60806005859375,-0.14496259768605232,0.00033672114107757806,0.0009328969359397888
1761505981061096000,6.618095947265625,-0.13284195178151129,0.0002761500602588057,0.0019213234513998031
1761505981071132200,6.628132080078125,-0.12925240285694597,0.005735401846840978,-0.002408120587654412
1761505981081168100,6.638168212890625,-0.14227262794971465,-0.00028795009590685367,-0.0003209755826741457
1761505981091205400,6.648205322265625,-0.14481529816985128,-0.00028718291092664003,0.0056281786127015945
1761505981101241300,6.658241455078125,-0.13823767334520817,-0.004133738803863525,0.0013566387733444571
1761505981111277300,6.66827734375,-0.1380874512195587,-0.007635627711284905,0.0038435967508703467
1761505981121313300,6.678313232421875,-0.133595985019207,-0.006659275226108729,-0.006810666395537555
1761505981131349200,6.688349365234375,-0.13164952712655068,0.0016763905133120715,-0.0044262554770335555
1761505981141384400,6.698384521484375,-0.13463818754851817,0.0010973485163412987,0.0018172420224174856
1761505981151420400,6.70842041015625,-0.13509177653491497,-0.0017939707446843385,0.006828494313172995
1761505981161456400,6.718456298828125,-0.14092764308154582,-0.0010141089459881187,0.0015681260995566845
1761505981171492400,6.728492431640625,-0.13868074093759059,-0.004215754531510174,-0.0020635814663022755
1761505981181528300,6.7385283203125,-0.1374830555856228,0.009778631089348346,-0.007415135094709694
1761505981191564300,6.748564208984375,-0.14346797521412372,0.0024043211953714487,-0.005310125639475882
1761505981201600500,6.7586005859375,-0.13853285689949987,0.005863393874373287,-0.002087766059488058
1761505981211636500,6.768636474609375,-0.1443622937053442,0.0007504530411213636,-0.00003810352068394422
1761505981221672400,6.77867236328125,-0.13433248260021208,-0.005579718094784766,-0.0013146262625232338
1761505981231708400,6.78870849609375,-0.13702771303355693,-0.0023958456279709935,-0.0031521073553711174
1761505981241744600,6.79874462890625,-0.13209376376271248,0.008387925649620593,0.010493592691980302
1761505981251780600,6.808780517578125,-0.13329144911468027,-0.0009482589018531143,0.0031339141115546225
1761505981261816600,6.818816650390625,-0.1391208859205246,0.008927000962384045,-0.006647036799043417
1761505981271852500,6.8288525390625,-0.1349333711028099,0.00397195410458371,0.0014313114447519182
1761505981281888500,6.838888427734375,-0.12475918309092521,0.004714936225302517,0.001965345256216824
1761505981291924500,6.848924560546875,-0.1412152278512716,0.0016556582525372504,0.006734824680350721
1761505981301960400,6.85896044921875,-0.14420797992646694,0.005503273591399192,0.0036103725168853996
1761505981311996400,6.868996337890625,-0.12519348285496235,0.003260170839726925,-0.0003622574411332607
1761505981322032400,6.879032470703125,-0.1280319211512804,0.002846128412429243,-0.00021981676314026117
1761505981332068400,6.889068359375,-0.13776187252700328,0.003661828709486872,-0.0013449483355507253
1761505981342103600,6.899103515625,-0.1298310795277357,-0.001796728957351297,0.00010576192941516638
1761505981352139500,6.909139404296875,-0.1265408058106899,-0.004943173756916075,0.0022421529036015272
1761505981362175500,6.919175537109375,-0.12953297336399555,0.0006794518978334963,-0.0034125483898445963
1761505981372211500,6.92921142578125,-0.13387363291680812,-0.006938530558906495,-0.0047981209967285395
1761505981382247400,6.939247314453125,-0.146587568539381,-0.005186170466244221,0.004800495616905391
1761505981392283400,6.949283447265625,-0.13880056792497633,0.0031471206529997287,0.007646642295643687
1761505981402319400,6.9593193359375,-0.1350596278309822,-0.005740516413375735,-0.007888853553682565
1761505981412355300,6.969355224609375,-0.13251695761084556,0.0017104571796953676,0.0007524988677352667
1761505981422391300,6.979391357421875,-0.14254209254086017,-0.0033123211520724,0.004298720107227563
1761505981432427500,6.989427490234375,-0.13835574676692486,-0.003524849657900631,0.00015986673682928085
1761505981442463500,6.99946337890625,-0.13536650182306767,-0.002682699745334685,0.0008966200461611151
1761505981452499500,7.00949951171875,-0.13670914860367775,-0.004185998714063316,0.0006326718803495168
1761505981462535400,7.019535400390625,-0.12668342915177344,0.0011697378991171717,-0.004988529002293944
1761505981472571400,7.0295712890625,-0.1329682085096836,-0.0033270072645507753,0.00010360650494694709
1761505981482607400,7.039607421875,-0.13580606228411196,-0.006691387397423386,-0.0021097586955875157
1761505981492643300,7.049643310546875,-0.12937106080055236,-0.004544657692313194,0.0021804858442395925
1761505981502679300,7.05967919921875,-0.1332563778012991,-0.004863112524338066,0.0027848814781755208
1761505981512715300,7.06971533203125,-0.1428361070513725,0.002390657996200025,-0.0037500732485204933
1761505981522751200,7.079751220703125,-0.13744973783791065,-0.0021534151742234825,0.00188910168223083
1761505981532786400,7.089786376953125,-0.12787410024106502,-0.0034464323931373653,0.004982610718160868
1761505981542822400,7.099822509765625,-0.12652969989478588,-0.0009153064803220331,-0.0004190291296690702
1761505981552858400,7.1098583984375,-0.13535481138527392,-0.003624583705328405,0.004866546590439975
1761505981562894300,7.119894287109375,-0.13864625414609907,0.009734737148694694,-0.0016061200223863124
1761505981572930300,7.129930419921875,-0.13325696232318876,-0.002335274547152221,0.006520560875162482
1761505981582966300,7.13996630859375,-0.14013678496479987,0.0034098997750319536,-0.0004984875740483403
1761505981593002500,7.15000244140625,-0.13714403288960456,0.0013200696226209402,-0.00015069704968482254
1761505981603038500,7.16003857421875,-0.14043547565042971,0.0047655521676875645,-0.0026483590843155978
1761505981613074400,7.170074462890625,-0.13145721942484379,-0.000053958676941692826,0.0005585106655955314
1761505981623110700,7.180110595703125,-0.1378875447332859,0.0022213110449723896,0.003120725836418569
1761505981633146600,7.190146728515625,-0.13982874192893505,0.006984616456646471,-0.004028378733247518
1761505981643182600,7.2001826171875,-0.13324118023216724,-0.0014002587193623183,-0.0025449352424591776
1761505981653218600,7.210218505859375,-0.14326573064029216,0.0005971621755510568,-0.005966616786830127
1761505981663254500,7.220254638671875,-0.14086626828312873,-0.006958769629336893,-0.0003966711673885584
1761505981673290500,7.23029052734375,-0.13398644564151763,0.003935439752787351,-0.00026460575293749567
1761505981683326500,7.240326416015625,-0.12725509155988693,0.0005378697363659739,-0.00007343056239187717
1761505981693362400,7.250362548828125,-0.13728256457746027,0.008076795607525855,-0.005747348012961447
1761505981703398400,7.2603984375,-0.1396773507595062,0.0008000643365085124,-0.005305632127448916
1761505981713433600,7.27043359375,-0.14057634542584418,-0.00872329508382827,-0.0012683394353836775
1761505981723469600,7.280469482421875,-0.13802666094303132,-0.0005742927566170692,-0.007084551433473825
1761505981733505500,7.290505615234375,-0.13742460339665413,0.000865896114334464,-0.0008689283216372132
1761505981743541500,7.30054150390625,-0.13472995748519898,-0.004925455437134951,-0.002180083985440433
1761505981753577500,7.310577392578125,-0.1329337217181921,0.0044179808390326794,-0.003282236541062593
1761505981763613400,7.320613525390625,-0.12948971874415874,0.0012194953249767423,0.0023505086489021775
1761505981773649400,7.3306494140625,-0.13517244055569172,-0.0028175051061436534,0.00360153162330389
1761505981783685400,7.340685302734375,-0.13577157549262045,0.0013146262625232338,-0.0027888270009309053
1761505981793721300,7.350721435546875,-0.14190379463732242,-0.010736388471908867,-0.00955729822255671
1761505981803757300,7.36075732421875,-0.12843465673327445,-0.007674735878966749,-0.00042677404470741745
1761505981813793500,7.37079345703125,-0.1420522631973028,0.006273764773551374,-0.007168941781297325
1761505981823829500,7.38082958984375,-0.1362187347382307,0.00040366716375574466,-0.004678768933378159
1761505981833865500,7.390865478515625,-0.1383142457127571,-0.0004646949023008346,0.00489365379307419
1761505981843901400,7.4009013671875,-0.12903437619209288,-0.006341222252883016,-0.003990859734453261
1761505981853937400,7.4109375,-0.13366846573352814,0.0011029928058385848,0.0027738486275076866
1761505981863973400,7.420973388671875,-0.14099661666452884,0.002015303611475974,-0.00483059849422425
1761505981874009300,7.43100927734375,-0.14219722462594508,0.0016085311751812695,0.0015808394506573677
1761505981884045300,7.44104541015625,-0.14039981981515884,0.008771098014619201,-0.0028005174387246367
1761505981894081300,7.451081298828125,-0.13545768723785875,0.006063574355281889,-0.006357187006995082
1761505981904116500,7.461116455078125,-0.13694763353466988,0.0030923765247687697,0.008561528650857507
1761505981914152400,7.47115234375,-0.12871405819654463,-0.0028393881443887947,-0.0009301204569637775
1761505981924188400,7.4811884765625,-0.13709317948520183,-0.0059934134622104465,-0.008715586701408028
1761505981934224400,7.491224365234375,-0.13918284524083135,-0.01118533781580627,0.0015207432938739657
1761505981944260400,7.50126025390625,-0.13319266491532325,0.006345898428000509,-0.006122136142104864
1761505981954296300,7.51129638671875,-0.13154548223018644,-0.004991780405305326,0.0004967340083792805
1761505981964332300,7.521332275390625,-0.13976912069618702,-0.010178882453311234,-0.007727452446892857
1761505981974368300,7.5313681640625,-0.1280973876029253,-0.007243102996051311,0.0015937354648485778
1761505981984404200,7.541404296875,-0.13138883036375046,-0.003122954326122999,-0.00196896198540926
1761505981994440400,7.5514404296875,-0.1265975044339895,0.004167275747284293,-0.0083184406099841
1761505982004476700,7.5614765625,-0.13123100945353508,0.0021795542624779046,-0.003969342022389174
1761505982014512600,7.5715126953125,-0.126288876876235,-0.0007114362049847841,-0.004366561179049312
1761505982024548600,7.581548583984375,-0.13167524608969688,-0.004030278429389,-0.002272694172337651
1761505982034584600,7.59158447265625,-0.12943243559896944,-0.004444558318704366,0.0010441387580707668
1761505982044620500,7.60162060546875,-0.14290098898112774,-0.004051869206689298,0.003119118401221931
1761505982054656500,7.611656494140625,-0.13945815505087375,-0.000047802930790930985,-0.010200418431684375
1761505982064692500,7.6216923828125,-0.12269640534222126,-0.005110913272947073,-0.0016738514963537453
1761505982074727400,7.6317275390625,-0.12478957822918892,-0.00564198794234544,-0.006849975492618977
1761505982084763600,7.641763671875,-0.1327162795752287,0.006559248917736113,-0.005588138863258063
1761505982094799400,7.65179931640625,-0.129418407073617,0.00653108226917684,-0.003960756857134402
1761505982104835300,7.66183544921875,-0.13734569294154644,-0.0005019399064593017,-0.0075016808670014135
1761505982114871300,7.671871337890625,-0.12701543758511544,-0.0026192060550674794,-0.007360957222059369
1761505982124907300,7.6819072265625,-0.13928513657152652,-0.0010401932353153824,-0.003092486122623086
1761505982134943200,7.691943115234375,-0.13853344142138957,0.008347118715196847,-0.004217909955978393
1761505982144979200,7.701979248046875,-0.13568389720916746,-0.002140409562177956,-0.00066401686668396
1761505982155015200,7.71201513671875,-0.1343406659066677,0.002702409092802554,-0.005536189480312168
1761505982165051100,7.722051025390625,-0.1332896955490112,0.006571322948019951,0.00823021433725953
1761505982175087000,7.732087158203125,-0.13822189125418663,0.00528776767719537,-0.0019247575175017117
1761505982185123300,7.742123291015625,-0.1368716456890106,-0.0035448695326223967,-0.0035182737866416573
1761505982195159300,7.7521591796875,-0.1422568458586931,0.002350070257484913,0.002769720441661775
1761505982205195500,7.762195556640625,-0.12819441823661326,-0.0007195099135860801,-0.005604176682606339
1761505982215231500,7.7722314453125,-0.13477438114881515,-0.0021525201250798998,-0.014352825403399765
1761505982225267500,7.782267333984375,-0.1476426305502653,-0.011037526842951773,-0.0014691592371091245
1761505982235303400,7.792303466796875,-0.1266945350676775,0.0014627477626316249,-0.005218940224684774
1761505982245339400,7.80233935546875,-0.13297989894747733,0.0035649259399622678,-0.006268157016672194
1761505982255374300,7.812374267578125,-0.1322328799724579,0.00033871216876432296,-0.010964461606740951
1761505982265410300,7.822410400390625,-0.12715046214163303,0.0024317206589505075,-0.005800941363722086
1761505982275446500,7.832446533203125,-0.1323854401856661,-0.002033697784692049,-0.012029168228805065
1761505982285482500,7.842482421875,-0.14510405198335646,-0.009013966859783977,-0.008326989242620765
1761505982295518500,7.8525185546875,-0.13118717031180857,-0.009856865691021083,-0.0012122983992099762
1761505982305554400,7.862554443359375,-0.1304413203805685,-0.005906885956227779,-0.0035719402026385067
1761505982315590400,7.87259033203125,-0.13043956681489943,-0.006679788291174918,-0.0035451983261853455
1761505982325626400,7.88262646484375,-0.1335878017127514,-0.005063092075847089,-0.0014982026685029268
1761505982335662300,7.892662353515625,-0.1270084233224392,-0.008364727437123656,0.004101699697785079
1761505982345698300,7.9026982421875,-0.1264110419511795,-0.009041749915853142,-0.00039411388412117956
1761505982355734300,7.912734375,-0.13299275842905045,-0.003077142423018813,-0.008387048866786062
1761505982365770200,7.922770263671875,-0.12865268339812755,-0.0026879969749599693,-0.005020458510518073
1761505982375806200,7.93280615234375,-0.1300000063538551,-0.004150562074501067,-0.0030708588127046823
1761505982385842400,7.942842529296875,-0.13044307394623755,-0.004951411862298846,-0.013703859975375234
1761505982395878400,7.95287841796875,-0.13358838623464106,0.002887720798142254,-0.009606726854853332
1761505982405914400,7.962914306640625,-0.1310463005363941,-0.00020911270603537558,-0.0007547638900578022
1761505982415950300,7.972950439453125,-0.13942659086883066,-0.007413107534404844,-0.002669219209253788
1761505982425985300,7.9829853515625,-0.13987725724577904,0.004283339875005185,0.0011163637440651654
1761505982436021200,7.993021240234375,-0.126406365776062,0.00540313768517226,0.0037437896382063623
1761505982446057200,8.00305712890625,-0.1298439390093088,0.0056940834557637566,-0.001308415717445314
1761505982456093200,8.01309326171875,-0.13806816199719904,-0.004118157642241567,-0.011309512184746563
1761505982466129400,8.02312939453125,-0.12968144192397593,-0.0010647066220641137,-0.014471044955588876
1761505982476165400,8.033165283203125,-0.1328197399497032,-0.004587145127169788,-0.004070354711450636
1761505982486201300,8.043201416015625,-0.1335644208371639,-0.006813936064857989,0.0003075681118294596
1761505982496237300,8.0532373046875,-0.13386895674169064,-0.007237604837026446,-0.0009023556672036647
1761505982506273300,8.063273193359375,-0.12953414240777492,-0.004259264879673719,-0.005679214680194855
1761505982516309200,8.073309326171875,-0.13013210830092428,0.0062150203236378725,-0.0048055736508220434
1761505982526345200,8.08334521484375,-0.13746084375381468,-0.0011806063530035316,-0.002470993223413825
1761505982536381200,8.093381103515625,-0.1245984395712614,-0.0017982998599298298,-0.003407908747345209
1761505982546417200,8.103417236328125,-0.13013210830092428,0.0028353147574700414,-0.005290799884498119
1761505982556453000,8.113453125,-0.12489654573500156,-0.003956939198542386,-0.002499780926480889
1761505982566489300,8.1234892578125,-0.12414601962864398,-0.002174129168689251,-0.008711495048180222
1761505982576525300,8.133525390625,-0.13072948967218398,0.005986125204898417,-0.005477700758725405
1761505982586561300,8.143561279296875,-0.1287818627357483,0.002093647811003029,-0.005906264901719987
1761505982596597500,8.153597412109375,-0.13372048818171023,0.007104041585233062,-0.004287321930378675
1761505982606632200,8.163632080078125,-0.13357260414361952,0.001661887063924223,-0.012977847255766391
1761505982616668200,8.173668212890625,-0.1355214001238346,-0.005784355555102229,-0.001822429654188454
1761505982626704100,8.1837041015625,-0.13253040161430835,-0.0024460049126297234,-0.0014969605594873428
1761505982636740000,8.193739990234375,-0.12804419611096382,-0.00022303163353353737,-0.0014833704255521297
1761505982646776300,8.2037763671875,-0.13418167595267294,0.007618548712320625,-0.001301949444040656
1761505982656812500,8.2138125,-0.12550444850027562,-0.003009593612141907,0.0004092018553987145
1761505982666848500,8.2238486328125,-0.13328385033011436,-0.0021708047004416584,-0.00374444722533226
1761505982676884500,8.233884521484375,-0.14061433934867382,-0.00020010741567239165,-0.0030551132543012497
1761505982686920400,8.24392041015625,-0.1480956350147724,-0.0028521562944166363,-0.007739544743485748
1761505982696956400,8.253956298828125,-0.13328092772066594,-0.0005538892894051969,-0.005694448781944811
1761505982706992400,8.263992431640625,-0.1406114167392254,0.0009705437988974154,-0.004777260871790349
1761505982717028400,8.2740283203125,-0.12729483904838562,0.003401004082523286,-0.001172770106419921
1761505982727064300,8.284064208984375,-0.1316308224260807,0.005429167175572365,-0.0068724430527538054
1761505982737100300,8.294100341796875,-0.12953764953911304,0.0008281579198315739,-0.009986812213622033
1761505982747136300,8.30413623046875,-0.130876789188385,0.003108323012571782,-0.003707439683191478
1761505982757172200,8.314172119140625,-0.13327157537043094,-0.0006028795302845537,-0.004457089006714522
1761505982767208400,8.32420849609375,-0.12339724708795546,-0.0036282734997570513,-0.009320311128906906
1761505982777244400,8.334244384765626,-0.12773206142187118,-0.007827350891102106,-0.007126965803094208
1761505982787279400,8.344279296875,-0.1185983223736286,0.00017729279566556215,0.003422046870552003
1761505982797315300,8.3543154296875,-0.12158990540504455,-0.007328552789799868,-0.01022226493731141
1761505982807351300,8.364351318359375,-0.13011515716612337,0.007028145071119069,-0.0039100130505859846
1761505982817387300,8.37438720703125,-0.13011281907856465,0.007993464705627411,-0.0029656083399429915
1761505982827423200,8.38442333984375,-0.14357669628560543,0.0053845608488656575,-0.0020857932981103657
1761505982837459200,8.394459228515625,-0.13070903140604495,0.002141268078703433,-0.0028203546503558752
1761505982847495400,8.404495361328125,-0.134750415751338,0.0006161226043477654,-0.0014289733571931718
1761505982857531400,8.414531494140626,-0.1319096393674612,0.006723536101356149,-0.005630260971933603
1761505982867567400,8.4245673828125,-0.13400398129820823,0.005400489070359617,-0.009986556485295296
1761505982877603300,8.434603271484375,-0.13744798427224159,0.0006146612996235489,-0.006628076370246708
1761505982887639300,8.444639404296876,-0.12636837185323238,0.000392908307723701,-0.012322013695538044
1761505982897675300,8.45467529296875,-0.1366980426877737,0.00743785838317126,-0.006596731383912265
1761505982907711200,8.464711181640626,-0.13101941252946853,-0.0034027211155742403,0.001975026400014758
1761505982917747200,8.474747314453126,-0.1283288582712412,0.0016462693696841597,-0.0051931116636842484
1761505982927783200,8.484783203125,-0.12892214798927307,0.008349730797391385,-0.009069039781577885
1761505982937819100,8.494819091796876,-0.14343465746641157,0.0063876186778768895,-0.007544679758511483
1761505982947855400,8.50485546875,-0.13446107741594313,0.0036872736779972907,-0.0069532897366210815
1761505982957891300,8.514891357421876,-0.12354103947281837,0.0008520867846906184,0.001684665151312947
1761505982967927300,8.52492724609375,-0.13386837221980094,-0.005547185798361897,-0.005004311093315482
1761505982977962200,8.534962158203125,-0.13072364445328713,0.00033016353612765666,-0.012122801329009234
1761505982987998200,8.544998291015625,-0.12667992202043532,-0.005801069227885454,-0.012084661275707185
1761505982998034200,8.5550341796875,-0.13072715158462522,-0.0049063488778658204,-0.009170892720855773
1761505983008070100,8.565070068359375,-0.12684066554009912,-0.0015161949829198419,-0.010671543074771762
1761505983018106000,8.575106201171875,-0.12669102793633938,0.005529759739525616,-0.0008489815121516585
1761505983028143400,8.585143310546876,-0.1440484054505825,-0.000248695797752589,0.0017910116026178002
1761505983038179300,8.595179443359376,-0.13312252228856086,-0.0025932678962126373,-0.005804448495060205
1761505983048215300,8.60521533203125,-0.13312427585422992,0.0036260632763616737,-0.013278949094191193
1761505983058251300,8.615251220703126,-0.11651567088067531,0.009608115094341337,-0.0071055211562663315
1761505983068287500,8.62528759765625,-0.1250426762074232,-0.00011880407407879828,-0.004035685256868601
1761505983078323500,8.635323486328126,-0.13267419399917124,0.005131481136940419,-0.0035924350013956424
1761505983088357000,8.645357177734375,-0.13292963006496428,0.007242628072015941,-0.008981251900270581
1761505983098393000,8.65539306640625,-0.012356208226084709,0.006292378142476082,-0.051310902379266915
1761505983108429300,8.66542919921875,-0.08476561087667941,0.05021384612387046,-0.1640456116828136
1761505983118465300,8.67546533203125,-0.11451076079905033,0.018263861367292702,-0.11120525298025459
1761505983128501200,8.685501220703125,-0.4700906238645315,-0.10153746185423805,0.44866314736716445
1761505983138537200,8.695537109375,-0.11680559373795986,0.018416202384792267,-0.08400688319755717
1761505983148573200,8.7055732421875,0.0874286926060915,0.04826095849042758,-0.20411928166225551
1761505983158609200,8.715609130859375,-0.1373293263286352,-0.000133471920248121,-0.0063213302423246204
1761505983168645000,8.72564501953125,-0.26822715830504895,-0.0432360612668097,0.15637348788604138
1761505983178681000,8.73568115234375,-0.18561141893863678,-0.011068634367268532,0.043113530865684146
1761505983188717000,8.745717041015626,-0.19641455250382422,-0.018871800665184853,0.058058915334753686
