time,seconds_elapsed,z,y,x
1761505974528936200,0.085936279296875,-0.006904777605086565,-0.00020772656716872007,-0.00008335694292327389
1761505974538972200,0.09597216796875,-0.0060325926169753075,-0.0024285365361720324,-0.00016298545233439654
1761505974549008100,0.106008056640625,-0.004954544827342033,-0.0034349451307207346,-0.0009528790251351893
1761505974559044000,0.116044189453125,-0.005036303773522377,-0.0022855247370898724,-0.0007137271459214389
1761505974569080000,0.126080078125,-0.004508731886744499,-0.0006780407857149839,-0.002267681760713458
1761505974579116000,0.136115966796875,-0.005477323196828365,-0.001838646363466978,-0.0023015039041638374
1761505974589152000,0.146152099609375,-0.004740959499031305,-0.003239735495299101,-0.0017339842161163688
1761505974599188000,0.15618798828125,-0.005218730308115482,-0.006912766955792904,-0.0016050871927291155
1761505974609224200,0.16622412109375,-0.004316451493650675,-0.0049678608775138855,-0.0004069310089107603
1761505974619260200,0.17626025390625,-0.007406783755868673,-0.0026724820490926504,-0.0034112429711967707
1761505974629296000,0.186296142578125,-0.005132976453751326,-0.004797950852662325,-0.0010378338629379869
1761505974639332000,0.19633203125,-0.00532578956335783,-0.006986802909523249,-0.0015081481542438269
1761505974649367000,0.206366943359375,-0.007139934692531824,-0.0034969968255609274,-0.00004394215648062527
1761505974659403000,0.216403076171875,-0.007047523278743029,-0.0010450243717059493,-0.001323857344686985
1761505974669439000,0.22643896484375,-0.006156961899250746,-0.002948652021586895,-0.0007805725326761603
1761505974679475000,0.236474853515625,-0.00555215822532773,-0.0035534559283405542,-0.004351605195552111
1761505974689511200,0.24651123046875,-0.008012386038899422,-0.005050684791058302,-0.0013720606220886111
1761505974699547100,0.256547119140625,-0.007772169075906277,-0.004314853344112635,-0.0020325244404375553
1761505974709583000,0.2665830078125,-0.005826996639370918,-0.00424401368945837,-0.0018221348291262984
1761505974719619000,0.276619140625,-0.005194761790335178,-0.004878112114965916,-0.0019566244445741177
1761505974729655000,0.286655029296875,-0.0049675945192575455,-0.002457298804074526,-0.004518052563071251
1761505974739691000,0.29669091796875,-0.007474161684513092,-0.00355851580388844,-0.0008604673203080893
1761505974749727000,0.30672705078125,-0.004539624322205782,-0.00330338510684669,-0.0031041805632412434
1761505974759763000,0.316762939453125,-0.004064516630023718,-0.0034855452831834555,-0.00020506340661086142
1761505974769799000,0.326798828125,-0.004116448108106852,-0.005118861794471741,0.000248472933890298
1761505974779835000,0.3368349609375,-0.005059206858277321,-0.0003424825263209641,-0.0008567389450035989
1761505974789871000,0.34687109375,-0.007902131415903568,-0.0014596786350011826,-0.0017504957504570484
1761505974799907000,0.356906982421875,-0.007795338984578848,-0.0032439965289086103,-0.0007017429452389479
1761505974809943000,0.366943115234375,-0.0051774512976408005,-0.002168612089008093,-0.0001584580895723775
1761505974819979000,0.37697900390625,-0.004822984803467989,-0.0032708945218473673,-0.001955292886123061
1761505974830015200,0.38701513671875,-0.006353769451379776,-0.005005677696317434,0.00008841694943839684
1761505974840051200,0.39705126953125,-0.007570568006485701,-0.003573695896193385,-0.0019169433508068323
1761505974850087200,0.407087158203125,-0.00683207344263792,-0.003847468877211213,-0.0018365158466622233
1761505974860123100,0.417123046875,-0.00435986090451479,-0.00381391285918653,-0.002438922878354788
1761505974870159000,0.4271591796875,-0.004534031730145216,-0.003471430391073227,-0.001955026527866721
1761505974880195000,0.437195068359375,-0.0043625240214169025,-0.002252501668408513,-0.0025276062078773975
1761505974890231000,0.44723095703125,-0.003950000274926424,-0.0012974920682609081,-0.0024668860714882612
1761505974900267000,0.45726708984375,-0.006385994143784046,-0.005037369206547737,-0.0025592977181077003
1761505974910303200,0.46730322265625,-0.0038136467337608337,-0.002514556748792529,-0.0018719359068199992
1761505974920339200,0.477339111328125,-0.005185707006603479,-0.0005928196478635073,-0.0046730488538742065
1761505974930375200,0.487375244140625,-0.006313555873930454,-0.001415736391209066,-0.0034296188969165087
1761505974940411100,0.4974111328125,-0.006045908201485872,-0.0024490428622812033,-0.0006223807577043772
1761505974950447000,0.507447021484375,-0.004443218000233173,-0.00162426196038723,-0.0036005936563014984
1761505974960483000,0.517483154296875,-0.0054456316865980625,-0.00458756135776639,0.0008378304773941636
1761505974970519000,0.52751904296875,-0.008928514085710049,-0.0016551546286791563,0.00008894957863958552
1761505974980555000,0.537554931640625,-0.004020308144390583,0.0004924184759147465,-0.0005648564547300339
1761505974990591000,0.547591064453125,-0.006076534744352102,-0.005879993550479412,-0.003832022426649928
1761505975000627000,0.557626953125,-0.005394499283283949,-0.0037710361648350954,-0.0011036139912903309
1761505975010662100,0.567662109375,-0.004699147772043943,-0.0018216022290289402,0.0014082795241847634
1761505975020698000,0.577697998046875,-0.008046208880841732,-0.0031009847298264503,-0.0027574370615184307
1761505975030734000,0.587734130859375,-0.00740198977291584,-0.0032445292454212904,0.00010492854926269501
1761505975040770000,0.59777001953125,-0.004744687583297491,-0.003381948219612241,0.0015560849569737911
1761505975050806000,0.607805908203125,-0.0057199373841285706,-0.005230980925261974,0.0015821839915588498
1761505975060842000,0.617842041015625,-0.006268016062676907,-0.004277569241821766,-0.0013076120521873236
1761505975070878000,0.6278779296875,-0.005979062989354134,-0.0021518340799957514,-0.0028306739404797554
1761505975080915500,0.63791552734375,-0.007478955201804638,-0.004622182343155146,-0.0026082999538630247
1761505975090951400,0.647951416015625,-0.007309578359127045,-0.001680720946751535,-0.0016247945604845881
1761505975100987400,0.6579873046875,-0.005007275380194187,-0.005629656370729208,-0.003312173532322049
1761505975111023400,0.6680234375,-0.007021158002316952,-0.005196892656385899,-0.002029328839853406
1761505975121059300,0.678059326171875,-0.005224855616688728,-0.004677309654653072,-0.001169394003227353
1761505975131095300,0.68809521484375,-0.005052549298852682,-0.0059742690064013,-0.0034852789249271154
1761505975141131500,0.698131591796875,-0.005834985990077257,-0.0015997608425095677,-0.00015046859334688634
1761505975151167500,0.70816748046875,-0.007754325866699219,-0.0007707187905907631,-0.0016924388473853469
1761505975161203500,0.718203369140625,-0.006132993847131729,-0.007586546707898378,-0.0018431737553328276
1761505975171239400,0.728239501953125,-0.005632053129374981,-0.0024647556710988283,-0.0011086739832535386
1761505975181275400,0.738275390625,-0.004313255660235882,0.0015957661671563983,0.0006551376427523792
1761505975191311400,0.748311279296875,-0.005043228156864643,-0.003335342975333333,-0.0025209481827914715
1761505975201347300,0.758347412109375,-0.006638728082180023,-0.0032975259236991405,-0.001032241270877421
1761505975211383300,0.76838330078125,-0.005514341406524181,-0.00324825756251812,-0.00045833003241568804
1761505975221419300,0.778419189453125,-0.0062640211544930935,-0.0021909826900810003,-0.002365419641137123
1761505975231455200,0.788455322265625,-0.005322860088199377,0.00041811628034338355,-0.0007731156656518579
1761505975241491200,0.7984912109375,-0.005624329671263695,-0.004551075864583254,-0.0012343751732259989
1761505975251527400,0.80852734375,-0.0062826634384691715,-0.0020277309231460094,-0.0020301276817917824
1761505975261563400,0.8185634765625,-0.006907973438501358,0.00028628981090150774,-0.00026764770154841244
1761505975271599400,0.828599365234375,-0.003912982530891895,-0.001228516222909093,-0.0016343819443136454
1761505975281635300,0.83863525390625,-0.0073298183269798756,-0.005336974747478962,0.0005153216770850122
1761505975291671300,0.84867138671875,-0.0065652248449623585,-0.003687146585434675,-0.0032583775464445353
1761505975301707300,0.858707275390625,-0.006410228554159403,-0.0026168220210820436,-0.0015422365395352244
1761505975311743200,0.8687431640625,-0.007445665542036295,-0.0031971249263733625,0.00027563716867007315
1761505975321779200,0.878779296875,-0.005100485868752003,-0.002626942005008459,-0.001874066423624754
1761505975331815200,0.888815185546875,-0.007801730185747147,-0.002814162289723754,0.0004857605672441423
1761505975341851400,0.898851318359375,-0.006848851218819618,-0.0028964539524167776,-0.00007456851017195731
1761505975351887400,0.908887451171875,-0.005066663958132267,-0.005242166109383106,-0.0035457327030599117
1761505975361923600,0.918923583984375,-0.004945223685353994,-0.00315957423299551,-0.0015044197207316756
1761505975371959600,0.92895947265625,-0.004078098572790623,-0.003707652911543846,-0.001933454885147512
1761505975381995500,0.93899560546875,-0.006744189187884331,-0.0010487528052181005,0.0026181535795331
1761505975392031500,0.949031494140625,-0.005276521202176809,-0.004028563853353262,0.00043063313933089375
1761505975402067500,0.9590673828125,-0.005550027824938297,-0.00433189794421196,-0.004235757514834404
1761505975412103400,0.969103515625,-0.006403836887329817,-0.005892510060220957,0.000107858024421148
1761505975422139400,0.979139404296875,-0.006079730577766895,-0.0006245112745091319,0.000464188982732594
1761505975432175400,0.98917529296875,-0.00749147217720747,-0.0013576794881373644,-0.0037412086967378855
1761505975442211300,0.99921142578125,-0.005376123357564211,-0.0047116647474467754,-0.0021667478140443563
1761505975452247300,1.009247314453125,-0.0041340249590575695,-0.0015185344964265823,-0.003230947069823742
1761505975462283300,1.019283203125,-0.005520200356841087,-0.002889263443648815,-0.0004540689697023481
1761505975472319500,1.029319580078125,-0.004539890680462122,-0.0009507485083304346,-0.0024264061357825994
1761505975482354400,1.0393544921875,-0.00666322885081172,-0.0013409015955403447,-0.0044019389897584915
1761505975492390400,1.049390380859375,-0.0054211304523050785,-0.002813629573211074,-0.0014037522487342358
1761505975502426400,1.05942626953125,-0.007872836664319038,0.000016777914424892515,-0.0020471718162298203
1761505975512462300,1.06946240234375,-0.006892793346196413,-0.00270710326731205,-0.0023302659392356873
1761505975522498300,1.079498291015625,-0.00666296249255538,-0.003686880227178335,-0.0011432950850576162
1761505975532534300,1.0895341796875,-0.005012867972254753,-0.005330050364136696,-0.0008737831376492977
1761505975542570200,1.0995703125,-0.003870904678478837,0.00033902039285749197,-0.001546763931401074
1761505975552606500,1.1096064453125,-0.005739644635468721,-0.00270657055079937,-0.0017981663113459945
1761505975562642400,1.119642333984375,-0.002843723399564624,-0.003750795964151621,0.0005411543534137309
1761505975572678400,1.129678466796875,-0.006353503558784723,-0.005903162993490696,-0.0030802120454609394
1761505975582714400,1.13971435546875,-0.007303186692297459,-0.0007845672662369907,0.00007323692989302799
1761505975592750300,1.149750244140625,-0.004425374791026115,-0.0036365464329719543,-0.0029342707712203264
1761505975602786300,1.159786376953125,-0.006904511246830225,-0.0021587584633380175,-0.0005765743553638458
1761505975612822300,1.169822265625,-0.006867227144539356,-0.0038029940333217382,-0.0019033611752092838
1761505975622858200,1.179858154296875,-0.00624138442799449,-0.0029606360476464033,-0.0003731088654603809
1761505975632894200,1.189894287109375,-0.005033640656620264,-0.002141980454325676,-0.0014895059866830707
1761505975642930200,1.19993017578125,-0.005537510849535465,-0.0032085764687508345,-0.0011733887949958444
1761505975652966100,1.209966064453125,-0.00749200489372015,-0.003768905531615019,-0.00021837920940015465
1761505975663002400,1.22000244140625,-0.00509862182661891,-0.004513525404036045,-0.002413356676697731
1761505975673038300,1.230038330078125,-0.006703709252178669,-0.003242664970457554,0.00012010856153210625
1761505975683074600,1.240074462890625,-0.006207828409969807,-0.00424161646515131,-0.00105354655534029
1761505975693110500,1.250110595703125,-0.007831824012100697,-0.0022951122373342514,-0.0014223942998796701
1761505975703146500,1.260146484375,-0.008360727690160275,-0.005548163317143917,-0.0010596717474982142
1761505975713182500,1.270182373046875,-0.0067782774567604065,-0.00044075315236113966,-0.003582217963412404
1761505975723218400,1.280218505859375,-0.007690942846238613,-0.004554271697998047,-0.00339153571985662
1761505975733254400,1.29025439453125,-0.005900499876588583,-0.0020335898734629154,-0.00112465291749686
1761505975743290400,1.300290283203125,-0.006384129635989666,-0.0010373012628406286,-0.001454884884878993
1761505975753326300,1.310326416015625,-0.007726362906396389,-0.003567570587620139,-0.0024655545130372047
1761505975763362300,1.3203623046875,-0.0044109937734901905,-0.0033816818613559008,-0.002211222657933831
1761505975773398300,1.330398193359375,-0.006916229147464037,-0.003212837502360344,-0.0006578007596544921
1761505975783434500,1.3404345703125,-0.00412417110055685,-0.0012697952333837748,-0.001133441342972219
1761505975793470500,1.350470458984375,-0.008324242196977139,-0.002724680118262768,-0.002889796160161495
1761505975803506400,1.36050634765625,-0.004710066597908735,-0.0036330842413008213,-0.001600826159119606
1761505975813542400,1.37054248046875,-0.007213970646262169,-0.004814994987100363,-0.0005435511702671647
1761505975823578400,1.380578369140625,-0.002880208659917116,-0.005827262531965971,-0.0025867284275591373
1761505975833614300,1.3906142578125,-0.008761799894273281,-0.0037060549948364496,-0.002264752285555005
1761505975843650300,1.400650390625,-0.00675244489684701,-0.001086037140339613,-0.0035289546940475702
1761505975853686300,1.410686279296875,-0.0049348375760018826,-0.005659217480570078,0.0002972087822854519
1761505975863722200,1.42072216796875,-0.006191849708557129,0.000027696874894900247,-0.0006311691831797361
1761505975873758200,1.43075830078125,-0.006305033806711435,-0.0041071269661188126,-0.0026130937039852142
1761505975883794400,1.44079443359375,-0.006068544927984476,-0.005288771353662014,-0.002494050422683358
1761505975893830400,1.450830322265625,-0.006185191683471203,-0.0028399948496371508,-0.0015188007382676005
1761505975903866400,1.460866455078125,-0.006612629164010286,-0.0024205471854656935,-0.005321261938661337
1761505975913902300,1.47090234375,-0.005230181850492954,-0.005074919667094946,-0.0014239922165870667
1761505975923938300,1.480938232421875,-0.006737264804542065,-0.0011824434623122215,-0.0012903015594929457
1761505975933974300,1.490974365234375,-0.0046456181444227695,-0.0018250643042847514,0.00005912217602599412
1761505975944010200,1.50101025390625,-0.0067817396484315395,-0.0036557212006300688,-0.0021350563038140535
1761505975954046200,1.511046142578125,-0.0060022324323654175,-0.002272475278005004,0.0007028082036413252
1761505975964082200,1.521082275390625,-0.005567604675889015,-0.0025747441686689854,-0.0011555455857887864
1761505975974118400,1.531118408203125,-0.006840861868113279,-0.0021347899455577135,-0.0011952266795560718
1761505975984154400,1.541154296875,-0.004196343012154102,-0.005432316102087498,0.00030306773260235786
1761505975994190300,1.5511904296875,-0.007507983595132828,-0.0017395768081769347,-0.0018104169284924865
1761505976004226600,1.5612265625,-0.00627094553783536,-0.0012636699248105288,-0.0008905610884539783
1761505976014262500,1.571262451171875,-0.007958856411278248,-0.0000881506348378025,-0.000794420950114727
1761505976024298500,1.581298583984375,-0.00697961263358593,-0.0036107138730585575,-0.002046905690804124
1761505976034334500,1.59133447265625,-0.0067513794638216496,-0.0037057886365801096,-0.002513757674023509
1761505976044370400,1.601370361328125,-0.004123106133192778,-0.0019374496769160032,-0.0021028320770710707
1761505976054406400,1.611406494140625,-0.006617156323045492,-0.0028045750223100185,-0.0016450346447527409
1761505976064442400,1.6214423828125,-0.007700530346482992,-0.0023334617726504803,-0.0010330402292311192
1761505976074478300,1.631478271484375,-0.0065622953698039055,-0.0005941512063145638,-0.0026815368328243494
1761505976084513000,1.641512939453125,-0.00720464950427413,-0.0006101301987655461,-0.0014705975772812963
1761505976094549200,1.65154931640625,-0.008451808243989944,-0.002651176881045103,-0.0018080200534313917
1761505976104585200,1.661585205078125,-0.008668323047459126,-0.0007123955874703825,0.0019350528018549085
1761505976114621200,1.67162109375,-0.007306116167455912,-0.0007832356495782733,-0.000603738590143621
1761505976124657200,1.6816572265625,-0.007170028518885374,-0.0030951257795095444,-0.0006791060441173613
1761505976134693000,1.691693115234375,-0.004505802411586046,-0.00592526700347662,-0.000764593540225178
1761505976144729000,1.70172900390625,-0.004822185728698969,-0.003406715579330921,-0.001404018490575254
1761505976154765000,1.71176513671875,-0.005528456065803766,-0.0007305050967261195,-0.0028269453905522823
1761505976164801000,1.721801025390625,-0.0057167415507137775,-0.002121207769960165,-0.000985103310085833
1761505976174837000,1.7318369140625,-0.005061870440840721,-0.0031127026304602623,-0.003198722843080759
1761505976184873200,1.741873291015625,-0.005285043269395828,-0.004204598721116781,-0.0013574132462963462
1761505976194909200,1.7519091796875,-0.006177202332764864,-0.002561428351327777,-0.0010663296561688185
1761505976204945200,1.761945068359375,-0.006439789664000273,-0.005594236310571432,-0.0011297129094600677
1761505976214981000,1.771981201171875,-0.008274175226688385,-0.0029617014806717634,-0.0008913599886000156
1761505976225017000,1.78201708984375,-0.005300223361700773,-0.004822185728698969,-0.0022386531345546246
1761505976235053000,1.792052978515625,-0.006954045966267586,-0.004038683604449034,-0.0003051982494071126
1761505976245089000,1.802089111328125,-0.00595509447157383,-0.0021169467363506556,-0.001957423286512494
1761505976255125000,1.812125,-0.005900233518332243,-0.0007954862085171044,-0.0013230583863332868
1761505976265161000,1.822160888671875,-0.006649646908044815,0.0009323726990260184,-0.0016383767360821366
1761505976275197000,1.832197021484375,-0.006359362509101629,-0.00484322477132082,-0.003038400551304221
1761505976285232000,1.842232177734375,-0.007447530049830675,-0.005013400688767433,0.0013009541435167193
1761505976295269000,1.85226904296875,-0.003713778220117092,-0.00692022405564785,-0.001097755040973425
1761505976305304000,1.862303955078125,-0.004269846249371767,-0.005365736782550812,-0.002573678968474269
1761505976315340000,1.872340087890625,-0.005399292800575495,-0.0009568737586960196,-0.0011414308100938797
1761505976325376000,1.8823759765625,-0.005453088786453009,-0.0010735202813521028,0.0000977380113909021
1761505976335412000,1.892411865234375,-0.007135407533496618,-0.003385676769539714,0.0000351537273672875
1761505976345448000,1.902447998046875,-0.0047055394388735294,-0.0008815063047222793,-0.00350365461781621
1761505976355484000,1.91248388671875,-0.007872836664319038,-0.003215500619262457,-0.0007640608819201589
1761505976365520100,1.92252001953125,-0.005706355441361666,-0.0025984463281929493,-0.0015307849971577525
1761505976375556000,1.93255615234375,-0.00609304616227746,-0.004029895178973675,-0.0020836573094129562
1761505976385592000,1.942592041015625,-0.00791624654084444,-0.003914314322173595,-0.0011238539591431618
1761505976395628000,1.9526279296875,-0.0031430625822395086,-0.001829591696150601,-0.0025619608350098133
1761505976405664000,1.9626640625,-0.004930043593049049,-0.0018069547368213534,-0.001630120910704136
1761505976415700000,1.972699951171875,-0.006082127336412668,-0.002659965306520462,0.0014828480780124664
1761505976425736000,1.98273583984375,-0.004960670135915279,-0.0033451966010034084,-0.0010370349045842886
1761505976435772200,1.992772216796875,-0.0060027651488780975,-0.002948652021586895,-0.001288171042688191
1761505976445808000,2.00280810546875,-0.005785451270639896,-0.00364666641689837,-0.002326803747564554
1761505976455844000,2.012843994140625,-0.006733270362019539,-0.0024546354543417692,-0.0046570696868002415
1761505976465880000,2.022880126953125,-0.007258179131895304,-0.003485811408609152,0.0003765709698200226
1761505976475916000,2.032916015625,-0.006667756475508213,-0.003469299990683794,-0.0019888486713171005
1761505976485952300,2.0429521484375,-0.005885852500796318,-0.0014916365034878254,-0.00213532242923975
1761505976495988200,2.05298828125,-0.007266967557370663,-0.005795038305222988,-0.0007115966291166842
1761505976506024200,2.063024169921875,-0.006356965284794569,-0.002600044244900346,-0.002770220162346959
1761505976516060200,2.07306005859375,-0.007138337008655071,-0.0035574506036937237,-0.003026416292414069
1761505976526096100,2.08309619140625,-0.00436145905405283,-0.004297542851418257,-0.003087402554228902
1761505976536132000,2.093132080078125,-0.006391054019331932,-0.0024618261959403753,-0.003233610186725855
1761505976546168000,2.10316796875,-0.00421258807182312,-0.003350256709381938,-0.0023273364640772343
1761505976556204000,2.1132041015625,-0.005602492019534111,-0.002459961920976639,-0.000669252360239625
1761505976566240000,2.123239990234375,-0.005470931995660067,-0.0020418455824255943,-0.0021291973534971476
1761505976576276000,2.13327587890625,-0.005029646214097738,-0.0021204089280217886,-0.0006495449924841523
1761505976586312000,2.14331201171875,-0.006648847833275795,-0.006689327768981457,-0.0011462245602160692
1761505976596348200,2.15334814453125,-0.005093029234558344,-0.003918308764696121,0.0003294330381322652
1761505976606384000,2.163384033203125,-0.00720491586253047,-0.001184041379019618,-0.0015456987312063575
1761505976616420000,2.173420166015625,-0.0049249837175011635,-0.0008490157779306173,-0.0012309130979701877
1761505976626456000,2.1834560546875,-0.0067239492200315,-0.0015078817959874868,0.0003307645965833217
1761505976636492000,2.193491943359375,-0.0062698801048099995,-0.002377936616539955,-0.0011281149927526712
1761505976646528000,2.203528076171875,-0.0060262009501457214,0.00013209278404247016,-0.0026019082870334387
1761505976656564000,2.21356396484375,-0.006509298458695412,-0.004467452876269817,-0.0035422705113887787
1761505976666600000,2.223599853515625,-0.004029362928122282,-0.0037326866295188665,-0.00145195540972054
1761505976676636000,2.233635986328125,-0.006632602773606777,-0.005937783978879452,-0.0006197175825946033
1761505976686672000,2.243671875,-0.00705737667158246,-0.003212304785847664,-0.0014474280178546906
1761505976696707800,2.253707763671875,-0.00720571493729949,-0.003585147438570857,-0.0007414240390062332
1761505976706744000,2.263744140625,-0.004829110112041235,0.0004780374001711607,-0.0019030949333682656
1761505976716780000,2.273780029296875,-0.006145243998616934,0.001418932224623859,-0.0033222935162484646
1761505976726816300,2.283816162109375,-0.007949535734951496,-0.0032623722217977047,-0.002302302746102214
1761505976736852200,2.293852294921875,-0.006435528863221407,-0.003608050523325801,-0.0011448930017650127
1761505976746888200,2.30388818359375,-0.006542054936289787,-0.0019430422689765692,-0.0007126618875190616
1761505976756924200,2.313924072265625,-0.00446851784363389,-0.0054727960377931595,0.0005869606975466013
1761505976766960000,2.323960205078125,-0.004976915195584297,-0.0034615767654031515,-0.003231213428080082
1761505976776996000,2.33399609375,-0.00395799009129405,-0.0036511938087642193,-0.001549959764815867
1761505976787032000,2.344031982421875,-0.00689172837883234,-0.0022740731947124004,-0.0034498588647693396
1761505976797068000,2.354068115234375,-0.005429652985185385,-0.0022000374738126993,-0.0026668894570320845
1761505976807104000,2.36410400390625,-0.0054941014386713505,-0.002117745578289032,-0.00016964336100500077
1761505976817140200,2.37414013671875,-0.007727694697678089,-0.0019379822770133615,-0.00227939966134727
1761505976827176200,2.38417626953125,-0.006557501386851072,-0.0023094932548701763,0.0007091998122632504
1761505976837212200,2.394212158203125,-0.0062363240867853165,-0.0007355650886893272,-0.0026410568971186876
1761505976847248100,2.404248046875,-0.005175587255507708,-0.0025244103744626045,-0.003829892026260495
1761505976857284000,2.4142841796875,-0.005602492019534111,-0.00316037330776453,-0.0024791366886347532
1761505976867320000,2.424320068359375,-0.005276254843920469,-0.003737214021384716,-0.0015962987672537565
1761505976877356000,2.43435595703125,-0.004224039614200592,-0.00022530343267135322,-0.00016884441720321774
1761505976887392000,2.44439208984375,-0.00649784691631794,-0.0031289479229599237,-0.0019864519126713276
1761505976897428000,2.454427978515625,-0.004997687879949808,-0.0021960425656288862,-0.0021377194207161665
1761505976907464000,2.4644638671875,-0.006985737942159176,-0.0033894050866365433,0.0016993631143122911
1761505976917500000,2.4745,-0.006332997232675552,-0.0026229473296552896,-0.001383245806209743
1761505976927536000,2.4845361328125,-0.006165218073874712,-0.003215234261006117,0.0013462279457598925
1761505976937572000,2.494572021484375,-0.005603024736046791,-0.0034384073223918676,-0.002755572786554694
1761505976947608000,2.504608154296875,-0.006543120369315147,-0.0011225224006921053,-0.0041095237247645855
1761505976957644000,2.51464404296875,-0.004652009811252356,-0.0023574302904307842,-0.002558232517912984
1761505976967679000,2.524678955078125,-0.006454437039792538,-0.002409894485026598,-0.0023403859231621027
1761505976977715000,2.53471484375,-0.005125253461301327,-0.0001984054979402572,-0.0015121428295969963
1761505976987751000,2.5447509765625,-0.0063063655979931355,-0.002831739140674472,0.00040480049210600555
1761505976997787000,2.554786865234375,-0.004927380476146936,-0.0026290726382285357,-0.003085272153839469
1761505977007823000,2.564822998046875,-0.00780679052695632,-0.0027803401462733746,0.0012825783342123032
1761505977017859000,2.574859130859375,-0.007789745926856995,-0.003025617217645049,-0.000618918624240905
1761505977027895000,2.58489501953125,-0.005905293393880129,-0.002130528911948204,-0.000009853695701167453
1761505977037931000,2.594930908203125,-0.005652559455484152,-0.00440992834046483,0.00026285400963388383
1761505977047967000,2.604967041015625,-0.0038775624707341194,-0.004864530172199011,-0.002071140334010124
1761505977058003000,2.6150029296875,-0.005089567042887211,-0.004255465231835842,-0.002348109148442745
1761505977068039200,2.6250390625,-0.006037119776010513,-0.00373002327978611,-0.0018141453620046377
1761505977078075100,2.6350751953125,-0.0051630702801048756,-0.0022011026740074158,-0.0013736584223806858
1761505977088112000,2.645112060546875,-0.006910902913659811,-0.0022216090001165867,-0.001781921018846333
1761505977098148000,2.655148193359375,-0.007298126816749573,-0.003572630463168025,-0.003127083647996187
1761505977108184000,2.66518408203125,-0.008134359493851662,-0.0030099046416580677,-0.0029675604309886694
1761505977118220000,2.675219970703125,-0.005222192499786615,-0.004288488067686558,-0.0006048039067536592
1761505977128256000,2.685256103515625,-0.006293582264333963,-0.0035665053874254227,-0.00038748994120396674
1761505977138292000,2.6952919921875,-0.007955394685268402,-0.0016639430541545153,-0.0021664814557880163
1761505977148328200,2.705328125,-0.006975617725402117,-0.004472779110074043,-0.0032418658956885338
1761505977158364400,2.715364501953125,-0.006976949516683817,-0.003162770066410303,-0.0023313311394304037
1761505977168400400,2.725400390625,-0.0033803503029048443,-0.0034024545457214117,-0.0022277343086898327
1761505977178436400,2.735436279296875,-0.00669412175193429,-0.004838963504880667,-0.0011821772204712033
1761505977188472300,2.745472412109375,-0.005763613153249025,-0.003463441040366888,-0.0016410398529842496
1761505977198508300,2.75550830078125,-0.0073804184794425964,-0.002919090911746025,0.0009243832319043577
1761505977208544300,2.765544189453125,-0.006864564027637243,-0.00043010051012970507,-0.0017411747248843312
1761505977218580200,2.775580322265625,-0.004479969386011362,-0.001621066126972437,-0.0027443873696029186
1761505977228616200,2.7856162109375,-0.006744455546140671,-0.002627741079777479,-0.00018322547839488834
1761505977238652200,2.795652099609375,-0.007485879585146904,-0.003486610483378172,0.0005550027708522975
1761505977248688000,2.805688232421875,-0.007024087477475405,-0.0018005631864070892,-0.0019827233627438545
1761505977258724000,2.81572412109375,-0.006115150637924671,-0.0036557212006300688,-0.002353169023990631
1761505977268760300,2.82576025390625,-0.007215834688395262,-0.0025808694772422314,-0.0005589975044131279
1761505977278796300,2.83579638671875,-0.006654174067080021,-0.004692756105214357,-0.001996039180085063
1761505977288832300,2.845832275390625,-0.006274141371250153,-0.0025856629945337772,-0.0037974014412611723
1761505977298868200,2.8558681640625,-0.0043779704719781876,-0.0008727178792469203,-0.0022205437999218702
1761505977308904200,2.865904296875,-0.006549245677888393,-0.0029526466969400644,-0.003610979998484254
1761505977318940200,2.875940185546875,-0.005760950036346912,-0.002280997345224023,-0.0012658004416152835
1761505977328976100,2.88597607421875,-0.006199039984494448,-0.004731371998786926,-0.001972070662304759
1761505977339012000,2.89601220703125,-0.006114884279668331,-0.002519882982596755,-0.0006490123341791332
1761505977349048000,2.906048095703125,-0.004292216617614031,0.0015209312550723553,-0.0011326423846185207
1761505977359084000,2.916083984375,-0.00561181316152215,-0.005701827816665173,-0.0014101437991485
1761505977369120000,2.9261201171875,-0.00800173357129097,-0.002448510378599167,-0.0016474314033985138
1761505977379156200,2.93615625,-0.006834203843027353,-0.002142513170838356,-0.0006583334179595113
1761505977389192200,2.946192138671875,-0.00549356872215867,-0.0019624833948910236,-0.003585413796827197
1761505977399228200,2.956228271484375,-0.005882390309125185,-0.001359543763101101,-0.001427720650099218
1761505977409264000,2.96626416015625,-0.010149040259420872,-0.0033124396577477455,0.000051399008953012526
1761505977419300000,2.976300048828125,-0.004846420604735613,-0.002892192918807268,-0.003270095447078347
1761505977429336000,2.986336181640625,-0.006880010478198528,-0.004432831425219774,-0.0035459990613162518
1761505977439372300,2.996372314453125,-0.006434729788452387,-0.0024410535115748644,-0.0020423782989382744
1761505977449407000,3.006406982421875,-0.006487726699560881,-0.0007262440049089491,-0.0019206717843189836
1761505977459443200,3.016443115234375,-0.0067899953573942184,-0.00341550400480628,-0.0041089910082519054
1761505977469479200,3.026479248046875,-0.006837666034698486,-0.0026043052785098553,-0.0035084483679383993
1761505977479515100,3.03651513671875,-0.0030503845773637295,-0.003703658003360033,0.001044758129864931
1761505977489551400,3.04655126953125,-0.0051992894150316715,-0.004960670135915279,0.00018668759730644524
1761505977499587300,3.05658740234375,-0.008409197442233562,-0.0037563887890428305,-0.0013049489352852106
1761505977509623300,3.066623291015625,-0.0023371900897473097,-0.00108257494866848,-0.0043534692376852036
1761505977519659300,3.0766591796875,-0.00532658863812685,-0.004752943757921457,-0.002615224104374647
1761505977529695200,3.0866953125,-0.008042479865252972,-0.004574245307594538,0.00027377295191399753
1761505977539731200,3.096731201171875,-0.005841111298650503,-0.0035515916533768177,-0.00173717993311584
1761505977549767200,3.10676708984375,-0.006265618838369846,-0.003369697602465749,-0.0030772825703024864
1761505977559803100,3.11680322265625,-0.004522047471255064,-0.005567071959376335,0.00048416267964057624
1761505977569839400,3.12683935546875,-0.005318332463502884,-0.003628823207691312,-0.0023813985753804445
1761505977579875300,3.136875244140625,-0.006338589824736118,-0.004721251782029867,0.0001030643325066194
1761505977589911300,3.146911376953125,-0.0068022459745407104,-0.0022884542122483253,-0.0016911072889342904
1761505977599947300,3.156947265625,-0.006445115897804499,-0.0024775387719273567,-0.002100168727338314
1761505977609983200,3.166983154296875,-0.0052086105570197105,-0.001924666459672153,-0.0013856426812708378
1761505977620019200,3.177019287109375,-0.007583617232739925,-0.0020631509833037853,-0.001487375469878316
1761505977630055200,3.18705517578125,-0.008820123039186,-0.002311091171577573,-0.0011867046123370528
1761505977640091100,3.197091064453125,-0.005361742340028286,-0.0026043052785098553,0.0000697748182574287
1761505977650127000,3.207127197265625,-0.005246161017566919,-0.004147873260080814,-0.0021140172611922026
1761505977660163000,3.2171630859375,-0.006558034103363752,-0.002683134749531746,-0.002113218419253826
1761505977670199000,3.227198974609375,-0.0056919739581644535,-0.000600809114985168,-0.0005997438565827906
1761505977680235300,3.2372353515625,-0.007839547470211983,-0.0009685916593298316,-0.0006711165769957006
1761505977690271200,3.247271240234375,-0.004707936197519302,-0.0008221178431995213,-0.002692722249776125
1761505977700307200,3.25730712890625,-0.005678924731910229,-0.0010048106778413057,-0.00282055395655334
1761505977710343200,3.26734326171875,-0.004914597608149052,-0.0031649006996303797,0.00010066748654935509
1761505977720379100,3.277379150390625,-0.0054397727362811565,-0.004514856729656458,-0.001110005541704595
1761505977730415000,3.2874150390625,-0.0057319216430187225,-0.0048975530080497265,-0.0033843449782580137
1761505977740451000,3.297451171875,-0.007720770314335823,-0.00469595193862915,-0.0019861855544149876
1761505977750487000,3.307487060546875,-0.0073109096847474575,-0.005813147872686386,-0.002356098499149084
1761505977760523000,3.31752294921875,-0.005912750028073788,0.0008724515791982412,0.0010812433902174234
1761505977770559000,3.32755908203125,-0.006670419592410326,-0.0018330537714064121,-0.0019068233668804169
1761505977780595200,3.33759521484375,-0.007947138510644436,0.00031798143754713237,0.0011885687708854675
1761505977790631200,3.347631103515625,-0.005979595705866814,-0.0020660804584622383,-0.0005627259379252791
1761505977800667400,3.35766748046875,-0.0065500447526574135,-0.004003263544291258,-0.0016911072889342904
1761505977810703400,3.367703369140625,-0.0052472264505922794,-0.0022831279784440994,-0.0013813816476613283
1761505977820738000,3.377738037109375,-0.004444815684109926,-0.0014383733505383134,-0.0005161206354387105
1761505977830774300,3.387774169921875,-0.00586614478379488,-0.0038003309164196253,-0.0011896340874955058
1761505977840810200,3.397810302734375,-0.004345479886978865,-0.0024194817524403334,-0.0005627259379252791
1761505977850846200,3.40784619140625,-0.0035369442775845528,-0.0026495789643377066,0.0004338289436418563
1761505977860882200,3.417882080078125,-0.006202502176165581,-0.0024719461798667908,-0.000737695605494082
1761505977870918400,3.42791845703125,-0.005738579668104649,-0.0011084076249971986,-0.0038336203433573246
1761505977880954400,3.437954345703125,-0.005234176758676767,-0.0038746329955756664,-0.0024682176299393177
1761505977890990300,3.447990234375,-0.005662679206579924,-0.005797701422125101,-0.0016588830621913075
1761505977901026300,3.4580263671875,-0.0070278155617415905,-0.0005185174522921443,-0.0013976269401609898
1761505977911062300,3.468062255859375,-0.007483482826501131,-0.0018277274211868644,0.0012961605098098516
1761505977921098200,3.47809814453125,-0.006567355245351791,-0.0042144525796175,-0.0012090750969946384
1761505977931134200,3.48813427734375,-0.007240868639200926,0.00018482338055036962,-0.0012335762148723006
1761505977941170200,3.498170166015625,-0.0041555967181921005,0.002472212305292487,0.0010428938549011946
1761505977951206100,3.5082060546875,-0.00669438811019063,-0.0030897995457053185,-0.002127333078533411
1761505977961242000,3.5182421875,-0.005943642929196358,-0.002272208919748664,0.0006372944335453212
1761505977971278000,3.528278076171875,-0.004548679105937481,-0.0008881642133928835,-0.0003020024741999805
1761505977981314300,3.538314208984375,-0.0054759918712079525,-0.00013448962999973446,-0.0015568839153274894
1761505977991350300,3.548350341796875,-0.005685582756996155,-0.0036602485924959183,-0.0012463594321161509
1761505978001386200,3.55838623046875,-0.006911435630172491,-0.0035236284602433443,-0.0011619371362030506
1761505978011422200,3.568422119140625,-0.005001682788133621,-0.0005858954391442239,-0.00014141385327093303
1761505978021458200,3.578458251953125,-0.004801679402589798,-0.003942543640732765,-0.0023270701058208942
1761505978031494100,3.588494140625,-0.005587578285485506,-0.0021811288315802813,-0.001636246219277382
1761505978041530000,3.598530029296875,-0.005870938766747713,-0.0030450583435595036,-0.001020523370243609
1761505978051566000,3.608566162109375,-0.004157194402068853,-0.0017845842521637678,0.00018216021999251097
1761505978061602000,3.61860205078125,-0.004042145796120167,-0.004539890680462122,0.00006817692337790504
1761505978071638000,3.628637939453125,-0.007509315386414528,-0.0032927324064075947,-0.0017960357945412397
1761505978081673700,3.638673828125,-0.004636829718947411,-0.0038125813007354736,-0.00347489258274436
1761505978091709700,3.648709716796875,-0.007589210290461779,-0.0026312030386179686,-0.0011142665753141046
1761505978101745700,3.65874560546875,-0.00506826164200902,-0.0037260286044329405,-0.0005291700945235789
1761505978111781600,3.66878173828125,-0.0075758942402899265,-0.003896470880135894,-0.0014823154779151082
1761505978121817600,3.678817626953125,-0.007259777281433344,-0.005714344792068005,-0.0036272252909839153
1761505978131853600,3.688853515625,-0.005633384454995394,-0.0038980687968432903,0.0012508867075666785
1761505978141888500,3.698888427734375,-0.006055229343473911,-0.0057441722601652145,-0.002639458980411291
1761505978151924700,3.7089248046875,-0.007306648883968592,-0.004574245307594538,-0.0014471617760136724
1761505978161960700,3.718960693359375,-0.007823036052286625,-0.0033803503029048443,-0.0013262542197480798
1761505978171996700,3.72899658203125,-0.006585198454558849,-0.0024951156228780746,-0.0033222935162484646
1761505978182032600,3.73903271484375,-0.005561213009059429,-0.0013691311469301581,-0.0014825817197561264
1761505978192068600,3.749068603515625,-0.004551608581095934,-0.0057439059019088745,-0.001957423286512494
1761505978202104600,3.7591044921875,-0.007860053330659866,-0.0018674085149541497,-0.0033190976828336716
1761505978212140500,3.769140625,-0.0065465825609862804,-0.0032208270858973265,-0.0006101301987655461
1761505978222176500,3.779176513671875,-0.005435245577245951,-0.006911701988428831,-0.0013488910626620054
1761505978232212500,3.78921240234375,-0.0073625752702355385,-0.006658968050032854,-0.0023936491925269365
1761505978242248400,3.79924853515625,-0.006287723314017057,-0.003513508476316929,-0.0014495585346594453
1761505978252284400,3.809284423828125,-0.006228867452591658,-0.0013086773687973619,-0.0012191950809210539
1761505978262320600,3.819320556640625,-0.006807305850088596,-0.0018511632224544883,-0.0023094932548701763
1761505978272356600,3.829356689453125,-0.0057590859942138195,-0.005277852527797222,-0.004013916477560997
1761505978282392600,3.839392578125,-0.005798500496894121,-0.0019510318525135517,-0.002448244020342827
1761505978292428500,3.849428466796875,-0.005975867155939341,-0.002123604528605938,-0.0017781927017495036
1761505978302464500,3.859464599609375,-0.005364671815186739,-0.003997670952230692,-0.002510828198865056
1761505978312500500,3.86950048828125,-0.005062402691692114,-0.003002181416377425,-0.0014729943359270692
1761505978322536400,3.879536376953125,-0.005345763172954321,-0.0027566379867494106,-0.0034996599424630404
1761505978332572400,3.889572509765625,-0.00418276060372591,-0.0057196710258722305,-0.002584864152595401
1761505978342608400,3.8996083984375,-0.006846454460173845,-0.005618737079203129,-0.002516420790925622
1761505978352644600,3.90964453125,-0.0043864925391972065,-0.00410473020747304,-0.000018375811123405583
1761505978362680600,3.9196806640625,-0.0022061625495553017,-0.0017840516520664096,-0.0012381036067381501
1761505978372716500,3.929716552734375,-0.006654440425336361,-0.005124987103044987,-0.002543318783864379
1761505978382752800,3.939752685546875,-0.005564142484217882,-0.004335093777626753,-0.002094576135277748
1761505978392788700,3.949788818359375,-0.005600893869996071,-0.003597131697461009,-0.0007542071980424225
1761505978402824700,3.95982470703125,-0.00726377172395587,-0.0027595674619078636,-0.00296276668086648
1761505978412859600,3.969859619140625,-0.005658152047544718,-0.004257062915712595,0.0005171858938410878
1761505978422895600,3.9798955078125,-0.0031129689887166023,-0.0035092474427074194,-0.0010066748363897204
1761505978432931600,3.989931640625,-0.005310875829309225,-0.0018045579781755805,-0.0016801883466541767
1761505978442967600,3.999967529296875,-0.007406251039355993,-0.002008556155487895,-0.0022189458832144737
1761505978453003500,4.01000341796875,-0.006009423173964024,-0.0028706213925033808,-0.0025981799699366093
1761505978463038700,4.020038818359375,-0.010213222354650497,-0.003233610186725855,-0.0022088258992880583
1761505978473074700,4.03007470703125,-0.005191033706068993,-0.004520449787378311,-0.0018791264155879617
1761505978483110700,4.040110595703125,-0.005194229539483786,-0.0006748450105078518,-0.0013986921403557062
1761505978493146600,4.050146728515625,-0.006059756502509117,-0.0020213392563164234,-0.0011946940794587135
1761505978503182600,4.0601826171875,-0.008376174606382847,-0.0025840650778263807,-0.00224930583499372
1761505978513218600,4.070218505859375,-0.0047849016264081,-0.004358529578894377,-0.002701510675251484
1761505978523254500,4.080254638671875,-0.006820355542004108,0.0004548678989522159,-0.0028160265646874905
1761505978533290800,4.090290771484375,-0.006383863277733326,-0.0038775624707341194,-0.002016811864450574
1761505978543326700,4.10032666015625,-0.007545268163084984,0.000015712650565546937,-0.0026088326703757048
1761505978553361700,4.110361572265625,-0.006695719435811043,0.00037816885742358863,-0.0022543659433722496
1761505978563397600,4.120397705078125,-0.005432049743831158,-0.001210406655445695,-0.001284975209273398
1761505978573433600,4.13043359375,-0.005278118886053562,-0.002645317930728197,-0.003085005795583129
1761505978583469600,4.140469482421875,-0.006529538426548243,-0.00287434970960021,-0.002548911375924945
1761505978593505500,4.150505615234375,-0.006088519003242254,-0.0035206989850848913,-0.000964064325671643
1761505978603541500,4.16054150390625,-0.005471730604767799,-0.0036658411845564842,-0.002581668319180608
1761505978613577700,4.17057763671875,-0.005311408545821905,-0.002772350562736392,-0.0006636597099713981
1761505978623613700,4.18061376953125,-0.003908987622708082,-0.0014865765115246177,-0.0022807312197983265
1761505978633649700,4.190649658203125,-0.004769188817590475,-0.0018761969404295087,-0.0017536915838718414
1761505978643685600,4.200685546875,-0.006862965878099203,-0.0029739518649876118,-0.0024977787397801876
1761505978653721600,4.2107216796875,-0.006873885169625282,-0.0036602485924959183,-0.0013712616637349129
1761505978663757600,4.220757568359375,-0.00487092137336731,-0.004579039290547371,-0.002810966456308961
1761505978673793500,4.23079345703125,-0.005032841581851244,-0.0007392935222014785,-0.0010178601369261742
1761505978683829500,4.24082958984375,-0.005570267792791128,-0.0015062838792800903,-0.0012093414552509785
1761505978693865500,4.250865478515625,-0.003890878288075328,-0.0028418591246008873,-0.00049082055920735
1761505978703901400,4.2609013671875,-0.004735366906970739,-0.0021403825376182795,-0.003169428091496229
1761505978713937400,4.2709375,-0.008919725194573402,-0.004585164599120617,-0.0003051982494071126
1761505978723973600,4.2809736328125,-0.007604922633618116,-0.0024170849937945604,-0.00007856325100874528
1761505978734009600,4.291009521484375,-0.0054666707292199135,-0.0018309232546016574,-0.0010266485624015331
1761505978744045600,4.301045654296875,-0.006085589528083801,-0.0031150993891060352,-0.0018021611031144857
1761505978754081500,4.31108154296875,-0.00800013542175293,-0.0046389601193368435,-0.001802960061468184
1761505978764117500,4.321117431640625,-0.0049127331003546715,0.00013502225920092314,-0.001019990653730929
1761505978774153500,4.331153564453125,-0.006874417886137962,-0.0037121803034096956,-0.0010868359822779894
1761505978784189400,4.341189453125,-0.006147108506411314,-0.004728176165372133,-0.0025867284275591373
1761505978794224400,4.351224365234375,-0.006347111891955137,-0.005594768561422825,-0.002528671408072114
1761505978804260600,4.361260498046875,-0.005833121482282877,-0.0020932445768266916,-0.0022008363157510757
1761505978814296600,4.371296630859375,-0.004747084807604551,-0.0037955371662974358,-0.001110005541704595
1761505978824332500,4.38133251953125,-0.007921572774648666,-0.001086037140339613,0.0007424892974086106
1761505978834368500,4.391368408203125,-0.005209675524383783,-0.003102049930021167,-0.002412024885416031
1761505978844404500,4.401404541015625,-0.008174573071300983,-0.0046850331127643585,-0.0026937874499708414
1761505978854440400,4.4114404296875,-0.005498894955962896,-0.004752943757921457,0.0008586031035520136
1761505978864476700,4.4214765625,-0.007391070947051048,-0.003953995183110237,-0.0018836538074538112
1761505978874512600,4.4315126953125,-0.0063210129737854,-0.0029790119733661413,-0.0035214978270232677
1761505978884548600,4.441548583984375,-0.005008607171475887,-0.0034474621061235666,-0.0002671150432433933
1761505978894584600,4.45158447265625,-0.006637396290898323,-0.0020066918805241585,-0.0020937772933393717
1761505978904620500,4.46162060546875,-0.005696767941117287,-0.003094060579314828,-0.003494866192340851
1761505978914656500,4.471656494140625,-0.006798783782869577,-0.004879177547991276,0.0004900216590613127
1761505978924692700,4.481692626953125,-0.005795837379992008,-0.00166607357095927,-0.0023763386998325586
1761505978934728700,4.491728759765625,-0.007734618615359068,-0.003614442190155387,-0.0035153725184500217
1761505978944764700,4.5017646484375,-0.005285043269395828,-0.0022889869287610054,-0.0012290488230064511
1761505978954800600,4.511800537109375,-0.005179582163691521,-0.0010090717114508152,-0.0007233145297504961
1761505978964836600,4.521836669921875,-0.006215285509824753,-0.004253068007528782,-0.003212304785847664
1761505978974872600,4.53187255859375,-0.007183344569057226,-0.0023097596131265163,0.002560629276558757
1761505978984908500,4.541908447265625,-0.006726079620420933,-0.0036754286848008633,-0.0017845842521637678
1761505978994944500,4.551944580078125,-0.00507092522457242,0.00032091091270558536,0.00005512743518920615
1761505979004980500,4.56198046875,-0.006336192600429058,-0.004334294702857733,0.00005273058923194185
1761505979015016400,4.572016357421875,-0.004215517546981573,-0.002516420790925622,-0.0006141249323263764
1761505979025051600,4.5820517578125,-0.007391337305307388,-0.004599811974912882,-0.003406715579330921
1761505979035089400,4.59208935546875,-0.004198473412543535,-0.002168878447264433,-0.003567304229363799
1761505979045125400,4.60212548828125,-0.007555121555924416,-0.0037734329234808683,-0.002293247962370515
1761505979055161600,4.61216162109375,-0.005561213009059429,-0.00544430036097765,-0.00024527712957933545
1761505979065197600,4.622197509765625,-0.003858920419588685,-0.004391552414745092,-0.0031334753148257732
1761505979075233500,4.632233642578125,-0.004795021377503872,-0.006370814051479101,-0.0013070794520899653
1761505979085270000,4.64227001953125,-0.00555056007578969,-0.0013273194199427962,-0.002032258315011859
1761505979095306000,4.652305908203125,-0.00595509447157383,-0.0037579864729195833,-0.0008602010202594101
1761505979105342000,4.662342041015625,-0.005936984904110432,-0.003192064817994833,-0.0005611280212178826
1761505979115378000,4.6723779296875,-0.007619037292897701,-0.003326288191601634,-0.0022088258992880583
1761505979125414000,4.682413818359375,-0.007910920307040215,-0.005195294506847858,-0.0025190841406583786
1761505979135448800,4.69244873046875,-0.006067479960620403,-0.0010697918478399515,-0.0021254688035696745
1761505979145484800,4.70248486328125,-0.006457899231463671,-0.003623230615630746,-0.0019353191601112485
1761505979155521000,4.71252099609375,-0.004219778813421726,-0.0036613137926906347,-0.0006245112745091319
1761505979165557000,4.722556884765625,-0.006855775602161884,-0.0035718316212296486,-0.001178182428702712
1761505979175593000,4.732593017578125,-0.004613127559423447,-0.00361817074008286,-0.001791242160834372
1761505979185629000,4.74262890625,-0.008021974004805088,-0.0024290692526847124,0.000859934720210731
1761505979195665000,4.752664794921875,-0.006047239992767572,-0.0033212280832231045,-0.0003832288784906268
1761505979205700900,4.762700927734375,-0.006305300164967775,-0.0010721886064857244,-0.001475391210988164
1761505979215736800,4.77273681640625,-0.007006244268268347,-0.005622998345643282,-0.00010333064710721374
1761505979225772800,4.782772705078125,-0.006627276539802551,0.0002663161139935255,-0.0032386700622737408
1761505979235808800,4.792808837890625,-0.007010505069047213,-0.001958222361281514,-0.0019566244445741177
1761505979245844700,4.8028447265625,-0.005710882600396872,-0.004012318328022957,-0.0007403587806038558
1761505979255881000,4.812880859375,-0.007769239600747824,-0.00035473305615596473,-0.0005249090609140694
1761505979265917000,4.8229169921875,-0.003820038167759776,-0.0033718282356858253,-0.0035446672700345516
1761505979275953200,4.832953125,-0.005935919936746359,-0.003790477057918906,-0.0015896408585831523
1761505979285989000,4.842989013671875,-0.005983323790132999,-0.006586263421922922,-0.001746501075103879
1761505979296025000,4.853025146484375,-0.007595601491630077,-0.004314853344112635,-0.0020154803059995174
1761505979306061000,4.86306103515625,-0.007005445193499327,-0.0035606464371085167,-0.0019771307706832886
1761505979316097000,4.873096923828125,-0.006548446603119373,-0.005175320897251368,0.00003222424857085571
1761505979326133000,4.883133056640625,-0.00504029868170619,-0.0038088529836386442,-0.001853560097515583
1761505979336169000,4.8931689453125,-0.005131645128130913,-0.0013765880139544606,-0.0009086705395020545
1761505979346205000,4.903204833984375,-0.0063196811825037,-0.004894091282039881,-0.002668487373739481
1761505979356241000,4.913240966796875,-0.006179865449666977,-0.0025273398496210575,-0.0014455638593062758
1761505979366276900,4.92327685546875,-0.006740993354469538,-0.002282062778249383,-0.0027710190042853355
1761505979376313000,4.93331298828125,-0.006835535634309053,-0.0014743260107934475,-0.002867958042770624
1761505979386348000,4.94334814453125,-0.006909038871526718,-0.0013286510948091745,-0.0015310513554140925
1761505979396384000,4.953384033203125,-0.00520754512399435,-0.0035183019936084747,-0.0011906992876902223
1761505979406420000,4.963419921875,-0.0023840616922825575,-0.004188619554042816,-0.0003070624661631882
1761505979416456000,4.9734560546875,-0.006220345385372639,-0.0019081549253314734,-0.0005078648100607097
1761505979426492000,4.983491943359375,-0.0055063520558178425,-0.004772651009261608,-0.00006604639202123508
1761505979436527900,4.99352783203125,-0.007620369084179401,-0.003228017594665289,-0.0005515406373888254
1761505979446563800,5.003563720703125,-0.005862682592123747,-0.0019888486713171005,0.0002820287481881678
1761505979456600000,5.01360009765625,-0.005450159311294556,-0.0025840650778263807,-0.00227833422832191
1761505979466636000,5.023635986328125,-0.0062821307219564915,-0.0016053534345701337,-0.0022770026698708534
1761505979476672000,5.033672119140625,-0.006396380253136158,-0.0020639498252421618,-0.0029696908313781023
1761505979486708000,5.0437080078125,-0.0065108961425721645,0.00043356261448934674,-0.001416269107721746
1761505979496744000,5.053743896484375,-0.0056802560575306416,-0.004673315212130547,-0.0015358449891209602
1761505979506780000,5.06377978515625,-0.007723699789494276,-0.0023904533591121435,-0.001186970854178071
1761505979516816000,5.07381591796875,-0.006342584267258644,-0.0034232272300869226,-0.00221947836689651
1761505979526851800,5.083851806640625,-0.007964183576405048,-0.0028423918411135674,0.0005688511882908642
1761505979536887800,5.0938876953125,-0.007069360930472612,-0.0023180153220891953,-0.002831472782418132
1761505979546923800,5.103923828125,-0.006886401679366827,0.0008918926469050348,0.0012269183062016964
1761505979556959700,5.113959716796875,-0.0032144354190677404,-0.0000958738019107841,-0.002548911375924945
1761505979566996000,5.123995849609375,-0.006975884083658457,-0.005090632475912571,-0.0010247844038531184
1761505979577032000,5.134031982421875,-0.006156429648399353,-0.004573978949338198,-0.0013582120882347226
1761505979587068000,5.14406787109375,-0.005705023650079966,-0.005354018881917,-0.0015672702575102448
1761505979597103900,5.154103759765625,-0.00609384523704648,-0.000958205375354737,-0.001315335277467966
1761505979607139800,5.164139892578125,-0.004535629414021969,-0.0022799321450293064,-0.0018610169645398855
1761505979617176000,5.174176025390625,-0.005513542331755161,-0.0006564692012034357,-0.0031225562561303377
1761505979627210800,5.184210693359375,-0.005038434639573097,-0.004792091902345419,-0.0022152173332870007
1761505979637246700,5.194246826171875,-0.0062365904450416565,-0.003129746997728944,-0.0002490055630914867
1761505979647283000,5.204282958984375,-0.005134574603289366,-0.001511610229499638,-0.0018285263795405626
1761505979657319000,5.21431884765625,-0.005432316102087498,-0.005113002844154835,-0.0012780509423464537
1761505979667355000,5.22435498046875,-0.006486927624791861,-0.005570267792791128,-0.0014120079576969147
1761505979677391000,5.23439111328125,-0.004199805203825235,-0.0015603461069986224,-0.0006175870657898486
1761505979687427000,5.244427001953125,-0.007151652593165636,-0.002237587934359908,-0.0017963021527975798
1761505979697463000,5.254463134765625,-0.0060051619075238705,-0.003695402294397354,0.0003880225704051554
1761505979707499000,5.2644990234375,-0.00618172949180007,-0.004640824627131224,-0.0011012171162292361
1761505979717535000,5.274534912109375,-0.006701578386127949,-0.0018309232546016574,-0.00310604483820498
1761505979727571000,5.284571044921875,-0.007139136083424091,-0.0028706213925033808,-0.0012836436508223414
1761505979737607000,5.29460693359375,-0.005093295592814684,-0.0038072550669312477,-0.0023409186396747828
1761505979747643000,5.304642822265625,-0.004216849338263273,-0.0020386497490108013,-0.004297542851418257
1761505979757679000,5.31467919921875,-0.006736998446285725,-0.003424292430281639,-0.0031997880432754755
1761505979767715000,5.324715087890625,-0.005821936298161745,-0.003596332622691989,-0.0017451694002375007
1761505979777751000,5.3347509765625,-0.007881625555455685,-0.0015398397808894515,-0.002855707658454776
1761505979787787000,5.344787109375,-0.005452289711683989,-0.004475442226976156,-0.003594468580558896
1761505979797823000,5.354822998046875,-0.006394516211003065,-0.003224555402994156,-0.0023792681749910116
1761505979807859000,5.36485888671875,-0.00893863383680582,-0.0038802255876362324,-0.0032003207597881556
1761505979817895000,5.37489501953125,-0.0054360441863536835,-0.005882656667381525,-0.0024740765802562237
1761505979827931000,5.384930908203125,-0.0065441858023405075,-0.0010466222884133458,-0.0003789678157772869
1761505979837966800,5.394966796875,-0.004688494838774204,-0.004504470620304346,-0.0017414409667253494
1761505979848002800,5.4050029296875,-0.006542054936289787,-0.004770520608872175,-0.00046845004544593394
1761505979858038000,5.4150380859375,-0.006307430565357208,-0.004601409658789635,0.0013206616276875138
1761505979868074000,5.425073974609375,-0.0067838700488209724,-0.002424275502562523,-0.0004516721237450838
1761505979878110000,5.43510986328125,-0.006147108506411314,-0.004172907210886478,-0.0033910030033439398
1761505979888146000,5.44514599609375,-0.006819822825491428,-0.001746501075103879,-0.0019347865600138903
1761505979898182000,5.455181884765625,-0.00948138628154993,-0.0018578211311250925,-0.001782187377102673
1761505979908217900,5.4652177734375,-0.0059662796556949615,-0.0016013587592169642,-0.0007976167253218591
1761505979918253800,5.47525390625,-0.005811816547065973,-0.0019033611752092838,-0.0012863067677244544
1761505979928289800,5.485289794921875,-0.005440571811050177,0.0004980111261829734,-0.0010242518037557602
1761505979938325800,5.49532568359375,-0.006114085204899311,-0.0036818201187998056,-0.0023941819090396166
1761505979948362000,5.505362060546875,-0.006599313113838434,-0.0029033781029284,-0.0018239989876747131
1761505979958398000,5.51539794921875,-0.006983074825257063,-0.0030929953791201115,-0.0006111954571679235
1761505979968434000,5.525433837890625,-0.005008607171475887,-0.003978762775659561,-0.0008117315010167658
1761505979978470000,5.535469970703125,-0.005624862387776375,-0.004086886998265982,-0.0036477316170930862
1761505979988505900,5.545505859375,-0.007933557033538818,-0.003340402850881219,-0.002427737694233656
1761505979998541800,5.555541748046875,-0.0067481836304068565,-0.004290086217224598,-0.0014642059104517102
1761505980008577800,5.565577880859375,-0.006439256947487593,-0.0021672805305570364,-0.0023574302904307842
1761505980018614000,5.575614013671875,-0.005633917171508074,-0.0025156219489872456,-0.0005097290268167853
1761505980028650000,5.58564990234375,-0.0051960935816168785,-0.004053330980241299,0.001457548001781106
1761505980038686000,5.59568603515625,-0.0031342741567641497,-0.0036698358599096537,-0.0024794030468910933
1761505980048722000,5.605721923828125,-0.0065106297843158245,-0.003975833300501108,-0.004013916477560997
1761505980058758100,5.615758056640625,-0.009240902960300446,-0.004640025552362204,0.0001347559446003288
1761505980068794000,5.625794189453125,-0.007694405037909746,-0.005942843854427338,-0.004393949639052153
1761505980078829000,5.6358291015625,-0.005060805007815361,-0.0031465247739106417,-0.0009707222343422472
1761505980088864000,5.645864013671875,-0.003059173235669732,-0.002263953210785985,-0.0025869945529848337
1761505980098900000,5.65589990234375,-0.007977765053510666,-0.0009528790251351893,-0.0015534218400716782
1761505980108936200,5.665936279296875,-0.003509779926389456,-0.003966245800256729,0.00034727618913166225
1761505980118972200,5.67597216796875,-0.006715427152812481,-0.00321843009442091,-0.0023039006628096104
1761505980129008000,5.686008056640625,-0.006265086587518454,-0.0033545177429914474,0.0007233145297504961
1761505980139044000,5.696044189453125,-0.007543936371803284,-0.0015840481501072645,-0.0024927188642323017
1761505980149080000,5.706080078125,-0.003774498123675585,-0.0008735168376006186,-0.0016162724932655692
1761505980159116000,5.716115966796875,-0.006228867452591658,-0.004543619230389595,-0.0007366303470917046
1761505980169152000,5.726152099609375,-0.007090932689607143,-0.0020956413354724646,-0.000651675509288907
1761505980179188000,5.73618798828125,-0.003400856629014015,-0.003397394670173526,-0.0002798982313834131
1761505980189224000,5.746223876953125,-0.007894141599535942,-0.002858903491869569,-0.0021872541401535273
1761505980199260000,5.756260009765625,-0.007172957994043827,-0.003549993736669421,-0.0014245248166844249
1761505980209296000,5.7662958984375,-0.006702111102640629,-0.005025118589401245,-0.003483681008219719
1761505980219332000,5.77633203125,-0.005908755585551262,-0.002144643571227789,0.0010543455136939883
1761505980229368000,5.7863681640625,-0.006543386727571487,-0.0023033679462969303,-0.0022983080707490444
1761505980239404000,5.796404052734375,-0.004036020487546921,-0.0016652746126055717,0.00009161273919744417
1761505980249440000,5.80643994140625,-0.0064893243834376335,-0.0031726236920803785,-0.0008636631537228823
1761505980259476000,5.81647607421875,-0.005419799126684666,-0.002520415699109435,-0.0008183894096873701
1761505980269512200,5.82651220703125,-0.005964948330074549,-0.002531334524974227,-0.0029606360476464033
1761505980279548200,5.836548095703125,-0.005952697712928057,-0.0030056436080485582,-0.0033393376506865025
1761505980289582800,5.846582763671875,-0.00461685610935092,-0.004743089899420738,0.00009853696246864274
1761505980299619000,5.856619140625,-0.0070160976611077785,-0.0025507756508886814,-0.0035776905715465546
1761505980309655000,5.866655029296875,-0.006903712637722492,-0.004488757811486721,-0.001982190879061818
1761505980319691300,5.876691162109375,-0.005016596522182226,-0.0011057445080950856,-0.001216531964018941
1761505980329727200,5.886727294921875,-0.0065100970678031445,-0.0018804579740390182,-0.0007544735562987626
1761505980339763200,5.89676318359375,-0.005516738165169954,-0.0006024070316925645,-0.001115864492021501
1761505980349799200,5.906799072265625,-0.006922887172549963,-0.002766757970675826,-0.0013334447285160422
1761505980359835100,5.916835205078125,-0.003406981937587261,-0.0017994979862123728,-0.002380866091698408
1761505980369871000,5.92687109375,-0.006976416800171137,-0.005556419026106596,-0.0023963123094290495
1761505980379907000,5.936906982421875,-0.0046874298714101315,-0.001823732745833695,-0.0011675298446789384
1761505980389943000,5.946943115234375,-0.005369998048990965,-0.0006996124284341931,-0.003031476167961955
1761505980399979000,5.95697900390625,-0.0062248725444078445,-0.0032410670537501574,0.00039175100391730666
1761505980410015200,5.96701513671875,-0.006006759591400623,-0.0046480149030685425,0.0003049319493584335
1761505980420051200,5.97705126953125,-0.005645368713885546,-0.0041249701753258705,-0.0013174657942727208
1761505980430087200,5.987087158203125,-0.00487358495593071,-0.003442401997745037,-0.001704689348116517
1761505980440123100,5.997123046875,-0.006733270362019539,-0.002567553659901023,-0.0008612662786617875
1761505980450159000,6.0071591796875,-0.0029079054947942495,-0.0007414240390062332,-0.001145159243606031
1761505980460195000,6.017195068359375,-0.005054146982729435,-0.004063184838742018,-0.001365402713418007
1761505980470231000,6.02723095703125,-0.0054613444954156876,-0.003640541108325124,-0.002552639925852418
1761505980480267000,6.03726708984375,-0.006374542135745287,-0.006398244295269251,0.000055926382628967986
1761505980490303000,6.047302978515625,-0.00404640706256032,-0.003626426449045539,-0.0012274509062990546
1761505980500339000,6.0573388671875,-0.005730323493480682,-0.0031249532476067543,-0.004077565856277943
1761505980510375000,6.067375,-0.0060331248678267,-0.003982757218182087,-0.0035361452028155327
1761505980520410000,6.07741015625,-0.006487193983048201,-0.004897287115454674,-0.002049036091193557
1761505980530446000,6.087446044921875,-0.005361742340028286,-0.0022796657867729664,-0.0013014868600293994
1761505980540482000,6.09748193359375,-0.005967078730463982,-0.0036309538409113884,-0.0022098910994827747
1761505980550518000,6.10751806640625,-0.00612154183909297,-0.006988134700804949,0.0004005394293926656
1761505980560554000,6.117553955078125,-0.005761216394603252,-0.0033875408116728067,-0.0006133259739726782
1761505980570590000,6.12758984375,-0.006115682888776064,-0.0016772588714957237,-0.0019715381786227226
1761505980580626000,6.1376259765625,-0.00589623861014843,-0.0023100259713828564,-0.00185089698061347
1761505980590662000,6.147661865234375,-0.00669278996065259,-0.001216531964018941,-0.0013286510948091745
1761505980600698000,6.157697998046875,-0.005259210709482431,-0.0015278555219992995,-0.0024764735717326403
1761505980610734000,6.167734130859375,-0.00418355967849493,-0.004437092691659927,-0.0006846986943855882
1761505980620770000,6.17777001953125,-0.00755086075514555,-0.0036818201187998056,-0.0005747101386077702
1761505980630806000,6.187805908203125,-0.003995540551841259,-0.0030975225381553173,-0.0010732539230957627
1761505980640842000,6.197842041015625,-0.005715409759432077,-0.00002902845517382957,-0.001502555445767939
1761505980650878000,6.2078779296875,-0.006960437633097172,-0.0029672940727323294,-0.0018469021888449788
1761505980660914200,6.2179140625,-0.003129746997728944,-0.005548163317143917,-0.001651159836910665
1761505980670950100,6.2279501953125,-0.006432599388062954,-0.005630721338093281,-0.003150519449263811
1761505980680986000,6.237986083984375,-0.004582767374813557,-0.0020730046089738607,-0.0027505126781761646
1761505980691022000,6.24802197265625,-0.006657369900494814,-0.0043625240214169025,-0.002287122653797269
1761505980701058000,6.25805810546875,-0.007194263394922018,-0.004537493921816349,-0.0005736448802053928
1761505980711094000,6.268093994140625,-0.0054216631688177586,-0.0018881811993196607,-0.0022599585354328156
1761505980721130200,6.278130126953125,-0.006851780693978071,-0.002669020090252161,-0.0028929917607456446
1761505980731165200,6.288165283203125,-0.005073321983218193,-0.0034432008396834135,-0.0017278589075431228
1761505980741201200,6.298201171875,-0.008832640014588833,-0.00544456671923399,-0.0021696772892028093
1761505980751237000,6.308237060546875,-0.00401684595271945,-0.002669020090252161,-0.002126534003764391
1761505980761273000,6.318273193359375,-0.005525260232388973,-0.0020501012913882732,0.00046392265358008444
1761505980771309000,6.32830908203125,-0.005679191090166569,-0.003430417738854885,-0.0018730012234300375
1761505980781345000,6.338344970703125,-0.006687463726848364,-0.002513757674023509,0.00044288369826972485
1761505980791381200,6.34838134765625,-0.005346295889467001,-0.004089283756911755,-0.0022423816844820976
1761505980801417200,6.358417236328125,-0.0038274950347840786,-0.003555053612217307,0.00022024342615623027
1761505980811453200,6.368453125,-0.0057463026605546474,-0.0034557178150862455,-0.0006514092092402279
1761505980821489200,6.3784892578125,-0.0049340385012328625,0.00046845004544593394,-0.0026823359075933695
1761505980831525000,6.388525146484375,-0.007771104108542204,-0.00239231763407588,-0.00043116576853208244
1761505980841561000,6.39856103515625,-0.007932757958769798,-0.002987001556903124,-0.003497795667499304
1761505980851597000,6.40859716796875,-0.007160973735153675,-0.005962018854916096,-0.0011121360585093498
1761505980861633000,6.418633056640625,-0.004854143597185612,-0.003632818115875125,-0.0006399576086550951
1761505980871669000,6.4286689453125,-0.004069576505571604,-0.002145176287740469,-0.0016042882343754172
1761505980881705000,6.438705078125,-0.007035006303340197,-0.0015989618841558695,0.00026045716367661953
1761505980891741000,6.448740966796875,-0.006697850301861763,-0.0025875272694975138,-0.0012982910266146064
1761505980901777200,6.458777099609375,-0.006455768831074238,-0.0038067223504185677,-0.0005350290448404849
1761505980911813000,6.468813232421875,-0.004147606901824474,-0.0032029838766902685,-0.0009004147723317146
1761505980921849000,6.47884912109375,-0.007800665218383074,-0.0009739180095493793,-0.0026903252582997084
1761505980931885000,6.488885009765625,-0.006032059900462627,-0.00404587434604764,-0.0018658105982467532
1761505980941920000,6.498919921875,-0.004188885912299156,-0.0013781858142465353,-0.0019225359428673983
1761505980951956000,6.5089560546875,-0.003817907767370343,-0.004171309061348438,-0.0013933659065514803
1761505980961992000,6.518991943359375,-0.006881341803818941,-0.0054972972720861435,-0.002174204681068659
1761505980972028000,6.52902783203125,-0.006798517424613237,-0.0036993969697505236,-0.0009440905996598303
1761505980982064000,6.539064208984375,-0.005721002817153931,-0.0008934905636124313,-0.0017859158106148243
1761505980992100000,6.54910009765625,-0.003932956140488386,-0.0029262814205139875,-0.0009978864109143615
1761505981002136000,6.559135986328125,-0.006175071466714144,-0.0041121868416666985,-0.0016626114957034588
1761505981012172000,6.569172119140625,-0.006129798013716936,-0.003946538548916578,-0.0006250438746064901
1761505981022208000,6.5792080078125,-0.005772667936980724,-0.00088976213010028,-0.0029140308033674955
1761505981032244000,6.589243896484375,-0.007531419396400452,-0.0028221518732607365,0.00023196132679004222
1761505981042280000,6.599280029296875,-0.006183859892189503,-0.003433347214013338,-0.001540904981084168
1761505981052316000,6.60931591796875,-0.006654973141849041,-0.0010817759903147817,0.00009374327055411413
1761505981062352100,6.61935205078125,-0.0027387947775423527,-0.0036461339332163334,-0.0002724413643591106
1761505981072388000,6.62938818359375,-0.005634982604533434,-0.0032519858796149492,-0.00025992453447543085
1761505981082424000,6.639424072265625,-0.008748217485845089,-0.0012548814993351698,-0.0010831075487658381
1761505981092461300,6.64946142578125,-0.005435245577245951,-0.004703408572822809,-0.001014131703414023
1761505981102497300,6.659497314453125,-0.004857073072344065,-0.004107659682631493,-0.000040480048483004794
1761505981112533200,6.669533203125,-0.009681656025350094,0.00020106865849811584,-0.0030858046375215054
1761505981122569200,6.6795693359375,-0.008029164746403694,-0.003062102710828185,-0.0008141283178701997
1761505981132605400,6.68960546875,-0.00586721021682024,-0.004387291613966227,-0.0011669971281662583
1761505981142640400,6.699640380859375,-0.0051774512976408005,-0.0036370791494846344,0.000011717908819264267
1761505981152676400,6.70967626953125,-0.006733004003763199,-0.003855458227917552,0.00008202536264434457
1761505981162712300,6.71971240234375,-0.003975833300501108,-0.005905027035623789,-0.002019208623096347
1761505981172748300,6.729748291015625,-0.007191067561507225,-0.0025590313598513603,-0.000532365869730711
1761505981182784500,6.739784423828125,-0.004790760576725006,-0.004070641472935677,-0.00043649208964779973
1761505981192820500,6.749820556640625,-0.006749249063432217,-0.0007954862085171044,-0.0008703210623934865
1761505981202856400,6.7598564453125,-0.00762862479314208,-0.0038535939529538155,-0.0003789678157772869
1761505981212892400,6.769892333984375,-0.007427290081977844,-0.0006687197601422668,-0.0012178635224699974
1761505981222928600,6.7799287109375,-0.002921221312135458,-0.0031550468411296606,-0.002130528911948204
1761505981232964600,6.789964599609375,-0.0049612028524279594,-0.0020905814599245787,-0.0006732470938004553
1761505981243000600,6.80000048828125,-0.003727892879396677,-0.004238420631736517,-0.0012865731259807944
1761505981253036500,6.81003662109375,-0.004832305945456028,-0.0020804614759981632,0.0011560781858861446
1761505981263072500,6.820072509765625,-0.007330351043492556,-0.0028703550342470407,-0.000577107013668865
1761505981273108500,6.8301083984375,-0.005144162103533745,-0.002360093407332897,0.0015941682504490018
1761505981283144400,6.84014453125,-0.006354568526148796,-0.0041212416253983974,-0.0016769925132393837
1761505981293180400,6.850180419921875,-0.005452556069940329,-0.00412417110055685,-0.0006410228670574725
1761505981303216400,6.86021630859375,-0.00580782163888216,-0.0037294907961040735,-0.0019169433508068323
1761505981313252400,6.87025244140625,-0.005655222572386265,-0.00041971419705078006,-0.0019374496769160032
1761505981323288300,6.880288330078125,-0.0052291168831288815,-0.00452684098854661,-0.0013550163712352514
1761505981333323500,6.890323486328125,-0.005392102058976889,-0.0014745922526344657,-0.00023675501870457083
1761505981343359500,6.900359375,-0.006906109396368265,-0.0031792817171663046,-0.0018482337472960353
1761505981353395500,6.9103955078125,-0.006665891967713833,-0.0014455638593062758,-0.0018253305461257696
1761505981363431400,6.920431396484375,-0.0057191383093595505,-0.004888232331722975,-0.0010721886064857244
1761505981373467400,6.93046728515625,-0.0059753344394266605,-0.0032629049383103848,-0.0035595810040831566
1761505981383503400,6.94050341796875,-0.006103432737290859,-0.0017781927017495036,0.0005403553950600326
1761505981393539300,6.950539306640625,-0.004522047471255064,0.001110005541704595,-0.0018985675415024161
1761505981403575300,6.9605751953125,-0.003963049966841936,-0.0024319987278431654,-0.0010221211705356836
1761505981413611500,6.970611572265625,-0.00544350128620863,-0.004664793144911528,-0.0009712548344396055
1761505981423647500,6.9806474609375,-0.006426740437746048,-0.004515389446169138,-0.0022658174857497215
1761505981433683500,6.990683349609375,-0.004033357370644808,-0.0032559807877987623,-0.0046940878964960575
1761505981443719400,7.000719482421875,-0.004759867675602436,-0.002910036128014326,-0.002058623591437936
1761505981453755400,7.01075537109375,-0.00526746641844511,-0.0014809839194640517,-0.0004649879119824618
1761505981463791400,7.020791259765625,-0.007180415093898773,-0.0034669029992073774,-0.0006705839768983424
1761505981473827300,7.030827392578125,-0.005643238313496113,-0.0009387642494402826,-0.003549461020156741
1761505981483863300,7.04086328125,-0.005071723833680153,-0.005435245577245951,-0.0004492752777878195
1761505981493899300,7.050899169921875,-0.009130913764238358,-0.0006085322820581496,-0.0005038700764998794
1761505981503935200,7.060935302734375,-0.0060293967835605145,-0.002781938062980771,-0.0009174589649774134
1761505981513971500,7.070971435546875,-0.005660282447934151,-0.004144411068409681,-0.0021792647894471884
1761505981524006400,7.08100634765625,-0.005681587848812342,-0.0029523803386837244,-0.0025246767327189445
1761505981534042400,7.09104248046875,-0.006713562645018101,-0.0017781927017495036,-0.0023007048293948174
1761505981544078300,7.101078369140625,-0.004507133737206459,-0.003919374197721481,0.0012072109384462237
1761505981554114300,7.1111142578125,-0.00498117646202445,-0.003641606541350484,-0.0006756439688615501
1761505981564150300,7.121150390625,-0.006794522982090712,-0.004133225884288549,-0.0016652746126055717
1761505981574186200,7.131186279296875,-0.006488259416073561,-0.003725496120750904,-0.000005592638444795739
1761505981584222500,7.141222412109375,-0.0068240840919315815,-0.001752093667164445,0.000598145998083055
1761505981594258400,7.151258544921875,-0.0036858150269836187,-0.002930009737610817,0.0004340952436905354
1761505981604294700,7.161294677734375,-0.007982026785612106,0.000041545314161339775,-0.0015576828736811876
1761505981614330600,7.17133056640625,-0.004689826630055904,-0.005051217507570982,-0.003942809998989105
1761505981624366600,7.18136669921875,-0.005088767968118191,-0.004430701024830341,-0.0017725999932736158
1761505981634402600,7.191402587890625,-0.005592371802777052,-0.000070307454734575,-0.000743554555810988
1761505981644438500,7.2014384765625,-0.006219279952347279,-0.00384453940205276,-0.0013542174128815532
1761505981654474500,7.211474609375,-0.009101086296141148,0.0001270327775273472,0.00028309403569437563
1761505981664510500,7.221510498046875,-0.006369748618453741,-0.004656270612031221,-0.0032466596458107233
1761505981674546400,7.23154638671875,-0.005465605296194553,-0.0035952674224972725,-0.00032863407977856696
1761505981684582400,7.24158251953125,-0.007864048704504967,-0.0036786242853850126,-0.0019097528420388699
1761505981694618400,7.251618408203125,-0.007695470005273819,-0.0027105652261525393,-0.0024109596852213144
1761505981704654300,7.261654296875,-0.0038008634001016617,-0.0020607539918273687,-0.0006420881254598498
1761505981714689500,7.271689453125,-0.006797452457249165,-0.003028813051059842,-0.005339105147868395
1761505981724725500,7.2817255859375,-0.007355384528636932,-0.0033451966010034084,-0.0035537220537662506
1761505981734761500,7.291761474609375,-0.0060022324323654175,-0.002241050126031041,-0.0013851100811734796
1761505981744797400,7.30179736328125,-0.0054885088466107845,-0.0015486282063648105,-0.0013353090034797788
1761505981754833400,7.31183349609375,-0.0030511836521327496,-0.0041068606078624725,-0.0005299690528772771
1761505981764869400,7.321869384765625,-0.005332979839295149,-0.0007054713787510991,-0.001413339632563293
1761505981774905300,7.3319052734375,-0.005460012704133987,-0.003936151973903179,-0.0008375641773454845
1761505981784941300,7.34194140625,-0.004513525404036045,0.00007669904152862728,-0.001493500778451562
1761505981794977500,7.3519775390625,-0.006332198157906532,-0.0030399984680116177,0.000278300343779847
1761505981805013500,7.362013427734375,-0.005934588145464659,-0.0015480954898521304,-0.0025451830588281155
1761505981815049500,7.372049560546875,-0.005985986907035112,-0.0027651600539684296,-0.00436012726277113
1761505981825085400,7.38208544921875,-0.007815845310688019,-0.002757969545200467,-0.00001864212754298933
1761505981835121400,7.392121337890625,-0.005320996046066284,-0.0020823257509618998,-0.002712695859372616
1761505981845157400,7.402157470703125,-0.0049588060937821865,-0.0004623247659765184,-0.0031515848822891712
1761505981855193300,7.412193359375,-0.008840363472700119,-0.0033949976786971092,0.0005038700764998794
1761505981865229300,7.422229248046875,-0.007384945638477802,-0.001145159243606031,-0.0012082761386409402
1761505981875265300,7.432265380859375,-0.007198790553957224,-0.004546015989035368,-0.0020623519085347652
1761505981885301200,7.44230126953125,-0.004944424610584974,-0.0032376048620790243,-0.0022152173332870007
1761505981895336400,7.45233642578125,-0.005367867648601532,-0.0010671286145225167,-0.0021752698812633753
1761505981905372400,7.462372314453125,-0.007182811852544546,-0.0012785836588591337,-0.0018130800453945994
1761505981915408400,7.472408447265625,-0.0057433731853961945,-0.004447745159268379,-0.0009424926829524338
1761505981925444400,7.4824443359375,-0.007003581151366234,-0.0020362529903650284,-0.0032381375785917044
1761505981935480300,7.492480224609375,-0.00586587842553854,-0.003727892879396677,-0.0023302659392356873
1761505981945516300,7.502516357421875,-0.008129565045237541,0.0013968279818072915,-0.002380599733442068
1761505981955552300,7.51255224609375,-0.00629038643091917,-0.0008551410282962024,-0.0022184131667017937
1761505981965588200,7.522588134765625,-0.006222475785762072,-0.00145195540972054,-0.0033965955954045057
1761505981975624400,7.53262451171875,-0.005860285833477974,-0.004867726005613804,-0.0009507485083304346
1761505981985660700,7.54266064453125,-0.0068326061591506,-0.00011611382069531828,-0.0008077367674559355
1761505981995696600,7.552696533203125,-0.006500243674963713,-0.001499625970609486,-0.0024349282030016184
1761505982005732600,7.562732666015625,-0.005650162696838379,-0.0034610440488904715,0.0001627191377338022
1761505982015768600,7.5727685546875,-0.007505054119974375,-0.005450159311294556,-0.0025065671652555466
1761505982025804500,7.582804443359375,-0.005357214715331793,-0.0019598202779889107,-0.0013273194199427962
1761505982035840500,7.592840576171875,-0.007737281732261181,-0.0006713828770443797,-0.0018461032304912806
1761505982045876500,7.60287646484375,-0.005567604675889015,-0.0024082965683192015,-0.003029079409316182
1761505982055912400,7.612912353515625,-0.005197691265493631,-0.002433063928037882,-0.002674612682312727
1761505982065948400,7.622948486328125,-0.005312473513185978,-0.002645317930728197,-0.00199390877969563
1761505982075983600,7.632983642578125,-0.005806223955005407,-0.000040746363083599135,0.00024527712957933545
1761505982086019300,7.643019287109375,-0.00700810831040144,-0.004719121381640434,-0.00115421402733773
1761505982096055300,7.65305517578125,-0.003861849894747138,-0.0025563682429492474,0.00007936220208648592
1761505982106091300,7.66309130859375,-0.006629406940191984,-0.001541171339340508,-0.0005158542771823704
1761505982116127200,7.673127197265625,-0.0049319081008434296,-0.0007962851668708026,-0.002261023735627532
1761505982126163200,7.6831630859375,-0.006534065585583448,-0.002566488226875663,-0.0017409083666279912
1761505982136199200,7.69319921875,-0.005674397107213736,-0.0020295949652791023,-0.002560629276558757
1761505982146235100,7.703235107421875,-0.005930060520768166,-0.0024370586033910513,0.00004367584188003093
1761505982156271000,7.71327099609375,-0.006708769127726555,-0.0008207862265408039,-0.0014777880860492587
1761505982166307300,7.723307373046875,-0.005653358530253172,-0.0030178942251950502,-0.0022327941842377186
1761505982176343300,7.73334326171875,-0.00567066902294755,-0.001734516816213727,-0.003561977995559573
1761505982186379500,7.743379638671875,-0.006647516507655382,-0.0014397049089893699,-0.001335841603577137
1761505982196415500,7.75341552734375,-0.007493602577596903,-0.002627741079777479,-0.0043505397625267506
1761505982206451500,7.763451416015625,-0.009925068356096745,-0.0022738068364560604,-0.001871403306722641
1761505982216487400,7.7734873046875,-0.005094626918435097,-0.002171275205910206,-0.001404018490575254
1761505982226523400,7.7835234375,-0.005107676610350609,-0.0015627428656443954,0.0005970807396806777
1761505982236559400,7.793559326171875,-0.005194761790335178,-0.0055004931055009365,-0.0011342403013259172
1761505982246594300,7.80359423828125,-0.006199039984494448,-0.001698564155958593,-0.0027236149180680513
1761505982256630500,7.813630615234375,-0.0049191247671842575,-0.00580862071365118,-0.0009486179915256798
1761505982266666500,7.82366650390625,-0.007641940843313932,-0.00606534956023097,-0.002397377509623766
1761505982276702500,7.833702392578125,-0.008537295274436474,-0.004513791762292385,-0.00005912217602599412
1761505982286738400,7.843738525390625,-0.006112221162766218,-0.002671683207154274,-0.000046339002437889576
1761505982296774400,7.8537744140625,-0.005364938173443079,-0.0024445154704153538,-0.00040559942135587335
1761505982306810400,7.863810302734375,-0.007538077421486378,-0.00603339122608304,0.0006804376607760787
1761505982316846300,7.873846435546875,-0.005422195885330439,-0.002968359272927046,-0.0017931063193827868
1761505982326882300,7.88388232421875,-0.005504487548023462,-0.0019742012955248356,-0.000003994741746282671
1761505982336918300,7.893918212890625,-0.00558092026039958,-0.002900448627769947,0.0002721750643104315
1761505982346954200,7.903954345703125,-0.004511661361902952,-0.0032344090286642313,0.00041784998029470444
1761505982356990500,7.913990478515625,-0.0086028091609478,-0.0023547669406980276,-0.000496945867780596
1761505982367026400,7.9240263671875,-0.005333778914064169,-0.004787298385053873,-0.0025654230266809464
1761505982377062400,7.9340625,-0.006880276836454868,-0.0013576794881373644,-0.0031886028591543436
1761505982387098400,7.944098388671875,-0.007813980802893639,-0.002698048483580351,-0.002286856295540929
1761505982397134300,7.95413427734375,-0.005863481666892767,-0.0041401502676308155,-0.002115615177899599
1761505982407170300,7.96417041015625,-0.005585714243352413,-0.004108725115656853,-0.0027116306591778994
1761505982417206300,7.974206298828125,-0.006877613253891468,-0.002432531211525202,-0.0019465044606477022
1761505982427241200,7.9842412109375,-0.006477074231952429,-0.004165716469287872,-0.001532116555608809
1761505982437277400,7.99427734375,-0.005311941262334585,-0.00205276464112103,-0.0021526331547647715
1761505982447313400,8.0043134765625,-0.006479470990598202,-0.0016618125373497605,-0.0019401127938181162
1761505982457348400,8.014348388671875,-0.006646184716373682,-0.0018780612153932452,-0.00279125920496881
1761505982467384300,8.02438427734375,-0.00800066813826561,-0.002368082758039236,-0.004201402887701988
1761505982477420300,8.034420166015625,-0.00532525684684515,-0.0023813985753804445,0.00045060686534270644
1761505982487456300,8.044456298828125,-0.006332730874419212,0.00035180358099751174,-0.0014325142838060856
1761505982497492200,8.0544921875,-0.005323126446455717,-0.004067978356033564,0.0004873584839515388
1761505982507527400,8.06452734375,-0.006124471314251423,-0.0038043255917727947,-0.00010173275222769007
1761505982517563400,8.0745634765625,-0.00757988914847374,-0.0015544871566817164,-0.003287405939772725
1761505982527599400,8.084599365234375,-0.005061071366071701,-0.0017986990278586745,-0.0017931063193827868
1761505982537635300,8.09463525390625,-0.006718356627970934,-0.00018455706594977528,-0.0032024511601775885
1761505982547671300,8.10467138671875,-0.006540190894156694,-0.005553755909204483,-0.001136370818130672
1761505982557707300,8.114707275390625,-0.004517253953963518,-0.0006793724023737013,-0.0005499427788890898
1761505982567743200,8.1247431640625,-0.006810768041759729,-0.0006676545017398894,0.0015670040156692266
1761505982577779200,8.134779296875,-0.005082110408693552,-0.003515905234962702,-0.0028479844331741333
1761505982587815200,8.144815185546875,-0.006568686570972204,-0.0030029804911464453,-0.0027771443128585815
1761505982597851400,8.154851318359375,-0.00469621829688549,0.00006844323797849938,0.0010101370280608535
1761505982607887400,8.164887451171875,-0.006147907115519047,-0.003165166825056076,0.0005382248782552779
1761505982617923300,8.17492333984375,-0.006588660646229982,-0.0010660634143278003,-0.0020695424173027277
1761505982627959300,8.184959228515625,-0.009106945246458054,-0.005453355144709349,0.0004799016169272363
1761505982637995300,8.194995361328125,-0.00875061471015215,-0.002514556748792529,0.00031904669594950974
1761505982648031200,8.20503125,-0.0062887887470424175,-0.0020037624053657055,-0.00213665422052145
1761505982658067200,8.215067138671875,-0.005188636481761932,-0.003771835006773472,-0.0014354437589645386
1761505982668103200,8.225103271484375,-0.00626002624630928,-0.0043771713972091675,-0.0008625978953205049
1761505982678139100,8.23513916015625,-0.007137005217373371,-0.0020386497490108013,-0.0033683660440146923
1761505982688175000,8.245175048828125,-0.005614742636680603,-0.005062935408204794,-0.0022535668686032295
1761505982698210300,8.255210205078125,-0.0065135592594742775,-0.0033161682076752186,-0.0008823052630759776
1761505982708246300,8.265246337890625,-0.0062395199202001095,-0.004633900243788958,-0.00014381069922819734
1761505982718282200,8.2752822265625,-0.005494900047779083,-0.0034708979073911905,-0.0031438616570085287
1761505982728318200,8.285318115234375,-0.00777722941711545,-0.0033720945939421654,0.0005320995696820319
1761505982738354200,8.295354248046875,-0.005556153133511543,-0.003400856629014015,-0.0018122810870409012
1761505982748390100,8.30539013671875,-0.005293032620102167,-0.0041121868416666985,-0.0022447784431278706
1761505982758426400,8.31542626953125,-0.004240817856043577,-0.0030088394414633512,-0.002151035238057375
1761505982768462300,8.32546240234375,-0.007713047321885824,-0.0018583538476377726,-0.0032027175184339285
1761505982778498300,8.335498291015625,-0.005967877805233002,-0.0007550061563961208,-0.0006253102328628302
1761505982788534500,8.345534423828125,-0.007673898711800575,-0.0041462755762040615,-0.0032530513126403093
1761505982798570500,8.355570556640625,-0.003993676509708166,-0.003478088416159153,-0.002584864152595401
1761505982808606500,8.3656064453125,-0.0062730759382247925,-0.00424348097294569,-0.0021734058391302824
1761505982818642400,8.375642333984375,-0.003905525663867593,-0.002416019793599844,-0.0015182681381702423
1761505982828678400,8.385678466796875,-0.00791438203305006,-0.003317499766126275,-0.003263437654823065
1761505982838714400,8.39571435546875,-0.007184675894677639,-0.0005872269975952804,-0.003032008884474635
1761505982848750300,8.405750244140625,-0.004968393128365278,-0.0057103498838841915,-0.00011211907985853031
1761505982858786300,8.415786376953125,-0.0065191518515348434,-0.0029294772539287806,0.00007696535612922162
1761505982868822300,8.425822265625,-0.004391286056488752,-0.0021015002857893705,-0.003028546692803502
1761505982878857500,8.435857421875,-0.006184925325214863,-0.002868224401026964,0.0002487392339389771
1761505982888893400,8.4458935546875,-0.005688512232154608,-0.002377670258283615,-0.0013480921043083072
1761505982898929400,8.455929443359375,-0.006237922236323357,-0.005366003140807152,0.00025726135936565697
1761505982908965400,8.46596533203125,-0.007699198555201292,-0.005247758701443672,-0.000720118754543364
1761505982919001300,8.47600146484375,-0.005012335255742073,-0.003719637170433998,-0.002418682910501957
1761505982929037300,8.486037353515625,-0.006167082116007805,-0.0031427964568138123,-0.0018668759148567915
1761505982939073300,8.4960732421875,-0.003864513011649251,-0.0011502192355692387,-0.0028386632911860943
1761505982949109200,8.506109130859375,-0.004786499310284853,-0.003923102747648954,-0.0009725864510983229
1761505982959145200,8.516145263671875,-0.0032418658956885338,-0.0031124362722039223,-0.0012511530658230186
1761505982969181200,8.52618115234375,-0.00609304616227746,-0.0015456987312063575,-0.0000804274677648209
1761505982979217400,8.536217529296875,-0.0052355085499584675,-0.000011451592399680521,-0.0021936458069831133
1761505982989253400,8.54625341796875,-0.006095442920923233,-0.0034677020739763975,-0.0007672567153349519
1761505982999289300,8.556289306640625,-0.007982292212545872,-0.004344680812209845,-0.0020809939596801996
1761505983009325300,8.5663251953125,-0.006334594916552305,-0.0031989889685064554,-0.0019441075855866075
1761505983019361300,8.576361328125,-0.005968144163489342,-0.003953995183110237,-0.0020066918805241585
1761505983029397200,8.586397216796875,-0.005336175672709942,-0.002316950121894479,0.00007616640505148098
1761505983039433200,8.59643310546875,-0.00695005152374506,-0.0017888452857732773,-0.0035958001390099525
1761505983049469200,8.60646923828125,-0.0038213697262108326,-0.005533782299607992,-0.00031798143754713237
1761505983059505200,8.616505126953125,-0.004905276466161013,-0.004189152270555496,0.0002061286650132388
1761505983069541000,8.626541015625,-0.006940730381757021,0.000258859246969223,0.00034967303508892655
1761505983079577000,8.6365771484375,-0.004772651009261608,-0.0036788906436413527,-0.001996838254854083
1761505983089611300,8.646611328125,-0.006718356627970934,0.052320729941129684,0.01561278197914362
1761505983099647200,8.656647216796875,-0.00797536876052618,0.26110804080963135,0.055568985641002655
1761505983109683200,8.66668310546875,-0.011574896983802319,0.22258619964122772,0.04024036228656769
1761505983119719200,8.67671923828125,-0.002531068166717887,-0.2660876214504242,-0.05119128152728081
1761505983129755100,8.686755126953125,-0.004230431281030178,-0.08402592688798904,-0.01919926144182682
1761505983139791400,8.696791259765625,-0.006665891967713833,0.10043526440858841,0.022609438747167587
1761505983149827300,8.706827392578125,-0.005771868862211704,0.07225022464990616,0.012909406796097755
1761505983159863300,8.71686328125,-0.00515747768804431,-0.10097907483577728,-0.021825669333338737
1761505983169899300,8.726899169921875,-0.0030599720776081085,-0.1372409462928772,-0.03256753087043762
1761505983179935200,8.736935302734375,-0.0031153657473623753,-0.2323882281780243,-0.0560251846909523
1761505983189971200,8.74697119140625,-0.005705290008336306,0.05236067622900009,-0.0004721784498542547
