time,seconds_elapsed,z,y,x
1761505199796269300,0.088269287109375,-0.17277443408966064,-0.014216752722859383,0.3865349292755127
1761505199806304500,0.098304443359375,-0.19165252149105072,0.0053553506731987,0.41397079825401306
1761505199816340500,0.108340576171875,-0.21447154879570007,0.00421471893787384,0.3876926004886627
1761505199826375400,0.11837548828125,-0.23609109222888947,-0.023417707532644272,0.34647059440612793
1761505199836410400,0.128410400390625,-0.24543079733848572,-0.07086458802223206,0.32735443115234375
1761505199846446300,0.1384462890625,-0.23940539360046387,-0.11428316682577133,0.3464876413345337
1761505199856481300,0.148481201171875,-0.2278936207294464,-0.12294376641511917,0.3903017044067383
1761505199866516200,0.15851611328125,-0.21077828109264374,-0.10555651783943176,0.4227651059627533
1761505199876551400,0.168551513671875,-0.15640930831432343,-0.08280273526906967,0.43423372507095337
1761505199886587400,0.17858740234375,-0.07875340431928635,-0.024058198556303978,0.3974437713623047
1761505199896622300,0.188622314453125,0.029579997062683105,0.10557542741298676,0.27933257818222046
1761505199906657500,0.198657470703125,0.1422833800315857,0.2711300253868103,0.10003578662872314
1761505199916692500,0.2086923828125,0.23533394932746887,0.3211841583251953,0.005056277383118868
1761505199926728400,0.218728515625,0.3225303888320923,0.3402166962623596,-0.06724242120981216
1761505199936763400,0.228763427734375,0.39791619777679443,0.25666454434394836,-0.07899867743253708
1761505199946798300,0.23879833984375,0.4364108741283417,0.0730917900800705,-0.05354258790612221
1761505199956834300,0.248834228515625,0.4751676023006439,-0.10590006411075592,-0.0049129994586110115
1761505199966869200,0.258869140625,0.48744502663612366,-0.19830137491226196,0.039868321269750595
1761505199976904400,0.268904541015625,0.45985761284828186,-0.24164031445980072,0.11308793723583221
1761505199986939400,0.278939453125,0.42128410935401917,-0.23756355047225952,0.17665332555770874
1761505199996975400,0.288975341796875,0.3852939009666443,-0.20030087232589722,0.23121032118797302
1761505200007010600,0.299010498046875,0.3644315004348755,-0.16568537056446075,0.2577130198478699
1761505200017045500,0.30904541015625,0.3282231390476227,-0.11687228828668594,0.27648672461509705
1761505200027081500,0.31908154296875,0.26711851358413696,-0.0402560755610466,0.2897290289402008
1761505200037116400,0.329116455078125,0.21564413607120514,0.029883064329624176,0.284748911857605
1761505200047151400,0.3391513671875,0.17074164748191833,0.07409180700778961,0.2581087648868561
1761505200057187300,0.349187255859375,0.13193033635616302,0.07771796733140945,0.23358452320098877
1761505200067222300,0.35922216796875,0.08031028509140015,0.03896737098693848,0.216364786028862
1761505200077257500,0.369257568359375,0.021759623661637306,-0.0009632653673179448,0.21891237795352936
1761505200087293400,0.37929345703125,-0.0506618469953537,0.013157080858945847,0.22590237855911255
1761505200097328400,0.389328369140625,-0.11909762769937515,0.03768399730324745,0.2123013436794281
1761505200107363600,0.399363525390625,-0.16769765317440033,0.013983460143208504,0.18953290581703186
1761505200117398300,0.409398193359375,-0.20493130385875702,-0.024042218923568726,0.1954485923051834
1761505200127434500,0.4194345703125,-0.232184499502182,-0.04300951957702637,0.24341292679309845
1761505200137469200,0.42946923828125,-0.23389318585395813,-0.035763323307037354,0.3017995357513428
1761505200147504400,0.43950439453125,-0.20370759069919586,-0.03194648027420044,0.344334214925766
1761505200157540400,0.449540283203125,-0.1342393010854721,-0.021314876154065132,0.3666541576385498
1761505200167575300,0.4595751953125,-0.025563949719071388,0.023566845804452896,0.34036290645599365
1761505200177610500,0.469610595703125,0.07300150394439697,0.037157487124204636,0.32472747564315796
1761505200187644700,0.479644775390625,0.1212819516658783,0.040168192237615585,0.31798622012138367
1761505200197680600,0.4896806640625,0.13962234556674957,0.01073972973972559,0.3291081190109253
1761505200207715600,0.499715576171875,0.10941916704177856,-0.06951702386140823,0.34945759177207947
1761505200217750500,0.50975048828125,0.09693213552236557,-0.158421590924263,0.37363165616989136
1761505200227785500,0.519785400390625,0.11767949163913727,-0.23212884366512299,0.3760300874710083
1761505200237821700,0.52982177734375,0.12566258013248444,-0.28452467918395996,0.34527963399887085
1761505200247856600,0.539856689453125,0.13054601848125458,-0.2784965932369232,0.32692086696624756
1761505200257891600,0.5498916015625,0.12389078736305237,-0.22143279016017914,0.286203533411026
1761505200267927600,0.559927490234375,0.11519023776054382,-0.15114638209342957,0.23064252734184265
1761505200277962800,0.569962646484375,0.0961875170469284,-0.06664161384105682,0.1663639396429062
1761505200287997700,0.579997802734375,0.06868265569210052,0.057072605937719345,0.1073986291885376
1761505200298032600,0.59003271484375,0.04110109806060791,0.18740211427211761,0.05866650864481926
1761505200308068600,0.600068603515625,0.020319918170571327,0.2656572461128235,0.02364274486899376
1761505200318103600,0.610103515625,0.016153935343027115,0.3114074170589447,-0.00036671728594228625
1761505200328138500,0.620138427734375,0.025793246924877167,0.31646502017974854,-0.014013553969562054
1761505200338174500,0.630174560546875,0.04578213393688202,0.2577649652957916,-0.01019617822021246
1761505200348209700,0.640209716796875,0.039564985781908035,0.1694614589214325,0.027701402083039284
1761505200358244600,0.65024462890625,0.024356737732887268,0.0769118219614029,0.06867972761392593
1761505200368279800,0.66027978515625,0.05348213389515877,0.04002677649259567,0.07113276422023773
1761505200378315800,0.670315673828125,0.12078527361154556,0.059772785753011703,0.026250513270497322
1761505200388350700,0.680350830078125,0.1743643432855606,0.10049358755350113,-0.027720578014850616
1761505200398385400,0.690385498046875,0.16507071256637573,0.12573929131031036,-0.04421380162239075
1761505200408421600,0.700421630859375,0.13852618634700775,0.16345523297786713,-0.038293592631816864
1761505200418456600,0.71045654296875,0.10966125130653381,0.2064325362443924,-0.02617328055202961
1761505200428491500,0.720491455078125,0.09108037501573563,0.21728144586086273,-0.0302583035081625
1761505200438526700,0.730526611328125,0.07563936710357666,0.21164166927337646,-0.04531634971499443
1761505200448562700,0.740562744140625,0.07883409410715103,0.19482700526714325,-0.05588563531637192
1761505200458597600,0.75059765625,0.09517738223075867,0.16361476480960846,-0.053771886974573135
1761505200468632600,0.760632568359375,0.10070876777172089,0.11444827914237976,-0.0404861718416214
1761505200478668800,0.770668701171875,0.08648934960365295,0.06389082968235016,-0.01895291917026043
1761505200488703700,0.780703857421875,0.004518851637840271,-0.0010255833622068167,0.014238324016332626
1761505200498738400,0.790738525390625,-0.05409705638885498,-0.044370394200086594,0.025739451870322227
1761505200508773600,0.800773681640625,-0.07392988353967667,-0.051483429968357086,0.0026104305870831013
1761505200518809600,0.8108095703125,-0.06522667407989502,-0.04571928456425667,-0.03307566046714783
1761505200528844500,0.820844482421875,-0.05192338675260544,-0.029811691492795944,-0.06619606167078018
1761505200538879700,0.830879638671875,-0.030430875718593597,0.006346579175442457,-0.08238302171230316
1761505200548915700,0.840915771484375,0.004083158448338509,0.06716172397136688,-0.08375082165002823
1761505200558950700,0.85095068359375,0.010423346422612667,0.08604913204908371,-0.042623359709978104
1761505200568985600,0.860985595703125,0.023930100724101067,0.09277787059545517,0.0015691345324739814
1761505200579020800,0.871020751953125,0.05848994106054306,0.08276305347681046,0.029172265902161598
1761505200589056800,0.881056884765625,0.11089722067117691,0.047981906682252884,0.05229729413986206
1761505200599091500,0.891091552734375,0.16022776067256927,0.0014426343841478229,0.08167382329702377
1761505200609126700,0.901126708984375,0.12284762412309647,-0.07991959899663925,0.13443663716316223
1761505200619162600,0.91116259765625,0.11667761206626892,-0.10830356925725937,0.15674008429050446
1761505200629197600,0.921197509765625,0.1438722163438797,-0.07445932179689407,0.153917133808136
1761505200639232500,0.931232421875,0.1764695793390274,-0.0075841499492526054,0.13086560368537903
1761505200649267700,0.941267822265625,0.1973801851272583,0.05595647543668747,0.09555608034133911
1761505200659303700,0.9513037109375,0.2148105651140213,0.0671878233551979,0.05086131766438484
1761505200669338600,0.961338623046875,0.24316099286079407,0.03387301042675972,0.024626782163977623
1761505200679373800,0.971373779296875,0.2675352990627289,-0.0176362507045269,0.01637551188468933
1761505200689409800,0.981409912109375,0.28207510709762573,-0.09302634745836258,0.032649021595716476
1761505200699444500,0.991444580078125,0.2665475308895111,-0.1444527804851532,0.06318455934524536
1761505200709479700,1.001479736328125,0.2253793329000473,-0.1565568596124649,0.08533141016960144
1761505200719515600,1.011515625,0.1570844203233719,-0.1566372811794281,0.09580269455909729
1761505200729550600,1.021550537109375,0.08198541402816772,-0.1012539193034172,0.08781347423791885
1761505200739585500,1.03158544921875,0.009893643669784069,0.004677576012909412,0.02592454105615616
1761505200749620700,1.041620849609375,-0.058224424719810486,0.15424682199954987,-0.1223730519413948
1761505200759656700,1.05165673828125,-0.1266769915819168,0.2549896836280823,-0.2922281324863434
1761505200769691600,1.061691650390625,-0.16599935293197632,0.2765607535839081,-0.42544662952423096
1761505200779726800,1.071726806640625,-0.1445278823375702,0.26414215564727783,-0.4802568852901459
1761505200789762800,1.0817626953125,-0.07447610050439835,0.2530202865600586,-0.4335607588291168
1761505200799797500,1.091797607421875,-0.04879843071103096,0.1576484888792038,-0.269546777009964
1761505200809832400,1.10183251953125,-0.020909542217850685,0.040038496255874634,-0.12000337243080139
1761505200819868700,1.11186865234375,0.006235791835933924,0.01678057760000229,-0.049008287489414215
1761505200829903600,1.121903564453125,0.006442985497415066,0.07422363013029099,-0.03080851212143898
1761505200839938600,1.1319384765625,-0.028914738446474075,0.12044651806354523,-0.03611885383725166
1761505200849973800,1.141973876953125,-0.056236106902360916,0.1564260870218277,-0.03858840465545654
1761505200860009700,1.152009765625,-0.03141438215970993,0.18896672129631042,-0.02907186560332775
1761505200870044700,1.162044677734375,0.035117775201797485,0.1887214481830597,-0.020716996863484383
1761505200880080000,1.172079833984375,0.11502538621425629,0.18342095613479614,-0.00866059958934784
1761505200890115800,1.18211572265625,0.1541357785463333,0.16660122573375702,0.006580937188118696
1761505200900150500,1.192150634765625,0.16898049414157867,0.13727504014968872,0.0016679377295076847
1761505200910185500,1.202185546875,0.1767529398202896,0.09418748319149017,-0.012706474401056767
1761505200920221400,1.212221435546875,0.18210110068321228,0.05777142196893692,-0.020972127094864845
1761505200930256600,1.222256591796875,0.18217380344867706,0.08810456097126007,-0.02900954708456993
1761505200940291600,1.23229150390625,0.17435236275196075,0.14432814717292786,-0.043948281556367874
1761505200950326800,1.242326904296875,0.1623697280883789,0.1897220015525818,-0.07139668613672256
1761505200960362800,1.25236279296875,0.14656546711921692,0.22599105536937714,-0.10560338944196701
1761505200970397700,1.262397705078125,0.14090678095817566,0.25617799162864685,-0.12860192358493805
1761505200980432400,1.272432373046875,0.14811250567436218,0.26935717463493347,-0.1270703375339508
1761505200990468900,1.28246875,0.16425125300884247,0.25185248255729675,-0.10993661731481552
1761505201000503600,1.292503662109375,0.19240699708461761,0.22257262468338013,-0.07448462396860123
1761505201010538500,1.30253857421875,0.22824887931346893,0.1957671046257019,-0.036426182836294174
1761505201020574500,1.312574462890625,0.27036038041114807,0.15361805260181427,-0.011226555332541466
1761505201030609700,1.322609619140625,0.30800601840019226,0.08633222430944443,0.000049801110435510054
1761505201040644600,1.33264453125,0.34506258368492126,0.05866624414920807,-0.005161206237971783
1761505201050679800,1.3426796875,0.3753858804702759,0.06522933393716812,-0.015052719041705132
1761505201060715800,1.3527158203125,0.38541561365127563,0.045275334268808365,-0.026015887036919594
1761505201070750700,1.362750732421875,0.3728809058666229,0.038842204958200455,-0.013169864192605019
1761505201080785400,1.372785400390625,0.3420018255710602,0.06557741016149521,0.008981510996818542
1761505201090821600,1.382821533203125,0.3107789158821106,0.07921918481588364,0.018386997282505035
1761505201100856600,1.392856689453125,0.2890496551990509,0.05666887015104294,0.0005430185701698065
1761505201110891500,1.4028916015625,0.2802548110485077,0.0455632247030735,-0.022709839046001434
1761505201120927500,1.412927490234375,0.27402010560035706,0.06373476982116699,-0.04368063434958458
1761505201130962700,1.422962646484375,0.2739247679710388,0.08484804630279541,-0.04911188408732414
1761505201140997600,1.43299755859375,0.25787869095802307,0.08568587899208069,-0.03945686295628548
1761505201151032600,1.443032470703125,0.2388935387134552,0.08571889996528625,-0.018062889575958252
1761505201161068800,1.45306884765625,0.21965938806533813,0.08949872106313705,0.005392901133745909
1761505201171103700,1.463103759765625,0.2145748883485794,0.08701026439666748,0.01782320626080036
1761505201181138400,1.473138427734375,0.2156955450773239,0.06824856251478195,0.011326690204441547
1761505201191174100,1.483174072265625,0.2298571616411209,0.041901908814907074,-0.0011883024126291275
1761505201201209300,1.493209228515625,0.24501881003379822,0.021994780749082565,-0.010744523257017136
1761505201211244300,1.503244384765625,0.25826403498649597,0.005449892953038216,-0.014386129565536976
1761505201221280300,1.5132802734375,0.2699310779571533,-0.012776781804859638,-0.002965696156024933
1761505201231315500,1.5233154296875,0.2767604887485504,0.0034852789249271154,0.027634557336568832
1761505201241350400,1.533350341796875,0.2673318386077881,0.009856891818344593,0.06855562329292297
1761505201251386400,1.543386474609375,0.24530909955501556,0.026790069416165352,0.11141441017389297
1761505201261421600,1.553421630859375,0.22228340804576874,0.051784634590148926,0.1355285346508026
1761505201271456300,1.563456298828125,0.20519310235977173,0.052323125302791595,0.12891057133674622
1761505201281491200,1.5734912109375,0.19338011741638184,0.03061756305396557,0.10157722234725952
1761505201291527200,1.583527099609375,0.18725430965423584,0.009516273625195026,0.055039551109075546
1761505201301562400,1.593562255859375,0.17763763666152954,-0.037808630615472794,-0.005474127363413572
1761505201311597300,1.603597412109375,0.15667776763439178,-0.08870989829301834,-0.051307130604982376
1761505201321633300,1.61363330078125,0.11944384127855301,-0.09589989483356476,-0.07610595226287842
1761505201331668500,1.62366845703125,0.08091775327920914,-0.0694725513458252,-0.08804330229759216
1761505201341703400,1.633703369140625,0.04404975101351738,-0.03767920285463333,-0.09808848053216934
1761505201351739400,1.643739501953125,0.0123070003464818,0.004053863696753979,-0.10697811841964722
1761505201361774300,1.6537744140625,-0.006933539640158415,0.04445934295654297,-0.10551177710294724
1761505201371809300,1.663809326171875,-0.02490721456706524,0.0752691850066185,-0.07758799940347672
1761505201381845200,1.67384521484375,-0.043468914926052094,0.11202932894229889,-0.035227227956056595
1761505201391880200,1.683880126953125,-0.062014367431402206,0.1286836713552475,-0.0049316417425870895
1761505201401915400,1.693915283203125,-0.07900720089673996,0.1017117127776146,0.0029606360476464033
1761505201411951400,1.703951416015625,-0.09439361095428467,0.06572095304727554,-0.017053551971912384
1761505201421986300,1.713986328125,-0.1002054288983345,0.02822950668632984,-0.04797791317105293
1761505201432021500,1.724021484375,-0.10298097878694534,-0.003885552054271102,-0.08630106598138809
1761505201442056400,1.734056396484375,-0.09927865117788315,-0.008082959800958633,-0.1277715414762497
1761505201452092400,1.744092529296875,-0.08997330069541931,0.014459366910159588,-0.16620388627052307
1761505201462127400,1.75412744140625,-0.08213668316602707,0.049004293978214264,-0.19146209955215454
1761505201472162300,1.764162353515625,-0.08534792065620422,0.08415109664201736,-0.19761879742145538
1761505201482198300,1.7741982421875,-0.10369763523340225,0.12645114958286285,-0.16918475925922394
1761505201492233200,1.784233154296875,-0.12969328463077545,0.14665229618549347,-0.12834572792053223
1761505201502268400,1.794268310546875,-0.14579369127750397,0.18124888837337494,-0.0806751400232315
1761505201512304400,1.804304443359375,-0.13701297342777252,0.2176297903060913,-0.055089086294174194
1761505201522339300,1.81433935546875,-0.10707905143499374,0.24322783946990967,-0.0569186769425869
1761505201532374300,1.824374267578125,-0.05463075637817383,0.2473575919866562,-0.08382965624332428
1761505201542410500,1.834410400390625,0.007102650590240955,0.25852903723716736,-0.10371574014425278
1761505201552445400,1.844445556640625,0.061227671802043915,0.26260897517204285,-0.11023809015750885
1761505201562480400,1.85448046875,0.09689565002918243,0.24805907905101776,-0.10349922627210617
1761505201572516400,1.864516357421875,0.10757040232419968,0.2310478687286377,-0.08982495963573456
1761505201582551300,1.87455126953125,0.10116097331047058,0.20451612770557404,-0.07595042139291763
1761505201592586200,1.884586181640625,0.07394346594810486,0.18831132352352142,-0.05465312674641609
1761505201602621400,1.894621337890625,0.035357456654310226,0.19928567111492157,-0.031038876622915268
1761505201612657400,1.904657470703125,0.002436259761452675,0.2024143487215042,-0.03166578337550163
1761505201622692400,1.9146923828125,-0.022428875789046288,0.1764242947101593,-0.05591413006186485
1761505201632727300,1.924727294921875,-0.026381006464362144,0.12513341009616852,-0.0935286208987236
1761505201642763300,1.93476318359375,-0.017541177570819855,0.0752129927277565,-0.12142789363861084
1761505201652798500,1.944798583984375,-0.006277603097259998,0.026563700288534164,-0.13962207734584808
1761505201662833400,1.95483349609375,0.0003046656202059239,-0.01104466151446104,-0.152964249253273
1761505201672869400,1.964869384765625,0.0011230550007894635,-0.023804664611816406,-0.16781270503997803
1761505201682904300,1.974904296875,-0.008237423375248909,-0.030489997938275337,-0.17210865020751953
1761505201692939300,1.984939208984375,-0.018859175965189934,0.0080350236967206,-0.15415973961353302
1761505201702975200,1.994975341796875,-0.022335665300488472,0.06636490672826767,-0.11921906471252441
1761505201713010400,2.005010498046875,-0.018455440178513527,0.11670025438070297,-0.07445266097784042
1761505201723045400,2.01504541015625,-0.0037001960445195436,0.17786666750907898,-0.016585635021328926
1761505201733081300,2.025081298828125,0.02406139485538006,0.24240943789482117,0.027940021827816963
1761505201743116300,2.0351162109375,0.062309712171554565,0.2518612742424011,0.041917089372873306
1761505201753151500,2.0451513671875,0.09716463088989258,0.21861542761325836,0.027658259496092796
1761505201763187500,2.0551875,0.1283435970544815,0.16399453580379486,-0.004541222471743822
1761505201773222400,2.065222412109375,0.14615002274513245,0.10370109230279922,-0.04964691400527954
1761505201783257300,2.07525732421875,0.15012958645820618,0.030105704441666603,-0.10397220402956009
1761505201793293300,2.085293212890625,0.12960566580295563,-0.04741492122411728,-0.12615713477134705
1761505201803328300,2.095328369140625,0.09827277064323425,-0.07234770059585571,-0.10586278140544891
1761505201813363200,2.10536328125,0.06682084500789642,-0.04001239687204361,-0.06021913141012192
1761505201823398400,2.1153984375,0.04165530204772949,0.005397162400186062,-0.025491777807474136
1761505201833434400,2.125434326171875,0.03137283772230148,0.05241953209042549,-0.011334680020809174
1761505201843469300,2.13546923828125,0.035882368683815,0.07816591113805771,-0.01581464894115925
1761505201853504500,2.14550439453125,0.04307476431131363,0.07632219791412354,-0.027826571837067604
1761505201863540500,2.15554052734375,0.05227838456630707,0.06617821753025055,-0.04171362519264221
1761505201873575400,2.165575439453125,0.049186188727617264,0.03080318681895733,-0.05956133082509041
1761505201883610400,2.1756103515625,0.03806748986244202,-0.009700830094516277,-0.06635744869709015
1761505201893646300,2.185646240234375,0.02123258449137211,-0.011342935264110565,-0.062492407858371735
1761505201903681300,2.195681396484375,0.00222001108340919,0.0016144082183018327,-0.05504567548632622
1761505201913716200,2.20571630859375,-0.015381885692477226,0.0462026484310627,-0.028906483203172684
1761505201923752200,2.215752197265625,-0.0265399981290102,0.10660287737846375,0.00004447478931979276
1761505201933787400,2.225787353515625,-0.027342408895492554,0.16616714000701904,0.02700791507959366
1761505201943822300,2.235822265625,-0.025365544483065605,0.19829338788986206,0.053463492542505264
1761505201953858300,2.2458583984375,-0.01227317750453949,0.20546233654022217,0.07342202216386795
1761505201963893500,2.2558935546875,-0.006819023750722408,0.18707828223705292,0.0758337751030922
1761505201973928400,2.265928466796875,-0.016509201377630234,0.15169045329093933,0.06676997244358063
1761505201983964400,2.27596435546875,-0.035181690007448196,0.12035970389842987,0.03832288831472397
1761505201993999400,2.285999267578125,-0.05152417719364166,0.09355977922677994,0.0030360035598278046
1761505202004034300,2.296034423828125,-0.06895909458398819,0.0769650861620903,-0.030468426644802094
1761505202014070300,2.3060703125,-0.08405788242816925,0.054423559457063675,-0.05826916545629501
1761505202024105200,2.316105224609375,-0.09487884491682053,0.023578030988574028,-0.0760369747877121
1761505202034140400,2.326140380859375,-0.10034658014774323,-0.00618093041703105,-0.07573603838682175
1761505202044176400,2.33617626953125,-0.10282597690820694,-0.008597482927143574,-0.05331755056977272
1761505202054211300,2.34621142578125,-0.0949195846915245,0.0057441722601652145,-0.020771058276295662
1761505202064246500,2.35624658203125,-0.08518440276384354,0.014251640066504478,0.007119162008166313
1761505202074282500,2.366282470703125,-0.07226993888616562,0.010745322331786156,0.03160905838012695
1761505202084317400,2.3763173828125,-0.05897942930459976,-0.0025933862198144197,0.053105030208826065
1761505202094352100,2.38635205078125,-0.05269703269004822,-0.03398459777235985,0.06384875625371933
1761505202104388400,2.396388427734375,-0.045159753412008286,-0.07036790251731873,0.052073054015636444
1761505202114423300,2.40642333984375,-0.04771239310503006,-0.112002432346344,0.02261396497488022
1761505202124458200,2.416458251953125,-0.056589242070913315,-0.1443537175655365,-0.0033955303952097893
1761505202134493400,2.426493408203125,-0.07686415314674377,-0.14769119024276733,-0.01642770878970623
1761505202144529400,2.436529296875,-0.10462094843387604,-0.17148786783218384,-0.012625779956579208
1761505202154564400,2.446564453125,-0.13856080174446106,-0.19435828924179077,0.01056316215544939
1761505202164599300,2.456599365234375,-0.16702812910079956,-0.17871995270252228,0.051306065171957016
1761505202174635500,2.466635498046875,-0.19114652276039124,-0.1494358330965042,0.07760877162218094
1761505202184670500,2.47667041015625,-0.2054884433746338,-0.13527873158454895,0.0668589249253273
1761505202194706000,2.486705810546875,-0.21747426688671112,-0.12647777795791626,0.034750789403915405
1761505202204742000,2.496741943359375,-0.21761222183704376,-0.10852061957120895,-0.003097256412729621
1761505202214777000,2.506777099609375,-0.2126733809709549,-0.08389969170093536,-0.035182755440473557
1761505202224812000,2.51681201171875,-0.21677757799625397,-0.0743972659111023,-0.04941814765334129
1761505202234848000,2.526847900390625,-0.24020221829414368,-0.07457809895277023,-0.029689984396100044
1761505202244883000,2.536883056640625,-0.2735244929790497,-0.06069450452923775,-0.0006697850185446441
1761505202254918000,2.54691796875,-0.30625179409980774,-0.0565708689391613,0.03279416635632515
1761505202264953900,2.556953857421875,-0.32715627551078796,-0.04192747548222542,0.05744731426239014
1761505202274988800,2.56698876953125,-0.3262087404727936,-0.008687764406204224,0.07589609920978546
1761505202285024000,2.57702392578125,-0.3081543743610382,0.00592526700347662,0.07238844782114029
1761505202295060000,2.58706005859375,-0.2837323844432831,-0.00044661210267804563,0.06792286038398743
1761505202305095000,2.597094970703125,-0.2608712613582611,0.004576376173645258,0.06890955567359924
1761505202315130000,2.607130126953125,-0.24293407797813416,0.0036570527590811253,0.06470362842082977
1761505202325166000,2.617166015625,-0.23197464644908905,-0.005696767941117287,0.05142617225646973
1761505202335201000,2.627200927734375,-0.21858906745910645,-0.016227439045906067,0.029983464628458023
1761505202345236000,2.637236083984375,-0.2164984792470932,-0.027349598705768585,0.01543727982789278
1761505202355272000,2.64727197265625,-0.21465663611888885,-0.07555494457483292,0.00546294217929244
1761505202365307000,2.657306884765625,-0.2395278960466385,-0.1972598135471344,-0.023914121091365814
1761505202375341800,2.667341796875,-0.29383987188339233,-0.35553812980651855,-0.0851878672838211
1761505202385377800,2.677377685546875,-0.34510359168052673,-0.4810342788696289,-0.18831025063991547
1761505202395413000,2.6874130859375,-0.353338360786438,-0.5467376708984375,-0.3110593557357788
1761505202405448000,2.697447998046875,-0.3145350217819214,-0.5282662510871887,-0.4160187840461731
1761505202415484000,2.70748388671875,-0.24471308290958405,-0.45242205262184143,-0.4619008004665375
1761505202425519000,2.71751904296875,-0.191181942820549,-0.32664069533348083,-0.4263174831867218
1761505202435554000,2.727553955078125,-0.16701215505599976,-0.18262547254562378,-0.32675468921661377
1761505202445590000,2.737590087890625,-0.15176290273666382,-0.050329748541116714,-0.20830979943275452
1761505202455625000,2.747625,-0.11674339324235916,0.04178020358085632,-0.10582416504621506
1761505202465660000,2.757659912109375,-0.06432625651359558,0.08471648395061493,-0.03808347135782242
1761505202475695900,2.76769580078125,-0.006469084415584803,0.08151110261678696,-0.0016761935548856854
1761505202485730800,2.777730712890625,0.05167065188288689,0.0519859679043293,0.022068550810217857
1761505202495766000,2.78776611328125,0.0907948836684227,-0.006869623903185129,0.04863491281867027
1761505202505802000,2.797802001953125,0.1016206368803978,-0.08395535498857498,0.08321712911128998
1761505202515837000,2.8078369140625,0.06953246891498566,-0.14469780027866364,0.1281909942626953
1761505202525871900,2.817871826171875,0.009218798018991947,-0.18701303005218506,0.14617106318473816
1761505202535907000,2.827906982421875,-0.06358350068330765,-0.21901144087314606,0.12563009560108185
1761505202545943000,2.837943115234375,-0.13081499934196472,-0.22791358828544617,0.08232230693101883
1761505202555978000,2.84797802734375,-0.1818222552537918,-0.18637946248054504,0.0417541041970253
1761505202566014000,2.858013916015625,-0.21533708274364471,-0.14383386075496674,0.01239461824297905
1761505202576049000,2.868048828125,-0.22874289751052856,-0.09862671047449112,0.002299373270943761
1761505202586083800,2.878083740234375,-0.2199094593524933,-0.07626068592071533,0.009884322062134743
1761505202596119800,2.888119873046875,-0.1879778951406479,-0.08294840902090073,0.03568635880947113
1761505202606155000,2.898155029296875,-0.13961994647979736,-0.11515721678733826,0.08765874803066254
1761505202616190000,2.90818994140625,-0.07592698931694031,-0.1542942374944687,0.15009336173534393
1761505202626225000,2.918224853515625,-0.004584898240864277,-0.18634110689163208,0.20802803337574005
1761505202636260900,2.9282607421875,0.07732434570789337,-0.20203912258148193,0.24580417573451996
1761505202646296000,2.938296142578125,0.16462117433547974,-0.2025613635778427,0.2653677463531494
1761505202656331000,2.9483310546875,0.25364184379577637,-0.20995989441871643,0.28857746720314026
1761505202666367000,2.958366943359375,0.3431219458580017,-0.19518707692623138,0.32367128133773804
1761505202676402000,2.96840185546875,0.41771069169044495,-0.14870665967464447,0.37412112951278687
1761505202686436900,2.978436767578125,0.4588272273540497,-0.09646262228488922,0.42997267842292786
1761505202696472800,2.988472900390625,0.46577727794647217,-0.05457882210612297,0.47547784447669983
1761505202706508000,2.998508056640625,0.44686323404312134,-0.030293457210063934,0.4873339831829071
1761505202716543000,3.00854296875,0.41667523980140686,-0.02678793855011463,0.475093275308609
1761505202726579000,3.018578857421875,0.3676541745662689,-0.02738288789987564,0.441615492105484
1761505202736614000,3.02861376953125,0.2916331887245178,-0.017358483746647835,0.40699252486228943
1761505202746649000,3.038649169921875,0.19934239983558655,-0.0001805623178370297,0.37425801157951355
1761505202756685000,3.04868505859375,0.11477424949407578,0.025121863931417465,0.3497023284435272
1761505202766720000,3.058719970703125,0.0326777845621109,0.020723920315504074,0.3292093276977539
1761505202776755000,3.0687548828125,-0.03200986608862877,0.005262672435492277,0.30875518918037415
1761505202786791000,3.078791015625,-0.07533017545938492,0.002671949565410614,0.27060219645500183
1761505202796825900,3.088825927734375,-0.10212583839893341,0.0014261227333918214,0.21574853360652924
1761505202806860800,3.09886083984375,-0.10162968933582306,-0.009457684122025967,0.1651892215013504
1761505202816897000,3.10889697265625,-0.07466704398393631,-0.028076108545064926,0.12905704975128174
1761505202826932000,3.118931884765625,-0.04403989389538765,-0.04398556798696518,0.1198268011212349
1761505202836967000,3.128966796875,-0.014171212911605835,-0.052802227437496185,0.14019359648227692
1761505202847003000,3.1390029296875,0.012294217012822628,-0.07453175634145737,0.17948667705059052
1761505202857038000,3.1490380859375,0.03171265497803688,-0.0935126394033432,0.21510379016399384
1761505202867073000,3.159072998046875,0.05113429203629494,-0.10109705477952957,0.21959413588047028
1761505202877109000,3.16910888671875,0.060926202684640884,-0.10193035751581192,0.20574170351028442
1761505202887144000,3.17914404296875,0.05969155952334404,-0.11461206525564194,0.1789678931236267
1761505202897179000,3.189178955078125,0.06094644218683243,-0.14738759398460388,0.14955513179302216
1761505202907214800,3.19921484375,0.07982771843671799,-0.1948230117559433,0.13535383343696594
1761505202917249800,3.209249755859375,0.10073273628950119,-0.2425479292869568,0.1500302404165268
1761505202927285000,3.219284912109375,0.10615280270576477,-0.2802028954029083,0.18345797061920166
1761505202937321000,3.229321044921875,0.10651898384094238,-0.30152708292007446,0.24135003983974457
1761505202947356000,3.23935595703125,0.10872967541217804,-0.25641900300979614,0.27154868841171265
1761505202957391000,3.24939111328125,0.1155572235584259,-0.1377546638250351,0.2541270852088928
1761505202967427000,3.259427001953125,0.10222437232732773,-0.03916577994823456,0.22710292041301727
1761505202977462000,3.2694619140625,0.05482250079512596,-0.015172028914093971,0.220473513007164
1761505202987497000,3.2794970703125,0.00395772373303771,0.006643255241215229,0.23358692228794098
1761505202997532000,3.289531982421875,-0.024276576936244965,0.01618136651813984,0.26246118545532227
1761505203007568000,3.29956787109375,-0.04200657084584236,-0.034691669046878815,0.2927573025226593
1761505203017602800,3.309602783203125,-0.07244011014699936,-0.05795837566256523,0.30458226799964905
1761505203027638000,3.319637939453125,-0.10336899757385254,-0.06327537447214127,0.29461005330085754
1761505203037674000,3.329674072265625,-0.12509746849536896,-0.07100466638803482,0.2727087736129761
1761505203047709000,3.339708984375,-0.13037478923797607,-0.07901279628276825,0.2587980031967163
1761505203057744100,3.349744140625,-0.12457894533872604,-0.08798258751630783,0.2520679235458374
1761505203067780000,3.359780029296875,-0.09908024221658707,-0.07137138396501541,0.2358785718679428
1761505203077815000,3.36981494140625,-0.06164126098155975,-0.06758703291416168,0.25302720069885254
1761505203087849700,3.379849609375,-0.020853616297245026,-0.0905352234840393,0.3392055034637451
1761505203097886000,3.389885986328125,0.017302291467785835,-0.11793622374534607,0.4529850482940674
1761505203107921000,3.3999208984375,0.06542481482028961,-0.15729348361492157,0.5183686017990112
1761505203117955800,3.409955810546875,0.08694315701723099,-0.16671787202358246,0.48052000999450684
1761505203127991800,3.41999169921875,0.09450280666351318,-0.1267709881067276,0.4264748990535736
1761505203138027000,3.430027099609375,0.09629803895950317,-0.1290075182914734,0.35272717475891113
1761505203148062000,3.44006201171875,0.08148420602083206,-0.15294720232486725,0.2745705842971802
1761505203158098000,3.450097900390625,0.04824928939342499,-0.14548875391483307,0.204032763838768
1761505203168133000,3.460133056640625,0.009689911268651485,-0.1383323073387146,0.14478754997253418
1761505203178168000,3.47016796875,-0.029946979135274887,-0.1435030996799469,0.08821721374988556
1761505203188203800,3.480203857421875,-0.061697717756032944,-0.14575053751468658,0.04216449707746506
1761505203198239000,3.490239013671875,-0.09692095220088959,-0.16596978902816772,0.02696210891008377
1761505203208274000,3.50027392578125,-0.12335602194070816,-0.15715153515338898,0.07866019010543823
1761505203218310000,3.510309814453125,-0.1438136249780655,-0.09706396609544754,0.14555400609970093
1761505203228344800,3.5203447265625,-0.16088928282260895,-0.05698072910308838,0.2134172022342682
1761505203238380000,3.530380126953125,-0.18486465513706207,-0.017675133422017097,0.2565830647945404
1761505203248416000,3.540416015625,-0.2104344666004181,0.009734652936458588,0.283512681722641
1761505203258450700,3.55045068359375,-0.23082761466503143,0.00444002216681838,0.2509062588214874
1761505203268486000,3.56048583984375,-0.24571043252944946,-0.00836525484919548,0.18484388291835785
1761505203278521900,3.57052197265625,-0.2718147337436676,-0.023675234988331795,0.11933118849992752
1761505203288556800,3.580556884765625,-0.26779603958129883,-0.029471872374415398,0.08228475600481033
1761505203298591700,3.590591796875,-0.2771519720554352,-0.039497341960668564,0.043247073888778687
1761505203308628000,3.6006279296875,-0.2881425619125366,-0.046689473092556,0.012054266408085823
1761505203318663000,3.610662841796875,-0.29341962933540344,-0.02803562954068184,0.0030983216129243374
1761505203328697900,3.62069775390625,-0.27941086888313293,0.03392387926578522,-0.01260846946388483
1761505203338732800,3.63073291015625,-0.27140912413597107,0.11256356537342072,0.0002479403046891093
1761505203348769000,3.64076904296875,-0.2776491940021515,0.1570436805486679,0.042517632246017456
1761505203358803700,3.6508037109375,-0.2760017514228821,0.14670927822589874,0.07011623680591583
1761505203368839000,3.6608388671875,-0.25394946336746216,0.15163053572177887,0.05597671493887901
1761505203378875000,3.670875,-0.21485264599323273,0.15982668101787567,0.02425660379230976
1761505203388909800,3.680909912109375,-0.17354701459407806,0.14367274940013885,-0.04267928749322891
1761505203398944800,3.69094482421875,-0.1693754494190216,0.09457524120807648,-0.0870230495929718
1761505203408980700,3.700980712890625,-0.19716979563236237,0.02642654813826084,-0.09683413803577423
1761505203419016000,3.711015869140625,-0.23879659175872803,-0.04056127369403839,-0.07493522763252258
1761505203429051000,3.72105078125,-0.21707957983016968,-0.05513382703065872,-0.05733732506632805
1761505203439086800,3.7310869140625,-0.19668962061405182,-0.046173885464668274,-0.03861849755048752
1761505203449122000,3.7411220703125,-0.16770032048225403,-0.053162552416324615,-0.006485862657427788
1761505203459156700,3.75115673828125,-0.14665043354034424,-0.05283258855342865,0.02401079423725605
1761505203469192700,3.761192626953125,-0.1026265099644661,-0.031494542956352234,0.046054042875766754
1761505203479228000,3.771227783203125,-0.01131044514477253,-0.01182070653885603,0.027644144371151924
1761505203489262800,3.781262939453125,0.07010319083929062,0.03337473422288895,-0.01353631541132927
1761505203499298800,3.791298828125,0.10535678267478943,0.0919048860669136,-0.060497164726257324
1761505203509333800,3.801333740234375,0.09526366740465164,0.11750186234712601,-0.0735812783241272
1761505203519369000,3.811368896484375,0.06486794352531433,0.09560934454202652,-0.06579579412937164
1761505203529405000,3.821405029296875,0.08768351376056671,0.06459097564220428,-0.0688839927315712
1761505203539439900,3.83143994140625,0.11996901780366898,0.02720418944954872,-0.10021155327558517
1761505203549475000,3.84147509765625,0.12947995960712433,-0.0361713208258152,-0.1787859946489334
1761505203559511000,3.851510986328125,0.13984765112400055,-0.1025753766298294,-0.2631637156009674
1761505203569545700,3.861545654296875,0.15391020476818085,-0.14978842437267303,-0.3181966245174408
1761505203579580700,3.87158056640625,0.17441734671592712,-0.1798589825630188,-0.34183189272880554
1761505203589617000,3.881616943359375,0.18999098241329193,-0.19591037929058075,-0.35186058282852173
1761505203599651800,3.89165185546875,0.1917196363210678,-0.18136340379714966,-0.3553413152694702
1761505203609686800,3.901686767578125,0.17348550260066986,-0.15619465708732605,-0.353039026260376
1761505203619722000,3.911721923828125,0.13617940247058868,-0.13183127343654633,-0.34392622113227844
1761505203629758000,3.921758056640625,0.10604067891836166,-0.11405200511217117,-0.3222115933895111
1761505203639793000,3.93179296875,0.09151659905910492,-0.08174306899309158,-0.29555362462997437
1761505203649827800,3.941827880859375,0.08025675266981125,-0.09455979615449905,-0.26473259925842285
1761505203659864000,3.951864013671875,0.07059907168149948,-0.07814619690179825,-0.22381259500980377
1761505203669898800,3.961898681640625,0.07769905775785446,-0.029869748279452324,-0.19430236518383026
1761505203679933700,3.97193359375,0.09070007503032684,0.02678048051893711,-0.17441362142562866
1761505203689969700,3.9819697265625,0.09966880083084106,0.07193118333816528,-0.17415928840637207
1761505203700004900,3.9920048828125,0.11124476790428162,0.10473520308732986,-0.18312135338783264
1761505203710039800,4.002039794921875,0.11792077869176865,0.1484067738056183,-0.17958973348140717
1761505203720075000,4.012074951171875,0.11670344322919846,0.18333227932453156,-0.16348852217197418
1761505203730111000,4.022111083984375,0.09539869427680969,0.2011008858680725,-0.15652169287204742
1761505203740146000,4.03214599609375,0.06783497333526611,0.2508450150489807,-0.15516747534275055
1761505203750180600,4.0421806640625,0.040477652102708817,0.29788708686828613,-0.1634421944618225
1761505203760216800,4.052216796875,0.023546071723103523,0.31203192472457886,-0.1754131019115448
1761505203770251800,4.062251708984375,0.015323029831051826,0.3073756694793701,-0.15565431118011475
1761505203780286700,4.07228662109375,0.006307164207100868,0.3069641888141632,-0.10649129003286362
1761505203790322000,4.082322021484375,-0.0021584921050816774,0.3246300220489502,-0.062255386263132095
1761505203800358000,4.09235791015625,-0.009309345856308937,0.31265589594841003,-0.044738974422216415
1761505203810392800,4.102392822265625,-0.02923431806266308,0.2701611816883087,-0.06991223990917206
1761505203820427800,4.112427734375,-0.05458947643637657,0.19557535648345947,-0.14038613438606262
1761505203830464000,4.122464111328125,-0.057853978127241135,0.1014760211110115,-0.24244752526283264
1761505203840499000,4.1324990234375,-0.014996526762843132,0.024693096056580544,-0.3157377243041992
1761505203850533600,4.14253369140625,0.08953014761209488,-0.019285812973976135,-0.3324272036552429
1761505203860569900,4.15256982421875,0.21212637424468994,-0.02178146131336689,-0.28614547848701477
1761505203870604800,4.162604736328125,0.2979973256587982,0.008873652666807175,-0.19214120507240295
1761505203880639700,4.1726396484375,0.3009475767612457,0.058222558349370956,-0.06422985345125198
1761505203890675700,4.18267578125,0.24637675285339355,0.1138426810503006,0.031849008053541183
1761505203900711000,4.1927109375,0.16040724515914917,0.18997445702552795,0.06246231123805046
1761505203910745900,4.202745849609375,0.0676802471280098,0.28335341811180115,0.02022058330476284
1761505203920781800,4.21278173828125,-0.016147810965776443,0.3588758707046509,-0.034145720303058624
1761505203930816800,4.222816650390625,-0.057673148810863495,0.3802509307861328,-0.0704784244298935
1761505203940852000,4.23285205078125,-0.054667238146066666,0.3589232861995697,-0.09865467250347137
1761505203950888000,4.242887939453125,-0.025558888912200928,0.30094626545906067,-0.11638892441987991
1761505203960923000,4.2529228515625,0.0065050371922552586,0.24474769830703735,-0.13174284994602203
1761505203970957800,4.262957763671875,0.043543215841054916,0.2055760622024536,-0.14714284241199493
1761505203980993800,4.272993896484375,0.0740252286195755,0.18758881092071533,-0.15904663503170013
1761505203991028700,4.28302880859375,0.09657500684261322,0.18491871654987335,-0.15855315327644348
1761505204001064000,4.29306396484375,0.10928494483232498,0.18529102206230164,-0.15249207615852356
1761505204011099000,4.303098876953125,0.11416598409414291,0.18443243205547333,-0.12850657105445862
1761505204021134800,4.313134765625,0.11664006114006042,0.1828068345785141,-0.09068196266889572
1761505204031169800,4.323169677734375,0.1265725940465927,0.20269691944122314,-0.04784555360674858
1761505204041205000,4.333205078125,0.12885864078998566,0.22607360780239105,-0.009402023628354073
1761505204051241000,4.343240966796875,0.11625869572162628,0.2335224747657776,0.022064289078116417
1761505204061275600,4.353275634765625,0.09007849544286728,0.2378503829240799,0.030554713681340218
1761505204071310800,4.363310791015625,0.05531411990523338,0.23446762561798096,0.02093351073563099
1761505204081346800,4.373346923828125,0.021738318726420403,0.22640463709831238,-0.013863351196050644
1761505204091381800,4.3833818359375,-0.011229218915104866,0.18458449840545654,-0.04148406162858009
1761505204101416700,4.393416748046875,-0.04426546394824982,0.12552890181541443,-0.038729552179574966
1761505204111453000,4.403452880859375,-0.07826843857765198,0.07294504344463348,-0.020411532372236252
1761505204121488000,4.41348779296875,-0.10748597979545593,0.03385809808969498,-0.008697351440787315
1761505204131522800,4.423522705078125,-0.11881932616233826,-0.007192931603640318,-0.00307568465359509
1761505204141558800,4.433558837890625,-0.11183838546276093,-0.031132353469729424,-0.0033513219095766544
1761505204151594000,4.443593994140625,-0.08918154239654541,-0.022126341238617897,0.005344431847333908
1761505204161628700,4.453628662109375,-0.07030639052391052,-0.01702958345413208,0.016566192731261253
1761505204171665000,4.463664794921875,-0.06608553975820541,-0.018857577815651894,0.019644808024168015
1761505204181699800,4.473699951171875,-0.08006580919027328,-0.015479356981813908,0.020197680220007896
1761505204191734000,4.483734130859375,-0.11098457127809525,0.004043211229145527,0.013816745951771736
1761505204201769000,4.49376904296875,-0.14685602486133575,0.06214512884616852,0.007713047321885824
1761505204211805000,4.503804931640625,-0.1824323982000351,0.11706457287073135,-0.0004743089957628399
1761505204221840000,4.51383984375,-0.21815869212150574,0.1361602395772934,-0.018123077228665352
1761505204231874800,4.523874755859375,-0.2485205978155136,0.13684174418449402,-0.03038773313164711
1761505204241911000,4.5339111328125,-0.24208879470825195,0.15040868520736694,-0.03934154659509659
1761505204251946000,4.543946044921875,-0.21552136540412903,0.14366714656352997,-0.052620600908994675
1761505204261981000,4.55398095703125,-0.18092317879199982,0.11233320087194443,-0.06745840609073639
1761505204272017000,4.564016845703125,-0.15193547308444977,0.07805085927248001,-0.08021547645330429
1761505204282052000,4.574052001953125,-0.1274261325597763,0.057314157485961914,-0.08247889578342438
1761505204292088000,4.584088134765625,-0.11091852933168411,0.03497103229165077,-0.0848270058631897
1761505204302123000,4.594123046875,-0.10147522389888763,0.012344550341367722,-0.0868171900510788
1761505204312159000,4.604158935546875,-0.08977808803319931,-0.01589321345090866,-0.08589253574609756
1761505204322194000,4.61419384765625,-0.08099471777677536,-0.03379498049616814,-0.09008754789829254
1761505204332228900,4.624228759765625,-0.06763043999671936,-0.041376203298568726,-0.08415988087654114
1761505204342264800,4.634264892578125,-0.062487080693244934,-0.029327528551220894,-0.07024060934782028
1761505204352300000,4.644300048828125,-0.052211273461580276,-0.0023470439482480288,-0.06333423405885696
1761505204362335000,4.6543349609375,-0.04244226589798927,0.015341139398515224,-0.06546130031347275
1761505204372371000,4.664370849609375,-0.033853836357593536,0.010435597039759159,-0.07717601209878922
1761505204382406000,4.674406005859375,-0.031560324132442474,-0.001395496423356235,-0.09891778975725174
1761505204392441000,4.684441162109375,-0.02213805913925171,-0.025711221620440483,-0.12560319900512695
1761505204402477000,4.69447705078125,-0.009858223609626293,-0.05223177745938301,-0.14709091186523438
1761505204412512000,4.704511962890625,-0.0117900799959898,-0.08190365135669708,-0.16504967212677002
1761505204422547000,4.714546875,-0.022313028573989868,-0.09708420187234879,-0.18116793036460876
1761505204432583000,4.7245830078125,-0.03284050524234772,-0.10483799874782562,-0.20418322086334229
1761505204442617900,4.734617919921875,-0.03990214318037033,-0.12464632093906403,-0.22662141919136047
1761505204452653000,4.744653076171875,-0.03744644299149513,-0.09887678176164627,-0.2255050241947174
1761505204462689000,4.75468896484375,-0.01521969959139824,-0.06232516095042229,-0.20672042667865753
1761505204472724000,4.764723876953125,0.015229552984237671,-0.03266899660229683,-0.1801396757364273
1761505204482759000,4.774759033203125,0.059118445962667465,0.0031225562561303377,-0.1566106528043747
1761505204492795000,4.784794921875,0.10792380571365356,0.017598967999219894,-0.13790486752986908
1761505204502830000,4.794830078125,0.1543605476617813,0.010963168926537037,-0.1171756237745285
1761505204512865000,4.804864990234375,0.18898989260196686,0.002139583695679903,-0.10696639865636826
1761505204522901000,4.81490087890625,0.19887767732143402,-0.024108266457915306,-0.11658866703510284
1761505204532936000,4.82493603515625,0.19429650902748108,-0.0394616536796093,-0.13328136503696442
1761505204542971000,4.834970947265625,0.16996639966964722,-0.04396932199597359,-0.15029549598693848
1761505204553005800,4.845005859375,0.13932619988918304,-0.056231580674648285,-0.16084401309490204
1761505204563042000,4.8550419921875,0.0961901843547821,-0.05192471668124199,-0.14981666207313538
1761505204573077000,4.865076904296875,0.056291233748197556,-0.015563246794044971,-0.11609624326229095
1761505204583112000,4.87511181640625,0.019184613600373268,0.03208496421575546,-0.0806005671620369
1761505204593148000,4.88514794921875,-0.01290754321962595,0.07596293836832047,-0.05729631334543228
1761505204603183000,4.89518310546875,-0.029465746134519577,0.11690797656774521,-0.04409369081258774
1761505204613218000,4.905218017578125,-0.03033260628581047,0.14183409512043,-0.05036010965704918
1761505204623254000,4.91525390625,-0.029880134388804436,0.12953296303749084,-0.06009422987699509
1761505204633289000,4.9252890625,-0.02214578166604042,0.0894252210855484,-0.08073292672634125
1761505204643324000,4.935323974609375,-0.02155269682407379,0.03687892109155655,-0.10903673619031906
1761505204653359900,4.94535986328125,-0.024471255019307137,-0.03370283544063568,-0.12919020652770996
1761505204663394800,4.955394775390625,-0.04222681745886803,-0.08174146711826324,-0.1276216059923172
1761505204673430000,4.965429931640625,-0.06835109740495682,-0.07841997593641281,-0.11140348762273788
1761505204683466000,4.975466064453125,-0.09328041225671768,-0.04765886440873146,-0.10456874966621399
1761505204693501000,4.9855009765625,-0.10574214160442352,-0.008191350847482681,-0.11508850753307343
1761505204703536000,4.9955361328125,-0.10385236144065857,0.05511997640132904,-0.12227744609117508
1761505204713572000,5.005572021484375,-0.09782350063323975,0.10732273012399673,-0.12287505716085434
1761505204723607000,5.01560693359375,-0.09152459353208542,0.13440494239330292,-0.09100021421909332
1761505204733642000,5.02564208984375,-0.09336696565151215,0.14902490377426147,-0.02725798636674881
1761505204743678000,5.035677978515625,-0.10407660156488419,0.13240757584571838,0.04000627249479294
1761505204753713000,5.045712890625,-0.12571372091770172,0.101484015583992,0.06986057013273239
1761505204763747800,5.055747802734375,-0.16208690404891968,0.0568142794072628,0.05565154552459717
1761505204773783800,5.06578369140625,-0.19801214337348938,0.010624680668115616,0.0046299053356051445
1761505204783819000,5.075819091796875,-0.21538181602954865,-0.036732181906700134,-0.06242156773805618
1761505204793854000,5.08585400390625,-0.21251066029071808,-0.07104568183422089,-0.12106171250343323
1761505204803890000,5.095889892578125,-0.19199314713478088,-0.09525541216135025,-0.14096830785274506
1761505204813925000,5.105925048828125,-0.17308922111988068,-0.09690523892641068,-0.1194198727607727
1761505204823960000,5.1159599609375,-0.16133509576320648,-0.07148323953151703,-0.06476567685604095
1761505204833994800,5.125994873046875,-0.14625094830989838,-0.020736170932650566,0.0049191247671842575
1761505204844031000,5.136031005859375,-0.13381265103816986,0.04080229252576828,0.05648351460695267
1761505204854066000,5.14606591796875,-0.11834821105003357,0.06970078498125076,0.07232772558927536
1761505204864100900,5.156100830078125,-0.11078456789255142,0.0812716856598854,0.06686931103467941
1761505204874136800,5.16613671875,-0.09592333436012268,0.06417685747146606,0.042513903230428696
1761505204884172000,5.176172119140625,-0.07531686127185822,0.02690831385552883,0.01734010875225067
1761505204894207000,5.18620703125,-0.052918341010808945,-0.02256283350288868,-0.006161223165690899
1761505204904243000,5.196242919921875,-0.03699450194835663,-0.06586156785488129,-0.01829378679394722
1761505204914278100,5.206278076171875,-0.027706196531653404,-0.11121147871017456,-0.01489186380058527
1761505204924313000,5.21631298828125,-0.03520645573735237,-0.1140485405921936,0.006294913589954376
1761505204934349000,5.22634912109375,-0.047987498342990875,-0.07517624646425247,0.02900075912475586
1761505204944383700,5.2363837890625,-0.0658477246761322,-0.04899390786886215,0.0353902131319046
1761505204954419000,5.2464189453125,-0.0873146653175354,-0.021988390013575554,0.022912506014108658
1761505204964455000,5.256454833984375,-0.10862794518470764,0.0016445019282400608,-0.0019560917280614376
1761505204974489900,5.26648974609375,-0.12745222449302673,0.007744472473859787,-0.018410699442029
1761505204984525000,5.276525146484375,-0.13860954344272614,0.005027248989790678,-0.022357236593961716
1761505204994561000,5.28656103515625,-0.15118259191513062,-0.03002980351448059,-0.028475848957896233
1761505205004596000,5.296595947265625,-0.16848941147327423,-0.08405522257089615,-0.01980086974799633
1761505205014631000,5.306630859375,-0.17435236275196075,-0.08656764775514603,0.0033071134239435196
1761505205024667100,5.316667236328125,-0.16498921811580658,-0.04157860204577446,0.020778248086571693
1761505205034702000,5.3267021484375,-0.14444851875305176,-0.0029111013282090425,0.019527629017829895
1761505205044736800,5.33673681640625,-0.11722489446401596,0.007107710465788841,0.002811765531077981
1761505205054772700,5.346772705078125,-0.0929054394364357,0.01287718303501606,0.0018005631864070892
1761505205064808000,5.356807861328125,-0.08095530420541763,0.008809736929833889,0.021136976778507233
1761505205074843000,5.3668427734375,-0.08916902542114258,-0.012546684592962265,0.035165708512067795
1761505205084878800,5.37687890625,-0.10638689249753952,-0.039681099355220795,0.026987142860889435
1761505205094914000,5.3869140625,-0.13337910175323486,-0.05850831791758537,0.007321562618017197
1761505205104949000,5.396948974609375,-0.15851108729839325,-0.05796290189027786,-0.02160862274467945
1761505205114985000,5.40698486328125,-0.17943046987056732,-0.037703704088926315,-0.05377747863531113
1761505205125020000,5.41702001953125,-0.19922947883605957,-0.01570492796599865,-0.0777541846036911
1761505205135055000,5.42705517578125,-0.20496059954166412,-0.010279801674187183,-0.10088400542736053
1761505205145089800,5.43708984375,-0.2019333839416504,-0.023572171106934547,-0.10211944580078125
1761505205155125800,5.447125732421875,-0.19270926713943481,-0.028858546167612076,-0.06100449711084366
1761505205165161000,5.457160888671875,-0.17675186693668365,-0.012113920412957668,-0.004791026934981346
1761505205175196000,5.46719580078125,-0.172202929854393,-0.010217217728495598,0.03245248273015022
1761505205185232000,5.47723193359375,-0.17399123311042786,-0.021024059504270554,0.038299184292554855
1761505205195267600,5.487267578125,-0.17444290220737457,-0.03262718394398689,0.00980416126549244
1761505205205302800,5.497302734375,-0.16647686064243317,-0.04839123412966728,-0.03321361169219017
1761505205215338800,5.5073388671875,-0.152068093419075,-0.06514358520507812,-0.07542338222265244
1761505205225373700,5.517373779296875,-0.13627368211746216,-0.06773190945386887,-0.10952569544315338
1761505205235408600,5.52740869140625,-0.1259118616580963,-0.08045969158411026,-0.12401462346315384
1761505205245444600,5.537444580078125,-0.11708880960941315,-0.09280530363321304,-0.12008485943078995
1761505205255479600,5.5474794921875,-0.10146084427833557,-0.10627317428588867,-0.0966716781258583
1761505205265514500,5.557514404296875,-0.09110620617866516,-0.1212577149271965,-0.07521166652441025
1761505205275550700,5.56755078125,-0.08338383585214615,-0.11609891057014465,-0.060503292828798294
1761505205285585700,5.577585693359375,-0.08662037551403046,-0.11096193641424179,-0.061652712523937225
1761505205295620600,5.58762060546875,-0.10322944819927216,-0.10122594982385635,-0.0696461871266365
1761505205305656600,5.597656494140625,-0.1314898431301117,-0.06848691403865814,-0.08491408824920654
1761505205315691800,5.60769189453125,-0.15448623895645142,-0.034281808882951736,-0.10884632170200348
1761505205325726700,5.617726806640625,-0.19335055351257324,-0.033307354897260666,-0.14995141327381134
1761505205335762700,5.6277626953125,-0.26385748386383057,-0.06711352616548538,-0.21312931180000305
1761505205345797600,5.637797607421875,-0.3290042579174042,-0.1198478415608406,-0.2964843809604645
1761505205355832600,5.64783251953125,-0.3473510444164276,-0.1309761255979538,-0.3698827028274536
1761505205365868500,5.65786865234375,-0.2942819595336914,-0.11257368326187134,-0.3949715495109558
1761505205375903500,5.667903564453125,-0.21123714745044708,-0.05258624628186226,-0.35832858085632324
1761505205385938700,5.677938720703125,-0.132680281996727,0.028542162850499153,-0.25774046778678894
1761505205395973600,5.6879736328125,-0.07579782605171204,0.10321187227964401,-0.14265328645706177
1761505205406009600,5.698009521484375,-0.03976206108927727,0.1305774450302124,-0.0596417598426342
1761505205416044800,5.708044921875,-0.006534065585583448,0.1268863081932068,-0.03905206173658371
1761505205426079500,5.71807958984375,0.03340456262230873,0.10176391154527664,-0.0704328864812851
1761505205436115700,5.72811572265625,0.0815848708152771,0.0687500387430191,-0.13271038234233856
1761505205446150700,5.738150634765625,0.12235946953296661,0.037095170468091965,-0.18251654505729675
1761505205456185600,5.748185546875,0.14575879275798798,-0.026039056479930878,-0.2044364959001541
1761505205466221600,5.7582216796875,0.1474059671163559,-0.09585435688495636,-0.19974081218242645
1761505205476256500,5.768256591796875,0.15250565111637115,-0.12466896325349808,-0.18784819543361664
1761505205486291700,5.778291748046875,0.1697445660829544,-0.14521418511867523,-0.17401067912578583
1761505205496327700,5.78832763671875,0.18352802097797394,-0.1348704695701599,-0.15652702748775482
1761505205506362600,5.798362548828125,0.19097474217414856,-0.1038941740989685,-0.13107146322727203
1761505205516397800,5.808397705078125,0.18505267798900604,-0.08479691296815872,-0.10049890726804733
1761505205526433800,5.818433837890625,0.1731044054031372,-0.05987371876835823,-0.06708396226167679
1761505205536468700,5.82846875,0.15209099650382996,-0.04493711516261101,-0.03299097344279289
1761505205546503400,5.83850341796875,0.12772254645824432,-0.04452246055006981,-0.001437308033928275
1761505205556539600,5.84853955078125,0.10495144873857498,-0.04445108771324158,0.024989506229758263
1761505205566574600,5.85857470703125,0.08851628005504608,-0.04797098785638809,0.04620770737528801
1761505205576609500,5.868609619140625,0.0687476396560669,-0.0549284964799881,0.0647161453962326
1761505205586645500,5.8786455078125,0.04833371192216873,-0.05477962642908096,0.08351060748100281
1761505205596680700,5.8886806640625,0.030218621715903282,-0.04725273326039314,0.10729210078716278
1761505205606715600,5.898715576171875,0.01991458609700203,-0.044749096035957336,0.1393967717885971
1761505205616751600,5.908751708984375,0.0092347776517272,-0.021633123978972435,0.19093292951583862
1761505205626786800,5.918786865234375,-0.00017257283616345376,0.022462164983153343,0.24926415085792542
1761505205636821800,5.92882177734375,-0.016883641481399536,0.04927274212241173,0.30290713906288147
1761505205646856400,5.9388564453125,-0.03371695056557655,0.051847752183675766,0.34870046377182007
1761505205656892400,5.948892333984375,-0.05493435636162758,0.02358495444059372,0.3814283013343811
1761505205666927600,5.958927734375,-0.07819440215826035,-0.028305407613515854,0.38978371024131775
1761505205676962600,5.968962646484375,-0.1005721464753151,-0.11203279346227646,0.3774692714214325
1761505205686998500,5.97899853515625,-0.14332707226276398,-0.17128999531269073,0.35905537009239197
1761505205697033700,5.98903369140625,-0.1936110109090805,-0.21725721657276154,0.3296247720718384
1761505205707068700,5.999068603515625,-0.2425338178873062,-0.2540293335914612,0.2973792254924774
1761505205717104600,6.009104736328125,-0.2603090703487396,-0.26425695419311523,0.26168006658554077
1761505205727139600,6.0191396484375,-0.2547907531261444,-0.2311123162508011,0.22920681536197662
1761505205737174500,6.029174560546875,-0.22051319479942322,-0.14097283780574799,0.21327552199363708
1761505205747210800,6.039210693359375,-0.15883411467075348,-0.021992117166519165,0.23325908184051514
1761505205757245400,6.049245361328125,-0.09313447028398514,0.09735478460788727,0.28576090931892395
1761505205767280600,6.05928076171875,-0.053996920585632324,0.18284066021442413,0.3489997982978821
1761505205777316600,6.069316650390625,-0.05019419640302658,0.20556513965129852,0.4047671854496002
1761505205787351600,6.0793515625,-0.055929310619831085,0.20572999119758606,0.42830154299736023
1761505205797386800,6.08938671875,-0.07225874811410904,0.18826285004615784,0.42518457770347595
1761505205807422700,6.099422607421875,-0.09849035739898682,0.13564038276672363,0.3909113109111786
1761505205817457700,6.109457763671875,-0.14679476618766785,0.07408700883388519,0.34665247797966003
1761505205827492600,6.11949267578125,-0.20441386103630066,0.04399621859192848,0.3074062764644623
1761505205837527600,6.129527587890625,-0.24495436251163483,0.0256893839687109,0.2550690472126007
1761505205847563800,6.139563720703125,-0.25437769293785095,0.0068182251416146755,0.20609138906002045
1761505205857598500,6.149598388671875,-0.22971442341804504,0.00048389637959189713,0.17604586482048035
1761505205867633700,6.159633544921875,-0.17416833341121674,-0.018809374421834946,0.1635172963142395
1761505205877669600,6.169669677734375,-0.10945139080286026,-0.07655682414770126,0.17850902676582336
1761505205887704600,6.17970458984375,-0.04319247603416443,-0.12002254277467728,0.22079282999038696
1761505205897739800,6.18973974609375,0.021923407912254333,-0.14651939272880554,0.26340019702911377
1761505205907775700,6.199775634765625,0.07907244563102722,-0.1697823703289032,0.2964143455028534
1761505205917810700,6.209810791015625,0.124478280544281,-0.17631085216999054,0.30378812551498413
1761505205927845600,6.219845703125,0.15103958547115326,-0.18415918946266174,0.28439605236053467
1761505205937881600,6.229881591796875,0.1594865918159485,-0.2122667133808136,0.2590552568435669
1761505205947916800,6.239916748046875,0.1553451120853424,-0.22747789323329926,0.25505679845809937
1761505205957951500,6.249951416015625,0.14755244553089142,-0.20441998541355133,0.2622095048427582
1761505205967987500,6.259987548828125,0.16103282570838928,-0.15968233346939087,0.2669273018836975
1761505205978022700,6.270022705078125,0.17611058056354523,-0.0942109227180481,0.2662082612514496
1761505205988057600,6.2800576171875,0.17988081276416779,-0.027947477996349335,0.2638998329639435
1761505205998092500,6.290092529296875,0.17042499780654907,0.021883727982640266,0.26048165559768677
1761505206008128800,6.300128662109375,0.15611663460731506,0.05018380656838417,0.25059226155281067
1761505206018163700,6.310163818359375,0.14579421281814575,0.060022588819265366,0.23731960356235504
1761505206028198700,6.32019873046875,0.1379173845052719,0.0635259822010994,0.22320139408111572
1761505206038234600,6.330234619140625,0.12160685658454895,0.03509380668401718,0.22533831000328064
1761505206048269600,6.34026953125,0.08322644978761673,-0.012864399701356888,0.20609457790851593
1761505206058304500,6.350304443359375,0.04560237377882004,-0.047753140330314636,0.19822466373443604
1761505206068340500,6.360340576171875,0.007296528667211533,-0.07535414397716522,0.19182217121124268
1761505206078375700,6.370375732421875,-0.03194728121161461,-0.0782037228345871,0.17506635189056396
1761505206088410600,6.38041064453125,-0.06586743146181107,-0.08577083051204681,0.14453721046447754
1761505206098446600,6.390446533203125,-0.09739898890256882,-0.086980439722538,0.11724752932786942
1761505206108481500,6.4004814453125,-0.12358425557613373,-0.07066138833761215,0.09481146186590195
1761505206118516700,6.410516845703125,-0.13287469744682312,-0.05650588497519493,0.06877560168504715
1761505206128552700,6.420552734375,-0.1392042338848114,-0.0694858655333519,0.03634708747267723
1761505206138587600,6.430587646484375,-0.13795360922813416,-0.08727684617042542,0.01392779964953661
1761505206148622600,6.44062255859375,-0.13835521042346954,-0.1158222034573555,-0.010634534992277622
1761505206158658800,6.450658935546875,-0.13636183738708496,-0.1336110532283783,-0.04769694805145264
1761505206168693500,6.460693603515625,-0.12556006014347076,-0.1172105148434639,-0.0834384337067604
1761505206178728700,6.470728759765625,-0.11971814185380936,-0.05794958770275116,-0.08206291496753693
1761505206188763600,6.480763671875,-0.13375380635261536,0.0020847225096076727,-0.04309181123971939
1761505206198800100,6.490800048828125,-0.14775431156158447,0.04077645763754845,0.006955377757549286
1761505206208835000,6.5008349609375,-0.1658765822649002,0.06824350357055664,0.04195544123649597
1761505206218870300,6.510870361328125,-0.16093721985816956,0.039256058633327484,0.04153759032487869
1761505206228906200,6.52090625,-0.14346528053283691,-0.009208944626152515,0.009851299226284027
1761505206238941200,6.530941162109375,-0.11565043032169342,-0.04346731677651405,-0.04157301038503647
1761505206248976000,6.540975830078125,-0.08216863870620728,-0.05698046088218689,-0.08950112015008926
1761505206259012000,6.55101220703125,-0.0706147775053978,-0.05686381459236145,-0.11770053207874298
1761505206269047000,6.561047119140625,-0.07897098362445831,-0.04391312971711159,-0.13062724471092224
1761505206279082000,6.57108203125,-0.09340371936559677,-0.02665291540324688,-0.13675278425216675
1761505206289118000,6.581117919921875,-0.11989285051822662,-0.01672012358903885,-0.14573855698108673
1761505206299153200,6.591153076171875,-0.15779149532318115,-0.012072641402482986,-0.15529398620128632
1761505206309188000,6.60118798828125,-0.18157272040843964,0.019160112366080284,-0.15191735327243805
1761505206319223000,6.61122314453125,-0.2023935765028,0.07765218615531921,-0.1541173905134201
1761505206329259300,6.62125927734375,-0.23102283477783203,0.13275031745433807,-0.1305396407842636
1761505206339294200,6.631294189453125,-0.28181198239326477,0.1823122799396515,-0.10707878321409225
1761505206349329000,6.641328857421875,-0.3184155225753784,0.22027245163917542,-0.06422878801822662
1761505206359364900,6.65136474609375,-0.35385236144065857,0.22528132796287537,-0.052799299359321594
1761505206369400000,6.661400146484375,-0.35435009002685547,0.2096421718597412,-0.06374462693929672
1761505206379435000,6.67143505859375,-0.322291761636734,0.17884404957294464,-0.08448904752731323
1761505206389471000,6.681470947265625,-0.28035470843315125,0.12241299450397491,-0.11032863706350327
1761505206399506200,6.691506103515625,-0.2279364913702011,0.0696168914437294,-0.12389078736305237
1761505206409541000,6.701541015625,-0.17633002996444702,0.059904344379901886,-0.12037993967533112
1761505206419577000,6.7115771484375,-0.12016262859106064,0.08183681219816208,-0.11561448127031326
1761505206429612000,6.721612060546875,-0.05926651880145073,0.11748401820659637,-0.11604617536067963
1761505206439647200,6.731647216796875,-0.012752280570566654,0.14157897233963013,-0.1108868345618248
1761505206449683200,6.74168310546875,0.013550962321460247,0.12925918400287628,-0.1026960164308548
1761505206459718000,6.7517177734375,0.028607409447431564,0.08823345601558685,-0.09232034534215927
1761505206469753000,6.761753173828125,0.028232702985405922,0.063742496073246,-0.07981999963521957
1761505206479788000,6.7717880859375,0.026436401531100273,0.08106715232133865,-0.06205112114548683
1761505206489824000,6.781823974609375,0.03033473528921604,0.11156008392572403,-0.05666008219122887
1761505206499859200,6.791859130859375,0.04572674259543419,0.137425497174263,-0.06440189480781555
1761505206509894100,6.80189404296875,0.058396466076374054,0.1586008220911026,-0.0836552157998085
1761505206519930000,6.81193017578125,0.0743517279624939,0.15694540739059448,-0.11500009149312973
1761505206529965000,6.821965087890625,0.0813228189945221,0.1290687769651413,-0.14935433864593506
1761505206540000300,6.832000244140625,0.09369506686925888,0.11414042115211487,-0.17811301350593567
1761505206550036200,6.8420361328125,0.13386937975883484,0.087831050157547,-0.20456884801387787
1761505206560071000,6.85207080078125,0.1853080689907074,0.07122677564620972,-0.21276792883872986
1761505206570106000,6.862106201171875,0.23801548779010773,0.07290110737085342,-0.20593053102493286
1761505206580141000,6.87214111328125,0.2863907516002655,0.04788549989461899,-0.18144196271896362
1761505206590177000,6.882177001953125,0.31094110012054443,0.028323249891400337,-0.13827265799045563
1761505206600212200,6.892212158203125,0.31398695707321167,0.03470312058925629,-0.08652131259441376
1761505206610247200,6.9022470703125,0.3086688816547394,0.049245044589042664,-0.053996920585632324
1761505206620283100,6.912283203125,0.28845202922821045,0.07886765152215958,-0.05104241147637367
1761505206630318000,6.922318115234375,0.2674514055252075,0.12445244938135147,-0.06403917074203491
1761505206640353300,6.932353271484375,0.2522341012954712,0.15412938594818115,-0.08044051378965378
1761505206650389200,6.94238916015625,0.2514365017414093,0.1711544394493103,-0.0836205929517746
1761505206660424000,6.952423828125,0.2516993582248688,0.17000128328800201,-0.08479238301515579
1761505206670459100,6.962459228515625,0.24702896177768707,0.1369522660970688,-0.09183138608932495
1761505206680495000,6.9724951171875,0.236836776137352,0.07300363481044769,-0.1197008341550827
1761505206690530000,6.982530029296875,0.23985706269741058,-0.00703873485326767,-0.17115630209445953
1761505206700565000,6.99256494140625,0.26848551630973816,-0.07989136874675751,-0.2366117388010025
1761505206710601200,7.002601318359375,0.3216981291770935,-0.13416525721549988,-0.31037065386772156
1761505206720636200,7.01263623046875,0.36897963285446167,-0.1592991054058075,-0.3626498281955719
1761505206730671000,7.022671142578125,0.38418975472450256,-0.12036395817995071,-0.34696513414382935
1761505206740706300,7.032706298828125,0.32646387815475464,-0.06173180788755417,-0.25625547766685486
1761505206750742300,7.0427421875,0.2224290817975998,0.00860307551920414,-0.12451875954866409
1761505206760777000,7.05277685546875,0.09104255586862564,0.09171074628829956,-0.025921877473592758
1761505206770812200,7.062812255859375,-0.0057351174764335155,0.16978929936885834,0.02286190539598465
1761505206780848000,7.07284814453125,-0.06174592301249504,0.23961392045021057,0.03785470500588417
1761505206790883000,7.082883056640625,-0.06334834545850754,0.2920963168144226,0.05181393027305603
1761505206800918000,7.09291796875,-0.008016381412744522,0.28765255212783813,0.057067546993494034
1761505206810954000,7.1029541015625,0.09125667810440063,0.23293711245059967,0.04494590312242508
1761505206820989200,7.1129892578125,0.1884085237979889,0.16393247246742249,0.02250930294394493
1761505206831024000,7.123024169921875,0.23431023955345154,0.09276162832975388,0.017235977575182915
1761505206841059000,7.13305908203125,0.2383049726486206,0.03609009459614754,0.016325710341334343
1761505206851095300,7.14309521484375,0.22638574242591858,0.010663563385605812,0.029567746445536613
1761505206861130000,7.1531298828125,0.18432030081748962,0.004891428165137768,0.049257293343544006
1761505206871165000,7.1631650390625,0.10915525257587433,0.03020424209535122,0.0640689954161644
1761505206881201200,7.173201171875,0.03195393830537796,0.06668848544359207,0.06351878494024277
1761505206891236000,7.183236083984375,-0.019588083028793335,0.12403086572885513,0.056174855679273605
1761505206901271000,7.19327099609375,-0.03737932816147804,0.17543654143810272,0.04891907423734665
1761505206911307000,7.20330712890625,-0.037699975073337555,0.1986779421567917,0.02985536679625511
1761505206921342200,7.21334228515625,-0.03225301206111908,0.19042560458183289,0.017140638083219528
1761505206931377200,7.223377197265625,-0.02948359027504921,0.16211193799972534,0.01398825366050005
1761505206941413000,7.2334130859375,-0.015189073048532009,0.14299577474594116,0.03658517450094223
1761505206951448300,7.2434482421875,-0.007405451964586973,0.1328994631767273,0.08333403617143631
1761505206961483000,7.25348291015625,0.007726895622909069,0.11766032129526138,0.12070724368095398
1761505206971518000,7.26351806640625,0.015558186918497086,0.10497914254665375,0.1376476138830185
1761505206981554000,7.273553955078125,0.021444572135806084,0.09408015757799149,0.13111621141433716
1761505206991589000,7.283589111328125,0.023867515847086906,0.0941813588142395,0.0963401198387146
1761505207001624000,7.2936240234375,0.013627661392092705,0.07917418330907822,0.051117777824401855
1761505207011660000,7.303659912109375,-0.0017744642682373524,0.05121338739991188,0.014535799622535706
1761505207021695200,7.3136953125,-0.027689151465892792,0.01961391419172287,-0.006192381959408522
1761505207031730200,7.323730224609375,-0.046840209513902664,0.019508453086018562,-0.014755776152014732
1761505207041766100,7.33376611328125,-0.0521518848836422,0.034747861325740814,-0.016693493351340294
1761505207051801000,7.343801025390625,-0.05435138940811157,0.05781855806708336,-0.017309214919805527
1761505207061836000,7.3538359375,-0.05150074139237404,0.08013078570365906,-0.016040751710534096
1761505207071872000,7.3638720703125,-0.0477139912545681,0.09947466105222702,-0.001654622028581798
1761505207081907000,7.373906982421875,-0.037094373255968094,0.09780246019363403,0.021517276763916016
1761505207091942100,7.383942138671875,-0.029736056923866272,0.08732345700263977,0.050265032798051834
1761505207101977000,7.39397705078125,-0.016557937487959862,0.06103485822677612,0.07332747429609299
1761505207112013000,7.404012939453125,-0.00245090713724494,0.010960505343973637,0.076828733086586
1761505207122048300,7.41404833984375,-0.006756439805030823,-0.04681224748492241,0.052020058035850525
1761505207132083200,7.424083251953125,-0.018496185541152954,-0.09444235265254974,0.012003133073449135
1761505207142119200,7.434119140625,-0.041357025504112244,-0.11071479320526123,-0.04018230736255646
1761505207152153900,7.44415380859375,-0.0697026476264,-0.07841704040765762,-0.1008714884519577
1761505207162189000,7.45418896484375,-0.11481260508298874,-0.05660069361329079,-0.13673308491706848
1761505207172225000,7.46422509765625,-0.16642999649047852,-0.017527861520648003,-0.1230100765824318
1761505207182260000,7.474260009765625,-0.2231460064649582,0.03873221576213837,-0.08018484711647034
1761505207192295200,7.484295166015625,-0.2677161395549774,0.07903729379177094,-0.04029708728194237
1761505207202330000,7.494330078125,-0.295993834733963,0.10152769088745117,-0.026016686111688614
1761505207212366000,7.504365966796875,-0.30704623460769653,0.13415195047855377,-0.050631750375032425
1761505207222401000,7.514401123046875,-0.31003934144973755,0.1514638215303421,-0.09821019321680069
1761505207232436000,7.52443603515625,-0.30746302008628845,0.16150687634944916,-0.14579209685325623
1761505207242472000,7.534471923828125,-0.2947663962841034,0.16977359354496002,-0.15257063508033752
1761505207252507000,7.5445068359375,-0.2597503364086151,0.16179662942886353,-0.1444687694311142
1761505207262542000,7.5545419921875,-0.22616948187351227,0.14650395512580872,-0.11878417432308197
1761505207272578000,7.564578125,-0.1974688619375229,0.12814146280288696,-0.09168197959661484
1761505207282613000,7.574613037109375,-0.18115514516830444,0.11634791642427444,-0.08765581250190735
1761505207292648200,7.584648193359375,-0.1721392720937729,0.12861523032188416,-0.10671553015708923
1761505207302684200,7.59468408203125,-0.16030259430408478,0.1407235562801361,-0.1247459277510643
1761505207312719000,7.604718994140625,-0.13605530560016632,0.13192127645015717,-0.130494624376297
1761505207322753800,7.61475390625,-0.12299809604883194,0.09623172879219055,-0.12240847200155258
1761505207332789000,7.6247890625,-0.11220243573188782,0.04662609100341797,-0.10626811534166336
1761505207342825000,7.634824951171875,-0.10845030844211578,0.011600463651120663,-0.09737102687358856
1761505207352860000,7.64485986328125,-0.09989916533231735,-0.009850500151515007,-0.11667867749929428
1761505207362895000,7.65489501953125,-0.09004227817058563,0.007223025429993868,-0.15889617800712585
1761505207372931000,7.66493115234375,-0.0806807279586792,0.038070421665906906,-0.1837112456560135
1761505207382966000,7.674966064453125,-0.07010505348443985,0.04560663178563118,-0.17758676409721375
1761505207393001000,7.6850009765625,-0.05832136422395706,0.05865958333015442,-0.14959216117858887
1761505207403037200,7.695037109375,-0.042882487177848816,0.080573670566082,-0.1256098598241806
1761505207413072100,7.705072021484375,-0.023498667404055595,0.08763184398412704,-0.1180211752653122
1761505207423106800,7.71510693359375,-0.0038394792936742306,0.06562401354312897,-0.11852025240659714
1761505207433142000,7.72514208984375,0.01293310895562172,0.02015453577041626,-0.11382430046796799
1761505207443178000,7.735177978515625,0.03592018410563469,-0.01726420782506466,-0.10070956498384476
1761505207453213000,7.745212890625,0.06059756875038147,-0.04211496189236641,-0.08591224253177643
1761505207463248100,7.755248046875,0.0786181092262268,-0.039328765124082565,-0.07016763836145401
1761505207473284000,7.7652841796875,0.08575139194726944,-0.03798599913716316,-0.07513629645109177
1761505207483319000,7.775319091796875,0.07922504842281342,-0.031689487397670746,-0.08754982054233551
1761505207493354000,7.78535400390625,0.06143992394208908,-0.0037713022902607918,-0.11634737998247147
1761505207503390000,7.795389892578125,0.046307045966386795,-0.007556186988949776,-0.1688726395368576
1761505207513425200,7.805425048828125,0.03948668763041496,0.011471034027636051,-0.21995820105075836
1761505207523459800,7.8154599609375,0.03539900481700897,0.02780073881149292,-0.2380405217409134
1761505207533495000,7.8254951171875,0.03087615594267845,0.005191565956920385,-0.23029525578022003
1761505207543531000,7.835531005859375,0.02370506338775158,-0.015490809455513954,-0.18780265748500824
1761505207553566000,7.84556591796875,0.013743774965405464,-0.014652445912361145,-0.12036369740962982
1761505207563601000,7.855600830078125,0.009849967435002327,-0.012646286748349667,-0.05909474566578865
1761505207573637000,7.86563720703125,0.01798752322793007,-0.021075723692774773,-0.01630387268960476
1761505207583672000,7.875672119140625,0.02526700682938099,-0.025290176272392273,-0.011591142043471336
1761505207593707000,7.88570703125,0.026762638241052628,-0.01846742443740368,-0.02418336644768715
1761505207603743000,7.895742919921875,0.012595420703291893,-0.0255769994109869,-0.041721079498529434
1761505207613778200,7.905778076171875,-0.0070456587709486485,-0.04041852802038193,-0.04483618214726448
1761505207623812900,7.915812744140625,-0.03802141919732094,-0.06450309604406357,-0.03344956785440445
1761505207633848800,7.925848876953125,-0.06431667506694794,-0.07919894903898239,-0.024382304400205612
1761505207643884000,7.935884033203125,-0.0830533429980278,-0.07744205743074417,-0.020015785470604897
1761505207653919000,7.9459189453125,-0.09667407721281052,-0.03941318765282631,-0.02099050208926201
1761505207663954000,7.955953857421875,-0.11156461387872696,0.007473362609744072,-0.007254983298480511
1761505207673990000,7.965989990234375,-0.12262525409460068,0.03928641974925995,0.0031886028591543436
1761505207684025000,7.976025146484375,-0.1261587291955948,0.03712792694568634,0.01350728701800108
1761505207694060000,7.98606005859375,-0.1237829253077507,-0.00330338510684669,0.02190716378390789
1761505207704096000,7.996095947265625,-0.10514453053474426,-0.03021409548819065,0.016467124223709106
1761505207714130000,8.0061298828125,-0.08075476437807083,-0.04373310133814812,0.0148623026907444
1761505207724164900,8.016164794921876,-0.061527542769908905,-0.03864539787173271,0.01164440531283617
1761505207734200800,8.026200927734376,-0.050821635872125626,-0.017357951030135155,0.016688432544469833
1761505207744236000,8.036236083984376,-0.04295678809285164,-0.015597068704664707,0.030470557510852814
1761505207754271000,8.04627099609375,-0.04441673308610916,-0.01245400682091713,0.039203595370054245
1761505207764307000,8.056306884765625,-0.053039249032735825,-0.025482723489403725,0.035593148320913315
1761505207774342100,8.066342041015625,-0.06439603120088577,-0.05823853984475136,0.02618047036230564
1761505207784377000,8.076377197265625,-0.0719306468963623,-0.06289400905370712,0.01347346417605877
1761505207794411800,8.086411865234375,-0.06916948407888412,-0.055085357278585434,0.009495234116911888
1761505207804448000,8.096447998046875,-0.0703205019235611,-0.05432768538594246,0.010119479149580002
1761505207814483000,8.10648291015625,-0.08688456565141678,-0.04270671680569649,0.0191904716193676
1761505207824518000,8.116517822265624,-0.11552952229976654,-0.04543139785528183,0.02677515521645546
1761505207834553900,8.126553955078125,-0.14332759380340576,-0.0529436431825161,0.01411448698490858
1761505207844589000,8.136589111328124,-0.15568679571151733,-0.08465469628572464,-0.020832844078540802
1761505207854624000,8.1466240234375,-0.15649613738059998,-0.10157429426908493,-0.0536310039460659
1761505207864660000,8.156659912109374,-0.14361628890037537,-0.07926925271749496,-0.06190970540046692
1761505207874695200,8.166695068359376,-0.12995293736457825,-0.06537847220897675,-0.04625910893082619
1761505207884730000,8.176730224609376,-0.11916900426149368,-0.042982086539268494,-0.014185327105224133
1761505207894766000,8.18676611328125,-0.11453217267990112,-0.02070101723074913,0.022582273930311203
1761505207904800800,8.19680078125,-0.10905911028385162,-0.014768559485673904,0.04622022435069084
1761505207914836000,8.2068359375,-0.10208162665367126,-0.027669444680213928,0.04590917006134987
1761505207924871000,8.216870849609375,-0.09224896878004074,-0.04988500103354454,0.012888101860880852
1761505207934907000,8.226906982421875,-0.09607087075710297,-0.077649787068367,-0.03555240109562874
1761505207944942000,8.236942138671875,-0.10382892936468124,-0.07584176957607269,-0.08001680672168732
1761505207954977000,8.24697705078125,-0.12420210987329483,-0.04923252761363983,-0.09281808882951736
1761505207965013000,8.257012939453125,-0.14282719790935516,-0.015294800512492657,-0.07282813638448715
1761505207975048200,8.267048095703124,-0.16880100965499878,0.0025656893849372864,-0.04921894520521164
1761505207985083100,8.277083251953124,-0.17053072154521942,-0.01830204203724861,-0.030782412737607956
1761505207995117800,8.287117919921876,-0.15361885726451874,-0.05014039948582649,-0.01600879430770874
1761505208005153800,8.29715380859375,-0.12501224875450134,-0.09553371369838715,-0.04246596619486809
1761505208015189000,8.30718896484375,-0.09452197700738907,-0.10316739976406097,-0.0929453894495964
1761505208025224000,8.317223876953125,-0.08326772600412369,-0.03176192566752434,-0.14260561764240265
1761505208035260000,8.327260009765626,-0.07768254727125168,0.042093124240636826,-0.17106202244758606
1761505208045295000,8.337295166015625,-0.06421520560979843,0.08083625882863998,-0.16644489765167236
1761505208055330000,8.347330078125,-0.06236058101058006,0.07321908324956894,-0.124721959233284
1761505208065366000,8.357365966796875,-0.06722377985715866,0.0573519729077816,-0.05961006507277489
1761505208075401000,8.36740087890625,-0.06299307942390442,0.05427468940615654,-0.02047118730843067
1761505208085436200,8.377436279296875,-0.04928579181432724,0.04351072385907173,-0.023603063076734543
1761505208095470800,8.387470947265625,-0.040052611380815506,0.06850795447826385,-0.12473101168870926
1761505208105506800,8.3975068359375,-0.01865384541451931,0.17242556810379028,-0.25440698862075806
1761505208115542000,8.4075419921875,-0.03814525529742241,0.3579472303390503,-0.12288490682840347
1761505208125577000,8.417576904296874,-0.06829330325126648,0.13821379840373993,-0.0575178861618042
1761505208135613000,8.427613037109374,-0.10657571256160736,-0.18515707552433014,-0.04615950584411621
1761505208145648000,8.437648193359376,-0.13467206060886383,-0.3502115309238434,-0.07208032160997391
1761505208155683000,8.44768310546875,-0.1789010465145111,-0.3025588095188141,-0.11233452707529068
1761505208165719000,8.457718994140626,-0.2738448679447174,-0.2100009024143219,-0.1521482616662979
1761505208175754000,8.46775390625,-0.3675266206264496,-0.1566828191280365,-0.14048148691654205
1761505208185789200,8.4777890625,-0.41050657629966736,-0.0805068239569664,-0.03392787277698517
1761505208195824000,8.48782421875,-0.4059578776359558,-0.003942010924220085,0.11375399678945541
