time,seconds_elapsed,z,y,x
1761478267295592700,0.0765927734375,-0.969573974609375,-0.110107421875,-0.1734619140625
1761478267305628700,0.086628662109375,-0.9585418701171875,-0.113983154296875,-0.1739044189453125
1761478267315665000,0.096664794921875,-0.9621734619140625,-0.1180877685546875,-0.1815948486328125
1761478267325700900,0.106700927734375,-0.9647064208984375,-0.1209259033203125,-0.19195556640625
1761478267335737600,0.116737548828125,-0.973175048828125,-0.124755859375,-0.200592041015625
1761478267345773800,0.12677392578125,-0.9856109619140625,-0.120574951171875,-0.2119598388671875
1761478267355809800,0.136809814453125,-0.9843902587890625,-0.1146087646484375,-0.215911865234375
1761478267365845800,0.146845703125,-0.9861907958984375,-0.114837646484375,-0.1978607177734375
1761478267375881700,0.1568818359375,-0.9933624267578125,-0.114776611328125,-0.1778411865234375
1761478267385917700,0.166917724609375,-0.993927001953125,-0.1070404052734375,-0.16961669921875
1761478267395953700,0.17695361328125,-0.994384765625,-0.1074371337890625,-0.17266845703125
1761478267405989600,0.18698974609375,-0.9981689453125,-0.111724853515625,-0.1787872314453125
1761478267416025600,0.197025634765625,-0.999481201171875,-0.1108551025390625,-0.1894378662109375
1761478267426061600,0.2070615234375,-1.00262451171875,-0.11346435546875,-0.18988037109375
1761478267436098600,0.2170986328125,-1.0043487548828125,-0.11700439453125,-0.18609619140625
1761478267446134800,0.227134765625,-1.0069122314453125,-0.11505126953125,-0.1912689208984375
1761478267456170800,0.237170654296875,-1.0072479248046875,-0.1139984130859375,-0.194061279296875
1761478267466206700,0.247206787109375,-0.9987030029296875,-0.115386962890625,-0.1943511962890625
1761478267476242700,0.25724267578125,-0.9860992431640625,-0.1133880615234375,-0.1905059814453125
1761478267486278700,0.267278564453125,-0.98468017578125,-0.1119232177734375,-0.1812744140625
1761478267496315000,0.27731494140625,-0.98480224609375,-0.1116943359375,-0.181793212890625
1761478267506350800,0.287350830078125,-0.9844818115234375,-0.1102142333984375,-0.185577392578125
1761478267516386800,0.29738671875,-0.9905242919921875,-0.1100921630859375,-0.1881256103515625
1761478267526423800,0.307423828125,-0.99755859375,-0.1109466552734375,-0.18719482421875
1761478267536459800,0.317459716796875,-0.9978179931640625,-0.1132965087890625,-0.1818389892578125
1761478267546495700,0.327495849609375,-1.0021514892578125,-0.1128082275390625,-0.1793365478515625
1761478267556531700,0.33753173828125,-1.0069427490234375,-0.1092529296875,-0.1851806640625
1761478267566567700,0.347567626953125,-1.011810302734375,-0.1118621826171875,-0.1929779052734375
1761478267576603600,0.357603759765625,-1.0063629150390625,-0.114898681640625,-0.1996307373046875
1761478267586639600,0.3676396484375,-0.9931640625,-0.1159210205078125,-0.1966552734375
1761478267596675600,0.377675537109375,-0.9765472412109375,-0.1162109375,-0.1828765869140625
1761478267606711600,0.387711669921875,-0.96875,-0.1163787841796875,-0.1702728271484375
1761478267616747500,0.39774755859375,-0.97119140625,-0.1137847900390625,-0.170928955078125
1761478267626784800,0.40778466796875,-0.976104736328125,-0.11004638671875,-0.181884765625
1761478267636820700,0.41782080078125,-0.9802703857421875,-0.1112823486328125,-0.1900634765625
1761478267646856700,0.427856689453125,-0.9822235107421875,-0.108795166015625,-0.19500732421875
1761478267656892700,0.437892578125,-0.9836883544921875,-0.1084442138671875,-0.1971893310546875
1761478267666929000,0.447928955078125,-0.9843597412109375,-0.112823486328125,-0.19134521484375
1761478267676964900,0.45796484375,-0.9814605712890625,-0.114532470703125,-0.1843414306640625
1761478267687000800,0.468000732421875,-0.987152099609375,-0.110687255859375,-0.1847686767578125
1761478267697036800,0.478036865234375,-1.000732421875,-0.1085662841796875,-0.1844329833984375
1761478267707072800,0.48807275390625,-1.0081634521484375,-0.1071014404296875,-0.188201904296875
1761478267717109800,0.49810986328125,-1.00616455078125,-0.1073150634765625,-0.1895599365234375
1761478267727145700,0.508145751953125,-1.00164794921875,-0.1123046875,-0.1884002685546875
1761478267737181700,0.518181640625,-0.9968109130859375,-0.1181182861328125,-0.19256591796875
1761478267747217700,0.5282177734375,-0.9902801513671875,-0.11981201171875,-0.19580078125
1761478267757253600,0.538253662109375,-0.9891357421875,-0.1198577880859375,-0.1881561279296875
1761478267767289600,0.54828955078125,-0.9976043701171875,-0.115631103515625,-0.1761322021484375
1761478267777325600,0.55832568359375,-0.9999847412109375,-0.1068572998046875,-0.17510986328125
1761478267787361500,0.568361572265625,-1.001068115234375,-0.1057586669921875,-0.17901611328125
1761478267797397500,0.5783974609375,-0.9978485107421875,-0.1099395751953125,-0.181915283203125
1761478267807433200,0.58843310546875,-0.992523193359375,-0.1129608154296875,-0.1804962158203125
1761478267817470000,0.598469970703125,-0.9882049560546875,-0.11151123046875,-0.1826019287109375
1761478267827506200,0.608506103515625,-0.986968994140625,-0.1116943359375,-0.188812255859375
1761478267837542400,0.61854248046875,-0.9864044189453125,-0.1134490966796875,-0.1932525634765625
1761478267847578400,0.628578369140625,-0.9844970703125,-0.1132965087890625,-0.1909637451171875
1761478267857614300,0.6386142578125,-0.983856201171875,-0.1081695556640625,-0.19024658203125
1761478267867650300,0.648650390625,-0.98052978515625,-0.106842041015625,-0.1921844482421875
1761478267877686300,0.658686279296875,-0.9729461669921875,-0.115234375,-0.1939239501953125
1761478267887722200,0.66872216796875,-0.966796875,-0.1195526123046875,-0.192901611328125
1761478267897758200,0.67875830078125,-0.9801025390625,-0.1155853271484375,-0.186370849609375
1761478267907795200,0.688795166015625,-1.0055389404296875,-0.1097412109375,-0.1785888671875
1761478267917831200,0.6988310546875,-1.021331787109375,-0.105010986328125,-0.1815032958984375
1761478267927867100,0.7088671875,-1.012359619140625,-0.1064910888671875,-0.1900787353515625
1761478267937903000,0.718903076171875,-0.996673583984375,-0.1100006103515625,-0.1991424560546875
1761478267947939000,0.72893896484375,-0.98614501953125,-0.1114959716796875,-0.2055511474609375
1761478267957975000,0.73897509765625,-0.97540283203125,-0.114166259765625,-0.200836181640625
1761478267968011300,0.74901123046875,-0.96612548828125,-0.1221923828125,-0.1849212646484375
1761478267978047200,0.759047119140625,-0.961029052734375,-0.1215057373046875,-0.17266845703125
1761478267988083200,0.769083251953125,-0.972442626953125,-0.1141510009765625,-0.1742095947265625
1761478267998120200,0.7791201171875,-0.9919281005859375,-0.11053466796875,-0.179901123046875
1761478268008156400,0.789156494140625,-1.0043182373046875,-0.1127166748046875,-0.18316650390625
1761478268018192400,0.7991923828125,-1.008941650390625,-0.1140899658203125,-0.1859130859375
1761478268028228400,0.809228271484375,-1.0088043212890625,-0.1139068603515625,-0.1867218017578125
1761478268038264300,0.819264404296875,-1.0055694580078125,-0.113861083984375,-0.1814117431640625
1761478268048300300,0.82930029296875,-1.002777099609375,-0.1143035888671875,-0.1765289306640625
1761478268058336300,0.839336181640625,-0.9968719482421875,-0.117645263671875,-0.17608642578125
1761478268068372200,0.849372314453125,-0.9950408935546875,-0.1157684326171875,-0.1777801513671875
1761478268078408200,0.859408203125,-0.996734619140625,-0.1126556396484375,-0.1815032958984375
1761478268088445200,0.869445068359375,-0.9916534423828125,-0.111419677734375,-0.1844329833984375
1761478268098481200,0.879481201171875,-0.9874114990234375,-0.1106109619140625,-0.1835174560546875
1761478268108517000,0.88951708984375,-0.9836883544921875,-0.1089324951171875,-0.1785430908203125
1761478268118553000,0.899552978515625,-0.9868927001953125,-0.108673095703125,-0.17523193359375
1761478268128589000,0.909589111328125,-0.9897003173828125,-0.110321044921875,-0.17803955078125
1761478268138625000,0.919625,-0.9893035888671875,-0.11083984375,-0.185272216796875
1761478268148661200,0.9296611328125,-0.9900054931640625,-0.1101837158203125,-0.1911773681640625
1761478268158697200,0.939697265625,-0.989837646484375,-0.1135711669921875,-0.19293212890625
1761478268168734000,0.94973388671875,-0.990203857421875,-0.111328125,-0.18975830078125
1761478268178770200,0.959770263671875,-0.9948577880859375,-0.1057891845703125,-0.184051513671875
1761478268188806400,0.969806396484375,-1.002593994140625,-0.107269287109375,-0.1837158203125
1761478268198842400,0.97984228515625,-1.006317138671875,-0.10833740234375,-0.192840576171875
1761478268208878300,0.98987841796875,-0.9943695068359375,-0.110321044921875,-0.19500732421875
1761478268218914300,0.999914306640625,-0.9791107177734375,-0.1127166748046875,-0.188934326171875
1761478268228950300,1.0099501953125,-0.970458984375,-0.1128387451171875,-0.1822967529296875
1761478268238986200,1.019986328125,-0.968475341796875,-0.11492919921875,-0.1809234619140625
1761478268249022200,1.030022216796875,-0.9758148193359375,-0.1102752685546875,-0.187103271484375
1761478268259059200,1.04005908203125,-0.987823486328125,-0.1081085205078125,-0.1913299560546875
1761478268269095200,1.05009521484375,-0.9916839599609375,-0.1126708984375,-0.1868896484375
1761478268279131100,1.060131103515625,-0.9917449951171875,-0.115997314453125,-0.182098388671875
1761478268289167000,1.0701669921875,-1.0000152587890625,-0.1152801513671875,-0.186004638671875
1761478268299203000,1.080203125,-1.010711669921875,-0.110260009765625,-0.1891021728515625
1761478268309239000,1.090239013671875,-1.0106048583984375,-0.112060546875,-0.179962158203125
1761478268319275300,1.100275146484375,-1.0093841552734375,-0.1136322021484375,-0.170166015625
1761478268329311200,1.110311279296875,-1.0031890869140625,-0.108856201171875,-0.1729736328125
1761478268339348000,1.120347900390625,-1.0005035400390625,-0.11065673828125,-0.17926025390625
1761478268349384200,1.13038427734375,-0.9957427978515625,-0.1133575439453125,-0.1854705810546875
1761478268359420400,1.14042041015625,-0.984283447265625,-0.11138916015625,-0.18865966796875
1761478268369456400,1.150456298828125,-0.9768218994140625,-0.1123809814453125,-0.18267822265625
1761478268379492400,1.160492431640625,-0.9811859130859375,-0.1104278564453125,-0.180267333984375
1761478268389528300,1.1705283203125,-0.9882049560546875,-0.1065521240234375,-0.18170166015625
1761478268399564300,1.180564208984375,-0.992706298828125,-0.107666015625,-0.183197021484375
1761478268409600300,1.190600341796875,-0.988037109375,-0.11126708984375,-0.189727783203125
1761478268419636200,1.20063623046875,-0.986083984375,-0.1156158447265625,-0.1926727294921875
1761478268429673200,1.210673095703125,-0.989959716796875,-0.11395263671875,-0.1958465576171875
1761478268439709200,1.220709228515625,-0.99566650390625,-0.1104583740234375,-0.1904296875
1761478268449745200,1.2307451171875,-0.9920501708984375,-0.1116943359375,-0.1792449951171875
1761478268459781000,1.240781005859375,-0.9874725341796875,-0.1119232177734375,-0.174713134765625
1761478268469817000,1.250817138671875,-0.98974609375,-0.1122589111328125,-0.1758575439453125
1761478268479853000,1.26085302734375,-0.9925537109375,-0.1154937744140625,-0.1785430908203125
1761478268489889000,1.270888916015625,-0.9920654296875,-0.116729736328125,-0.179351806640625
1761478268499925200,1.28092529296875,-0.993499755859375,-0.1173095703125,-0.1776275634765625
1761478268509962000,1.2909619140625,-0.9967498779296875,-0.117645263671875,-0.1769866943359375
1761478268519998000,1.300998046875,-0.99578857421875,-0.1155853271484375,-0.1798095703125
1761478268530034200,1.3110341796875,-0.996978759765625,-0.1137237548828125,-0.1819305419921875
1761478268540070400,1.3210703125,-0.994140625,-0.1112518310546875,-0.1851043701171875
1761478268550106400,1.3311064453125,-0.9911956787109375,-0.1109161376953125,-0.1829681396484375
1761478268560142300,1.341142333984375,-0.9943084716796875,-0.1081390380859375,-0.18109130859375
1761478268570178300,1.35117822265625,-0.9966888427734375,-0.1076812744140625,-0.1807861328125
1761478268580214300,1.36121435546875,-0.9986724853515625,-0.109954833984375,-0.1841888427734375
1761478268590251300,1.371251220703125,-0.9943389892578125,-0.10955810546875,-0.1900177001953125
1761478268600287200,1.381287353515625,-0.98199462890625,-0.1107635498046875,-0.1934814453125
1761478268610323200,1.3913232421875,-0.9707489013671875,-0.112823486328125,-0.189697265625
1761478268620359200,1.401359130859375,-0.96697998046875,-0.11370849609375,-0.186370849609375
1761478268630395100,1.41139501953125,-0.97760009765625,-0.112762451171875,-0.1819610595703125
1761478268640431000,1.42143115234375,-0.997222900390625,-0.1102142333984375,-0.18170166015625
1761478268650467000,1.431467041015625,-1.0131072998046875,-0.1081390380859375,-0.1847076416015625
1761478268660503000,1.4415029296875,-1.017059326171875,-0.1084747314453125,-0.18426513671875
1761478268670539300,1.451539306640625,-1.0096282958984375,-0.1094970703125,-0.188323974609375
1761478268680576000,1.461575927734375,-0.991424560546875,-0.1114501953125,-0.1895904541015625
1761478268690612000,1.471612060546875,-0.9799041748046875,-0.1160125732421875,-0.1901702880859375
1761478268700648200,1.481648193359375,-0.9818878173828125,-0.1133575439453125,-0.1936492919921875
1761478268710684400,1.491684326171875,-0.983978271484375,-0.1172332763671875,-0.1885223388671875
1761478268720720400,1.501720458984375,-0.9893951416015625,-0.11614990234375,-0.1766357421875
1761478268730756400,1.51175634765625,-0.9946746826171875,-0.1126861572265625,-0.1692962646484375
1761478268740792300,1.521792236328125,-1.0002288818359375,-0.1128997802734375,-0.164703369140625
1761478268750829300,1.531829345703125,-1.00079345703125,-0.1153411865234375,-0.1677398681640625
1761478268760865300,1.541865234375,-0.9984130859375,-0.115509033203125,-0.1744537353515625
1761478268770901200,1.5519013671875,-0.9972076416015625,-0.1187896728515625,-0.1772308349609375
1761478268780937200,1.561937255859375,-0.997161865234375,-0.119476318359375,-0.1805267333984375
1761478268790973200,1.57197314453125,-0.9980010986328125,-0.117645263671875,-0.18707275390625
1761478268801009200,1.582009033203125,-0.9981536865234375,-0.116455078125,-0.19024658203125
1761478268811045000,1.592045166015625,-1.0001983642578125,-0.114166259765625,-0.191070556640625
1761478268821081000,1.6020810546875,-0.9963836669921875,-0.1112060546875,-0.18731689453125
1761478268831117000,1.612116943359375,-0.9928436279296875,-0.106231689453125,-0.1842041015625
1761478268841154000,1.622154052734375,-0.980438232421875,-0.108184814453125,-0.1811065673828125
1761478268851190000,1.63218994140625,-0.968048095703125,-0.1117401123046875,-0.180999755859375
1761478268861226000,1.64222607421875,-0.96636962890625,-0.113494873046875,-0.1846923828125
1761478268871262000,1.652261962890625,-0.9762115478515625,-0.1139984130859375,-0.1913299560546875
1761478268881298200,1.662298095703125,-0.9862518310546875,-0.112701416015625,-0.1973724365234375
1761478268891334100,1.672334228515625,-0.991912841796875,-0.113372802734375,-0.197723388671875
1761478268901370000,1.6823701171875,-1.00341796875,-0.1107330322265625,-0.1931915283203125
1761478268911406000,1.692406005859375,-1.013397216796875,-0.10760498046875,-0.188873291015625
1761478268921443000,1.702443115234375,-1.012481689453125,-0.1115264892578125,-0.18316650390625
1761478268931479000,1.71247900390625,-1.0003662109375,-0.1158447265625,-0.17779541015625
1761478268941515000,1.722514892578125,-0.985107421875,-0.1167144775390625,-0.178924560546875
1761478268951551000,1.732551025390625,-0.975311279296875,-0.117706298828125,-0.1803131103515625
1761478268961587000,1.7425869140625,-0.97137451171875,-0.1184844970703125,-0.1806488037109375
1761478268971623200,1.752623046875,-0.9744415283203125,-0.11724853515625,-0.180633544921875
1761478268981659100,1.7626591796875,-0.9827423095703125,-0.1190185546875,-0.1756439208984375
1761478268991695000,1.772695068359375,-0.9956512451171875,-0.1187896728515625,-0.1722412109375
1761478269001732000,1.782732177734375,-1.004302978515625,-0.1165924072265625,-0.1751861572265625
1761478269011768000,1.79276806640625,-1.0102386474609375,-0.1150970458984375,-0.1794891357421875
1761478269021804000,1.802803955078125,-1.00775146484375,-0.112274169921875,-0.1832275390625
1761478269031840000,1.812840087890625,-1.00341796875,-0.108184814453125,-0.1851348876953125
1761478269041876000,1.8228759765625,-1.00189208984375,-0.10888671875,-0.1853790283203125
1761478269051912200,1.832912109375,-0.9996490478515625,-0.110321044921875,-0.1851806640625
1761478269061948200,1.8429482421875,-0.998138427734375,-0.1116943359375,-0.1868438720703125
1761478269071984000,1.852984130859375,-0.9875946044921875,-0.11627197265625,-0.1905364990234375
1761478269082021000,1.863021240234375,-0.9766693115234375,-0.1205902099609375,-0.190704345703125
1761478269092057000,1.87305712890625,-0.9726409912109375,-0.120147705078125,-0.1888275146484375
1761478269102093000,1.883093017578125,-0.9814910888671875,-0.1157073974609375,-0.1891326904296875
1761478269112129000,1.89312890625,-0.990936279296875,-0.1123504638671875,-0.1858673095703125
1761478269122165000,1.9031650390625,-0.9942474365234375,-0.10992431640625,-0.1803741455078125
1761478269132201000,1.913200927734375,-0.99176025390625,-0.11187744140625,-0.17791748046875
1761478269142237000,1.92323681640625,-0.988922119140625,-0.1141510009765625,-0.1761474609375
1761478269152273200,1.933273193359375,-0.9888458251953125,-0.1120147705078125,-0.17803955078125
1761478269162310100,1.94331005859375,-0.994110107421875,-0.116180419921875,-0.1777191162109375
1761478269172346000,1.95334619140625,-1.000762939453125,-0.119171142578125,-0.1777191162109375
1761478269182382000,1.963382080078125,-1.0046844482421875,-0.1160430908203125,-0.1836700439453125
1761478269192418000,1.97341796875,-1.00189208984375,-0.11669921875,-0.1870269775390625
1761478269202454000,1.9834541015625,-0.998016357421875,-0.1171875,-0.1874542236328125
1761478269212490000,1.993489990234375,-0.9912872314453125,-0.116455078125,-0.1879119873046875
1761478269222526000,2.00352587890625,-0.98504638671875,-0.11651611328125,-0.1866912841796875
1761478269232562200,2.013562255859375,-0.9777984619140625,-0.11590576171875,-0.1840667724609375
1761478269242599000,2.023598876953125,-0.9815673828125,-0.11419677734375,-0.18170166015625
1761478269252635000,2.033634765625,-0.993896484375,-0.1111907958984375,-0.1829833984375
1761478269262671000,2.043671142578125,-0.99322509765625,-0.115234375,-0.18206787109375
1761478269272707000,2.05370703125,-0.985198974609375,-0.119384765625,-0.179718017578125
1761478269282743000,2.063742919921875,-0.979583740234375,-0.1170654296875,-0.177581787109375
1761478269292779000,2.073779052734375,-0.9864501953125,-0.115386962890625,-0.17645263671875
1761478269302815000,2.08381494140625,-0.9940338134765625,-0.1142120361328125,-0.1780548095703125
1761478269312851000,2.093850830078125,-1.00030517578125,-0.1135101318359375,-0.1795501708984375
1761478269322888200,2.10388818359375,-1.000030517578125,-0.1130218505859375,-0.1802978515625
1761478269332924200,2.113924072265625,-0.991180419921875,-0.1134185791015625,-0.1828460693359375
1761478269342960000,2.123960205078125,-0.9875946044921875,-0.115570068359375,-0.1871795654296875
1761478269352996000,2.13399609375,-0.989654541015625,-0.1161346435546875,-0.187408447265625
1761478269363032000,2.144031982421875,-0.9936981201171875,-0.1142578125,-0.18231201171875
1761478269373068000,2.154068115234375,-0.996551513671875,-0.113677978515625,-0.183837890625
1761478269383104000,2.16410400390625,-0.997344970703125,-0.1096343994140625,-0.189910888671875
1761478269393140000,2.174139892578125,-0.991607666015625,-0.1059112548828125,-0.1941375732421875
1761478269403176200,2.18417626953125,-0.9874420166015625,-0.1055755615234375,-0.19317626953125
1761478269413213000,2.194212890625,-0.988800048828125,-0.1105499267578125,-0.1854095458984375
1761478269423249000,2.204248779296875,-0.996368408203125,-0.113800048828125,-0.182861328125
1761478269433285000,2.21428515625,-1.00567626953125,-0.1143951416015625,-0.1886749267578125
1761478269443321000,2.224321044921875,-1.0130615234375,-0.1146087646484375,-0.1916351318359375
1761478269453357000,2.234357177734375,-1.0101318359375,-0.11376953125,-0.1932220458984375
1761478269463393000,2.24439306640625,-1.00274658203125,-0.1145782470703125,-0.190093994140625
1761478269473429000,2.254428955078125,-0.9892578125,-0.1202392578125,-0.1826019287109375
1761478269483465000,2.26446484375,-0.9720458984375,-0.1211395263671875,-0.1756744384765625
1761478269493502200,2.274502197265625,-0.96368408203125,-0.121551513671875,-0.169677734375
1761478269503538200,2.2845380859375,-0.966339111328125,-0.1225128173828125,-0.1664276123046875
1761478269513574100,2.29457421875,-0.9821014404296875,-0.116607666015625,-0.16949462890625
1761478269523610000,2.304610107421875,-0.99420166015625,-0.1157989501953125,-0.1735687255859375
1761478269533646000,2.31464599609375,-0.9997100830078125,-0.117095947265625,-0.174163818359375
1761478269543682000,2.32468212890625,-0.99908447265625,-0.11822509765625,-0.1723785400390625
1761478269553718000,2.334718017578125,-0.9957122802734375,-0.1191864013671875,-0.1782379150390625
1761478269563754000,2.34475390625,-0.990386962890625,-0.12115478515625,-0.18377685546875
1761478269573791000,2.354791015625,-0.9910125732421875,-0.122650146484375,-0.185333251953125
1761478269583827000,2.364826904296875,-0.9962005615234375,-0.1210479736328125,-0.1847076416015625
1761478269593863000,2.37486279296875,-1.0020751953125,-0.117645263671875,-0.1822509765625
1761478269603899000,2.38489892578125,-1.00439453125,-0.1119384765625,-0.18243408203125
1761478269613935000,2.39493505859375,-0.9976806640625,-0.1116943359375,-0.1840972900390625
1761478269623971000,2.40497119140625,-0.9887542724609375,-0.1139373779296875,-0.182952880859375
1761478269634007000,2.415007080078125,-0.9828033447265625,-0.112823486328125,-0.1816558837890625
1761478269644043000,2.42504296875,-0.9829864501953125,-0.1128387451171875,-0.1813812255859375
1761478269654080300,2.435080322265625,-0.987152099609375,-0.11431884765625,-0.18316650390625
1761478269664116200,2.4451162109375,-0.9933013916015625,-0.1143035888671875,-0.1886138916015625
1761478269674152200,2.455152099609375,-0.9959716796875,-0.1136322021484375,-0.19061279296875
1761478269684188200,2.465188232421875,-0.9890899658203125,-0.118438720703125,-0.1864776611328125
1761478269694224100,2.47522412109375,-0.9777374267578125,-0.1214141845703125,-0.181427001953125
1761478269704260000,2.485260009765625,-0.98516845703125,-0.11767578125,-0.1791839599609375
1761478269714296000,2.495296142578125,-0.9972381591796875,-0.1143951416015625,-0.1854400634765625
1761478269724332000,2.50533203125,-0.9993133544921875,-0.113861083984375,-0.1839599609375
1761478269734369000,2.515369140625,-0.997528076171875,-0.114715576171875,-0.1754150390625
1761478269744405000,2.525405029296875,-0.994476318359375,-0.1136627197265625,-0.1728668212890625
1761478269754441000,2.53544091796875,-0.9907379150390625,-0.1156005859375,-0.175811767578125
1761478269764477000,2.545476806640625,-0.9864959716796875,-0.1196441650390625,-0.1789703369140625
1761478269774513000,2.555512939453125,-0.9850921630859375,-0.119873046875,-0.1861724853515625
1761478269784549000,2.565549072265625,-0.9823760986328125,-0.1221160888671875,-0.187225341796875
1761478269794585000,2.575585205078125,-0.9773406982421875,-0.1210174560546875,-0.1808929443359375
1761478269804621800,2.585621826171875,-0.978607177734375,-0.116607666015625,-0.1726531982421875
1761478269814658000,2.595657958984375,-0.99755859375,-0.1125640869140625,-0.16900634765625
1761478269824694800,2.60569482421875,-1.0142364501953125,-0.1082763671875,-0.1753692626953125
1761478269834730800,2.615730712890625,-1.020782470703125,-0.108917236328125,-0.1824188232421875
1761478269844767000,2.62576708984375,-1.013671875,-0.1139373779296875,-0.19171142578125
1761478269854803000,2.635802978515625,-0.9989471435546875,-0.1180267333984375,-0.19244384765625
1761478269864839000,2.6458388671875,-0.984222412109375,-0.11944580078125,-0.1861572265625
1761478269874875000,2.655875,-0.9759674072265625,-0.1180419921875,-0.17852783203125
1761478269884910800,2.665910888671875,-0.9758148193359375,-0.112823486328125,-0.175384521484375
1761478269894947000,2.675947021484375,-0.9862823486328125,-0.1103363037109375,-0.18145751953125
1761478269904984000,2.685984130859375,-1.0039520263671875,-0.1083526611328125,-0.19342041015625
1761478269915020000,2.69602001953125,-1.0082244873046875,-0.1096038818359375,-0.2018890380859375
1761478269925056000,2.706055908203125,-0.9982147216796875,-0.1168365478515625,-0.201690673828125
1761478269935092000,2.716092041015625,-0.992340087890625,-0.1180877685546875,-0.1960906982421875
1761478269945128000,2.7261279296875,-0.9925537109375,-0.1135406494140625,-0.1868743896484375
1761478269955164000,2.736163818359375,-0.9854278564453125,-0.1117095947265625,-0.1736907958984375
1761478269965200000,2.746199951171875,-0.976104736328125,-0.1136322021484375,-0.16497802734375
1761478269975235800,2.75623583984375,-0.9732513427734375,-0.1153106689453125,-0.169158935546875
1761478269985272800,2.76627294921875,-0.9842376708984375,-0.1170196533203125,-0.180572509765625
1761478269995308800,2.776308837890625,-0.997161865234375,-0.116180419921875,-0.191650390625
1761478270005344800,2.7863447265625,-1.004791259765625,-0.1196441650390625,-0.192718505859375
1761478270015380700,2.796380615234375,-1.0048675537109375,-0.124481201171875,-0.1873321533203125
1761478270025417000,2.8064169921875,-0.99432373046875,-0.1240234375,-0.177703857421875
1761478270035453000,2.816452880859375,-0.9880828857421875,-0.1231536865234375,-0.1684722900390625
1761478270045489000,2.826489013671875,-0.990631103515625,-0.12127685546875,-0.1693267822265625
1761478270055524900,2.83652490234375,-0.9962310791015625,-0.1160430908203125,-0.1744842529296875
1761478270065561000,2.84656103515625,-1.000274658203125,-0.1131591796875,-0.1738433837890625
1761478270075598000,2.85659814453125,-0.996856689453125,-0.11444091796875,-0.1714630126953125
1761478270085634000,2.866634033203125,-0.988555908203125,-0.116455078125,-0.1725616455078125
1761478270095670000,2.876669921875,-0.9813995361328125,-0.1194000244140625,-0.1770477294921875
1761478270105706000,2.8867060546875,-0.9851837158203125,-0.11944580078125,-0.1859130859375
1761478270115742000,2.896741943359375,-0.9947662353515625,-0.1150360107421875,-0.1964569091796875
1761478270125778000,2.90677783203125,-1.002532958984375,-0.1121826171875,-0.2046356201171875
1761478270135814000,2.91681396484375,-1.0020904541015625,-0.1106109619140625,-0.2085113525390625
1761478270145849900,2.926849853515625,-0.9917449951171875,-0.1116790771484375,-0.2037200927734375
1761478270155885800,2.9368857421875,-0.979400634765625,-0.1139678955078125,-0.1868133544921875
1761478270165922800,2.9469228515625,-0.9721527099609375,-0.1161651611328125,-0.174713134765625
1761478270175958800,2.956958740234375,-0.97393798828125,-0.1185302734375,-0.172454833984375
1761478270185994800,2.966994873046875,-0.986175537109375,-0.115234375,-0.1797637939453125
1761478270196031000,2.977031005859375,-1.00250244140625,-0.1118011474609375,-0.1844329833984375
1761478270206067000,2.98706689453125,-1.013397216796875,-0.1113128662109375,-0.1894683837890625
1761478270216103000,2.99710302734375,-1.0110015869140625,-0.11358642578125,-0.190338134765625
1761478270226139000,3.007138916015625,-1.0001220703125,-0.1204071044921875,-0.1850433349609375
1761478270236174800,3.0171748046875,-0.98968505859375,-0.1255645751953125,-0.17877197265625
1761478270246212000,3.027212158203125,-0.98394775390625,-0.1264801025390625,-0.1755523681640625
1761478270256248000,3.037248046875,-0.978179931640625,-0.127227783203125,-0.17340087890625
1761478270266284000,3.047283935546875,-0.98077392578125,-0.1243438720703125,-0.1704864501953125
1761478270276320000,3.057320068359375,-0.9839019775390625,-0.1232147216796875,-0.169219970703125
1761478270286356000,3.06735595703125,-0.987091064453125,-0.121917724609375,-0.1695098876953125
1761478270296392000,3.077391845703125,-0.990509033203125,-0.12066650390625,-0.16986083984375
1761478270306428000,3.087427978515625,-0.9946441650390625,-0.1196441650390625,-0.168365478515625
1761478270316463900,3.0974638671875,-0.996795654296875,-0.1181488037109375,-0.1708984375
1761478270326500900,3.1075009765625,-1.001708984375,-0.11663818359375,-0.18157958984375
1761478270336536800,3.117536865234375,-1.0056610107421875,-0.1150360107421875,-0.19415283203125
1761478270346572800,3.12757275390625,-1.0005035400390625,-0.112060546875,-0.1999664306640625
1761478270356608800,3.13760888671875,-0.991973876953125,-0.116729736328125,-0.19366455078125
1761478270366644700,3.147644775390625,-0.9866180419921875,-0.1199188232421875,-0.1883544921875
1761478270376681000,3.157680908203125,-0.983001708984375,-0.1199493408203125,-0.18927001953125
1761478270386717000,3.167717041015625,-0.984222412109375,-0.12030029296875,-0.1880035400390625
1761478270396753000,3.1777529296875,-0.984405517578125,-0.1199798583984375,-0.1893463134765625
1761478270406788900,3.187788818359375,-0.985870361328125,-0.120574951171875,-0.188873291015625
1761478270416826000,3.197826171875,-0.99053955078125,-0.1199493408203125,-0.1823272705078125
1761478270426862000,3.207862060546875,-0.9989471435546875,-0.114990234375,-0.175994873046875
1761478270436898000,3.21789794921875,-1.000701904296875,-0.1157989501953125,-0.1697998046875
1761478270446934000,3.22793408203125,-0.998809814453125,-0.1200408935546875,-0.1704864501953125
1761478270456970000,3.237969970703125,-0.9898681640625,-0.1203765869140625,-0.1795654296875
1761478270467006000,3.248005859375,-0.9811248779296875,-0.119598388671875,-0.18475341796875
1761478270477042000,3.2580419921875,-0.9826812744140625,-0.1174163818359375,-0.184722900390625
1761478270487078000,3.268077880859375,-0.9888763427734375,-0.1162109375,-0.185546875
1761478270497113900,3.27811376953125,-0.998046875,-0.1152801513671875,-0.189605712890625
1761478270507150800,3.28815087890625,-1.00244140625,-0.1168975830078125,-0.193756103515625
1761478270517186800,3.298186767578125,-1.0070343017578125,-0.118408203125,-0.195404052734375
1761478270527222800,3.308222900390625,-1.0052490234375,-0.1172332763671875,-0.1963043212890625
1761478270537258800,3.3182587890625,-0.9971923828125,-0.115631103515625,-0.1893463134765625
1761478270547295000,3.328294921875,-0.9889373779296875,-0.117919921875,-0.1837158203125
1761478270557331000,3.3383310546875,-0.9832916259765625,-0.1176300048828125,-0.1816864013671875
1761478270567367000,3.348366943359375,-0.984161376953125,-0.11688232421875,-0.1798248291015625
1761478270577403000,3.35840283203125,-0.987457275390625,-0.116363525390625,-0.1833343505859375
1761478270587438800,3.36843896484375,-0.990753173828125,-0.118560791015625,-0.1891937255859375
1761478270597476000,3.37847607421875,-0.9911041259765625,-0.12060546875,-0.1923980712890625
1761478270607512000,3.388511962890625,-0.9886474609375,-0.12017822265625,-0.1889190673828125
1761478270617548000,3.398548095703125,-0.9827728271484375,-0.1240081787109375,-0.1779327392578125
1761478270627584000,3.408583984375,-0.982879638671875,-0.1248626708984375,-0.164276123046875
1761478270637620000,3.418619873046875,-0.98773193359375,-0.12451171875,-0.16387939453125
1761478270647656000,3.428656005859375,-0.9877471923828125,-0.1250152587890625,-0.17364501953125
1761478270657692000,3.43869189453125,-0.98809814453125,-0.1249237060546875,-0.1793212890625
1761478270667728000,3.448727783203125,-0.9927215576171875,-0.12579345703125,-0.1806182861328125
1761478270677764900,3.458764892578125,-0.9959259033203125,-0.123291015625,-0.17999267578125
1761478270687800800,3.46880078125,-0.9949188232421875,-0.1229705810546875,-0.1779632568359375
1761478270697836800,3.4788369140625,-0.988983154296875,-0.1228790283203125,-0.177490234375
1761478270707872800,3.488872802734375,-0.9875640869140625,-0.1226348876953125,-0.1798095703125
1761478270717908700,3.49890869140625,-0.991790771484375,-0.1206817626953125,-0.18475341796875
1761478270727945000,3.508945068359375,-0.996673583984375,-0.119781494140625,-0.1819610595703125
1761478270737981000,3.51898095703125,-0.99481201171875,-0.1204376220703125,-0.17376708984375
1761478270748017000,3.529016845703125,-0.9922637939453125,-0.1219329833984375,-0.174835205078125
1761478270758052900,3.539052978515625,-0.9946136474609375,-0.1220245361328125,-0.1796875
1761478270768090000,3.549090087890625,-0.9958038330078125,-0.119049072265625,-0.184326171875
1761478270778126000,3.5591259765625,-0.99786376953125,-0.117340087890625,-0.1856842041015625
1761478270788162000,3.569162109375,-0.9957733154296875,-0.12066650390625,-0.18603515625
1761478270798198000,3.579197998046875,-0.9994354248046875,-0.120941162109375,-0.1891632080078125
1761478270808234000,3.58923388671875,-0.9980926513671875,-0.120086669921875,-0.19134521484375
1761478270818270000,3.59927001953125,-0.9860382080078125,-0.120086669921875,-0.1867828369140625
1761478270828306000,3.609305908203125,-0.9755401611328125,-0.1191558837890625,-0.180694580078125
1761478270838342000,3.619341796875,-0.9713897705078125,-0.1172637939453125,-0.1773834228515625
1761478270848377900,3.6293779296875,-0.9763336181640625,-0.1171875,-0.1760711669921875
1761478270858414800,3.639414794921875,-0.9871368408203125,-0.1191253662109375,-0.177276611328125
1761478270868450800,3.649450927734375,-0.9972381591796875,-0.1219482421875,-0.18084716796875
1761478270878486800,3.65948681640625,-1.0011138916015625,-0.123291015625,-0.186004638671875
1761478270888522800,3.669522705078125,-0.9949951171875,-0.1254119873046875,-0.1894073486328125
1761478270898559000,3.67955908203125,-0.98583984375,-0.127655029296875,-0.1870269775390625
1761478270908595200,3.68959521484375,-0.9898834228515625,-0.1268310546875,-0.1820220947265625
1761478270918631200,3.699631103515625,-0.9996185302734375,-0.1247711181640625,-0.1741790771484375
1761478270928667100,3.709667236328125,-1.009033203125,-0.120513916015625,-0.1705322265625
1761478270938703000,3.719703125,-1.014923095703125,-0.1185760498046875,-0.1731414794921875
1761478270948740000,3.729739990234375,-1.005767822265625,-0.1188507080078125,-0.1825408935546875
1761478270958776000,3.739776123046875,-0.9866790771484375,-0.1208038330078125,-0.19073486328125
1761478270968812000,3.74981201171875,-0.967926025390625,-0.12542724609375,-0.18902587890625
1761478270978848000,3.759847900390625,-0.96575927734375,-0.124114990234375,-0.1808319091796875
1761478270988884000,3.769884033203125,-0.976287841796875,-0.1220703125,-0.1742706298828125
1761478270998920000,3.779919921875,-0.9862213134765625,-0.117889404296875,-0.1761627197265625
1761478271008956000,3.789955810546875,-0.99346923828125,-0.1206512451171875,-0.1764984130859375
1761478271018991900,3.799991943359375,-0.995697021484375,-0.1224822998046875,-0.1767425537109375
1761478271029027800,3.81002783203125,-0.9976348876953125,-0.123046875,-0.1790008544921875
1761478271039063800,3.820063720703125,-1.001953125,-0.1224517822265625,-0.1784210205078125
1761478271049100800,3.830100830078125,-1.005157470703125,-0.1245269775390625,-0.179473876953125
1761478271059136800,3.84013671875,-1.0077056884765625,-0.1241607666015625,-0.1820068359375
1761478271069173000,3.850173095703125,-1.006988525390625,-0.121307373046875,-0.1877593994140625
1761478271079209200,3.860209228515625,-1.00238037109375,-0.1214447021484375,-0.188995361328125
1761478271089245200,3.8702451171875,-0.994140625,-0.1211395263671875,-0.189697265625
1761478271099281200,3.88028125,-0.983612060546875,-0.1213836669921875,-0.180145263671875
1761478271109317000,3.890317138671875,-0.9747314453125,-0.1234130859375,-0.1655731201171875
1761478271119353000,3.90035302734375,-0.976348876953125,-0.1223602294921875,-0.1652679443359375
1761478271129389000,3.91038916015625,-0.9849853515625,-0.1209259033203125,-0.1770172119140625
1761478271139426000,3.920426025390625,-0.99627685546875,-0.1185760498046875,-0.1919097900390625
1761478271149462000,3.9304619140625,-1.001922607421875,-0.117889404296875,-0.2027130126953125
1761478271159498000,3.940498046875,-1.000457763671875,-0.120361328125,-0.198028564453125
1761478271169534000,3.950533935546875,-0.9941253662109375,-0.1195068359375,-0.1865081787109375
1761478271179570000,3.96056982421875,-0.9839324951171875,-0.11981201171875,-0.18060302734375
1761478271189606000,3.97060595703125,-0.9774017333984375,-0.122222900390625,-0.1773529052734375
1761478271199641900,3.980641845703125,-0.9785003662109375,-0.122161865234375,-0.1832427978515625
1761478271209677800,3.990677734375,-0.9784393310546875,-0.1251678466796875,-0.1854705810546875
1761478271219714000,4.000714111328125,-0.9766082763671875,-0.1269378662109375,-0.182464599609375
1761478271229749000,4.0107490234375,-0.9778900146484375,-0.1250457763671875,-0.1797332763671875
1761478271239785000,4.020784912109375,-0.986175537109375,-0.1242523193359375,-0.175537109375
1761478271249821000,4.030821044921875,-0.9951629638671875,-0.12554931640625,-0.17608642578125
1761478271259857000,4.04085693359375,-1.0004730224609375,-0.1249237060546875,-0.1797027587890625
1761478271269892900,4.050892822265625,-1.006561279296875,-0.1260833740234375,-0.17529296875
1761478271279929900,4.060929931640625,-1.009918212890625,-0.125579833984375,-0.1718597412109375
1761478271289965800,4.0709658203125,-1.0097198486328125,-0.1209869384765625,-0.17059326171875
1761478271300002000,4.081001953125,-1.0045623779296875,-0.121612548828125,-0.1690521240234375
1761478271310038000,4.0910380859375,-0.99847412109375,-0.123382568359375,-0.169097900390625
1761478271320074000,4.101073974609375,-0.9920501708984375,-0.1241455078125,-0.173370361328125
1761478271330110000,4.11110986328125,-0.990325927734375,-0.123443603515625,-0.1819915771484375
1761478271340146200,4.121146240234375,-0.9896240234375,-0.12579345703125,-0.1908111572265625
1761478271350182100,4.13118212890625,-0.98834228515625,-0.1266937255859375,-0.192626953125
1761478271360218000,4.141218017578125,-0.9887542724609375,-0.125030517578125,-0.1898345947265625
1761478271370255000,4.151255126953125,-0.986175537109375,-0.1228485107421875,-0.1837005615234375
1761478271380291000,4.161291015625,-0.9830322265625,-0.1211395263671875,-0.175140380859375
1761478271390327000,4.1713271484375,-0.983795166015625,-0.117919921875,-0.1676177978515625
1761478271400363000,4.181363037109375,-0.9841156005859375,-0.117462158203125,-0.16619873046875
1761478271410399000,4.19139892578125,-0.98565673828125,-0.1181488037109375,-0.1722412109375
1761478271420435000,4.20143505859375,-0.9916229248046875,-0.119476318359375,-0.183074951171875
1761478271430471000,4.211470947265625,-0.99871826171875,-0.119537353515625,-0.192291259765625
1761478271440507000,4.2215068359375,-1.003387451171875,-0.12060546875,-0.1944732666015625
1761478271450542800,4.23154296875,-1.000152587890625,-0.122833251953125,-0.1942596435546875
1761478271460578800,4.241578857421875,-0.996734619140625,-0.1262664794921875,-0.194488525390625
1761478271470615800,4.25161572265625,-0.9911041259765625,-0.12786865234375,-0.1903228759765625
1761478271480652000,4.261652099609375,-0.98388671875,-0.1252593994140625,-0.18475341796875
1761478271490688000,4.27168798828125,-0.9809112548828125,-0.1246337890625,-0.176116943359375
1761478271500724000,4.281723876953125,-0.9849853515625,-0.119415283203125,-0.171142578125
1761478271510760200,4.29176025390625,-0.9898529052734375,-0.114501953125,-0.1712799072265625
1761478271520796200,4.301796142578125,-0.9922027587890625,-0.116851806640625,-0.171630859375
1761478271530832100,4.31183203125,-0.9938812255859375,-0.120025634765625,-0.176116943359375
1761478271540868000,4.3218681640625,-0.991668701171875,-0.12493896484375,-0.181915283203125
1761478271550904000,4.331904052734375,-0.991058349609375,-0.1322174072265625,-0.18585205078125
1761478271560941000,4.341941162109375,-0.99505615234375,-0.132659912109375,-0.1879425048828125
1761478271570977000,4.35197705078125,-0.9990997314453125,-0.1272430419921875,-0.1880035400390625
1761478271581013000,4.362012939453125,-0.9970855712890625,-0.124420166015625,-0.1826629638671875
1761478271591049000,4.372049072265625,-0.9889678955078125,-0.1203765869140625,-0.1718597412109375
1761478271601085000,4.3820849609375,-0.98114013671875,-0.12066650390625,-0.161773681640625
1761478271611121000,4.392120849609375,-0.9804229736328125,-0.1223297119140625,-0.1573028564453125
1761478271621156900,4.402156982421875,-0.9866790771484375,-0.121917724609375,-0.1644134521484375
1761478271631192800,4.41219287109375,-0.9979400634765625,-0.11871337890625,-0.178253173828125
1761478271641228800,4.422228759765625,-1.0081787109375,-0.1180419921875,-0.1926116943359375
1761478271651266000,4.43226611328125,-1.006072998046875,-0.122589111328125,-0.201263427734375
1761478271661302000,4.442302001953125,-0.997222900390625,-0.126861572265625,-0.1997528076171875
1761478271671338000,4.452337890625,-0.9839324951171875,-0.1296844482421875,-0.1920013427734375
1761478271681374000,4.4623740234375,-0.97894287109375,-0.12890625,-0.1834259033203125
1761478271691410200,4.47241015625,-0.9827423095703125,-0.1223297119140625,-0.17584228515625
1761478271701446100,4.482446044921875,-0.98736572265625,-0.1171417236328125,-0.16778564453125
1761478271711482000,4.492482177734375,-0.9918975830078125,-0.11468505859375,-0.1676177978515625
1761478271721518000,4.50251806640625,-0.9922027587890625,-0.1153564453125,-0.173309326171875
1761478271731554000,4.512553955078125,-0.9919586181640625,-0.1194305419921875,-0.18017578125
1761478271741591000,4.522591064453125,-0.990081787109375,-0.1226654052734375,-0.190887451171875
1761478271751627000,4.532626953125,-0.991424560546875,-0.123565673828125,-0.19720458984375
1761478271761663000,4.5426630859375,-0.9932861328125,-0.1247711181640625,-0.195831298828125
1761478271771699000,4.552698974609375,-0.9929962158203125,-0.12408447265625,-0.19110107421875
1761478271781735000,4.56273486328125,-0.993194580078125,-0.1224822998046875,-0.1867828369140625
1761478271791771000,4.57277099609375,-0.9886627197265625,-0.1225128173828125,-0.17767333984375
1761478271801808000,4.582807861328125,-0.9854736328125,-0.1222686767578125,-0.1665496826171875
1761478271811843300,4.59284326171875,-0.9874725341796875,-0.1215057373046875,-0.164398193359375
1761478271821879300,4.60287939453125,-0.9968719482421875,-0.12127685546875,-0.17108154296875
1761478271831915300,4.612915283203125,-1.0064849853515625,-0.1206512451171875,-0.180816650390625
1761478271841952500,4.622952392578125,-1.009124755859375,-0.12225341796875,-0.186767578125
1761478271851988500,4.632988525390625,-1.0055389404296875,-0.1243743896484375,-0.1902923583984375
1761478271862024400,4.6430244140625,-1.0000457763671875,-0.1248931884765625,-0.1895751953125
1761478271872060400,4.653060302734375,-0.9946441650390625,-0.124420166015625,-0.1801910400390625
1761478271882096600,4.6630966796875,-0.9874725341796875,-0.124359130859375,-0.1689910888671875
1761478271892132600,4.673132568359375,-0.9764862060546875,-0.1271209716796875,-0.16522216796875
1761478271902168600,4.68316845703125,-0.969757080078125,-0.1282501220703125,-0.1649169921875
1761478271912204500,4.69320458984375,-0.965972900390625,-0.125457763671875,-0.1662139892578125
1761478271922240500,4.703240478515625,-0.9683685302734375,-0.1204986572265625,-0.171234130859375
1761478271932277500,4.713277587890625,-0.9754180908203125,-0.120635986328125,-0.17962646484375
1761478271942313500,4.7233134765625,-0.988037109375,-0.1165924072265625,-0.1875762939453125
1761478271952349400,4.733349365234375,-1.0049591064453125,-0.111236572265625,-0.19281005859375
1761478271962385400,4.743385498046875,-1.022613525390625,-0.1100006103515625,-0.1981353759765625
1761478271972421400,4.75342138671875,-1.0258331298828125,-0.1126708984375,-0.200347900390625
1761478271982457300,4.763457275390625,-1.0101318359375,-0.1182708740234375,-0.1971282958984375
1761478271992493300,4.773493408203125,-0.9903564453125,-0.1228179931640625,-0.1927032470703125
1761478272002529300,4.783529296875,-0.9746551513671875,-0.1238555908203125,-0.18902587890625
1761478272012565200,4.793565185546875,-0.9716339111328125,-0.125244140625,-0.1820831298828125
1761478272022602500,4.8036025390625,-0.97607421875,-0.1244659423828125,-0.1799163818359375
1761478272032638500,4.813638427734375,-0.98468017578125,-0.122039794921875,-0.1804962158203125
1761478272042674400,4.82367431640625,-0.994964599609375,-0.1198577880859375,-0.1812286376953125
1761478272052710700,4.833710693359375,-1.011016845703125,-0.118133544921875,-0.18353271484375
1761478272062746600,4.84374658203125,-1.0163116455078125,-0.117889404296875,-0.17828369140625
1761478272072782600,4.853782470703125,-1.0110931396484375,-0.122314453125,-0.1668243408203125
1761478272082818600,4.863818603515625,-1.000457763671875,-0.1268768310546875,-0.1611785888671875
1761478272092854500,4.8738544921875,-0.9920501708984375,-0.129058837890625,-0.1601715087890625
1761478272102890500,4.883890380859375,-0.9848785400390625,-0.1318359375,-0.1628265380859375
1761478272112927500,4.893927490234375,-0.9816741943359375,-0.1315155029296875,-0.1709136962890625
1761478272122963500,4.90396337890625,-0.98394775390625,-0.1291961669921875,-0.1785430908203125
1761478272132999400,4.91399951171875,-0.9852447509765625,-0.128265380859375,-0.1794281005859375
1761478272143035400,4.924035400390625,-0.9887237548828125,-0.12213134765625,-0.1785888671875
1761478272153071400,4.9340712890625,-0.992584228515625,-0.1160125732421875,-0.1779632568359375
1761478272163107300,4.944107421875,-0.9938507080078125,-0.1175689697265625,-0.1820526123046875
1761478272173143300,4.954143310546875,-0.9926300048828125,-0.115997314453125,-0.1876220703125
1761478272183179300,4.96417919921875,-0.98736572265625,-0.1173553466796875,-0.186737060546875
1761478272193215500,4.974215576171875,-0.98199462890625,-0.1207275390625,-0.1809844970703125
1761478272203252500,4.98425244140625,-0.979339599609375,-0.1209869384765625,-0.1783905029296875
1761478272213288400,4.994288330078125,-0.9824676513671875,-0.1202850341796875,-0.183258056640625
1761478272223324400,5.004324462890625,-0.9839630126953125,-0.1184234619140625,-0.1909637451171875
1761478272233360600,5.014360595703125,-0.9802093505859375,-0.1157989501953125,-0.1959228515625
1761478272243396600,5.024396728515625,-0.97625732421875,-0.1198883056640625,-0.195343017578125
1761478272253432600,5.0344326171875,-0.9802093505859375,-0.119903564453125,-0.19476318359375
1761478272263468500,5.044468505859375,-0.9921112060546875,-0.1181182861328125,-0.1899261474609375
1761478272273504500,5.05450439453125,-1.012664794921875,-0.11932373046875,-0.181610107421875
1761478272283541500,5.06454150390625,-1.024505615234375,-0.117095947265625,-0.1849212646484375
1761478272293577500,5.074577392578125,-1.017608642578125,-0.1219024658203125,-0.188140869140625
1761478272303613400,5.084613525390625,-1.0005950927734375,-0.1295623779296875,-0.1836090087890625
1761478272313649400,5.0946494140625,-0.979766845703125,-0.133087158203125,-0.17724609375
1761478272323685400,5.104685302734375,-0.96728515625,-0.133544921875,-0.1658477783203125
1761478272333721300,5.114721435546875,-0.96856689453125,-0.1316070556640625,-0.1548919677734375
1761478272343757300,5.12475732421875,-0.9759674072265625,-0.125946044921875,-0.154876708984375
1761478272353793300,5.134793212890625,-0.9931488037109375,-0.121337890625,-0.1573028564453125
1761478272363829200,5.144829345703125,-1.010528564453125,-0.1208038330078125,-0.164764404296875
1761478272373866500,5.154866455078125,-1.017852783203125,-0.124786376953125,-0.176788330078125
1761478272383902500,5.16490234375,-1.0153961181640625,-0.1298370361328125,-0.184173583984375
1761478272393938400,5.1749384765625,-1.0079345703125,-0.1283416748046875,-0.191986083984375
1761478272403974700,5.184974609375,-1.0018310546875,-0.1260528564453125,-0.1948394775390625
1761478272414010600,5.1950107421875,-0.9961395263671875,-0.121002197265625,-0.1926116943359375
1761478272424046600,5.205046630859375,-0.986297607421875,-0.1158905029296875,-0.186767578125
1761478272434082600,5.21508251953125,-0.97857666015625,-0.1150360107421875,-0.1768035888671875
1761478272444118500,5.225118408203125,-0.9732666015625,-0.11627197265625,-0.174407958984375
1761478272454154500,5.235154541015625,-0.9816741943359375,-0.116607666015625,-0.1812744140625
1761478272464191500,5.24519140625,-0.992218017578125,-0.118682861328125,-0.1987152099609375
1761478272474227500,5.2552275390625,-0.98736572265625,-0.1287689208984375,-0.201812744140625
1761478272484263400,5.265263427734375,-0.990447998046875,-0.1250457763671875,-0.19732666015625
1761478272494299400,5.27529931640625,-0.993011474609375,-0.125030517578125,-0.19122314453125
1761478272504335400,5.28533544921875,-0.98919677734375,-0.1260528564453125,-0.1851348876953125
1761478272514371300,5.295371337890625,-0.9819488525390625,-0.1261749267578125,-0.1808319091796875
1761478272524407300,5.3054072265625,-0.9688873291015625,-0.12921142578125,-0.1743011474609375
1761478272534443300,5.315443359375,-0.964813232421875,-0.129058837890625,-0.1667022705078125
1761478272544479500,5.3254794921875,-0.9740447998046875,-0.125946044921875,-0.16168212890625
1761478272554516500,5.3355166015625,-0.990234375,-0.1229095458984375,-0.1624298095703125
1761478272564552400,5.345552490234375,-1.0079803466796875,-0.120361328125,-0.1661224365234375
1761478272574588400,5.35558837890625,-1.020111083984375,-0.122802734375,-0.1714630126953125
1761478272584624600,5.365624755859375,-1.01702880859375,-0.1275482177734375,-0.17742919921875
1761478272594660600,5.37566064453125,-1.008453369140625,-0.130706787109375,-0.180511474609375
1761478272604696600,5.385696533203125,-1.00335693359375,-0.1318511962890625,-0.1838531494140625
1761478272614732500,5.395732666015625,-0.9987335205078125,-0.1293487548828125,-0.18585205078125
1761478272624768500,5.4057685546875,-0.998443603515625,-0.127227783203125,-0.1873321533203125
1761478272634804500,5.415804443359375,-0.99658203125,-0.12042236328125,-0.1882476806640625
1761478272644841500,5.425841552734375,-0.988800048828125,-0.11865234375,-0.18212890625
1761478272654877400,5.43587744140625,-0.9774322509765625,-0.1205596923828125,-0.17559814453125
1761478272664913400,5.445913330078125,-0.9720001220703125,-0.1193695068359375,-0.177032470703125
1761478272674949400,5.455949462890625,-0.9704132080078125,-0.121826171875,-0.1800384521484375
1761478272684985300,5.4659853515625,-0.9730224609375,-0.122528076171875,-0.1844482421875
1761478272695021300,5.476021240234375,-0.9850006103515625,-0.1218109130859375,-0.1920166015625
1761478272705057300,5.486057373046875,-0.9995880126953125,-0.120697021484375,-0.203399658203125
1761478272715093200,5.49609326171875,-1.0074310302734375,-0.1229705810546875,-0.20501708984375
1761478272725129500,5.50612939453125,-1.0009002685546875,-0.1277618408203125,-0.1954498291015625
1761478272735166500,5.51616650390625,-0.9900360107421875,-0.125885009765625,-0.1786346435546875
1761478272745202400,5.526202392578125,-0.9835662841796875,-0.1249237060546875,-0.161956787109375
1761478272755238700,5.53623876953125,-0.9785308837890625,-0.1236419677734375,-0.1557769775390625
1761478272765274600,5.546274658203125,-0.982147216796875,-0.12298583984375,-0.1620635986328125
1761478272775310600,5.556310546875,-0.9883575439453125,-0.124664306640625,-0.175048828125
1761478272785346600,5.5663466796875,-0.9940032958984375,-0.127044677734375,-0.182830810546875
1761478272795382500,5.576382568359375,-1.00091552734375,-0.1283111572265625,-0.183624267578125
1761478272805418500,5.58641845703125,-1.007080078125,-0.1281280517578125,-0.18292236328125
1761478272815455000,5.596455078125,-1.0112457275390625,-0.1257171630859375,-0.184539794921875
1761478272825492000,5.606491943359375,-1.0031890869140625,-0.127166748046875,-0.182373046875
1761478272835528000,5.61652783203125,-0.9912872314453125,-0.1280059814453125,-0.1756591796875
1761478272845564000,5.62656396484375,-0.9806671142578125,-0.126678466796875,-0.169952392578125
1761478272855599900,5.636599853515625,-0.9776458740234375,-0.1284942626953125,-0.1685943603515625
1761478272865635800,5.6466357421875,-0.9840850830078125,-0.1268310546875,-0.171661376953125
1761478272875671800,5.656671875,-0.9962005615234375,-0.1227874755859375,-0.1790618896484375
1761478272885707800,5.666707763671875,-1.0031585693359375,-0.12115478515625,-0.186187744140625
1761478272895743700,5.67674365234375,-0.99810791015625,-0.123626708984375,-0.191619873046875
1761478272905779700,5.68677978515625,-0.9860382080078125,-0.126434326171875,-0.1930389404296875
1761478272915816700,5.696816650390625,-0.973907470703125,-0.1284942626953125,-0.1881103515625
1761478272925852700,5.706852783203125,-0.966644287109375,-0.12628173828125,-0.18109130859375
1761478272935888600,5.716888671875,-0.9755706787109375,-0.122222900390625,-0.1748199462890625
1761478272945924900,5.7269248046875,-0.990936279296875,-0.119232177734375,-0.172210693359375
1761478272955960800,5.7369609375,-1.00439453125,-0.121185302734375,-0.1771240234375
1761478272965996800,5.746996826171875,-1.003082275390625,-0.124908447265625,-0.186248779296875
1761478272976033000,5.757032958984375,-0.9959716796875,-0.1292877197265625,-0.188446044921875
1761478272986069000,5.767069091796875,-0.9853668212890625,-0.1296234130859375,-0.185333251953125
1761478272996105000,5.77710498046875,-0.9796295166015625,-0.1273345947265625,-0.1814117431640625
1761478273006142000,5.787141845703125,-0.9852447509765625,-0.1251678466796875,-0.1785888671875
1761478273016178000,5.797177978515625,-0.9954071044921875,-0.118682861328125,-0.1825714111328125
1761478273026214000,5.8072138671875,-1.0074920654296875,-0.117645263671875,-0.1841278076171875
1761478273036249900,5.817249755859375,-1.007965087890625,-0.1223907470703125,-0.1802215576171875
1761478273046285800,5.827285888671875,-1.0010833740234375,-0.1243743896484375,-0.17547607421875
1761478273056321800,5.83732177734375,-0.9905853271484375,-0.1261749267578125,-0.1711578369140625
1761478273066357800,5.847357666015625,-0.984344482421875,-0.1271514892578125,-0.17279052734375
1761478273076393700,5.857393798828125,-0.98419189453125,-0.1276092529296875,-0.1786651611328125
1761478273086430000,5.867429931640625,-0.9837646484375,-0.1265411376953125,-0.186798095703125
1761478273096466700,5.877466796875,-0.983642578125,-0.1268768310546875,-0.190216064453125
1761478273106502700,5.887502685546875,-0.9859619140625,-0.1255950927734375,-0.1876373291015625
1761478273116539000,5.897538818359375,-0.989593505859375,-0.1213226318359375,-0.1824951171875
1761478273126574800,5.907574951171875,-0.992431640625,-0.120697021484375,-0.1781768798828125
1761478273136610800,5.91761083984375,-0.9952239990234375,-0.1235504150390625,-0.17791748046875
1761478273146646800,5.927646728515625,-0.995330810546875,-0.1237030029296875,-0.1802825927734375
1761478273156683000,5.93768310546875,-0.999603271484375,-0.123809814453125,-0.175323486328125
1761478273166719000,5.947718994140625,-1.002105712890625,-0.1241607666015625,-0.1735076904296875
1761478273176755000,5.9577548828125,-0.997772216796875,-0.1253509521484375,-0.1785430908203125
1761478273186792000,5.9677919921875,-0.988128662109375,-0.1303558349609375,-0.1864013671875
1761478273196828000,5.977827880859375,-0.9843292236328125,-0.130645751953125,-0.1905517578125
1761478273206864000,5.98786376953125,-0.9876861572265625,-0.125640869140625,-0.1841278076171875
1761478273216899800,5.99789990234375,-0.992767333984375,-0.1213226318359375,-0.1751556396484375
1761478273226935800,6.007935791015625,-0.9923858642578125,-0.117034912109375,-0.1728057861328125
1761478273236971800,6.0179716796875,-0.990478515625,-0.116119384765625,-0.1757659912109375
1761478273247007700,6.0280078125,-0.9898681640625,-0.120391845703125,-0.17901611328125
1761478273257043700,6.038043701171875,-0.9850616455078125,-0.1198272705078125,-0.182861328125
1761478273267080000,6.048079833984375,-0.9833831787109375,-0.1232147216796875,-0.185333251953125
1761478273277116700,6.05811669921875,-0.9845733642578125,-0.124114990234375,-0.1846923828125
1761478273287152600,6.068152587890625,-0.9892578125,-0.123809814453125,-0.1890716552734375
1761478273297188900,6.07818896484375,-0.9931488037109375,-0.125946044921875,-0.1918487548828125
1761478273307224800,6.088224853515625,-0.990509033203125,-0.1266937255859375,-0.1920166015625
1761478273317260800,6.0982607421875,-0.98748779296875,-0.127227783203125,-0.18792724609375
1761478273327297000,6.108297119140625,-0.9888916015625,-0.1259307861328125,-0.177703857421875
1761478273337333000,6.1183330078125,-0.9993743896484375,-0.1212005615234375,-0.1652069091796875
1761478273347369000,6.128368896484375,-1.0080718994140625,-0.11968994140625,-0.1583404541015625
1761478273357405000,6.138405029296875,-1.008148193359375,-0.12310791015625,-0.155914306640625
1761478273367441000,6.14844091796875,-1.0058135986328125,-0.1269378662109375,-0.166046142578125
1761478273377478000,6.158477783203125,-1.0029449462890625,-0.1281890869140625,-0.182891845703125
1761478273387513900,6.168513916015625,-0.994720458984375,-0.127105712890625,-0.195281982421875
1761478273397549800,6.1785498046875,-0.987457275390625,-0.1254730224609375,-0.1978759765625
1761478273407585800,6.188585693359375,-0.9800567626953125,-0.1237945556640625,-0.19097900390625
1761478273417621800,6.198621826171875,-0.971710205078125,-0.12396240234375,-0.1820220947265625
1761478273427657700,6.20865771484375,-0.9746246337890625,-0.1220245361328125,-0.174346923828125
1761478273437694000,6.21869384765625,-0.9837188720703125,-0.1206512451171875,-0.1745452880859375
1761478273447730000,6.22872998046875,-0.993438720703125,-0.120758056640625,-0.1806182861328125
1761478273457766000,6.238765869140625,-1.0006866455078125,-0.118865966796875,-0.1895294189453125
1761478273467801900,6.2488017578125,-0.9930419921875,-0.122467041015625,-0.1923675537109375
1761478273477838800,6.2588388671875,-0.9799957275390625,-0.127655029296875,-0.1907196044921875
1761478273487874800,6.268874755859375,-0.97381591796875,-0.128692626953125,-0.1871337890625
1761478273497910800,6.278910888671875,-0.97174072265625,-0.1292724609375,-0.1805419921875
1761478273507947000,6.288947021484375,-0.978240966796875,-0.1270751953125,-0.1755218505859375
1761478273517983000,6.29898291015625,-0.9909820556640625,-0.1228790283203125,-0.171966552734375
1761478273528019000,6.30901904296875,-1.0066070556640625,-0.1207275390625,-0.1693115234375
1761478273538055000,6.319054931640625,-1.0140228271484375,-0.119964599609375,-0.1718597412109375
1761478273548091000,6.3290908203125,-1.008056640625,-0.125,-0.1758575439453125
1761478273558126800,6.339126953125,-0.9996185302734375,-0.128021240234375,-0.1804656982421875
1761478273568163800,6.349163818359375,-0.99884033203125,-0.1275634765625,-0.186492919921875
1761478273578199800,6.35919970703125,-0.999664306640625,-0.1257171630859375,-0.1866912841796875
1761478273588235800,6.36923583984375,-0.9987335205078125,-0.1234893798828125,-0.1840057373046875
1761478273598271700,6.379271728515625,-0.99664306640625,-0.1205596923828125,-0.1790313720703125
1761478273608307700,6.3893076171875,-0.99603271484375,-0.1213836669921875,-0.1718597412109375
1761478273618344000,6.399343994140625,-0.9938507080078125,-0.122650146484375,-0.1691131591796875
1761478273628380000,6.4093798828125,-0.9917755126953125,-0.121917724609375,-0.1761932373046875
1761478273638416000,6.419415771484375,-0.9918670654296875,-0.1230926513671875,-0.186431884765625
1761478273648451800,6.429451904296875,-0.9902191162109375,-0.122100830078125,-0.1975250244140625
1761478273658487800,6.43948779296875,-0.9815826416015625,-0.1228790283203125,-0.2008056640625
1761478273668524800,6.44952490234375,-0.9709625244140625,-0.1269683837890625,-0.19525146484375
1761478273678561000,6.45956103515625,-0.9621124267578125,-0.1264495849609375,-0.1884613037109375
1761478273688597000,6.469596923828125,-0.96343994140625,-0.124420166015625,-0.1799774169921875
1761478273698633000,6.479633056640625,-0.97705078125,-0.121368408203125,-0.1732177734375
1761478273708669000,6.4896689453125,-0.9961395263671875,-0.1206512451171875,-0.1716461181640625
1761478273718705000,6.499704833984375,-1.00634765625,-0.1209564208984375,-0.1739349365234375
1761478273728740900,6.509740966796875,-1.0099334716796875,-0.1233367919921875,-0.173004150390625
1761478273738776800,6.51977685546875,-1.0120391845703125,-0.12615966796875,-0.17181396484375
1761478273748812800,6.529812744140625,-1.0086669921875,-0.1263427734375,-0.1728515625
1761478273758849000,6.53984912109375,-1.003173828125,-0.1247100830078125,-0.1729888916015625
1761478273768885800,6.5498857421875,-1.0064697265625,-0.1245574951171875,-0.178009033203125
1761478273778921700,6.559921630859375,-1.009246826171875,-0.1231536865234375,-0.18560791015625
1761478273788958000,6.5699580078125,-1.0037841796875,-0.1222991943359375,-0.1896514892578125
1761478273798994000,6.579993896484375,-0.996795654296875,-0.1217498779296875,-0.1890716552734375
1761478273809030400,6.590030517578125,-0.9900665283203125,-0.1198883056640625,-0.185638427734375
1761478273819066400,6.60006640625,-0.978851318359375,-0.1207733154296875,-0.1835174560546875
1761478273829102300,6.610102294921875,-0.9754486083984375,-0.119720458984375,-0.181182861328125
1761478273839138300,6.62013818359375,-0.9800872802734375,-0.1179351806640625,-0.18231201171875
1761478273849174300,6.63017431640625,-0.9827117919921875,-0.1189117431640625,-0.18621826171875
1761478273859211500,6.64021142578125,-0.9826812744140625,-0.122344970703125,-0.1919403076171875
1761478273869247500,6.65024755859375,-0.974029541015625,-0.1246795654296875,-0.1954345703125
1761478273879283500,6.660283447265625,-0.9706878662109375,-0.1227264404296875,-0.19024658203125
1761478273889319400,6.6703193359375,-0.975799560546875,-0.1229400634765625,-0.1787261962890625
1761478273899355400,6.68035546875,-0.9839630126953125,-0.122955322265625,-0.1696319580078125
1761478273909391400,6.690391357421875,-0.993499755859375,-0.122161865234375,-0.16864013671875
1761478273919427300,6.70042724609375,-1.002349853515625,-0.12274169921875,-0.1732025146484375
1761478273929463300,6.71046337890625,-1.01080322265625,-0.1258392333984375,-0.1824188232421875
1761478273939499300,6.720499267578125,-1.0146636962890625,-0.12506103515625,-0.1916656494140625
1761478273949535500,6.730535400390625,-1.0093841552734375,-0.1236724853515625,-0.194976806640625
1761478273959572200,6.740572265625,-1.0011749267578125,-0.1235809326171875,-0.18743896484375
1761478273969608200,6.750608154296875,-0.9936065673828125,-0.122406005859375,-0.1763153076171875
1761478273979644400,6.76064453125,-0.9885101318359375,-0.1247406005859375,-0.1689605712890625
1761478273989680400,6.770680419921875,-0.9853973388671875,-0.12847900390625,-0.1660308837890625
1761478273999716400,6.78071630859375,-0.987762451171875,-0.127197265625,-0.170745849609375
1761478274009752300,6.79075244140625,-0.992218017578125,-0.1234283447265625,-0.1816253662109375
1761478274019788300,6.800788330078125,-0.9919281005859375,-0.1217041015625,-0.1893463134765625
1761478274029824300,6.81082421875,-0.9860687255859375,-0.1238555908203125,-0.1923675537109375
1761478274039860200,6.820860107421875,-0.9807891845703125,-0.125091552734375,-0.1893157958984375
1761478274049896200,6.830896240234375,-0.981597900390625,-0.1253814697265625,-0.183074951171875
1761478274059933400,6.840933349609375,-0.982086181640625,-0.12493896484375,-0.174774169921875
1761478274069969400,6.850969482421875,-0.982147216796875,-0.12359619140625,-0.1695404052734375
1761478274080005400,6.86100537109375,-0.98406982421875,-0.12274169921875,-0.1689605712890625
1761478274090041300,6.871041259765625,-0.9936676025390625,-0.12054443359375,-0.1751708984375
1761478274100077300,6.881077392578125,-1.0008392333984375,-0.120635986328125,-0.1832275390625
1761478274110113300,6.89111328125,-1.0054168701171875,-0.12274169921875,-0.1884765625
1761478274120149200,6.901149169921875,-1.005340576171875,-0.12518310546875,-0.189788818359375
1761478274130185500,6.911185546875,-1.00177001953125,-0.128387451171875,-0.1869964599609375
1761478274140221400,6.921221435546875,-0.995147705078125,-0.127166748046875,-0.182708740234375
1761478274150257400,6.93125732421875,-0.9920806884765625,-0.12432861328125,-0.183074951171875
1761478274160294400,6.94129443359375,-0.9925537109375,-0.1217498779296875,-0.1802520751953125
1761478274170330400,6.951330322265625,-0.9947509765625,-0.1200103759765625,-0.173187255859375
1761478274180366300,6.961366455078125,-0.997589111328125,-0.1191253662109375,-0.1714019775390625
1761478274190402300,6.97140234375,-0.999755859375,-0.1231231689453125,-0.1755828857421875
1761478274200438300,6.981438232421875,-0.995513916015625,-0.12579345703125,-0.182586669921875
1761478274210474200,6.99147412109375,-0.9859466552734375,-0.1271820068359375,-0.1896514892578125
1761478274220510200,7.00151025390625,-0.9727935791015625,-0.1294097900390625,-0.1905517578125
1761478274230546400,7.01154638671875,-0.9632720947265625,-0.1280670166015625,-0.1862945556640625
1761478274240582400,7.02158251953125,-0.960968017578125,-0.122467041015625,-0.1839599609375
1761478274250618400,7.031618408203125,-0.9749755859375,-0.1188201904296875,-0.182586669921875
1761478274260654300,7.041654296875,-0.9964447021484375,-0.1175994873046875,-0.18359375
1761478274270691300,7.05169140625,-1.014373779296875,-0.1143646240234375,-0.188507080078125
1761478274280727300,7.061727294921875,-1.0201873779296875,-0.1163482666015625,-0.190948486328125
1761478274290763300,7.07176318359375,-1.01318359375,-0.119293212890625,-0.1900482177734375
1761478274300799500,7.081799560546875,-0.9975128173828125,-0.1239013671875,-0.1901397705078125
1761478274310835500,7.09183544921875,-0.987396240234375,-0.1288909912109375,-0.1858367919921875
1761478274320871400,7.101871337890625,-0.97332763671875,-0.1286773681640625,-0.181976318359375
1761478274330907400,7.111907470703125,-0.966827392578125,-0.1273651123046875,-0.1800079345703125
1761478274340943400,7.121943359375,-0.9756011962890625,-0.125518798828125,-0.1800994873046875
1761478274350979300,7.131979248046875,-0.979888916015625,-0.120880126953125,-0.183258056640625
1761478274361015300,7.142015380859375,-0.988189697265625,-0.1216583251953125,-0.1828765869140625
1761478274371052300,7.15205224609375,-0.99530029296875,-0.1218719482421875,-0.1816864013671875
1761478274381088300,7.162088134765625,-0.998016357421875,-0.1207275390625,-0.182342529296875
1761478274391124200,7.172124267578125,-0.9990997314453125,-0.122894287109375,-0.17889404296875
1761478274401160200,7.18216015625,-1.0032806396484375,-0.124603271484375,-0.1765899658203125
1761478274411196400,7.192196533203125,-1.000732421875,-0.125579833984375,-0.180084228515625
1761478274421232400,7.202232421875,-0.997344970703125,-0.1305389404296875,-0.17822265625
1761478274431268400,7.212268310546875,-0.9939727783203125,-0.127410888671875,-0.1797637939453125
1761478274441304300,7.22230419921875,-0.98858642578125,-0.124603271484375,-0.176055908203125
1761478274451340500,7.232340576171875,-0.9901580810546875,-0.124481201171875,-0.1704559326171875
1761478274461376500,7.24237646484375,-0.9924163818359375,-0.1201629638671875,-0.1765289306640625
1761478274471412500,7.25241259765625,-0.995361328125,-0.11761474609375,-0.1781768798828125
1761478274481449500,7.262449462890625,-1.0008697509765625,-0.1206512451171875,-0.1772308349609375
1761478274491485400,7.2724853515625,-1.0056304931640625,-0.1219329833984375,-0.1857757568359375
1761478274501521400,7.282521484375,-1.003631591796875,-0.122161865234375,-0.198455810546875
1761478274511557400,7.292557373046875,-0.9926300048828125,-0.1203155517578125,-0.20367431640625
1761478274521593300,7.30259326171875,-0.9734954833984375,-0.1273956298828125,-0.1946563720703125
1761478274531629300,7.31262939453125,-0.960784912109375,-0.13092041015625,-0.1798858642578125
1761478274541665300,7.322665283203125,-0.96240234375,-0.125457763671875,-0.1648712158203125
1761478274551701200,7.332701171875,-0.977081298828125,-0.123016357421875,-0.1573333740234375
1761478274561737200,7.3427373046875,-1.00140380859375,-0.1175079345703125,-0.1676788330078125
1761478274571773200,7.352773193359375,-1.0162506103515625,-0.1147003173828125,-0.185791015625
1761478274581810400,7.362810546875,-1.0135345458984375,-0.119171142578125,-0.194183349609375
1761478274591846400,7.372846435546875,-1.00177001953125,-0.123321533203125,-0.192596435546875
1761478274601882400,7.38288232421875,-0.9852294921875,-0.12945556640625,-0.185333251953125
1761478274611918300,7.39291845703125,-0.9759979248046875,-0.134735107421875,-0.178070068359375
1761478274621954600,7.40295458984375,-0.968963623046875,-0.1322021484375,-0.1751556396484375
1761478274631990500,7.412990478515625,-0.968536376953125,-0.1288604736328125,-0.172821044921875
1761478274642026500,7.423026611328125,-0.98370361328125,-0.123077392578125,-0.1747283935546875
1761478274652062500,7.4330625,-1.0009613037109375,-0.117584228515625,-0.17718505859375
1761478274662098400,7.443098388671875,-1.00946044921875,-0.115997314453125,-0.17718505859375
1761478274672134400,7.453134521484375,-1.016143798828125,-0.1160888671875,-0.178863525390625
1761478274682170400,7.46317041015625,-1.014068603515625,-0.1177825927734375,-0.1839752197265625
1761478274692207400,7.473207275390625,-1.0046539306640625,-0.121734619140625,-0.184906005859375
1761478274702243300,7.483243408203125,-0.9927520751953125,-0.123138427734375,-0.18975830078125
1761478274712279300,7.493279296875,-0.98974609375,-0.122344970703125,-0.1945037841796875
1761478274722315300,7.503315185546875,-0.986968994140625,-0.12249755859375,-0.19464111328125
1761478274732351200,7.513351318359375,-0.98809814453125,-0.1223907470703125,-0.188690185546875
1761478274742387200,7.52338720703125,-0.9935760498046875,-0.119720458984375,-0.187225341796875
1761478274752423200,7.533423095703125,-0.9921417236328125,-0.1160125732421875,-0.18731689453125
1761478274762459400,7.54345947265625,-0.98516845703125,-0.1148529052734375,-0.1872711181640625
1761478274772495400,7.553495361328125,-0.979217529296875,-0.117431640625,-0.1861724853515625
1761478274782531300,7.56353125,-0.9762115478515625,-0.1191253662109375,-0.1880645751953125
1761478274792567300,7.5735673828125,-0.9763336181640625,-0.1201324462890625,-0.1953582763671875
1761478274802604500,7.5836044921875,-0.9797210693359375,-0.1234588623046875,-0.190643310546875
1761478274812639500,7.593639404296875,-0.9856109619140625,-0.1262969970703125,-0.17987060546875
1761478274822675500,7.603675537109375,-0.9925079345703125,-0.1244964599609375,-0.1765289306640625
1761478274832711400,7.61371142578125,-0.99993896484375,-0.124298095703125,-0.175750732421875
1761478274842747400,7.623747314453125,-1.001129150390625,-0.127838134765625,-0.1785736083984375
1761478274852783400,7.633783447265625,-1.001678466796875,-0.1272735595703125,-0.178924560546875
1761478274862819300,7.6438193359375,-1.002227783203125,-0.1254119873046875,-0.17218017578125
1761478274872855600,7.65385546875,-1.004669189453125,-0.1246795654296875,-0.168609619140625
1761478274882891500,7.6638916015625,-1.0046234130859375,-0.124237060546875,-0.171234130859375
1761478274892927500,7.673927490234375,-0.9990997314453125,-0.1266021728515625,-0.1762237548828125
1761478274902963500,7.68396337890625,-0.992401123046875,-0.1304473876953125,-0.182952880859375
1761478274913000400,7.69400048828125,-0.988494873046875,-0.128997802734375,-0.183685302734375
1761478274923036400,7.704036376953125,-0.991455078125,-0.123382568359375,-0.1788177490234375
1761478274933072400,7.714072265625,-0.99456787109375,-0.1177978515625,-0.1814422607421875
1761478274943108600,7.724108642578125,-0.997222900390625,-0.1164093017578125,-0.1857452392578125
1761478274953144600,7.73414453125,-0.9936981201171875,-0.1183929443359375,-0.189178466796875
1761478274963180500,7.7441806640625,-0.9848480224609375,-0.1225738525390625,-0.188873291015625
1761478274973216500,7.754216552734375,-0.9748382568359375,-0.1285400390625,-0.1831817626953125
1761478274983252500,7.76425244140625,-0.96612548828125,-0.130950927734375,-0.1837310791015625
1761478274993288400,7.774288330078125,-0.9609222412109375,-0.1290435791015625,-0.1881561279296875
1761478275003324400,7.784324462890625,-0.9644927978515625,-0.1266326904296875,-0.188690185546875
1761478275013360400,7.7943603515625,-0.9797210693359375,-0.123321533203125,-0.1827392578125
1761478275023397400,7.8043974609375,-0.9966278076171875,-0.116729736328125,-0.1791839599609375
1761478275033433300,7.814433349609375,-1.0132293701171875,-0.1156158447265625,-0.1797637939453125
1761478275043469300,7.82446923828125,-1.023101806640625,-0.122161865234375,-0.1819915771484375
1761478275053505500,7.834505615234375,-1.021484375,-0.1247100830078125,-0.186798095703125
1761478275063541500,7.84454150390625,-1.0060882568359375,-0.1270904541015625,-0.1866607666015625
1761478275073577500,7.854577392578125,-0.984222412109375,-0.13018798828125,-0.1831512451171875
1761478275083613400,7.864613525390625,-0.973663330078125,-0.1324462890625,-0.172027587890625
1761478275093649400,7.8746494140625,-0.9716339111328125,-0.1286163330078125,-0.16461181640625
1761478275103685400,7.884685302734375,-0.982452392578125,-0.12750244140625,-0.164398193359375
1761478275113721300,7.894721435546875,-0.99530029296875,-0.126495361328125,-0.173126220703125
1761478275123757300,7.90475732421875,-1.00799560546875,-0.1248016357421875,-0.187469482421875
1761478275133794600,7.914794677734375,-1.0110931396484375,-0.126129150390625,-0.194671630859375
1761478275143830500,7.92483056640625,-1.0013580322265625,-0.126068115234375,-0.190460205078125
1761478275153866500,7.934866455078125,-0.990447998046875,-0.1256256103515625,-0.1775665283203125
1761478275163902500,7.94490234375,-0.9754486083984375,-0.127716064453125,-0.1651458740234375
1761478275173938400,7.9549384765625,-0.966033935546875,-0.1279449462890625,-0.16339111328125
1761478275183974400,7.964974365234375,-0.9670257568359375,-0.12481689453125,-0.1769561767578125
1761478275194010600,7.9750107421875,-0.976348876953125,-0.1249542236328125,-0.18560791015625
1761478275204046600,7.985046630859375,-0.9915618896484375,-0.1234893798828125,-0.1886138916015625
1761478275214082600,7.99508251953125,-1.0038604736328125,-0.122833251953125,-0.19439697265625
1761478275224118500,8.005118408203124,-1.0143585205078125,-0.1190643310546875,-0.198272705078125
1761478275234153500,8.015153564453126,-1.0137786865234375,-0.11865234375,-0.1928253173828125
1761478275244190500,8.0251904296875,-1.00579833984375,-0.1222991943359375,-0.1881256103515625
1761478275254226400,8.035226318359374,-0.9986114501953125,-0.1223602294921875,-0.1890411376953125
1761478275264262400,8.045262451171874,-0.989715576171875,-0.12457275390625,-0.184783935546875
1761478275274298400,8.05529833984375,-0.9808807373046875,-0.1271209716796875,-0.1743621826171875
1761478275284334300,8.065334228515624,-0.9848785400390625,-0.1252288818359375,-0.16815185546875
1761478275294370300,8.075370361328124,-0.993377685546875,-0.1227264404296875,-0.1741485595703125
1761478275304406500,8.085406494140624,-0.9943389892578125,-0.125152587890625,-0.1840057373046875
1761478275314442500,8.0954423828125,-0.99078369140625,-0.1292724609375,-0.187835693359375
1761478275324478500,8.105478515625,-0.9869384765625,-0.1290435791015625,-0.189300537109375
1761478275334514400,8.115514404296874,-0.9863739013671875,-0.1265869140625,-0.1827850341796875
1761478275344550400,8.12555029296875,-0.980987548828125,-0.1260833740234375,-0.1728973388671875
1761478275354587600,8.135587646484375,-0.9818115234375,-0.12591552734375,-0.1684417724609375
1761478275364623600,8.14562353515625,-0.9869384765625,-0.12738037109375,-0.1724395751953125
1761478275374659600,8.15565966796875,-0.9935455322265625,-0.1289520263671875,-0.1874542236328125
1761478275384695600,8.165695556640625,-0.99176025390625,-0.12890625,-0.1982421875
1761478275394731500,8.1757314453125,-0.983856201171875,-0.127960205078125,-0.1904449462890625
1761478275404767500,8.185767578125,-0.9810638427734375,-0.1253204345703125,-0.17626953125
1761478275414803500,8.195803466796875,-0.98388671875,-0.124267578125,-0.172821044921875
1761478275424839400,8.20583935546875,-0.9992523193359375,-0.1202545166015625,-0.179534912109375
1761478275434875400,8.21587548828125,-1.0203399658203125,-0.122589111328125,-0.191162109375
1761478275444911400,8.225911376953125,-1.027099609375,-0.1233673095703125,-0.202178955078125
1761478275454947600,8.235947509765625,-1.00665283203125,-0.1222381591796875,-0.199432373046875
1761478275464983600,8.245983642578125,-0.9684600830078125,-0.1280059814453125,-0.1834716796875
1761478275475020300,8.256020263671875,-0.9375,-0.1167449951171875,-0.1740264892578125
1761478275485056500,8.266056396484375,-0.8665771484375,-0.089691162109375,-0.1757965087890625
1761478275495092500,8.276092529296875,-0.997039794921875,-0.15899658203125,-0.143218994140625
1761478275505128400,8.28612841796875,-1.0911102294921875,-0.170989990234375,-0.1813507080078125
1761478275515164400,8.296164306640625,-1.1163787841796875,-0.1217041015625,-0.191162109375
1761478275525200400,8.306200439453125,-1.0970611572265625,-0.13031005859375,-0.183868408203125
1761478275535236400,8.316236328125,-1.0499114990234375,-0.1385498046875,-0.182464599609375
1761478275545272300,8.326272216796875,-1.003570556640625,-0.143280029296875,-0.164764404296875
1761478275555308300,8.336308349609375,-0.922027587890625,-0.147735595703125,-0.146728515625
1761478275565344300,8.34634423828125,-0.896392822265625,-0.1304473876953125,-0.1507568359375
1761478275575380200,8.356380126953125,-0.8918609619140625,-0.12591552734375,-0.1601715087890625
1761478275585417500,8.36641748046875,-0.8997650146484375,-0.099212646484375,-0.1820831298828125
