time,seconds_elapsed,z,y,x
1761478267306882600,0.087882568359375,0.1706657787412405,0.0053803047988563776,0.10091580455824732
1761478267316918500,0.09791845703125,0.13340192375183105,-0.035657369640842075,0.018093290573358536
1761478267326954500,0.10795458984375,0.10806991409659385,-0.06977116310149431,-0.07750000378787517
1761478267336991700,0.11799169921875,0.011526771664619444,-0.10658756658434868,-0.16360665400996804
1761478267347027700,0.12802783203125,-0.09746785606145858,-0.0643636780347675,-0.27737390296533704
1761478267357063700,0.138063720703125,-0.07574234646558761,-0.013286840139701961,-0.29248057894334195
1761478267367099600,0.148099609375,-0.10701894373893737,-0.026239406823739406,-0.10248641487583518
1761478267377135900,0.158135986328125,-0.17099544908702372,-0.01886610157676041,0.080683894520998
1761478267387171800,0.168171875,-0.1680728396385908,0.05164272814951837,0.1433025555193424
1761478267397207800,0.178207763671875,-0.17979425709247587,0.03197144766971469,0.1075916290603578
1761478267407243800,0.188243896484375,-0.21429449258744715,-0.0074071344513446085,0.04485007233470678
1761478267417279700,0.19827978515625,-0.2296118887066841,-0.000003799392282962799,-0.05589373665750026
1761478267427315700,0.208315673828125,-0.2581687056273222,-0.033404695343226196,-0.04107537610158324
1761478267437352700,0.218352783203125,-0.27760347393751145,-0.06382533337436616,-0.010301467653363943
1761478267447388700,0.228388671875,-0.29762802483439443,-0.0407645565867424,-0.06630933220982552
1761478267457424600,0.238424560546875,-0.2984580459177494,-0.03460113858617842,-0.08984905162081122
1761478267467460600,0.248460693359375,-0.19913667094409465,-0.044084713985398406,-0.09879632818624377
1761478267477496600,0.25849658203125,-0.08341711887717247,-0.02086611628755927,-0.05058116333261132
1761478267487532500,0.268532470703125,-0.08159224153757094,-0.009658347444236277,0.028936610018461942
1761478267497568500,0.278568603515625,-0.07607493942081928,-0.004215571868419647,0.01490311622992158
1761478267507604500,0.2886044921875,-0.07907002958357334,0.00940188846513629,-0.022649784833937883
1761478267517640700,0.298640625,-0.14547931503653524,0.009768310624733567,-0.04770487724393606
1761478267527677700,0.308677734375,-0.2070031665354967,-0.00040478140860795975,-0.031034605211019514
1761478267537713700,0.318713623046875,-0.21078677672743795,-0.024821648980304596,0.02297536352649331
1761478267547749600,0.32874951171875,-0.25406945361495015,-0.011238090916350483,0.03923866219371557
1761478267557785900,0.338785888671875,-0.3057867813706398,0.016516469710692764,-0.023678104968369005
1761478267567821800,0.34882177734375,-0.3433785531401634,-0.0028263094671070574,-0.10302578244954347
1761478267577857800,0.35885791015625,-0.28007658605277536,-0.025824396282061932,-0.16089973313882946
1761478267587893800,0.368893798828125,-0.14251754262149333,-0.02750460445396602,-0.11943901098147033
1761478267597929700,0.3789296875,0.016653613159060478,-0.02487958971261978,0.02295037521570921
1761478267607965700,0.388965576171875,0.07626257094740867,-0.02692475873939693,0.13561886914893984
1761478267618001700,0.399001708984375,0.046398763081431385,0.006229834300279617,0.11145225001126527
1761478267628038700,0.40903857421875,-0.003496609944105148,0.03149038615450263,0.004409633135795593
1761478267638074600,0.41907470703125,-0.04119359565377235,0.018751681416854262,-0.06934080886021256
1761478267648110600,0.429110595703125,-0.05842822357118129,0.04507167919613421,-0.11480813631042837
1761478267658146600,0.439146484375,-0.07236848611831664,0.03632489363886416,-0.12856237476617097
1761478267668182500,0.4491826171875,-0.07554185545742512,-0.01060213110037148,-0.06498641304299235
1761478267678218500,0.459218505859375,-0.049915831291675566,-0.022419921600818633,-0.0011992927871644495
1761478267688254700,0.469254638671875,-0.11982114216685294,0.014614435481652617,-0.012195172445476054
1761478267698290700,0.479290771484375,-0.2502572018504143,0.029656960182264446,-0.007921879040449857
1761478267708326700,0.48932666015625,-0.31168402271568774,0.04208404168747365,-0.05248085947409272
1761478267718363600,0.49936376953125,-0.2810328638643026,0.036633813457563516,-0.059815001754462714
1761478267728400000,0.50939990234375,-0.23742753089368343,-0.018834683525189758,-0.05455445087775588
1761478267738435800,0.519435791015625,-0.18818623786270616,-0.0694962916828692,-0.10050283984318376
1761478267748471800,0.529471923828125,-0.12666472445130347,-0.08236388349719345,-0.1251715632840991
1761478267758507800,0.5395078125,-0.1281844813644886,-0.08210925114899874,-0.03428600822240114
1761478267768543700,0.549543701171875,-0.21291268284022807,-0.03137150901518762,0.07561813556402922
1761478267778579700,0.559579833984375,-0.2279208668798208,0.05223587173707783,0.07219239889904856
1761478267788615700,0.56961572265625,-0.2373626489639282,0.053034474768862125,0.03372691303491592
1761478267798651600,0.579651611328125,-0.2023287449836731,0.012416560111194849,0.010142769960314034
1761478267808687000,0.58968701171875,-0.14748831677138804,-0.005629895645752549,0.026399200495332478
1761478267818724000,0.59972412109375,-0.11006196469664573,0.00824964969009161,-0.0014024141438305378
1761478267828760000,0.609760009765625,-0.10129179826378822,0.006387582145258784,-0.06236483236774802
1761478267838796000,0.619796142578125,-0.09315583808124064,-0.009602379473298787,-0.09565379237681627
1761478267848832300,0.629832275390625,-0.07584580684006213,-0.002993774988502264,-0.06989084395840764
1761478267858868200,0.6398681640625,-0.06960603566765784,0.05482837244831025,-0.07043839483857155
1761478267868904200,0.649904296875,-0.03228898918628693,0.05391995236650109,-0.09032558309137821
1761478267878940200,0.659940185546875,0.04686404250562191,-0.03392353158555925,-0.10955123869553207
1761478267888976100,0.66997607421875,0.09645721771419048,-0.0675095748450607,-0.09347893255576491
1761478267899012000,0.68001220703125,-0.06171674372255802,-0.03070069708153605,-0.02286956506446004
1761478267909049300,0.69004931640625,-0.3123597300201654,0.023300138501450417,0.04850260349288583
1761478267919085300,0.700085205078125,-0.4385235192120075,0.06277370542958378,0.009826105226576327
1761478267929121300,0.710121337890625,-0.3293091112554073,0.04238755467869341,-0.07389628020748495
1761478267939157200,0.7201572265625,-0.18038754681050775,0.012878843860700725,-0.16292875474840401
1761478267949193200,0.730193115234375,-0.08027472919821739,0.001326718559116125,-0.21655060095116493
1761478267959229200,0.740229248046875,0.023952537995576857,-0.029697876714542507,-0.15818170635178685
1761478267969265200,0.75026513671875,0.11614216139316558,-0.10650514899790287,0.0031194471947848797
1761478267979301000,0.760301025390625,0.14943886631727218,-0.08561177937723696,0.10631357194855809
1761478267989337000,0.770337158203125,0.020598551392555235,-0.022327494077011942,0.07875278032794594
1761478267999374000,0.7803740234375,-0.17074644276201725,-0.0012646861735731362,0.025094986028969285
1761478268009410000,0.79041015625,-0.2764268313735723,-0.030074820268154143,-0.005081833308935165
1761478268019446000,0.800446044921875,-0.3174485775917768,-0.03986446594186127,-0.03217661485299468
1761478268029482200,0.810482177734375,-0.308572612696886,-0.03968370254747569,-0.03558218551278114
1761478268039518200,0.820518310546875,-0.2768207991272211,-0.03748896898217499,0.021315759751200675
1761478268049554200,0.83055419921875,-0.2488081720858812,-0.044775180467590686,0.06155263920202851
1761478268059590100,0.840590087890625,-0.1864338412374258,-0.0756518186379224,0.05994359657019376
1761478268069626000,0.850626220703125,-0.1809481033027172,-0.04517937735430896,0.04413271784558892
1761478268079662000,0.860662109375,-0.19120470890104768,-0.019490590150654314,0.0059784898877143855
1761478268089699300,0.87069921875,-0.1391857678502798,-0.007001695455610752,-0.020061375775933265
1761478268099735300,0.8807353515625,-0.09746025727689266,0.004293897801637649,-0.005900310084968805
1761478268109771300,0.890771240234375,-0.0667629211962223,0.019709566663578152,0.046584348781406874
1761478268119807200,0.90080712890625,-0.10430617764890193,0.019278043378517032,0.07163023497164249
1761478268129843200,0.91084326171875,-0.12410919474959373,0.0010297083739191292,0.036229689636081454
1761478268139879200,0.920879150390625,-0.1223807635217905,0.0026619857508689165,-0.035730069550871844
1761478268149915100,0.9309150390625,-0.12859890738427637,0.003003638795390725,-0.09048734952434898
1761478268159951000,0.940951171875,-0.12429624175429344,-0.029809812656417488,-0.1013017351359129
1761478268169988000,0.950988037109375,-0.1335954004973173,0.002909896097332239,-0.06849661312103271
1761478268180024000,0.961024169921875,-0.18291092780828475,0.050509778596833345,-0.011059446413815021
1761478268190060000,0.97106005859375,-0.2609521988660097,0.032262466505542396,-0.023148820397257804
1761478268200096300,0.98109619140625,-0.2816869438588619,0.02717880656570196,-0.11558014359623194
1761478268210132200,0.99113232421875,-0.14846388380527495,0.005623319774493575,-0.12524711273834108
1761478268220168200,1.001168212890625,-0.006544307076930999,-0.011332345071062445,-0.06177636495530605
1761478268230204200,1.0112041015625,0.06941022083461285,-0.015760098385438324,-0.002305646593868732
1761478268240240000,1.021240234375,0.08316986611783504,-0.03300364026166498,0.002006809777766466
1761478268250276000,1.031276123046875,-0.005960369709134101,0.013851488285139203,-0.06175181503593921
1761478268260313300,1.041313232421875,-0.11203998677134513,0.019214403557777402,-0.0965991104029119
1761478268270349300,1.051349365234375,-0.14218553418815136,-0.027442791264131662,-0.0455441920787096
1761478268280385300,1.06138525390625,-0.14664835881590843,-0.06297521935105324,-0.007906827601790428
1761478268290421200,1.071421142578125,-0.23847207151055336,-0.04839768181368708,-0.0531733717828989
1761478268300457200,1.081457275390625,-0.33079028972387314,-0.0011394523587077855,-0.07300941437035799
1761478268310493200,1.0914931640625,-0.32673604589700694,-0.028906141814962028,0.028260610453039407
1761478268320529200,1.101529052734375,-0.3089016985207796,-0.03267068198025226,0.10903437521457672
1761478268330565000,1.111565185546875,-0.24774726485610007,0.01980791247151792,0.07173077273666859
1761478268340602000,1.12160205078125,-0.22798282620012758,-0.009787526781857013,0.01212020751312375
1761478268350638000,1.13163818359375,-0.17152327235341072,-0.021453268525749445,-0.049938043123483655
1761478268360674000,1.141674072265625,-0.055440147671103474,-0.0032725919298827646,-0.0698467125557363
1761478268370710000,1.1517099609375,0.004781973579525947,-0.011373407733812927,-0.006498275978118181
1761478268380746200,1.161746337890625,-0.050014615491032595,0.014275047459453344,0.007964549138396977
1761478268390782200,1.1717822265625,-0.11497077952623366,0.04653583346456289,-0.004287906452268362
1761478268400818200,1.181818115234375,-0.15171090290248393,0.03075790716148913,-0.025495383523404597
1761478268410854100,1.191854248046875,-0.1000549499452114,-0.006974003731086849,-0.09029358051791786
1761478268420890000,1.20189013671875,-0.09054244071245193,-0.0430956298828125,-0.11851780448332429
1761478268430927400,1.21192724609375,-0.13150281213223933,-0.02168283949792385,-0.1465799697548151
1761478268440963300,1.22196337890625,-0.18238310454189777,0.010176233838498592,-0.08048574160039425
1761478268450999300,1.231999267578125,-0.13697101441025733,-0.005567497934028506,0.021817279532551765
1761478268461035300,1.24203515625,-0.10176467647254467,-0.0016685907993465661,0.0576775513343513
1761478268471071200,1.2520712890625,-0.12585223902463913,-0.012897986952587962,0.041152240730077026
1761478268481107200,1.262107177734375,-0.1509884338468313,-0.04472688434645533,0.018167670983821153
1761478268491143200,1.27214306640625,-0.14320435584187508,-0.05631890326701104,0.011985475217550992
1761478268501179100,1.28217919921875,-0.16549042192995547,-0.06118482880294323,0.034072511602193115
1761478268511216000,1.292216064453125,-0.19137597381472587,-0.061208063548058265,0.035897827333211896
1761478268521252000,1.302252197265625,-0.18432605530321597,-0.038931349810212845,0.0050746729157865045
1761478268531288000,1.3122880859375,-0.1916454384058714,-0.02205634898543358,-0.014805647204816341
1761478268541324000,1.322323974609375,-0.15946575481295586,0.005740224152430892,-0.04588423768803477
1761478268551360300,1.3323603515625,-0.1392956579655409,0.007711378094926476,-0.02039908329769969
1761478268561396200,1.342396240234375,-0.17269173161089418,0.039300329253077505,-0.004204465952515602
1761478268571432200,1.35243212890625,-0.19192893152236937,0.035323169250413775,-0.0043771921709179875
1761478268581468200,1.36246826171875,-0.21162322755157947,0.02002886174581945,-0.04007862014919519
1761478268591505400,1.37250537109375,-0.15420973398089408,0.02839417370483279,-0.09946984353363514
1761478268601541400,1.382541259765625,-0.03321078020632267,0.010884016781672834,-0.12735095314979553
1761478268611577300,1.392577392578125,0.07664601730704307,-0.006631693099439144,-0.08808058064356446
1761478268621613300,1.40261328125,0.09448036468327045,-0.01633534099012613,-0.05559855310320854
1761478268631649300,1.412649169921875,-0.021534955459833145,-0.011859656880795955,-0.015337854385375976
1761478268641685200,1.422685302734375,-0.21849194427728652,0.009557079026848077,-0.017701953168213366
1761478268651721200,1.43272119140625,-0.3630424540311098,0.02695164674632251,-0.044257221008092165
1761478268661757200,1.442757080078125,-0.38623336000442504,0.01839453854225576,-0.04096475533396005
1761478268671793200,1.452793212890625,-0.29702538276612755,0.016029416846111415,-0.08249868885800242
1761478268681830100,1.462830078125,-0.11619886001646518,-0.010594532315805554,-0.090842592702806
1761478268691866000,1.4728662109375,-0.02572890001833439,-0.04358677440062165,-0.10015914097204803
1761478268701902000,1.482902099609375,-0.04903437228202819,-0.020192747070640324,-0.13201266135051845
1761478268711938000,1.49293798828125,-0.06876373962461949,-0.06156221074797213,-0.06664514003545045
1761478268721974000,1.50297412109375,-0.12747662535607815,-0.04065985410325229,0.04561974153295159
1761478268732010200,1.51301025390625,-0.17803835333585738,-0.010036898433044552,0.1167424653738737
1761478268742046200,1.523046142578125,-0.23089023807942866,-0.020241554648429153,0.15286416459083557
1761478268752083200,1.533083251953125,-0.22816811963915823,-0.040008258326724166,0.1157312425047159
1761478268762119200,1.543119140625,-0.2031599351108074,-0.04320018623583018,0.05140606984943151
1761478268772155400,1.5531552734375,-0.1955050364434719,-0.07735387331545353,0.03031856589615345
1761478268782191400,1.56319140625,-0.1970779848486185,-0.07643493183963,-0.0049887481980025765
1761478268792227300,1.573227294921875,-0.20342180091738699,-0.05885134435407817,-0.06638327422887086
1761478268802263300,1.58326318359375,-0.2113601927012205,-0.04461969764493406,-0.09161401546671986
1761478268812299000,1.593299072265625,-0.22463000864088534,-0.01985686617977917,-0.09361118063330649
1761478268822335000,1.6033349609375,-0.18827099353671073,0.018201646318659184,-0.05652911195158958
1761478268832371000,1.613370849609375,-0.14446867668926716,0.06585662000626326,-0.025937574332952497
1761478268842408200,1.623408203125,-0.01442658475935459,0.044151714807003736,-0.00009191606715321541
1761478268852444200,1.633444091796875,0.09628069210350512,0.011783888230845332,-0.0027395079664885996
1761478268862480100,1.643480224609375,0.09517243860065937,-0.0062287383217364545,-0.04573620751947164
1761478268872516000,1.65351611328125,-0.0061836570709943766,-0.012609598465263843,-0.1092833815395832
1761478268882552000,1.663552001953125,-0.0971358476281166,-0.0032091713048517704,-0.16333382841795682
1761478268892588000,1.673588134765625,-0.15692542268037796,-0.013792305443808436,-0.1570148545295
1761478268902624300,1.683624267578125,-0.2746282575190067,0.015403247771784662,-0.1127067801170051
1761478268912660200,1.69366015625,-0.36130993115007876,0.042265535734221336,-0.0711766459852457
1761478268922697000,1.703697021484375,-0.3368938672959804,0.0009728636201471089,-0.012830109348148107
1761478268932733200,1.713733154296875,-0.21005495532155036,-0.03467946451939642,0.029730683005601166
1761478268942769200,1.72376904296875,-0.06321428880393505,-0.04038637092411518,0.014556640879809856
1761478268952805000,1.73380517578125,0.025077742633223533,-0.049465018784254786,0.005164981547743082
1761478268962841000,1.743841064453125,0.055746437141299246,-0.05461779843755066,-0.0002307400159537792
1761478268972877000,1.753876953125,0.02002981159389019,-0.04454831290915608,0.006290186185389757
1761478268982913000,1.7639130859375,-0.06812661076486111,-0.07152326746582985,0.062357087452709674
1761478268992949000,1.773948974609375,-0.19389058698415756,-0.06755991679280995,0.08646963831558824
1761478269002986000,1.783986083984375,-0.2766208926409483,-0.048129751592502,0.054998395252972836
1761478269013022200,1.794022216796875,-0.3257961346983909,-0.03414141211993992,0.010520078840106726
1761478269023058200,1.80405810546875,-0.29520518160164355,-0.003712590782344341,-0.024829320830106735
1761478269033094100,1.81409423828125,-0.25447043563127514,0.03462042780853808,-0.04262552815303206
1761478269043130000,1.824130126953125,-0.24048984107375143,0.02306793718077242,-0.044796150190383195
1761478269053166000,1.834166015625,-0.21910569226145743,0.018014672379195688,-0.042076515968143935
1761478269063202000,1.8442021484375,-0.19919395408928392,0.002504018710181117,-0.062829235009104
1761478269073238000,1.854238037109375,-0.08863865291774273,-0.04073131190426647,-0.09900573315322399
1761478269083275000,1.86427490234375,0.015236732098460196,-0.07844415277019143,-0.09699234750419855
1761478269093311000,1.87431103515625,0.03782967217862606,-0.06681465138345956,-0.07930895290598272
1761478269103347000,1.884346923828125,-0.05567395642697811,-0.02263984796181321,-0.07928411072567104
1761478269113383200,1.894383056640625,-0.14509762224256992,0.007601487979665398,-0.039066666627675294
1761478269123419100,1.904419189453125,-0.16828794369399547,0.0266045868743211,0.00976779916808009
1761478269133455000,1.914455078125,-0.13877835609316824,0.0048608840346336364,0.03300108297839761
1761478269143491000,1.924490966796875,-0.11620002906024456,-0.014118322527781129,0.041317075902968646
1761478269153527000,1.934527099609375,-0.11656301715373993,0.0020868162114173173,0.025373802970349787
1761478269163564000,1.94456396484375,-0.17481646867990494,-0.043948228124156594,0.03302007993981242
1761478269173600000,1.95460009765625,-0.240887900480628,-0.06298968626782298,0.027294541899859904
1761478269183636000,1.964635986328125,-0.26890286560952664,-0.03604826865456998,-0.03236395411863923
1761478269193672200,1.974672119140625,-0.24255495691001414,-0.04206599457412958,-0.06032514323368668
1761478269203708200,1.984708251953125,-0.19931611916422842,-0.0429923156388104,-0.06467910065948963
1761478269213744000,1.994744140625,-0.1331429805546999,-0.03564326805025339,-0.06952098773270846
1761478269223780000,2.004780029296875,-0.06911679084599018,-0.033436113394796844,-0.053718146184086796
1761478269233816000,2.014816162109375,-0.0016144494593143461,-0.026976927318051454,-0.02898614824861288
1761478269243853000,2.02485302734375,-0.06276420694887638,-0.007177198152989148,-0.008967296440154314
1761478269253889000,2.034888916015625,-0.17003098796904087,0.019442951616644857,-0.027486265079677105
1761478269263925000,2.044925048828125,-0.153268069216609,-0.029610125365853307,-0.015733429574221372
1761478269273961000,2.0549609375,-0.06687339583337307,-0.06131035487875342,0.005256020832061767
1761478269283997200,2.0649970703125,-0.0278197348177433,-0.03457615027539432,0.02468684361949563
1761478269294033200,2.075033203125,-0.10387830762565135,-0.02490888887234032,0.03604731880649924
1761478269304069000,2.085069091796875,-0.17319500495791434,-0.012132701668515801,0.014833558125048874
1761478269314105000,2.09510498046875,-0.2332715802580118,-0.006532981965318322,0.00281944133490324
1761478269324142000,2.10514208984375,-0.21484043603241443,-0.0005288461796939373,-0.008975333616137504
1761478269334178000,2.115177978515625,-0.12776771725714206,-0.008017667565122247,-0.03894596285745501
1761478269344214000,2.125214111328125,-0.10091419712305068,-0.02698357625454664,-0.0831710351616144
1761478269354250000,2.13525,-0.12607026568949223,-0.02872610907293856,-0.08055603035762905
1761478269364286200,2.1452861328125,-0.16320786395072936,-0.012263415376096962,-0.029520108994841573
1761478269374322200,2.155322265625,-0.19060557396411895,-0.006444280768558383,-0.05823635426089167
1761478269384358100,2.165358154296875,-0.19138591068685054,0.037544717757403846,-0.11209288600236177
1761478269394394000,2.17539404296875,-0.13278583768010138,0.07170848783962429,-0.15388357076644896
1761478269404430000,2.18543017578125,-0.09472469483315944,0.0640706864375621,-0.13390768131688235
1761478269414467000,2.195467041015625,-0.1194569850295782,0.016113661063462494,-0.05651961347088218
1761478269424503000,2.2055029296875,-0.19898294168710706,-0.015174772778153418,-0.04302592564746737
1761478269434539000,2.2155390625,-0.29008067819476124,-0.01706672400459647,-0.09876914791837334
1761478269444575000,2.225574951171875,-0.35253508854210375,-0.018242635916173457,-0.12466200632676482
1761478269454611000,2.23561083984375,-0.3130962276011705,-0.0020181348893791437,-0.1378416597649455
1761478269464647200,2.245647216796875,-0.2392974164187908,-0.011345789074525237,-0.10023819755762815
1761478269474683100,2.25568310546875,-0.09851064311265945,-0.0634360417958349,-0.02447758478298783
1761478269484719000,2.265718994140625,0.06528115820586682,-0.06082059860043227,0.04027969567924738
1761478269494756000,2.275756103515625,0.1366542035460472,-0.06845905758962034,0.09968173271864653
1761478269504792000,2.2857919921875,0.09107201754450797,-0.07383475927859544,0.125706985335052
1761478269514828000,2.295828125,-0.06913374198079109,-0.018740137109532953,0.0929988939538598
1761478269524864000,2.305864013671875,-0.17685235842168331,-0.019534648488089442,0.05464899729341268
1761478269534900000,2.31589990234375,-0.22600246603786944,-0.032634222427383064,0.055921355316787956
1761478269544936200,2.325936279296875,-0.21079554455578325,-0.041474677617475385,0.06542319702506065
1761478269554972200,2.33597216796875,-0.1740986757993698,-0.05100815657302737,-0.002243833404034376
1761478269565008100,2.346008056640625,-0.12436872246861456,-0.07170834170915186,-0.05141849093958735
1761478269575045000,2.356045166015625,-0.14121873498260973,-0.07992752319574356,-0.0630262188859284
1761478269585081000,2.3660810546875,-0.1951432173937559,-0.06447999789081514,-0.05187909418866038
1761478269595117000,2.376116943359375,-0.24935294648706913,-0.024626272538676858,-0.031035481993854044
1761478269605153000,2.386153076171875,-0.2641507026463747,0.02635499602742493,-0.036431203557550904
1761478269615189000,2.39618896484375,-0.18891455213725566,0.02361483047381043,-0.052166971219331025
1761478269625225000,2.406224853515625,-0.1076888058245182,0.007648615057021379,-0.03627031390741467
1761478269635261200,2.41626123046875,-0.05146364525556564,0.01986928726993501,-0.027503362344950436
1761478269645297200,2.426297119140625,-0.06282558174729347,0.019299743753671644,-0.02293999995216727
1761478269655334000,2.436333984375,-0.1070920089751482,0.0038705578230321404,-0.041985476683825254
1761478269665370000,2.4463701171875,-0.1677116051107645,0.008821165967732667,-0.09909662630707025
1761478269675406000,2.456406005859375,-0.18261983590722083,0.010591025184467435,-0.11069514803364872
1761478269685442000,2.466442138671875,-0.09950666841268539,-0.03826192611604929,-0.06910553879961372
1761478269695478000,2.47647802734375,-0.004530044645071029,-0.06158639534115791,-0.01820142712295055
1761478269705514000,2.486513916015625,-0.09490180496573447,-0.023078970031440257,-0.006359159768372774
1761478269715550200,2.49655029296875,-0.20617899067103862,0.00578092148900032,-0.06696297381296754
1761478269725586200,2.506586181640625,-0.2162783598810434,0.0068026657521724695,-0.03862973651513457
1761478269735623200,2.516623046875,-0.19683482374250888,-0.00029116496630012987,0.04342135470584035
1761478269745659100,2.5266591796875,-0.166278357437253,0.013526201853528617,0.05725859526991844
1761478269755695000,2.536695068359375,-0.12882570187747477,-0.0143253894072026,0.027228929317742585
1761478269765731000,2.54673095703125,-0.08791033864319324,-0.050023091058433056,-0.004220248043537139
1761478269775767000,2.55676708984375,-0.07532792044579982,-0.05067066824696958,-0.07538871072232722
1761478269785803000,2.566802978515625,-0.04860416417121887,-0.07538914911374449,-0.07520940863266587
1761478269795839000,2.5768388671875,0.007020692417025565,-0.06048172203488648,-0.009648118311166763
1761478269805876000,2.5868759765625,-0.030016368079185483,-0.020565818166732787,0.07470204363241792
1761478269815912000,2.596911865234375,-0.2252238828808069,0.01331146312430501,0.0962736778408289
1761478269825949000,2.606948974609375,-0.37871173232793803,0.05332622425705194,0.030504589987546203
1761478269835985000,2.61698486328125,-0.42480479046106334,0.03782207339406013,-0.04127235997840762
1761478269846020900,2.627020751953125,-0.34165245999991894,-0.00842551771365106,-0.12995704399496316
1761478269856056800,2.637056884765625,-0.19681319643259046,-0.04023476055897772,-0.1267303370334208
1761478269866092800,2.6470927734375,-0.05226853189766407,-0.04786890869922936,-0.058434361051023
1761478269876129000,2.65712890625,0.014520108261704445,-0.025812267452850937,0.013497487215697764
1761478269886165000,2.6671650390625,0.008172785061597824,0.021350246542692183,0.03538505550548434
1761478269896201000,2.677200927734375,-0.11087269655764102,0.042085356861725445,-0.036059155374765395
1761478269906238000,2.687238037109375,-0.2788420758217573,0.05887896301336586,-0.15143208596110344
1761478269916274000,2.69727392578125,-0.2949953382432461,0.03986388141997158,-0.22699279224947094
1761478269926310000,2.707309814453125,-0.19518764105737207,-0.028367870219796896,-0.21523206569850445
1761478269936346000,2.71734619140625,-0.14900398203134535,-0.024999197504296897,-0.1573867565818131
1761478269946382000,2.727382080078125,-0.14789748209416864,0.021051555857062337,-0.062157034835964436
1761478269956418000,2.73741796875,-0.07189736147522927,0.03723148708976805,0.06647782064452767
1761478269966454000,2.7474541015625,0.02038578542470932,0.01583367507830262,0.13700140954852102
1761478269976490000,2.757489990234375,0.030244916138052937,-0.001954348938167095,0.08620864929184317
1761478269986527000,2.76752685546875,-0.08847323322296143,-0.019429142287001013,-0.027064678666740654
1761478269996563000,2.77756298828125,-0.21131459999382496,-0.014504837627336382,-0.12608707069382072
1761478270006599000,2.787598876953125,-0.27734160813093184,-0.05472790774852037,-0.12440978513136505
1761478270016635000,2.797634765625,-0.2623065360844135,-0.09452559206448495,-0.06723726070970297
1761478270026670800,2.8076708984375,-0.1576069752037525,-0.08622245862148702,0.030814824980497358
1761478270036706800,2.817706787109375,-0.10954641638994217,-0.07910743898451328,0.11174378030374646
1761478270046743000,2.827742919921875,-0.13954524881243704,-0.05294540824592113,0.09186170661747455
1761478270056779000,2.837779052734375,-0.19856734662353992,-0.0038870705664157865,0.049020928278565405
1761478270066815000,2.84781494140625,-0.2289543015807867,0.02507387017570436,0.060294163573533295
1761478270076852000,2.85785205078125,-0.18873276582956314,0.00554565142840147,0.08151610756143927
1761478270086888000,2.867887939453125,-0.10041384638547897,-0.010547624434158206,0.06637377574816346
1761478270096924000,2.877923828125,-0.043051206219196315,-0.03887881590537726,0.01817015520185232
1761478270106960100,2.887960205078125,-0.09291326149702071,-0.03324621684588492,-0.07324015438631176
1761478270116996000,2.89799609375,-0.18542144932448862,0.009812295896932482,-0.17407485653236507
1761478270127032000,2.908031982421875,-0.2586187874823809,0.03718209499008953,-0.2491064243800938
1761478270137068000,2.918068115234375,-0.23874095157980918,0.053607087025046345,-0.2828621251180768
1761478270147104000,2.92810400390625,-0.13000409800708293,0.04172470685578882,-0.22266952222287653
1761478270157140000,2.938139892578125,-0.013923311412334442,0.02320420384630561,-0.05469152126088738
1761478270167177000,2.948177001953125,0.04801262801885604,-0.0010560849241912364,0.05315671290904283
1761478270177213000,2.958212890625,0.019503741893172263,-0.0222873812623322,0.06200535140559077
1761478270187249000,2.968248779296875,-0.11049977159202098,0.00998443759344518,-0.010189239450544119
1761478270197284900,2.978284912109375,-0.2707826880067587,0.03989529947154224,-0.04764335631504655
1761478270207320800,2.98832080078125,-0.36260347809195514,0.04364427674151957,-0.09580898293852806
1761478270217356800,2.998356689453125,-0.3242091577678919,0.014176701651513576,-0.0970062298990786
1761478270227393000,3.00839306640625,-0.21591420274376869,-0.04712780800834298,-0.042150604117661715
1761478270237429000,3.018428955078125,-0.11744681425094604,-0.09344671078659593,0.016503244902938603
1761478270247465700,3.0284658203125,-0.06409983946681022,-0.09527845625840127,0.04221051761135459
1761478270257502000,3.038501953125,-0.011741875720024109,-0.0985298592697829,0.06508841211274266
1761478270267538000,3.048537841796875,-0.045699090379476545,-0.0682258333556354,0.0923657106168568
1761478270277574000,3.058573974609375,-0.07453472424149513,-0.06189699566029012,0.10344283881783485
1761478270287610000,3.068610107421875,-0.10338263306319713,-0.049735652419179675,0.10116086536049843
1761478270297646000,3.07864599609375,-0.13937047676742076,-0.04197992372587323,0.09953341028913855
1761478270307682000,3.08868212890625,-0.17860592409074305,-0.03170424810089171,0.11638926802203059
1761478270317718000,3.098718017578125,-0.19947803172767162,-0.016881722826510667,0.07803162644654511
1761478270327755000,3.108755126953125,-0.2515641927957535,-0.005740516413375735,-0.03008694909736514
1761478270337791000,3.118791015625,-0.2831289593607187,0.016098025102913378,-0.1523560689382255
1761478270347827000,3.128826904296875,-0.22180559886991977,0.04257175213918089,-0.19560279772952197
1761478270357863000,3.13886279296875,-0.1409101074248552,-0.007331584997102618,-0.12981252095773815
1761478270367899000,3.14889892578125,-0.08972703267633915,-0.026290041032433507,-0.08824658486023544
1761478270377934800,3.158934814453125,-0.061416299471259116,-0.02725252938903868,-0.09996639487892389
1761478270387970800,3.168970703125,-0.07320669050812721,-0.03177402540147305,-0.08533975750282406
1761478270398007000,3.179007080078125,-0.07373977447152137,-0.02546644968986511,-0.10382000156715512
1761478270408043000,3.18904296875,-0.09334288508594035,-0.03430756246708333,-0.08830065313503145
1761478270418079700,3.199079833984375,-0.14470949970781802,-0.02420307869054377,-0.022449293825775384
1761478270428116000,3.209115966796875,-0.22250234896242618,0.023567849526926872,0.039021804572641844
1761478270438152000,3.21915185546875,-0.2309188796520233,0.007430807587876916,0.09671513799801468
1761478270448188000,3.22918798828125,-0.20901509087979792,-0.030258725467696784,0.07312325000837445
1761478270458224000,3.23922412109375,-0.11179390305578708,-0.02524798463359475,-0.021313129402697084
1761478270468260000,3.249260009765625,-0.03764963943660259,-0.016138284048065544,-0.06205255154818296
1761478270478296000,3.259296142578125,-0.06329203021526336,0.003260170839726925,-0.06072597911953926
1761478270488332000,3.26933203125,-0.12985913657844067,0.013929448892176151,-0.06630217181667686
1761478270498368000,3.279367919921875,-0.21480536471903322,0.02048975725583732,-0.11177417544201015
1761478270508405000,3.289405029296875,-0.25807985830008984,-0.0001822246991097927,-0.14646847220435738
1761478270518441000,3.29944091796875,-0.2980792757332325,-0.008910670882090925,-0.16602102167531846
1761478270528477000,3.309476806640625,-0.2720750659048557,0.010586422074586153,-0.16786884149909018
1761478270538513000,3.319512939453125,-0.1915232733309269,0.023402941288799047,-0.0948831002652645
1761478270548548900,3.329548828125,-0.11034253520369529,0.005980462649092078,-0.045560850952565665
1761478270558584800,3.339584716796875,-0.06460311281383037,0.014149009926989673,-0.026248686108738182
1761478270568620800,3.349620849609375,-0.07758534398376941,0.021592896192148325,-0.008056026814132929
1761478270578657000,3.359656982421875,-0.10921674604415893,0.024690204620361325,-0.047558162249624725
1761478270588693000,3.36969287109375,-0.14333178161382673,-0.0008534019589424133,-0.10231617287546396
1761478270598729700,3.379729736328125,-0.13886661889851093,-0.012505918895080684,-0.12580635405629872
1761478270608766000,3.389765869140625,-0.11499182231426239,-0.012882570187747478,-0.08192571127563715
1761478270618802000,3.399802001953125,-0.05581015002727508,-0.051710532688722013,0.03438143142089248
1761478270628838000,3.409837890625,-0.06947334919869899,-0.05513444272279739,0.15925576532408595
1761478270638874000,3.4198740234375,-0.11322890429496764,-0.055141383920237416,0.14087269802391528
1761478270648910000,3.42991015625,-0.10860592066943645,-0.058347413419932125,0.047505847540497775
1761478270658946000,3.439946044921875,-0.11680910086929798,-0.06215418529175221,-0.0026937691286206245
1761478270668982000,3.44998193359375,-0.16412205618619918,-0.06583141249977052,-0.014029694396257399
1761478270679019000,3.46001904296875,-0.19071254146993158,-0.0410264954585582,-0.0005853986725211143
1761478270689055000,3.470054931640625,-0.1742600038409233,-0.04077544330693781,0.014632920986413955
1761478270699091000,3.480091064453125,-0.11616086609363556,-0.04061842611432075,0.016720687045902013
1761478270709127000,3.490126953125,-0.10959142457544803,-0.03836092951111495,-0.01299289869442582
1761478270719163000,3.500162841796875,-0.15624094754755496,-0.01690042752698064,-0.0615106997564435
1761478270729198800,3.51019873046875,-0.19824352149665356,-0.010336977358162403,-0.022011779191344977
1761478270739234800,3.52023486328125,-0.17147241894900797,-0.019878493489697575,0.052740825584530825
1761478270749271000,3.53027099609375,-0.15260229878425596,-0.03270999107733369,0.031181758596748113
1761478270759307000,3.54030712890625,-0.17738193525373935,-0.029650165115296837,-0.01697524632886052
1761478270769343700,3.55034375,-0.18939327556490898,0.004530263840779662,-0.061755468297749756
1761478270779380000,3.5603798828125,-0.20405483812391756,0.01051511040404439,-0.0730446318142116
1761478270789416000,3.570416015625,-0.18920155238509176,-0.015361746717616915,-0.07828267859816551
1761478270799452000,3.580451904296875,-0.22690029166042802,-0.014982830402627587,-0.11082301219701766
1761478270809488100,3.590488037109375,-0.199587337321043,-0.005219269018247723,-0.12690364777371288
1761478270819524000,3.600524169921875,-0.07512742943763732,-0.003215089588984847,-0.07436638193726539
1761478270829560000,3.61056005859375,0.020708441507816314,0.007885419487580656,-0.020292261922359466
1761478270839596000,3.620595947265625,0.05062602538764476,0.023537965845316648,0.010413549725711345
1761478270849632000,3.630632080078125,-0.008008534410595894,0.01842296091914177,0.021713673027604817
1761478270859669000,3.6406689453125,-0.1147469076424837,-0.004479264305904508,0.007073591648042201
1761478270869705000,3.650705078125,-0.2087982332587242,-0.034313042359799144,-0.03197685449719429
1761478270879741000,3.660740966796875,-0.23593933816254137,-0.044720527670904994,-0.08634645032733679
1761478270889777000,3.67077685546875,-0.16633096440732478,-0.0681360361803323,-0.11242767091467976
1761478270899812900,3.680812744140625,-0.08477847035825252,-0.08799560577385127,-0.08741554086357355
1761478270909848800,3.690848876953125,-0.1403138950973749,-0.0788970111042261,-0.03286810424849391
1761478270919884800,3.700884765625,-0.23491993198692798,-0.05779065632000565,0.04779460135400295
1761478270929921000,3.710921142578125,-0.3290402311861515,-0.015756810449808836,0.07582301048636436
1761478270939957000,3.72095703125,-0.3690805651515722,-0.0008091974910348653,0.04273907153010368
1761478270949994000,3.730993896484375,-0.2651537422090769,0.0030753888573497533,-0.05358297549709677
1761478270960030000,3.741030029296875,-0.06924304757416248,-0.02154810720235109,-0.1286510759629309
1761478270970066200,3.751066162109375,0.09906827699542045,-0.05900938446000218,-0.09877908479049802
1761478270980102100,3.76110205078125,0.10037176080942153,-0.042580812228471036,-0.016741437572985886
1761478270990138000,3.77113818359375,-0.01253390288054943,-0.020252295238152144,0.03725114163830876
1761478271000174000,3.781174072265625,-0.10171616115570067,0.014096549087390303,0.014328238951414822
1761478271010210000,3.7912099609375,-0.1687958932161331,-0.022815204528719185,0.013088614153861998
1761478271020246000,3.80124609375,-0.18478432046473026,-0.036711847129836675,0.002852612952142954
1761478271030282000,3.811281982421875,-0.20831834078729153,-0.041472485660389066,-0.015091186147928237
1761478271040318000,3.82131787109375,-0.24803484962582587,-0.03786722771003842,-0.008123246831446886
1761478271050355000,3.83135498046875,-0.28111995762586595,-0.05925641802363097,-0.021013708064705133
1761478271060391000,3.841390869140625,-0.30349136390984055,-0.048066915489360686,-0.04691723399758339
1761478271070427000,3.851427001953125,-0.29089608623087404,-0.019916852738708257,-0.10261895521432161
1761478271080462800,3.861462890625,-0.24547230566143988,-0.021036285222694278,-0.1096554297223687
1761478271090498800,3.871498779296875,-0.15760872876942156,-0.011594283942878246,-0.11242650187090039
1761478271100535000,3.88153515625,-0.054873161438107484,-0.016654489941895008,-0.005296937364339828
1761478271110571000,3.891571044921875,0.024801848301291465,-0.030848434989154336,0.1279259765587747
1761478271120607000,3.90160693359375,-0.006525602376461028,-0.0174402334921062,0.11309855591356753
1761478271130643000,3.911642822265625,-0.09515256485641002,-0.007660305494815111,-0.005616963098943233
1761478271140680200,3.92168017578125,-0.20505846220850943,0.01768872836045921,-0.1505165785513818
1761478271150716200,3.931716064453125,-0.25002982283532615,0.019460048881918192,-0.23987974635139106
1761478271160752000,3.941752197265625,-0.23065526027977465,-0.0022236673988401887,-0.17857333699539302
1761478271170788000,3.9517880859375,-0.16004209339618683,0.013567849038168787,-0.07012655241042375
1761478271180824000,3.961823974609375,-0.05987491524815559,0.006318097105622291,-0.02135433819591999
1761478271190860000,3.971860107421875,-0.007380173379182815,-0.014556933140754699,0.0036050387546420096
1761478271200896000,3.98189599609375,-0.020725392642617226,-0.013468991773575544,-0.05953823063969612
1761478271210932000,3.991931884765625,-0.01883504885137081,-0.04528597953394055,-0.07243000704720616
1761478271220968000,4.001968017578125,0.002052256354689598,-0.06123940853439271,-0.04449176041632891
1761478271231004000,4.01200390625,-0.016036358043551444,-0.04187266395911574,-0.016329349640756843
1761478271241040000,4.022039794921875,-0.1038414827466011,-0.044462607387080785,0.022837270230054853
1761478271251076000,4.032076171875,-0.1878711805641651,-0.0593869125355035,0.007434972306340932
1761478271261112000,4.042112060546875,-0.2381996843099594,-0.054891427747160194,-0.019137831190228462
1761478271271148000,4.05214794921875,-0.29748306340575215,-0.07132416469715536,0.028535481871664523
1761478271281184000,4.06218408203125,-0.32803894518911836,-0.05598331463709473,0.05702960881963372
1761478271291220000,4.072219970703125,-0.31628070285618304,-0.016318755181506276,0.07165653845667838
1761478271301256000,4.082255859375,-0.2645084300428629,-0.0234627086520195,0.08529650288298725
1761478271311292000,4.0922919921875,-0.20418752459287642,-0.038018618879467246,0.08000102682337164
1761478271321327900,4.102327880859375,-0.1449064835846424,-0.03963526029586792,0.036058278591930865
1761478271331364900,4.11236474609375,-0.13459844006001948,-0.03262961931750178,-0.05589914348497987
1761478271341401000,4.122401123046875,-0.1259106912136078,-0.057713572495803236,-0.13089870875924825
1761478271351437000,4.13243701171875,-0.11421908437609672,-0.05862235790379345,-0.14239830015599728
1761478271361473000,4.14247314453125,-0.11797814464867114,-0.04032178125530481,-0.1079541787624359
1761478271371509000,4.152509033203125,-0.09059913933575153,-0.016815233461558818,-0.049841450881212945
1761478271381545000,4.162544921875,-0.06270283215045928,-0.0009982172571122647,0.04076894050091505
1761478271391581200,4.172581298828125,-0.07215162849724292,0.03151837013997137,0.10440715380534529
1761478271401617200,4.1826171875,-0.07216857963204383,0.029026553324237463,0.11096797362565994
1761478271411653000,4.192653076171875,-0.09374678971171378,0.02169168039150536,0.04895663087069988
1761478271421690000,4.202690185546875,-0.15684242057204245,0.004414236245676875,-0.05873290560618043
1761478271431726000,4.21272607421875,-0.2237561484158039,0.007100698850676417,-0.14312997543141245
1761478271441762000,4.222761962890625,-0.2649193489313125,-0.005306216649338603,-0.1583880425788462
1761478271451798000,4.232798095703125,-0.22209084555208683,-0.027060733143985268,-0.15799422095566987
1761478271461834000,4.242833984375,-0.19300971249639987,-0.05872545295208692,-0.15729279468804597
1761478271471870000,4.252869873046875,-0.13205460079610348,-0.06591646043471992,-0.11649696618020534
1761478271481906000,4.262906005859375,-0.06517068356871604,-0.04080181985720992,-0.05740881739556789
1761478271491942000,4.27294189453125,-0.04304126934707164,-0.036897432829812164,0.02572802323549986
1761478271501977900,4.282977783203125,-0.08804185606837273,0.02360204405747354,0.06875833279713987
1761478271512014800,4.293014892578125,-0.13300620243251324,0.06160466165021061,0.06867576908022165
1761478271522051000,4.303051025390625,-0.1536556072294712,0.0341750221285969,0.06028013504818081
1761478271532087000,4.313087158203125,-0.17082126156389713,0.002408230185508728,0.01199234334975481
1761478271542123000,4.323123046875,-0.1444663386017084,-0.05108750541955232,-0.04412307323440909
1761478271552159000,4.333158935546875,-0.14392156420052052,-0.11865545938834547,-0.07919146400615572
1761478271562195000,4.34319482421875,-0.1885474723905325,-0.11293708174154161,-0.09690963765680789
1761478271572231200,4.353231201171875,-0.2226660150915384,-0.05741721989773214,-0.09190423058494925
1761478271582267100,4.36326708984375,-0.195077750942111,-0.03028057197332382,-0.03369710241854191
1761478271592303000,4.37330322265625,-0.1081634375989437,0.0073988780796527855,0.07434957693293691
1761478271602339000,4.383339111328125,-0.04254559478461742,-0.0013612784158438444,0.1697403344593942
1761478271612376000,4.3933759765625,-0.03974105875790119,-0.019372882055118678,0.20056860344335437
1761478271622412000,4.403412109375,-0.11003799929916858,-0.01129822360575199,0.12188099730610846
1761478271632448000,4.413447998046875,-0.22313012547194958,0.014867095068469643,-0.01610606227889657
1761478271642484000,4.42348388671875,-0.31433599852919575,0.018019713880494236,-0.15094941701069473
1761478271652520000,4.43352001953125,-0.28177228405475613,-0.02753741074502468,-0.22737477730438113
1761478271662556000,4.443555908203125,-0.1889256580531597,-0.06313713191449642,-0.20281623623967168
1761478271672592000,4.453591796875,-0.05785071594417095,-0.08827778371609747,-0.12540683334469793
1761478271682627800,4.4636279296875,-0.02466916183233261,-0.07106894782707095,-0.04722118538022041
1761478271692663800,4.473663818359375,-0.06357143167853355,-0.004048398607969284,0.030908640743792057
1761478271702701000,4.483701171875,-0.11317162114977836,0.04141476412378251,0.10457301189154386
1761478271712737000,4.493737060546875,-0.1518517726778984,0.06100019295103848,0.09411182363182306
1761478271722773000,4.50377294921875,-0.15368424880206585,0.04685512854680419,0.03859700328931212
1761478271732809000,4.51380908203125,-0.14780805024504662,0.004875570147112012,-0.03458323760330677
1761478271742845200,4.52384521484375,-0.1330862819314003,-0.02200761447288096,-0.13777663170471788
1761478271752881200,4.533881103515625,-0.1484878492027521,-0.031886180539056654,-0.19162877953201532
1761478271762917000,4.543917236328125,-0.1630839453101158,-0.04150901827849447,-0.17260069232657552
1761478271772953000,4.553953125,-0.16237784286737442,-0.031956103970110415,-0.12915946387648583
1761478271782989000,4.563989013671875,-0.1585351959645748,-0.019613266682252287,-0.08480433545187115
1761478271793026000,4.574026123046875,-0.11114917541146278,-0.019969971165433524,0.012476327474415301
1761478271803062000,4.58406201171875,-0.08533025902211666,-0.015708733524382113,0.11347513414099812
1761478271813097500,4.594097412109375,-0.11176350791752337,-0.0129050012152642,0.1239604339286685
1761478271823133400,4.604133544921875,-0.2120698022753,-0.013331409933790563,0.05277881950736046
1761478271833169400,4.61416943359375,-0.296254398393631,-0.007978504598513245,-0.03964271294996142
1761478271843206400,4.624206298828125,-0.3191004364520311,-0.023218889958783982,-0.09299027225598692
1761478271853242400,4.634242431640625,-0.2766968804866075,-0.039519524961709976,-0.12438888847380876
1761478271863278300,4.6442783203125,-0.22550854504108428,-0.039194530791044235,-0.10808788814470172
1761478271873314300,4.654314208984375,-0.169653971350193,-0.03090988285280764,-0.007420359259098768
1761478271883350300,4.664350341796875,-0.09572539630830287,-0.027402824579924344,0.09613573067486286
1761478271893386200,4.67438623046875,0.011450199297070503,-0.056667205248028034,0.12302592955753207
1761478271903422700,4.684422607421875,0.07277823596298694,-0.06122939859703183,0.12353373294919728
1761478271913458700,4.694458740234375,0.10608253967165947,-0.03437456328868866,0.10695713054910301
1761478271923494700,4.70449462890625,0.07340776603817939,0.00846972218155861,0.05287292753159999
1761478271933531600,4.71453173828125,0.0005213935256004333,0.001272577219083905,-0.03076806322932243
1761478271943567600,4.724567626953125,-0.1288157650053501,0.043180531687289476,-0.10481368877962231
1761478271953603600,4.734603515625,-0.3000900310337543,0.08629676596671343,-0.15313757470473646
1761478271963639600,4.7446396484375,-0.46425534183979034,0.0921570363022387,-0.2058244781449437
1761478271973675500,4.754675537109375,-0.4673831184715032,0.0647443479154259,-0.22650749295055864
1761478271983711500,4.76471142578125,-0.30243630189895626,0.012583879502117633,-0.19416487388089299
1761478271993747500,4.77474755859375,-0.10883680681586265,-0.024034663321077822,-0.15674524380788207
1761478272003783400,4.784783447265625,0.032382512688636775,-0.030819062764197585,-0.11447159783244132
1761478272013819400,4.7948193359375,0.046934185132384294,-0.044232378827780486,-0.04989391172081232
1761478272023856400,4.8048564453125,-0.0013788871377706526,-0.03810658942386508,-0.029297406154870986
1761478272033892400,4.814892333984375,-0.08499591250121594,-0.0168758776076138,-0.031225743868947026
1761478272043928300,4.82492822265625,-0.19745324790179727,0.0016011515863239764,-0.03838657540902495
1761478272053964300,4.83496435546875,-0.34988545081615446,0.013874138508364558,-0.05882862106561661
1761478272064000300,4.845000244140625,-0.38485447286665436,0.018350772465765476,0.008466653441637753
1761478272074036500,4.855036376953125,-0.3233949187755584,-0.024784897166490554,0.1133507771089673
1761478272084072700,4.86507275390625,-0.22208909198641777,-0.06401223424859345,0.15784019943773744
1761478272094108700,4.875108642578125,-0.1412298408985138,-0.07936725896447896,0.16672493216097353
1761478272104144600,4.88514453125,-0.07480652692019939,-0.10442300896160304,0.13504384573996067
1761478272114181600,4.895181640625,-0.05055003754198551,-0.09375285412631928,0.054754941885918375
1761478272124217600,4.905217529296875,-0.07572364176511764,-0.07400646258369088,-0.010968699390441178
1761478272134253600,4.915253662109375,-0.08872399311363696,-0.06339454074166714,-0.013150719604641198
1761478272144289500,4.92528955078125,-0.12369184612035751,0.004354615012928843,-0.002829816598445177
1761478272154325500,4.935325439453125,-0.16083353603482245,0.05304733425043523,-0.0004636719889938831
1761478272164361500,4.945361572265625,-0.17001754396557808,0.039920506978034974,-0.04751315406411886
1761478272174397400,4.9553974609375,-0.15552783084213734,0.06083645375669002,-0.10190481559559703
1761478272184433400,4.965433349609375,-0.09899871889054775,0.04002206765636802,-0.0848363380253315
1761478272194469400,4.975469482421875,-0.046833062845468516,0.011912848372757434,-0.030153000070899723
1761478272204506400,4.98550634765625,-0.030914778223633765,0.008309855444729328,-0.010954816995561122
1761478272214542300,4.995542236328125,-0.06256254689693451,0.016011150537058712,-0.06574643763005733
1761478272224578300,5.005578369140625,-0.06897767463624477,0.03591887012124061,-0.1413831317640841
1761478272234614300,5.0156142578125,-0.027702245917916295,0.049811348003894085,-0.18327318524941802
1761478272244650200,5.025650146484375,0.005201660296320915,0.0027081629801541567,-0.17535817434117196
1761478272254686700,5.035686767578125,-0.043455110844969745,0.00710091804638505,-0.16885639123171567
1761478272264722700,5.04572265625,-0.17130232307910917,0.014268983044847845,-0.10768968260735273
1761478272274758700,5.055758544921875,-0.3739122230917215,0.002444908934086561,-0.03838131471201777
1761478272284795600,5.065795654296875,-0.4669137473940849,0.01901785807237029,-0.08038637287914753
1761478272294831600,5.07583154296875,-0.38306466684043405,-0.032834786500781775,-0.10053981085270643
1761478272304867600,5.08586767578125,-0.20810908195078373,-0.10110964662991463,-0.05416501316875219
1761478272314903600,5.095903564453125,-0.00568330633342266,-0.1251898295931518,0.013702654398977755
1761478272324939500,5.105939453125,0.09602642508149146,-0.13170958675071595,0.130617553730309
1761478272334975500,5.1159755859375,0.07562427304387093,-0.10700688797496259,0.22850363520383835
1761478272345011500,5.126011474609375,-0.008728080856800078,-0.056105187451094385,0.21960385104194283
1761478272355047400,5.13604736328125,-0.18506956714689732,-0.016574775769189,0.1947454502478242
1761478272365083400,5.14608349609375,-0.34375615428090095,-0.02126315278112888,0.11130480436459184
1761478272375120400,5.156120361328125,-0.40638241406381126,-0.06364661580659449,-0.004141191457957029
1761478272385156400,5.16615625,-0.3661661390095949,-0.10640643786378204,-0.0755269501492381
1761478272395192300,5.1761923828125,-0.29739713868796824,-0.08410064416192471,-0.1495470028668642
1761478272405228300,5.186228271484375,-0.2386176174610853,-0.05636668793149292,-0.16791063481420276
1761478272415264300,5.19626416015625,-0.18178806125819683,0.003984612656757236,-0.14329261864721773
1761478272425300500,5.206300537109375,-0.08179331706762313,0.05013458860889077,-0.08079042363539338
1761478272435336700,5.216336669921875,-0.012464344775676726,0.05888882682025432,0.011113222427666186
1761478272445372700,5.22637255859375,0.037843700703978536,0.04888312724307179,0.022388211288303136
1761478272455408600,5.23640869140625,-0.07977204037308692,0.045420492633804675,-0.05803937038406729
1761478272465445600,5.246445556640625,-0.14032500101327897,0.017502338942885397,-0.22755846330821514
1761478272475481600,5.256481689453125,-0.10969079329669475,-0.07140307515226305,-0.2376942190058529
1761478272485517600,5.266517578125,-0.14051263253986834,-0.028334917798265812,-0.19130071662142872
1761478272495553500,5.276553466796875,-0.15746727447211742,-0.031594138789922,-0.12675254886522888
1761478272505589500,5.286589599609375,-0.11750000574290752,-0.03900434198118746,-0.0730209586776793
1761478272515625500,5.29662548828125,-0.03872223710417747,-0.04026851669810712,-0.02702770765721798
1761478272525661400,5.306661376953125,0.08913023582696915,-0.07413878372646868,0.0369347691655159
1761478272535697400,5.316697509765625,0.10969137781858443,-0.06910137408114969,0.11140884926095604
1761478272545733400,5.3267333984375,0.008424713996052742,-0.04500445917882025,0.1576109207265079
1761478272555770400,5.336770263671875,-0.1544528950870037,-0.02074891964867711,0.1477608501024544
1761478272565806300,5.346806396484375,-0.3267430601596832,-0.0006548106469213963,0.10803294308707118
1761478272575842300,5.35684228515625,-0.4306763128429651,-0.03358874667324126,0.054546413701772684
1761478272585878300,5.366878173828125,-0.38383214408159255,-0.07568316362425684,-0.001094663368910551
1761478272595914200,5.376914306640625,-0.30566286273002624,-0.10485891616083681,-0.030275895798206328
1761478272605950700,5.38695068359375,-0.25516952381134034,-0.10660926695950329,-0.06417217405065893
1761478272615986700,5.396986572265625,-0.2148983036994934,-0.07994381674341856,-0.07763809708431363
1761478272626022700,5.407022705078125,-0.21584230655133724,-0.04801474691070616,-0.09438304178863763
1761478272636058600,5.41705859375,-0.19185002106726168,0.020285028463974595,-0.09424772497117519
1761478272646095600,5.427095703125,-0.1051484736919403,0.031980873085185886,-0.031824586544930936
1761478272656131600,5.437131591796875,-0.00037350948750972747,0.021359964219108223,0.02614624864757061
1761478272666167600,5.44716748046875,0.04635258585214615,0.02868891886770725,0.0011494622960686682
1761478272676203500,5.45720361328125,0.060953942656517025,0.002717515330389142,-0.025024697271734474
1761478272686239500,5.467239501953125,0.022662498185038564,-0.00218384684510529,-0.07029036467000842
1761478272696275500,5.477275390625,-0.10156886163949966,0.003978694372624159,-0.15002148851081729
1761478272706311400,5.4873115234375,-0.24516776975691318,0.014442805241793394,-0.2564819215841591
1761478272716347400,5.497347412109375,-0.3022650369852781,-0.01630940283127129,-0.25949557031691073
1761478272726383400,5.50738330078125,-0.22822014208734034,-0.055001025601476426,-0.15366466731876133
1761478272736420400,5.51742041015625,-0.12222118904590606,-0.02972936783134937,0.010761924771964549
1761478272746456300,5.527456298828125,-0.06380991660952567,-0.024684651662409303,0.16864917822182177
1761478272756492300,5.5374921875,-0.01893617113828659,-0.009687646603956818,0.2142988765016198
1761478272766528300,5.5475283203125,-0.06464812099933624,-0.011674874898418784,0.14357172784954308
1761478272776564500,5.557564453125,-0.12126666480004787,-0.03329918914213777,0.016513327905535696
1761478272786600700,5.5676005859375,-0.1820411592364311,-0.05513086252622306,-0.047379736942797894
1761478272796636700,5.57763671875,-0.24804946267306804,-0.06987294297553598,-0.05058233237639069
1761478272806672600,5.587672607421875,-0.3082020258188248,-0.06320895504169166,-0.041382980746030806
1761478272816708900,5.597708984375,-0.3389507998257875,-0.04047149192430079,-0.05760156348869204
1761478272826745900,5.607745849609375,-0.24935528457462786,-0.05479710052721202,-0.03174421478509903
1761478272836781800,5.61778173828125,-0.12830021669864652,-0.054023705001920455,0.03328223800733685
1761478272846818000,5.627818115234375,-0.03611819208562374,-0.04424947609305382,0.0827490103572607
1761478272856854000,5.63785400390625,-0.017163900768756866,-0.060497796386852855,0.093709088049829
1761478272866890000,5.647889892578125,-0.08989771306812763,-0.03955525386221707,0.06163038061335682
1761478272876926000,5.657926025390625,-0.2102151143193245,-0.003441372625529766,-0.011811726085841655
1761478272886962000,5.6679619140625,-0.264316122341156,0.01031542311348021,-0.07598360787555575
1761478272896998000,5.677997802734375,-0.19983459008038043,-0.014117372679710386,-0.12798530553057788
1761478272907033900,5.688033935546875,-0.08323007187247276,-0.03805917008556425,-0.13532806950882076
1761478272917070800,5.69807080078125,0.038058220237493515,-0.05554251206703484,-0.08740297364294529
1761478272927106800,5.70810693359375,0.08995032003819942,-0.026379326751083135,-0.016661358074098825
1761478272937142800,5.718142822265625,-0.00858078134059906,0.010975786718353628,0.041216099746525285
1761478272947178800,5.7281787109375,-0.16514672305881975,0.03165602504499256,0.06059416943341493
1761478272957214700,5.738214599609375,-0.28174188891649243,0.007634075075015425,0.00212166832908988
1761478272967251000,5.7482509765625,-0.25602409481406213,-0.030698285928741097,-0.08732903162389993
1761478272977287000,5.758286865234375,-0.18045710491538047,-0.06997472284957766,-0.09838833190724253
1761478272987323000,5.768322998046875,-0.07824760728478432,-0.06832140268459916,-0.06431421286985278
1761478272997358800,5.77835888671875,-0.033653263276815414,-0.04655461123026907,-0.02333323705345392
1761478273007395800,5.788395751953125,-0.09718027129173278,-0.023513123665004968,-0.0022531857542693614
1761478273017432000,5.79843212890625,-0.20499299575686453,0.038039953928440805,-0.04506926804333925
1761478273027468000,5.808468017578125,-0.3121434569209814,0.03791983468011021,-0.05008388133496046
1761478273037504000,5.81850390625,-0.30444296554625033,-0.009350669734552503,-0.011934183421730995
1761478273047540000,5.8285400390625,-0.23253157554566858,-0.020169658455997705,0.03470335685163736
1761478273057576000,5.838575927734375,-0.1264589727461338,-0.04095796026699245,0.07120411851406097
1761478273067612000,5.84861181640625,-0.0777992789953947,-0.045724517081677914,0.05011223064661026
1761478273077648000,5.85864794921875,-0.07808101854622364,-0.049426001948118206,-0.01057560841962695
1761478273087683800,5.868683837890625,-0.07269523385465144,-0.038889337299391626,-0.08764218922629952
1761478273097720800,5.878720947265625,-0.07253799746632575,-0.04627718252837658,-0.1117697915278375
1761478273107756800,5.8887568359375,-0.10041852256059645,-0.028871435827761888,-0.07997998403534293
1761478273117792800,5.898792724609375,-0.1343973645299673,0.009171294579654932,-0.030929245140403506
1761478273127828700,5.908828857421875,-0.1640209338992834,0.009994009139388799,0.00717559071779251
1761478273137864700,5.91886474609375,-0.18534195434749126,-0.017480857763439415,-0.0006809680014848708
1761478273147901000,5.92890087890625,-0.18562077128887175,-0.017682152489200232,-0.016437778451293707
1761478273157937000,5.93893701171875,-0.23640695567429065,-0.021275135479867455,0.035904110943526024
1761478273167972900,5.948972900390625,-0.25200433777868747,-0.01747771595828235,0.0464535620085895
1761478273178008800,5.9590087890625,-0.20053601634800433,-0.03627024084217846,-0.00803849115744233
1761478273188045800,5.9690458984375,-0.10677461358904838,-0.08031038503348827,-0.08487111707776784
1761478273198082000,5.97908203125,-0.08026829945743083,-0.07633490553125738,-0.11251198819726704
1761478273208118000,5.989117919921875,-0.11879647529423236,-0.02602817522585392,-0.04076397206485271
1761478273218154000,5.999154052734375,-0.16543898400366305,0.019677929416298864,0.04196209580823779
1761478273228190000,6.00918994140625,-0.15496435174047946,0.05869169681295752,0.05644128753766417
1761478273238226000,6.019225830078125,-0.13819617229104042,0.06137713650465011,0.022046412113308905
1761478273248262000,6.029261962890625,-0.12796353209018707,0.021243571297824382,-0.00900324453637004
1761478273258297900,6.0392978515625,-0.0824614255875349,0.02913797780945897,-0.04876768416985869
1761478273268333800,6.049333740234375,-0.06977203988432884,-0.009442074345052242,-0.06731923990473151
1761478273278370800,6.059370849609375,-0.08446925827860832,-0.014164207496121526,-0.06407295145988463
1761478273288406800,6.06940673828125,-0.1356920805156231,-0.01455532570555806,-0.11009104466065764
1761478273298442800,6.07944287109375,-0.1630839453101158,-0.03952595470249653,-0.13192819793745875
1761478273308478700,6.089478759765625,-0.13569617216885088,-0.04499729878567159,-0.1336075293265283
1761478273318515000,6.099514892578125,-0.10397300017178059,-0.05065890474393964,-0.08580152979567647
1761478273328551000,6.109551025390625,-0.1337958915054798,-0.03639189446046948,0.021389263378828762
1761478273338587000,6.1195869140625,-0.23866613277792928,0.010691197623312472,0.1413959912456572
1761478273348622800,6.129622802734375,-0.31646190464198587,0.01690261948406696,0.19986717717573046
1761478273358658800,6.139658935546875,-0.3072498396605253,-0.01631736694201827,0.21544468553587792
1761478273368694800,6.14969482421875,-0.2886164508610964,-0.05262245990186929,0.10265504944100975
1761478273378732000,6.15973193359375,-0.2540501643925905,-0.057114510624110694,-0.057600832836329934
1761478273388768000,6.16976806640625,-0.16966975344121454,-0.0416401703774929,-0.17090440980270505
1761478273398804000,6.179803955078125,-0.1049134958922863,-0.023282675909996033,-0.18045637426301836
1761478273408840000,6.18983984375,-0.02819265978336334,-0.004316328829154372,-0.10800517829731106
1761478273418876000,6.1998759765625,0.04879530282914638,-0.004732362284138799,-0.020767332088202237
1761478273428911900,6.209911865234375,0.004132569760084152,0.010999605985358357,0.0464765044927597
1761478273438947800,6.21994775390625,-0.08438157999515533,0.021563304771482942,0.035481501617282626
1761478273448983800,6.22998388671875,-0.18248773396015167,0.020250687802955507,-0.02940788079202175
1761478273459019800,6.240019775390625,-0.23990064300894737,0.03627820495292544,-0.1117164539054036
1761478273469056000,6.250055908203125,-0.14888298600018024,-0.0057792409885674715,-0.13563625867515802
1761478273479092700,6.2600927734375,-0.029556933873891827,-0.05074000715613365,-0.11517185505628585
1761478273489128700,6.270128662109375,0.03067278616130352,-0.059107291876524685,-0.08000117295384407
1761478273499165000,6.2801650390625,0.04135667726099491,-0.06906257644072175,-0.013091682893782854
1761478273509201000,6.290200927734375,-0.03156885821819305,-0.04191737988367677,0.031968232799321414
1761478273519236900,6.30023681640625,-0.16147943272292614,-0.010613310081511736,0.06637377574816346
1761478273529272800,6.31027294921875,-0.3126221803486347,0.006191548116505146,0.08513809745088219
1761478273539308800,6.320308837890625,-0.36650808431506154,0.005975640343502163,0.05916647471785545
1761478273549344800,6.3303447265625,-0.29820611698329447,-0.04624145362786949,0.01754603195413947
1761478273559380700,6.340380615234375,-0.22154607115089892,-0.07040756130889057,-0.030470833848416805
1761478273569418000,6.35041796875,-0.21953180871903896,-0.059878714640438556,-0.08362301671281457
1761478273579454000,6.360453857421875,-0.22465163595080373,-0.04262611267492175,-0.07983034643158315
1761478273589490000,6.370489990234375,-0.2158428910732269,-0.018585165743529794,-0.05360226471945643
1761478273599526000,6.38052587890625,-0.19656711271703242,0.009926204600185156,-0.00045899581387639045
1761478273609561900,6.390561767578125,-0.18856793065667152,0.00032908582389354704,0.06856076439842582
1761478273619597800,6.400597900390625,-0.16695464926362036,-0.007963380094617604,0.08513239836245774
1761478273629633800,6.4106337890625,-0.15120529146790504,-0.0009757862295955419,0.009685673842579125
1761478273639670000,6.420669921875,-0.15249825388789176,-0.012396540236473083,-0.09107406337112188
1761478273649706000,6.4307060546875,-0.12945581647455692,0.0018413900829851626,-0.19555325949937105
1761478273659742000,6.440741943359375,-0.04082710042893886,-0.008748904449120163,-0.2157332932189107
1761478273669779000,6.450779052734375,0.0664449412882328,-0.04667575339190662,-0.15828502059578894
1761478273679815000,6.46081494140625,0.14496084412038326,-0.0376841262280941,-0.09102554805427789
1761478273689851000,6.470850830078125,0.1164858602643013,-0.022896233875676988,-0.010244038377702236
1761478273699886800,6.480886962890625,-0.027043489748239516,0.003707257020100951,0.0518009143859148
1761478273709922800,6.4909228515625,-0.21150515412986276,0.0012955197032541036,0.05976809387281537
1761478273719958800,6.500958740234375,-0.29806641625165936,-0.004420519855991006,0.040647652208805084
1761478273729994800,6.510994873046875,-0.3291132964223623,-0.034691520283371205,0.053019350264966486
1761478273740030700,6.52103076171875,-0.3465928390115499,-0.06279233706481754,0.06187807176411152
1761478273750066700,6.531066650390625,-0.3023357641339302,-0.05556245887652039,0.050085488770157095
1761478273760102700,6.5411025390625,-0.26311025368273255,-0.0413147378154099,0.050106823819130654
1761478273770140000,6.551139892578125,-0.29833003562390803,-0.038618411403521895,-0.006761749219894409
1761478273780176000,6.56117578125,-0.3199842335492372,-0.020555881294608114,-0.07654957119524479
1761478273790211800,6.5712119140625,-0.25933015062212944,-0.010806567631289362,-0.11177607513815165
1761478273800247800,6.581247802734375,-0.19360884743332862,0.002028802413865924,-0.09948007266670465
1761478273810284300,6.5912841796875,-0.12389584425985813,0.022435046104714272,-0.06498685143440962
1761478273820320300,6.6013203125,-0.015551789397001265,0.015151245772093534,-0.043977819544821974
1761478273830356500,6.6113564453125,0.004575637352466583,0.031204335754737255,-0.019586597871035335
1761478273840392400,6.621392333984375,-0.044724107867479324,0.04498516995646059,-0.03565802722796797
1761478273850428400,6.631428466796875,-0.06675941406488418,0.036911242159456015,-0.07455109085440635
1761478273860465400,6.64146533203125,-0.056118777585029596,0.00009242752380669117,-0.1309064536742866
1761478273870501400,6.65150146484375,0.03126724492311477,-0.015968188178166746,-0.16046207237392662
1761478273880537300,6.661537353515625,0.05227963781356811,-0.0016300123546272515,-0.09850728211179376
1761478273890573300,6.6715732421875,-0.004131985238194465,-0.009215425982326268,0.01571545552611351
1761478273900609300,6.681609375,-0.08610416600406169,-0.009743541509658098,0.0954744902871549
1761478273910645200,6.691645263671875,-0.17919862928688526,-0.008064502381533384,0.09835676772519945
1761478273920681200,6.70168115234375,-0.2664554724574089,-0.020296061314642427,0.0490526385910809
1761478273930717400,6.711717529296875,-0.3440180200874805,-0.05455474313870072,-0.04320288964956998
1761478273940753400,6.72175341796875,-0.3718541215181351,-0.038061727368831635,-0.13057678332850337
1761478273950789400,6.731789306640625,-0.31569092026948925,-0.02918517795205116,-0.14925971035808325
1761478273960826400,6.741826416015625,-0.2330886249065399,-0.02185344682447612,-0.06792685040906071
1761478273970862300,6.7518623046875,-0.16497604266703128,-0.012166823133826256,0.038031624491512775
1761478273980898300,6.761898193359375,-0.11366963379979132,-0.035887232873961325,0.10507058615013956
1761478273990934300,6.771934326171875,-0.08835749788880348,-0.06894567206278443,0.1284086455091834
1761478274000970200,6.78197021484375,-0.1174047286748886,-0.05001980312280357,0.07158128126338124
1761478274011006500,6.79200634765625,-0.15937983009517193,-0.011604659206420183,-0.03323854499608278
1761478274021042400,6.80204248046875,-0.15104922412335872,-0.002267871866747737,-0.1030719596788287
1761478274031078400,6.812078369140625,-0.08609539817571639,-0.020429916827380656,-0.12209697814434765
1761478274041114400,6.8221142578125,-0.04513853388726711,-0.03184277978874743,-0.09167904352694749
1761478274051150300,6.832150390625,-0.056221653437614434,-0.033601533089578146,-0.026910657148808238
1761478274061187300,6.842187255859375,-0.05578209297657013,-0.027141762490943074,0.04971738611012697
1761478274071223300,6.852223388671875,-0.05583060829341411,-0.0179161804407835,0.09115881904512643
1761478274081259300,6.86225927734375,-0.08364157528281212,-0.009316402138769626,0.09213789321035146
1761478274091295200,6.872295166015625,-0.17870938446521759,0.008776815369352698,0.02653787831366062
1761478274101331500,6.88233154296875,-0.24889409680366514,0.0013757453326135873,-0.050177697098255154
1761478274111367400,6.892367431640625,-0.28536300202310083,-0.020305486730113623,-0.09464066981151699
1761478274121403400,6.9024033203125,-0.2823497916817665,-0.043196021517366165,-0.10272139267548919
1761478274131439400,6.912439453125,-0.24289339508414268,-0.07301467506736517,-0.07052548860013484
1761478274141475300,6.922475341796875,-0.17581132493615148,-0.052950230551511046,-0.035909956162422894
1761478274151511600,6.932511474609375,-0.15582476796209813,-0.02571216807924211,-0.0374498790808022
1761478274161548300,6.94254833984375,-0.16180968759059905,-0.0012500000610947608,-0.003559446047246456
1761478274171584300,6.952584228515625,-0.18643033410608767,0.016120967587083576,0.06622428427487612
1761478274181620500,6.962620361328125,-0.21120587892234324,0.022371552414447066,0.07672142063081264
1761478274191656400,6.972656494140625,-0.23117606928348539,-0.014755232191830872,0.03278451761826873
1761478274201692400,6.9826923828125,-0.180277072173357,-0.035341800885647534,-0.036707390150427816
1761478274211728400,6.992728271484375,-0.08188976317942143,-0.04656462116762995,-0.10257935385629534
1761478274221764400,7.002764404296875,0.04581774832308292,-0.06407273226417601,-0.10662658342048525
1761478274231800300,7.01280029296875,0.1328553957849741,-0.0455083901129663,-0.06393252007588744
1761478274241836300,7.022836181640625,0.14370061492621897,0.007197510288655757,-0.04516834450364113
1761478274251872300,7.032872314453125,-0.01460135680437088,0.03261164526939392,-0.02958805966451764
1761478274261908200,7.042908203125,-0.2226496484786272,0.041807928159832954,-0.04505231690853834
1761478274271945200,7.0529453125,-0.38770167899131774,0.06808554810211062,-0.09384688908532261
1761478274281981400,7.0629814453125,-0.42830315397083757,0.046079906390607356,-0.11245441279113293
1761478274292017400,7.073017333984375,-0.3459270685791969,0.01947963036522269,-0.10886837099790572
1761478274302053400,7.083053466796875,-0.1921849521100521,-0.023894451132789252,-0.10643500637114048
1761478274312089300,7.09308935546875,-0.09657996731102467,-0.06624803047664463,-0.06383402813747525
1761478274322125300,7.103125244140625,0.04457563930749893,-0.05595723034776747,-0.026098171722143886
1761478274332161500,7.11316162109375,0.0845569365620613,-0.047284532940015195,-0.011107815600186586
1761478274342197500,7.123197509765625,-0.0021200608938932415,-0.029166327121108768,-0.012821195389330386
1761478274352233500,7.1332333984375,-0.0419540586322546,0.01038023197799921,-0.041534079654514784
1761478274362269400,7.14326953125,-0.12923311363458634,-0.004888648824393749,-0.030990473808348178
1761478274372306400,7.153306396484375,-0.19237842885553835,-0.009889598916843533,-0.023893501284718514
1761478274382342400,7.16334228515625,-0.21355098074376583,0.00007642623707652092,-0.029624300021678207
1761478274392378400,7.17337841796875,-0.22665186985731123,-0.026161153955757615,0.011227350326627493
1761478274402414300,7.183414306640625,-0.2654185306251049,-0.03958206880390644,0.01918313163667917
1761478274412450300,7.1934501953125,-0.2304483395308256,-0.05166347867660224,-0.007590601259469985
1761478274422486300,7.203486328125,-0.203988787150383,-0.0965465034328401,0.01134089370369911
1761478274432522200,7.213522216796875,-0.16337036103606223,-0.05527012486644089,-0.008400310207158326
1761478274442558200,7.22355810546875,-0.12142039405703543,-0.03667926003448665,0.040846828042715784
1761478274452594200,7.23359423828125,-0.1351467215925455,-0.03184343737587333,0.08301526007801294
1761478274462630100,7.243630126953125,-0.16055997979044914,0.013811959992349148,0.0204923145391047
1761478274472666400,7.253666259765625,-0.1922065794199705,0.02927760547585785,0.015372341176867484
1761478274482703400,7.263703369140625,-0.2486865915328264,-0.004481821589171886,0.019355565594136714
1761478274492739300,7.2737392578125,-0.2901923218756914,-0.00961947673857212,-0.0764038791142404
1761478274502775600,7.283775634765625,-0.25915245596766473,-0.007939487762376666,-0.199367264829576
1761478274512811500,7.2938115234375,-0.14208908807635307,0.01114274078309536,-0.23455782067626713
1761478274522847500,7.303847412109375,0.05013385795652866,-0.062267801734060046,-0.13586539125591515
1761478274532883500,7.313883544921875,0.1565226870983839,-0.08058174932077526,0.011565642370283603
1761478274542919400,7.32391943359375,0.12773264594376085,-0.03253288094475865,0.15691855454817413
1761478274552955400,7.333955322265625,-0.0362812736928463,-0.013969269445911049,0.21671952777728437
1761478274562991400,7.343991455078125,-0.2726233474373817,0.03940159767046571,0.09740370478406547
1761478274573027300,7.35402734375,-0.39618718326389785,0.05585333158187568,-0.0739694915741682
1761478274583064300,7.364064208984375,-0.35438276223540305,0.0068367872174829245,-0.14293883677348493
1761478274593100300,7.374100341796875,-0.23081951093077657,-0.02860723193362355,-0.1206673837326467
1761478274603136300,7.38413623046875,-0.06932137350738048,-0.0895343596484512,-0.04666559732407331
1761478274613172200,7.394172119140625,0.00817336958348751,-0.1333151953164488,0.01665901998654008
1761478274623208200,7.404208251953125,0.0817249280065298,-0.10106763411909342,0.0412951563321054
1761478274633244200,7.414244140625,0.06533142708837986,-0.075191434584558,0.06454919066950679
1761478274643280400,7.4242802734375,-0.09326046749949454,-0.016540069781988857,0.038149844043701885
1761478274653316400,7.43431640625,-0.25788287442326546,0.02470262571051717,0.019611147790402173
1761478274663352300,7.444352294921875,-0.33075404936671254,0.03698847211413085,0.019406565129011868
1761478274673388300,7.45438818359375,-0.3946662573069334,0.03411635074391961,-0.002148117944598198
1761478274683424500,7.464424560546875,-0.3579705575942993,0.01756831685118377,-0.05019830149486661
1761478274693461500,7.47446142578125,-0.2601157480418682,-0.018283917774632574,-0.06164674722626805
1761478274703497500,7.48449755859375,-0.14937866056263446,-0.02227941715158522,-0.11530644122138618
1761478274713533400,7.494533447265625,-0.1312339320629835,-0.014275047459453344,-0.1564827934794128
1761478274723569400,7.5045693359375,-0.101187753367424,-0.015925518080219626,-0.1490536663919687
1761478274733605400,7.51460546875,-0.12120236739218235,-0.010064955483749508,-0.08837517967596649
1761478274743641300,7.524641357421875,-0.17247370494604108,0.019497823609039185,-0.07621171754300594
1761478274753677300,7.53467724609375,-0.14679156667888163,0.05719393253587186,-0.0781388862133026
1761478274763713300,7.54471337890625,-0.0765144998818636,0.06117861825786531,-0.07688347932472825
1761478274773749200,7.554749267578125,-0.024397359153628347,0.040158115126192565,-0.06620923283621669
1761478274783785200,7.56478515625,0.0028133038550615308,0.02470211425386369,-0.09690320791602135
1761478274793821400,7.574821533203125,-0.0011515081226825714,0.010489172245189547,-0.16227160601392387
1761478274803858200,7.584858154296875,-0.03844868085980415,-0.02663622412160039,-0.09973258612304925
1761478274813893600,7.5948935546875,-0.09739069917201995,-0.04798376725055277,-0.0017022738732397555
1761478274823929600,7.6049296875,-0.16879063251912593,-0.030070363288745284,0.024629122082889077
1761478274833965600,7.614965576171875,-0.23320552928447721,-0.03979001246616244,0.03142623487710953
1761478274844001500,7.62500146484375,-0.2439946343243122,-0.07308079910613596,-0.0007191080547869205
1761478274854037500,7.63503759765625,-0.24679917035102844,-0.062642772526294,0.005830898110568523
1761478274864073500,7.645073486328125,-0.2553974873483181,-0.04799180442653596,0.07631123239472508
1761478274874109400,7.655109375,-0.2794078930109739,-0.03548376663960516,0.10365151313245295
1761478274884145400,7.6651455078125,-0.27361177395284175,-0.03240041367150843,0.07525646264478564
1761478274894181400,7.675181396484375,-0.21607377721965312,-0.05619388864785432,0.02447743865251541
1761478274904217600,7.685217529296875,-0.14913082328140734,-0.08800283923223615,-0.042631957893818614
1761478274914254300,7.69525439453125,-0.12211831319332123,-0.065883215752244,-0.034961861657351254
1761478274924290300,7.705290283203125,-0.15567863748967647,-0.006247662217915058,0.01179272912442684
1761478274934326500,7.715326416015625,-0.18373744176030157,0.04592150095850229,-0.01839797260835767
1761478274944362500,7.725362548828125,-0.20861761599481105,0.057927507507428526,-0.061197103762626645
1761478274954398500,7.7353984375,-0.16501695919930934,0.03927146848477423,-0.09184460935220122
1761478274964434400,7.745434326171875,-0.07348901458084584,0.0019070026651024816,-0.08209726845026016
1761478274974470400,7.755470458984375,0.02213642848432064,-0.055778731975704425,-0.03400967549905181
1761478274984506400,7.76550634765625,0.10606909566819667,-0.07029445632323622,-0.04776566752046346
1761478274994542300,7.775542236328125,0.1471113001525402,-0.05382241027615964,-0.0891224909119308
1761478275004578300,7.785578369140625,0.1004991865813732,-0.03437025243975222,-0.08498948276042938
1761478275014614300,7.7956142578125,-0.05535130034387111,-0.0038305911388248205,-0.021535832242667675
1761478275024651500,7.805651611328125,-0.22189678428471088,0.05357113892883062,0.007505553324520587
1761478275034687500,7.8156875,-0.37924306272566316,0.048879181720316404,0.0023731588721275327
1761478275044723500,7.825723388671875,-0.46509880692660804,-0.01684387503415346,-0.02787906378954649
1761478275054759400,7.835759521484375,-0.4325742554187774,-0.030800211933255193,-0.07225055882707238
1761478275064795400,7.84579541015625,-0.265735341489315,-0.05309599569775164,-0.06801350577920674
1761478275074831400,7.855831298828125,-0.061547232374548906,-0.0764234605975449,-0.02560834237858653
1761478275084867600,7.86586767578125,0.03216156341433525,-0.09557137479037046,0.08692556538954377
1761478275094903600,7.875903564453125,0.03574877425134182,-0.0543547635871917,0.14879136219397188
1761478275104939500,7.885939453125,-0.07711305029690266,-0.052119113489612935,0.14639394566342234
1761478275114975500,7.8959755859375,-0.20576456465125081,-0.042287382239848376,0.05228884403333067
1761478275125011500,7.906011474609375,-0.32479309513568877,-0.02988185497932136,-0.08849252244532108
1761478275135048400,7.91604833984375,-0.3353881389081478,-0.04076017267256975,-0.14635171395689248
1761478275145084400,7.92608447265625,-0.23462767104208468,-0.0328234613891691,-0.09194631616100668
1761478275155120400,7.936120361328125,-0.1237701720535755,-0.02608867324143648,0.0345220089353621
1761478275165156400,7.94615625,0.02255611520111561,-0.04290127635449171,0.14669862769842146
1761478275175192300,7.9561923828125,0.10074877742826938,-0.043130116674304005,0.13986308258995414
1761478275185228300,7.966228271484375,0.08475742757022381,-0.013996303583309054,0.002082797623425722
1761478275195264300,7.97626416015625,-0.021647183662652968,-0.02191277579627931,-0.06821940361484885
1761478275205300200,7.98630029296875,-0.16517887176275253,-0.008890212615951895,-0.09976225060895084
1761478275215336400,7.99633642578125,-0.2848340097129345,-0.00288067000284791,-0.16022124935537577
1761478275225372700,8.00637255859375,-0.3806289641261101,0.034386911313608284,-0.18914324632659554
1761478275235408600,8.01640869140625,-0.3602116145193577,0.032499782392755146,-0.132118898203969
1761478275245444600,8.026444580078126,-0.280202258259058,0.0012516805615276098,-0.09326572819650172
1761478275255480600,8.03648046875,-0.2113034940779209,0.007534121831879019,-0.10331789726391434
1761478275265516500,8.0465166015625,-0.11935118656754493,-0.016572218485921622,-0.04983692083656788
1761478275275552500,8.056552490234376,-0.04424713800549507,-0.034545462876185776,0.05346957825049758
1761478275285588500,8.06658837890625,-0.09966799645423889,-0.011905687979608774,0.10538725088387726
1761478275295624400,8.07662451171875,-0.17498481098413465,0.010344649207964539,0.03372165233790874
1761478275305661400,8.086661376953124,-0.17665128289163112,-0.019775763767585157,-0.05690919731035828
1761478275315697400,8.096697509765624,-0.13860884474515914,-0.05328348109386861,-0.08862550117522477
1761478275325733400,8.1067333984375,-0.10766425590515136,-0.045740810629352924,-0.09855053673163056
1761478275335769300,8.116769287109374,-0.09597440263330936,-0.01960800598524511,-0.02527282681390643
1761478275345805300,8.126805419921874,-0.04578969127237797,-0.01808123480938375,0.06976429496929049
1761478275355841300,8.13684130859375,-0.06259060394763946,-0.015248787862434983,0.10541296984702347
1761478275365877500,8.14687744140625,-0.117396545368433,-0.03305800079740584,0.053001668477803465
1761478275375913500,8.15691357421875,-0.17847616023123264,-0.04703881455063819,-0.10288330523893237
1761478275385949400,8.166949462890624,-0.144327222391963,-0.043622064909711475,-0.19065759641230104
1761478275395985400,8.1769853515625,-0.07172668108344078,-0.03227605663947761,-0.09657792148441076
1761478275406021400,8.187021484375,-0.04888473467826843,-0.009920724707469344,0.03687383275851607
1761478275416058600,8.19705859375,-0.09113105425536631,0.00007796060703694819,0.05643836492821574
1761478275426094600,8.207094482421875,-0.2533487381249666,0.03568681493103504,-0.022058979333937166
1761478275436130600,8.217130615234375,-0.4502992972016334,0.008170300843566656,-0.1374520759254694
1761478275446166500,8.22716650390625,-0.4956739779323339,0.01057918861620128,-0.2410122575126588
1761478275456202500,8.237202392578125,-0.2511749012172222,0.027733225578069686,-0.19395546891391277
1761478275466238500,8.247238525390625,0.11041969209313392,-0.03517828088700771,-0.03592106207832694
1761478275476274400,8.2572744140625,0.44216801319420335,0.1804977291867137,0.029733751745522022
1761478275486310400,8.267310302734375,1.0633598836302756,0.24929434816762802,0.031091303834319114
1761478275496346400,8.277346435546875,-0.40110008974671363,-0.34658787057548757,0.3252100053735077
1761478275506382600,8.287382568359375,-1.1680226196318864,-0.4314481739982962,-0.09964753818809985
1761478275516418600,8.29741845703125,-1.3839765698641537,0.09749459793791174,-0.12877294877693057
1761478275526455300,8.307455322265625,-1.1257523346573113,-0.06574117693305015,-0.07494257439002394
1761478275536491500,8.317491455078125,-0.6877221519201994,-0.05883987311199307,-0.06939516939595342
1761478275546527500,8.327527587890625,-0.17327917611002921,-0.13283420686647296,0.13803089872673152
1761478275556563500,8.3375634765625,0.5864391214847564,-0.11616612679064273,0.2844634228348732
1761478275566599400,8.347599365234375,0.7837813102275133,0.0353989379003644,0.25036913779228925
1761478275576635400,8.357635498046875,0.8101479236274958,0.08025339414924383,0.15682678461149335
1761478275586671400,8.36767138671875,0.7238526189655065,0.3645082887999713,-0.05954831364229321
