time,seconds_elapsed,z,y,x
1761478267295592700,0.0765927734375,0.0018018947448581457,-0.002623746171593666,0.023036077618598938
1761478267305628700,0.086628662109375,0.006533799227327108,-0.015926502645015717,-0.009904828853905201
1761478267315665000,0.096664794921875,0.0057588196359574795,-0.02309972606599331,-0.03783872351050377
1761478267325700900,0.106700927734375,0.0054602790623903275,-0.014240721240639687,-0.05582837760448456
1761478267335737600,0.116737548828125,0.0012895026011392474,-0.01721413992345333,-0.062489476054906845
1761478267345773800,0.12677392578125,-0.017609620466828346,0.006115150637924671,-0.04965437203645706
1761478267355809800,0.136809814453125,-0.0331672728061676,0.02255750633776188,-0.041197769343853
1761478267365845800,0.146845703125,-0.0322444885969162,0.014948589727282524,-0.046849530190229416
1761478267375881700,0.1568818359375,-0.022493857890367508,0.009431318379938602,-0.04404309019446373
1761478267385917700,0.166917724609375,-0.009097091853618622,-0.0012564794160425663,-0.04482100158929825
1761478267395953700,0.17695361328125,-0.005902097560465336,-0.01654142513871193,-0.04947354272007942
1761478267405989600,0.18698974609375,-0.004985171370208263,-0.014495586045086384,-0.04374295473098755
1761478267416025600,0.197025634765625,-0.011835354380309582,-0.005331648513674736,-0.03478807583451271
1761478267426061600,0.2070615234375,-0.01019857544451952,-0.0008801747462712228,-0.028125111013650894
1761478267436098600,0.2170986328125,-0.008858206681907177,0.0010436928132548928,-0.017256751656532288
1761478267446134800,0.227134765625,-0.013667342253029346,0.019959859549999237,0.003066896228119731
1761478267456170800,0.237170654296875,-0.018858643248677254,0.025415876880288124,0.017124125733971596
1761478267466206700,0.247206787109375,-0.02598978951573372,0.02365020103752613,0.018643192946910858
1761478267476242700,0.25724267578125,-0.02467045933008194,0.01852787844836712,0.00948058720678091
1761478267486278700,0.267278564453125,-0.01630387268960476,0.012635634280741215,0.00376064982265234
1761478267496315000,0.27731494140625,-0.017586184665560722,0.013407950289547443,-0.0020154803059995174
1761478267506350800,0.287350830078125,-0.0167989544570446,0.011051319539546967,-0.00615243474021554
1761478267516386800,0.29738671875,-0.019042667001485825,-0.0029526466969400644,-0.009049421176314354
1761478267526423800,0.307423828125,-0.01738191954791546,-0.006179332733154297,-0.005662412848323584
1761478267536459800,0.317459716796875,-0.012907808646559715,-0.01823040284216404,-0.003153715282678604
1761478267546495700,0.327495849609375,-0.0059934440068900585,-0.014602644369006157,0.008360461331903934
1761478267556531700,0.33753173828125,-0.005573463626205921,-0.003129746997728944,0.030819697305560112
1761478267566567700,0.347567626953125,-0.010403638705611229,0.009549296461045742,0.05236520245671272
1761478267576603600,0.357603759765625,-0.021872807294130325,0.021372666582465172,0.06353263556957245
1761478267586639600,0.3676396484375,-0.021617943421006203,0.018910307437181473,0.05633384734392166
1761478267596675600,0.377675537109375,-0.012405004352331161,-0.0070216902531683445,0.033611223101615906
1761478267606711600,0.387711669921875,0.007574296556413174,-0.02371198683977127,0.003990480676293373
1761478267616747500,0.39774755859375,0.017073525115847588,-0.0203420240432024,-0.0036487970501184464
1761478267626784800,0.40778466796875,0.01643010601401329,-0.01925891637802124,-0.01363378670066595
1761478267636820700,0.41782080078125,0.008713596500456333,-0.020612334832549095,-0.022785207256674767
1761478267646856700,0.427856689453125,0.0033361418172717094,-0.001431182725355029,-0.021946843713521957
1761478267656892700,0.437892578125,-0.0017291904659941792,0.010542389005422592,-0.02153591811656952
1761478267666929000,0.447928955078125,-0.001151018193922937,-0.0031041805632412434,-0.035161182284355164
1761478267676964900,0.45796484375,-0.0002996056282427162,-0.011835088022053242,-0.04626762866973877
1761478267687000800,0.468000732421875,-0.0035657063126564026,-0.004773716442286968,-0.04003370180726051
1761478267697036800,0.478036865234375,-0.009064601734280586,0.000035420041967881843,-0.027043068781495094
1761478267707072800,0.48807275390625,-0.019230686128139496,0.025202292948961258,-0.0049343048594892025
1761478267717109800,0.49810986328125,-0.022420620545744896,0.034808579832315445,0.00046072687837295234
1761478267727145700,0.508145751953125,-0.02509283646941185,0.020267454907298088,0.004735899157822132
1761478267737181700,0.518181640625,-0.02052791230380535,0.00887791346758604,0.004941495135426521
1761478267747217700,0.5282177734375,-0.019025621935725212,-0.007441937457770109,-0.0009057410643436015
1761478267757253600,0.538253662109375,-0.01606258936226368,-0.019478093832731247,-0.00703793577849865
1761478267767289600,0.54828955078125,-0.0032599754631519318,-0.009194297716021538,0.0035931370221078396
1761478267777325600,0.55832568359375,0.001190166687592864,0.00028762139845639467,0.019038937985897064
1761478267787361500,0.568361572265625,0.0009683253592811525,0.0007448861724697053,0.023906931281089783
1761478267797397500,0.5783974609375,0.0018010957865044475,0.005046956706792116,0.027774373069405556
1761478267807433200,0.58843310546875,0.0048858351074159145,-0.0035143073182553053,0.0210616085678339
1761478267817470000,0.598469970703125,0.010326406918466091,-0.01571371592581272,0.014636999927461147
1761478267827506200,0.608506103515625,0.010774883441627026,-0.014701448380947113,0.012603409588336945
1761478267837542400,0.61854248046875,0.005510346498340368,-0.007337541319429874,0.01780349761247635
1761478267847578400,0.628578369140625,0.003114300547167659,-0.006885603070259094,0.01582769863307476
1761478267857614300,0.6386142578125,0.0017004283145070076,0.008156729862093925,0.018220016732811928
1761478267867650300,0.648650390625,-0.001606152392923832,0.01611878164112568,0.0036464000586420298
1761478267877686300,0.658686279296875,-0.007762315683066845,0.009944509714841843,-0.0188439954072237
1761478267887722200,0.66872216796875,-0.015360580757260323,-0.014660435728728771,-0.05209489166736603
1761478267897758200,0.67875830078125,-0.01071150042116642,-0.03241439908742905,-0.060987986624240875
1761478267907795200,0.688795166015625,-0.00021598236344289035,-0.027849474921822548,-0.03669117018580437
1761478267917831200,0.6988310546875,0.000919323181733489,-0.021811023354530334,-0.006490922532975674
1761478267927867100,0.7088671875,-0.010127202607691288,-0.007071491796523333,0.011372762732207775
1761478267937903000,0.718903076171875,-0.02557620033621788,0.011211908422410488,0.022164424881339073
1761478267947939000,0.72893896484375,-0.04159964248538017,0.032834913581609726,0.025412682443857193
1761478267957975000,0.73897509765625,-0.048222921788692474,0.02719513513147831,0.007546333130449057
1761478267968011300,0.74901123046875,-0.04200577363371849,0.008874451741576195,-0.022849123924970627
1761478267978047200,0.759047119140625,-0.034212034195661545,-0.010445716790854931,-0.05469493567943573
1761478267988083200,0.769083251953125,-0.02931181527674198,-0.01569453999400139,-0.0625147745013237
1761478267998120200,0.7791201171875,-0.026608441025018692,-0.007625695317983627,-0.05447176471352577
1761478268008156400,0.789156494140625,-0.02695731446146965,0.003084739437326789,-0.039253395050764084
1761478268018192400,0.7991923828125,-0.02827691100537777,0.00950721837580204,-0.024509869515895844
1761478268028228400,0.809228271484375,-0.03244476020336151,0.022276010364294052,-0.006527940277010202
1761478268038264300,0.819264404296875,-0.019836023449897766,0.019844012334942818,0.006654440425336361
1761478268048300300,0.82930029296875,-0.011094995774328709,0.010002300143241882,0.01088646985590458
1761478268058336300,0.839336181640625,-0.002496447181329131,-0.0009150621481239796,0.011714446358382702
1761478268068372200,0.849372314453125,0.006185724399983883,-0.008547415025532246,0.014915299601852894
1761478268078408200,0.859408203125,0.010518155060708523,-0.009659551084041595,0.015486547723412514
1761478268088445200,0.869445068359375,0.008378038182854652,-0.0034378746058791876,0.01569826900959015
1761478268098481200,0.879481201171875,0.006442186422646046,-0.007377222646027803,0.011937619186937809
1761478268108517000,0.88951708984375,0.012295016087591648,-0.005036037415266037,0.0037915424909442663
1761478268118553000,0.899552978515625,0.02172660082578659,-0.0014064153656363487,0.004216849338263273
1761478268128589000,0.909589111328125,0.022307967767119408,-0.0016724651213735342,0.0020716730505228043
1761478268138625000,0.919625,0.023061376065015793,-0.0022450448013842106,0.0011025486746802926
1761478268148661200,0.9296611328125,0.017168866470456123,-0.0013962953817099333,0.0009488842915743589
1761478268158697200,0.939697265625,0.011860920116305351,0.005903162993490696,0.0014149374328553677
1761478268168734000,0.94973388671875,0.00672341650351882,0.0025656893849372864,-0.0012567456578835845
1761478268178770200,0.959770263671875,0.011257714591920376,-0.0011648666113615036,0.0032029838766902685
1761478268188806400,0.969806396484375,0.010688064619898796,0.008564460091292858,0.02093777246773243
1761478268198842400,0.97984228515625,-0.004828577395528555,0.009412144310772419,0.030284136533737183
1761478268208878300,0.98987841796875,-0.014346182346343994,0.011757057160139084,0.022973759099841118
1761478268218914300,0.999914306640625,-0.01907196082174778,0.008743690326809883,0.007435013074427843
1761478268228950300,1.0099501953125,-0.01714489795267582,0.00032330775866284966,-0.015419702976942062
1761478268238986200,1.019986328125,-0.018919894471764565,-0.008839031681418419,-0.036262400448322296
1761478268249022200,1.030022216796875,-0.02075481228530407,-0.00042450788896530867,-0.03840251639485359
1761478268259059200,1.04005908203125,-0.021677598357200623,0.021763086318969727,-0.027667846530675888
1761478268269095200,1.05009521484375,-0.01840830221772194,0.018607506528496742,-0.031155789270997047
1761478268279131100,1.060131103515625,-0.021859759464859962,0.0036013927310705185,-0.035238415002822876
1761478268289167000,1.0701669921875,-0.02262568473815918,0.0023012375459074974,-0.022850187495350838
1761478268299203000,1.080203125,-0.027281155809760094,0.012339756824076176,-0.00022290658671408892
1761478268309239000,1.090239013671875,-0.022479476407170296,0.001740109408274293,0.010753578506410122
1761478268319275300,1.100275146484375,-0.011789015494287014,-0.008010522462427616,0.020541761070489883
1761478268329311200,1.110311279296875,-0.004352670628577471,-0.0036663739010691643,0.030160831287503242
1761478268339348000,1.120347900390625,-0.0032317459117621183,-0.007586280815303326,0.029510222375392914
1761478268349384200,1.13038427734375,-0.007243531756103039,-0.0062701464630663395,0.02731337957084179
1761478268359420400,1.14042041015625,-0.01248995866626501,-0.009798035956919193,0.012478240765631199
1761478268369456400,1.150456298828125,-0.007192398887127638,-0.013863883912563324,-0.0007821703911758959
1761478268379492400,1.160492431640625,-0.006486927624791861,-0.014260428957641125,-0.00421391986310482
1761478268389528300,1.1705283203125,0.000028495824153651483,-0.003930026665329933,0.0049247173592448235
1761478268399564300,1.180564208984375,0.00025992453447543085,0.008890696801245213,0.010262491181492805
1761478268409600300,1.190600341796875,-0.005650429055094719,0.011750665493309498,0.0007494135061278939
1761478268419636200,1.20063623046875,-0.018069282174110413,0.004274373408406973,-0.006493852008134127
1761478268429673200,1.210673095703125,-0.026312829926609993,0.010230266489088535,-0.0012727247085422277
1761478268439709200,1.220709228515625,-0.027274232357740402,0.011870508082211018,0.0021315941121429205
1761478268449745200,1.2307451171875,-0.021315675228834152,0.009426791220903397,-0.002749447477981448
1761478268459781000,1.240781005859375,-0.017484983429312706,0.0028687571175396442,-0.005345230456441641
1761478268469817000,1.250817138671875,-0.011021225713193417,0.00006631271389778703,-0.007507450878620148
1761478268479853000,1.26085302734375,-0.006359894759953022,-0.011413242667913437,-0.007195062469691038
1761478268489889000,1.270888916015625,-0.004148405976593494,-0.007693605963140726,-0.010396447964012623
1761478268499925200,1.28092529296875,0.0013638047967106104,-0.001312139444053173,-0.002037850907072425
1761478268509962000,1.2909619140625,0.006352970842272043,0.0052054147236049175,0.003942277282476425
1761478268519998000,1.300998046875,0.006624347064644098,0.0062128882855176926,0.01127768773585558
1761478268530034200,1.3110341796875,0.005411010701209307,0.0032408006954938173,0.018185928463935852
1761478268540070400,1.3210703125,0.0023558323737233877,0.002237321576103568,0.014912636950612068
1761478268550106400,1.3311064453125,0.0006191849242895842,-0.005320463329553604,0.007081078831106424
1761478268560142300,1.341142333984375,0.004768656101077795,-0.012028699740767479,0.008422247134149075
1761478268570178300,1.35117822265625,0.004805141594260931,-0.01125345379114151,0.011766644194722176
1761478268580214300,1.36121435546875,-0.0013251889031380415,-0.006304234731942415,0.018373947590589523
1761478268590251300,1.371251220703125,-0.005362807307392359,0.010006295517086983,0.017526529729366302
1761478268600287200,1.381287353515625,-0.018610702827572823,0.018632806837558746,0.004387291613966227
1761478268610323200,1.3913232421875,-0.01677871309220791,0.014764298684895039,-0.01695821061730385
1761478268620359200,1.401359130859375,-0.017498565837740898,-0.0020413128659129143,-0.04284573346376419
1761478268630395100,1.41139501953125,-0.010586065240204334,-0.01624767854809761,-0.04971349239349365
1761478268640431000,1.42143115234375,-0.010157030075788498,-0.0202189851552248,-0.04012851044535637
1761478268650467000,1.431467041015625,-0.011487279087305069,-0.011741078458726406,-0.01823306642472744
1761478268660503000,1.4415029296875,-0.015155516564846039,0.0033920682035386562,0.00896926037967205
1761478268670539300,1.451539306640625,-0.016770724207162857,0.006160956807434559,0.022172680124640465
1761478268680576000,1.461575927734375,-0.021887455135583878,0.005829659756273031,0.016024239361286163
1761478268690612000,1.471612060546875,-0.0278521366417408,-0.0020788635592907667,0.005872536450624466
1761478268700648200,1.481648193359375,-0.03629142791032791,-0.0006415555253624916,-0.0017355820164084435
1761478268710684400,1.491684326171875,-0.034806981682777405,-0.007253385614603758,-0.009139436297118664
1761478268720720400,1.501720458984375,-0.026687270030379295,-0.008067513816058636,-0.01155545562505722
1761478268730756400,1.51175634765625,-0.015748336911201477,-0.003278617514297366,-0.0035840822383761406
1761478268740792300,1.521792236328125,-0.004181162919849157,-0.0023933828342705965,0.0032794165890663862
1761478268750829300,1.531829345703125,0.00848669558763504,-0.008654474280774593,0.006581736262887716
1761478268760865300,1.541865234375,0.014856710098683834,-0.014238057658076286,0.004048537462949753
1761478268770901200,1.5519013671875,0.020805146545171738,-0.014926218427717686,0.008820655755698681
1761478268780937200,1.561937255859375,0.022834209725260735,-0.022463496774435043,0.009802563115954399
1761478268790973200,1.57197314453125,0.018155567348003387,-0.012076104059815407,0.013786385767161846
1761478268801009200,1.582009033203125,0.011959457769989967,-0.01912549138069153,0.02352876216173172
1761478268811045000,1.592045166015625,0.006069876719266176,-0.012171978130936623,0.03376808390021324
1761478268821081000,1.6020810546875,-0.00003355582884978503,-0.00341577036306262,0.04205211251974106
1761478268831117000,1.612116943359375,0.0011925635626539588,0.004608866758644581,0.0421285443007946
1761478268841154000,1.622154052734375,0.0038131140172481537,0.0011853729374706745,0.02532586269080639
1761478268851190000,1.63218994140625,0.0009291769238188863,-0.00509968725964427,-0.0033606430515646935
1761478268861226000,1.64222607421875,0.0009169263648800552,-0.011994345113635063,-0.026191657409071922
1761478268871262000,1.652261962890625,-0.0012546151410788298,-0.014843926765024662,-0.03605387359857559
1761478268881298200,1.662298095703125,-0.010038785636425018,-0.007181480061262846,-0.03585759922862053
1761478268891334100,1.672334228515625,-0.017590444535017014,-0.0020812603179365396,-0.027472903952002525
1761478268901370000,1.6823701171875,-0.02256443165242672,-0.0030748858116567135,-0.012871856801211834
1761478268911406000,1.692406005859375,-0.026162361726164818,0.007928497157990932,0.014338991604745388
1761478268921443000,1.702443115234375,-0.02268933318555355,0.017649566754698753,0.029469475150108337
1761478268931479000,1.71247900390625,-0.0240789707750082,0.012340023182332516,0.027097929269075394
1761478268941515000,1.722514892578125,-0.01883227750658989,0.009044894017279148,0.018434401601552963
1761478268951551000,1.732551025390625,-0.014831677079200745,-0.002103630919009447,-0.005494900047779083
1761478268961587000,1.7425869140625,-0.015108113177120686,-0.0076097166165709496,-0.02105068974196911
1761478268971623200,1.752623046875,-0.010616425424814224,-0.007836883887648582,-0.03711621090769768
1761478268981659100,1.7626591796875,-0.002260757377371192,-0.00839987676590681,-0.04477466270327568
1761478268991695000,1.772695068359375,0.01065104641020298,-0.007455785758793354,-0.033361684530973434
1761478269001732000,1.782732177734375,0.01437947154045105,-0.0022740731947124004,-0.01672624982893467
1761478269011768000,1.79276806640625,0.013377591036260128,0.00390286254696548,0.0012242551892995834
1761478269021804000,1.802803955078125,0.007046990562230349,0.005362274590879679,0.012739763595163822
1761478269031840000,1.812840087890625,-0.0004881574132014066,0.0020330571569502354,0.019954001531004906
1761478269041876000,1.8228759765625,-0.0013632721966132522,0.003890878288075328,0.02587820217013359
1761478269051912200,1.832912109375,0.001341434195637703,-0.004347610287368298,0.03292546048760414
1761478269061948200,1.8429482421875,0.004627508576959372,0.004327903036028147,0.03632951155304909
1761478269071984000,1.852984130859375,0.005240302067250013,-0.002868490759283304,0.02599138766527176
1761478269082021000,1.863021240234375,0.0011619371362030506,-0.012791695073246956,0.006417952012270689
1761478269092057000,1.87305712890625,-0.0013960290234535933,-0.024873392656445503,-0.010537595488131046
1761478269102093000,1.883093017578125,-0.007256581448018551,-0.017224259674549103,-0.011966381222009659
1761478269112129000,1.89312890625,-0.006001433357596397,-0.005819006823003292,-0.00986488163471222
1761478269122165000,1.9031650390625,-0.009600695222616196,0.006170544307678938,-0.000990695902146399
1761478269132201000,1.913200927734375,-0.009020659141242504,0.014995994046330452,-0.001702026231214404
1761478269142237000,1.92323681640625,-0.00436092633754015,0.0062887887470424175,-0.0065567027777433395
1761478269152273200,1.933273193359375,-0.004524710588157177,0.0005845638806931674,-0.016896691173315048
1761478269162310100,1.94331005859375,0.00122558674775064,-0.005519401282072067,-0.013713149353861809
1761478269172346000,1.95334619140625,0.0073103769682347775,-0.012742427177727222,-0.004275705199688673
1761478269182382000,1.963382080078125,0.006966296583414078,-0.0020903151016682386,0.006158027332276106
1761478269192418000,1.97341796875,0.005057076457887888,-0.0023792681749910116,0.018206967040896416
1761478269202454000,1.9834541015625,0.004501008428633213,-0.006889065261930227,0.02203286439180374
1761478269212490000,1.993489990234375,0.005021390039473772,0.0009800433181226254,0.020911939442157745
1761478269222526000,2.00352587890625,-0.00013688647595699877,-0.00024501082953065634,0.01375283021479845
1761478269232562200,2.013562255859375,-0.003216299694031477,0.0020391824655234814,-0.0010519486386328936
1761478269242599000,2.023598876953125,-0.005826197564601898,0.006905843038111925,-0.003704723436385393
1761478269252635000,2.033634765625,-0.010302971117198467,0.02106533758342266,0.008155398070812225
1761478269262671000,2.043671142578125,-0.008383364416658878,0.019593141973018646,0.009772202931344509
1761478269272707000,2.05370703125,-0.008296279236674309,0.006703709252178669,-0.006582535337656736
1761478269282743000,2.063742919921875,-0.0051990230567753315,-0.0014799186028540134,-0.02154710330069065
1761478269292779000,2.073779052734375,0.0020277309231460094,-0.005308212712407112,-0.02028689533472061
1761478269302815000,2.08381494140625,0.005663211923092604,0.0060086240991950035,-0.010465689934790134
1761478269312851000,2.093850830078125,0.01050643716007471,0.01571717858314514,0.0033878071699291468
1761478269322888200,2.10388818359375,0.016283897683024406,0.034871164709329605,0.011951734311878681
1761478269332924200,2.113924072265625,0.016706008464097977,0.039798278361558914,0.013273993507027626
1761478269342960000,2.123960205078125,0.01224388275295496,0.026064356788992882,0.006216883193701506
1761478269352996000,2.13399609375,0.0065497783944010735,0.006566822528839111,-0.006960171274840832
1761478269363032000,2.144031982421875,0.0065564364194869995,-0.004351605195552111,-0.009896306321024895
1761478269373068000,2.154068115234375,0.0021856562234461308,-0.010539193637669086,-0.006460562348365784
1761478269383104000,2.16410400390625,-0.009814547374844551,-0.009753295220434666,-0.0046938215382397175
1761478269393140000,2.174139892578125,-0.022043516859412193,-0.00047111319145187736,-0.0048861014656722546
1761478269403176200,2.18417626953125,-0.022948725149035454,0.0020240023732185364,-0.010268350131809711
1761478269413213000,2.194212890625,-0.0204570721834898,-0.01056529302150011,-0.014763499610126019
1761478269423249000,2.204248779296875,-0.013555223122239113,-0.017102820798754692,-0.010683270171284676
1761478269433285000,2.21428515625,-0.021805962547659874,-0.021647771820425987,0.009243831969797611
1761478269443321000,2.224321044921875,-0.027873177081346512,-0.009909622371196747,0.03293904289603233
1761478269453357000,2.234357177734375,-0.0370754636824131,0.0012948289513587952,0.05121791362762451
1761478269463393000,2.24439306640625,-0.041188981384038925,0.0022024342324584723,0.05856131389737129
1761478269473429000,2.254428955078125,-0.04097006842494011,0.00818096473813057,0.051005661487579346
1761478269483465000,2.26446484375,-0.03358379378914833,-0.003516171593219042,0.022402510046958923
1761478269493502200,2.274502197265625,-0.028098214417696,-0.01792413927614689,-0.01410596538335085
1761478269503538200,2.2845380859375,-0.021154819056391716,-0.02949104644358158,-0.03050198219716549
1761478269513574100,2.29457421875,-0.0162426196038723,-0.02346537820994854,-0.02694772742688656
1761478269523610000,2.304610107421875,-0.011518970131874084,-0.003868241561576724,-0.016634903848171234
1761478269533646000,2.31464599609375,-0.0043902210891246796,0.01997077837586403,-0.0006934871198609471
1761478269543682000,2.32468212890625,0.007967911660671234,0.02616821974515915,0.005684517323970795
1761478269553718000,2.334718017578125,0.007415039464831352,0.01985892653465271,0.004737497307360172
1761478269563754000,2.34475390625,0.0065167550928890705,0.00908670574426651,-0.0009531453251838684
1761478269573791000,2.354791015625,0.002266882685944438,-0.014724617823958397,-0.010527742095291615
1761478269583827000,2.364826904296875,-0.005033640656620264,-0.015080415643751621,-0.008286159485578537
1761478269593863000,2.37486279296875,-0.0030037793330848217,-0.011965316720306873,0.0033534523099660873
1761478269603899000,2.38489892578125,-0.003245860803872347,-0.0049279131926596165,0.016768060624599457
1761478269613935000,2.39493505859375,-0.0008434231276623905,-0.008380701765418053,0.019153188914060593
1761478269623971000,2.40497119140625,0.00047590688336640596,-0.011120561510324478,0.012470251880586147
1761478269634007000,2.415007080078125,0.0031521173659712076,-0.010293384082615376,0.004347078036516905
1761478269644043000,2.42504296875,0.0065228804014623165,-0.015972841531038284,-0.0023699470330029726
1761478269654080300,2.435080322265625,-0.0006207828409969807,-0.01176078524440527,-0.0013646037550643086
1761478269664116200,2.4451162109375,-0.006892260629683733,0.011356784030795097,0.009265403263270855
1761478269674152200,2.455152099609375,-0.011744273826479912,0.016823720186948776,0.012831642292439938
1761478269684188200,2.465188232421875,-0.01261060032993555,0.006274407263845205,0.002029328839853406
1761478269694224100,2.47522412109375,-0.00836711935698986,-0.010789530351758003,-0.017917482182383537
1761478269704260000,2.485260009765625,-0.008643555454909801,-0.01121936459094286,-0.016923323273658752
1761478269714296000,2.495296142578125,-0.014432734809815884,-0.0028032432310283184,-0.005516471806913614
1761478269724332000,2.50533203125,-0.016996294260025024,0.0007882956997491419,-0.003718838095664978
1761478269734369000,2.515369140625,-0.0083700492978096,-0.00358754419721663,0.0023529028985649347
1761478269744405000,2.525405029296875,-0.004941229242831469,-0.004477572627365589,0.003512975759804249
1761478269754441000,2.53544091796875,0.0018556906143203378,-0.0032288164366036654,0.004066114313900471
1761478269764477000,2.545476806640625,0.002379800658673048,-0.0019185412675142288,-0.0036016590893268585
1761478269774513000,2.555512939453125,-0.0021403825376182795,0.0007134608458727598,-0.00794420950114727
1761478269784549000,2.565549072265625,-0.005675196181982756,0.0025039040483534336,-0.020228838548064232
1761478269794585000,2.575585205078125,-0.0034266894217580557,0.0013755226973444223,-0.0372626818716526
1761478269804621800,2.585621826171875,0.00797270517796278,-0.020181167870759964,-0.04796113446354866
1761478269814658000,2.595657958984375,0.02093217894434929,-0.023070165887475014,-0.032944101840257645
1761478269824694800,2.60569482421875,0.02556661330163479,-0.01303137931972742,-0.0009832390351220965
1761478269834730800,2.615730712890625,0.02365366369485855,0.0007896272582001984,0.02532746084034443
1761478269844767000,2.62576708984375,0.01347719319164753,0.01552356593310833,0.04429502785205841
1761478269854803000,2.635802978515625,0.007392136380076408,0.011087005957961082,0.04271896928548813
1761478269864839000,2.6458388671875,0.011726963333785534,0.0031491878908127546,0.024862471967935562
1761478269874875000,2.655875,0.01398798730224371,-0.011028416454792023,0.0012636699248105288
1761478269884910800,2.665910888671875,0.015873771160840988,-0.021167069673538208,-0.01624501682817936
1761478269894947000,2.675947021484375,0.011609517969191074,-0.01708337850868702,-0.01196984387934208
1761478269904984000,2.685984130859375,-0.0036069853231310844,-0.0029411951545625925,0.007257646415382624
1761478269915020000,2.69602001953125,-0.018640529364347458,0.005221926141530275,0.02310292236506939
1761478269925056000,2.706055908203125,-0.034925758838653564,0.004715126473456621,0.022587068378925323
1761478269935092000,2.716092041015625,-0.042333874851465225,0.0022887205705046654,0.022424615919589996
1761478269945128000,2.7261279296875,-0.03819851949810982,0.0021979068405926228,0.024216655641794205
1761478269955164000,2.736163818359375,-0.025463547557592392,-0.001525991247035563,0.01242098305374384
1761478269965200000,2.746199951171875,-0.013553359545767307,-0.011435613967478275,-0.0067931911908090115
1761478269975235800,2.75623583984375,-0.006177734583616257,-0.021858161315321922,-0.02594238519668579
1761478269985272800,2.76627294921875,-0.009815346449613571,-0.02027145028114319,-0.029030585661530495
1761478269995308800,2.776308837890625,-0.015792544931173325,0.000467118457891047,-0.016201606020331383
1761478270005344800,2.7863447265625,-0.019776634871959686,0.007391603663563728,0.0034288198221474886
1761478270015380700,2.796380615234375,-0.015014369040727615,0.0086054727435112,0.013136841356754303
1761478270025417000,2.8064169921875,-0.0065100970678031445,-0.0015180017799139023,0.010991664603352547
1761478270035453000,2.816452880859375,0.004264520015567541,-0.018740931525826454,0.0015542207984253764
1761478270045489000,2.826489013671875,0.007026750594377518,-0.02165043354034424,0.002228266792371869
1761478270055524900,2.83652490234375,0.007660582661628723,-0.005061870440840721,0.010233995504677296
1761478270065561000,2.84656103515625,0.0086629968136549,0.0014849785948172212,0.016686834394931793
1761478270075598000,2.85659814453125,0.01624927669763565,0.007483748719096184,0.01900644786655903
1761478270085634000,2.866634033203125,0.021696239709854126,0.008917328901588917,0.012941897846758366
1761478270095670000,2.876669921875,0.02382650226354599,-0.00839694682508707,-0.00030067088664509356
1761478270105706000,2.8867060546875,0.020015252754092216,-0.02316124550998211,-0.005939914379268885
1761478270115742000,2.896741943359375,0.009029713459312916,-0.017014402896165848,0.0014149374328553677
1761478270125778000,2.90677783203125,-0.010854777880012989,-0.008300806395709515,0.01732412911951542
1761478270135814000,2.91681396484375,-0.03173422813415527,0.01509799249470234,0.028052672743797302
1761478270145849900,2.926849853515625,-0.041672080755233765,0.018506838008761406,0.023660855367779732
1761478270155885800,2.9368857421875,-0.036128975450992584,0.00879002921283245,0.006415554787963629
1761478270165922800,2.9469228515625,-0.02678500860929489,-0.015516641549766064,-0.018610170111060143
1761478270175958800,2.956958740234375,-0.020778780803084373,-0.03248364105820656,-0.03641286864876747
1761478270185994800,2.966994873046875,-0.02262568473815918,-0.034025877714157104,-0.035834431648254395
1761478270196031000,2.977031005859375,-0.030359769240021706,-0.02273407392203808,-0.016208264976739883
1761478270206067000,2.98706689453125,-0.03904833272099495,-0.0005422196118161082,0.00875913631170988
1761478270216103000,2.99710302734375,-0.037518881261348724,0.014055364765226841,0.029701435938477516
1761478270226139000,3.007138916015625,-0.03184607997536659,0.016267653554677963,0.03193715959787369
1761478270236174800,3.0171748046875,-0.02412237972021103,0.0071157002821564674,0.025719212368130684
1761478270246212000,3.027212158203125,-0.01563808135688305,0.003061836352571845,0.019461315125226974
1761478270256248000,3.037248046875,-0.00891013815999031,0.0031228226143866777,0.008898952975869179
1761478270266284000,3.047283935546875,-0.0009555422002449632,-0.006773217581212521,-0.001606685109436512
1761478270276320000,3.057320068359375,0.007782022934406996,-0.007149255834519863,-0.007745005190372467
1761478270286356000,3.06735595703125,0.0129363052546978,-0.011153851635754108,-0.015275891870260239
1761478270296392000,3.077391845703125,0.020722854882478714,-0.007556453347206116,-0.014307300560176373
1761478270306428000,3.087427978515625,0.03116084821522236,-0.0022120214998722076,-0.014593856409192085
1761478270316463900,3.0974638671875,0.038607846945524216,-0.006209160201251507,-0.008756740018725395
1761478270326500900,3.1075009765625,0.034379810094833374,-0.0017994979862123728,-0.0015939018921926618
1761478270336536800,3.117536865234375,0.019291140139102936,0.01091816183179617,0.018848787993192673
1761478270346572800,3.12757275390625,0.009718939661979675,0.019153721630573273,0.027362914755940437
1761478270356608800,3.13760888671875,0.0029174929950386286,0.00990163255482912,0.021221132948994637
1761478270366644700,3.147644775390625,0.0031521173659712076,0.006998787168413401,0.019593941047787666
1761478270376681000,3.157680908203125,0.003706587478518486,0.0012918994762003422,0.010452641174197197
1761478270386717000,3.167717041015625,0.0011534150689840317,-0.008446748368442059,0.004138285759836435
1761478270396753000,3.1777529296875,-0.00902891531586647,-0.011004181578755379,-0.0027811392210423946
1761478270406788900,3.187788818359375,-0.012740562669932842,-0.005854693241417408,-0.009617207571864128
1761478270416826000,3.197826171875,-0.017422134056687355,-0.003963316325098276,-0.005665875039994717
1761478270426862000,3.207862060546875,-0.008161257021129131,0.013233247213065624,0.004664793144911528
1761478270436898000,3.21789794921875,0.0035840822383761406,0.017796041443943977,0.016390424221754074
1761478270446934000,3.22793408203125,0.007275223266333342,0.019481290131807327,0.02251516282558441
1761478270456970000,3.237969970703125,0.005076517816632986,0.023075757548213005,0.015309447422623634
1761478270467006000,3.248005859375,0.0034107104875147343,0.0030799456872045994,-0.0021164140198379755
1761478270477042000,3.2580419921875,0.0025185514241456985,-0.008051801472902298,-0.009590309113264084
1761478270487078000,3.268077880859375,0.0034194989129900932,-0.013282782398164272,-0.011678227223455906
1761478270497113900,3.27811376953125,-0.0006226470577530563,-0.014109693467617035,-0.004613127559423447
1761478270507150800,3.28815087890625,-0.008065649308264256,-0.012379171326756477,0.0044352286495268345
1761478270517186800,3.298186767578125,-0.015136076137423515,-0.004037085920572281,0.02149011194705963
1761478270527222800,3.308222900390625,-0.017233582213521004,0.000041811628761934116,0.03410710394382477
1761478270537258800,3.3182587890625,-0.023992683738470078,-0.001395230065099895,0.03518781438469887
1761478270547295000,3.328294921875,-0.024101873859763145,-0.0007765777409076691,0.027342675253748894
1761478270557331000,3.3383310546875,-0.024172447621822357,-0.010274475440382957,0.01667245291173458
1761478270567367000,3.348366943359375,-0.016986440867185593,-0.025058748200535774,0.00806298665702343
1761478270577403000,3.35840283203125,-0.018099907785654068,-0.026609772816300392,0.006884271278977394
1761478270587438800,3.36843896484375,-0.027753334492444992,-0.01762906089425087,0.0021342572290450335
1761478270597476000,3.37847607421875,-0.038176946341991425,-0.014112889766693115,0.001401355373673141
1761478270607512000,3.388511962890625,-0.04180843383073807,-0.005021656397730112,0.00538437906652689
1761478270617548000,3.398548095703125,-0.03732553496956825,0.003478088416159153,-0.00316037330776453
1761478270627584000,3.408583984375,-0.018265290185809135,0.00024101608141791075,-0.00398755120113492
1761478270637620000,3.418619873046875,-0.008410262875258923,0.00016591492749284953,-0.00155288923997432
1761478270647656000,3.428656005859375,-0.006357764359563589,-0.0003070624661631882,-0.008745022118091583
1761478270657692000,3.43869189453125,-0.009074455127120018,0.003085272153839469,-0.01013705600053072
1761478270667728000,3.448727783203125,-0.007799599785357714,0.0027779433876276016,-0.006141515914350748
1761478270677764900,3.458764892578125,-0.007861651480197906,0.007270163390785456,-0.0047028763219714165
1761478270687800800,3.46880078125,-0.006850715726613998,0.010046509094536304,-0.004462126176804304
1761478270697836800,3.4788369140625,-0.004999552387744188,0.00711703160777688,-0.011901932768523693
1761478270707872800,3.488872802734375,-0.00392896169796586,-0.0031667647417634726,-0.01420530118048191
1761478270717908700,3.49890869140625,-0.0076243639923632145,-0.0006207828409969807,-0.010566890239715576
1761478270727945000,3.508945068359375,-0.005873335525393486,0.006490656174719334,-0.002695385366678238
1761478270737981000,3.51898095703125,0.0062429821118712425,0.005805158521980047,0.002510828198865056
1761478270748017000,3.529016845703125,0.007533283904194832,-0.003635214874520898,0.0016873788554221392
1761478270758052900,3.539052978515625,0.008921056985855103,0.0048826392740011215,0.004765460267663002
1761478270768090000,3.549090087890625,0.0044352286495268345,0.006788664031773806,0.011536281555891037
1761478270778126000,3.5591259765625,-0.00170815153978765,0.0029710223898291588,0.009945042431354523
1761478270788162000,3.569162109375,-0.0017544905422255397,-0.003624029690399766,0.014990933239459991
1761478270798198000,3.579197998046875,-0.007903463207185268,-0.005094094667583704,0.01829831302165985
1761478270808234000,3.58923388671875,-0.014579741284251213,-0.0006359628750942647,0.018313493579626083
1761478270818270000,3.59927001953125,-0.013739247806370258,0.0018239989876747131,0.012015650048851967
1761478270828306000,3.609305908203125,-0.012446549721062183,0.00015952334797475487,-0.006331399083137512
1761478270838342000,3.619341796875,-0.009436644613742828,-0.008860869333148003,-0.022845394909381866
1761478270848377900,3.6293779296875,-0.007257113698869944,-0.01065237820148468,-0.0317147858440876
1761478270858414800,3.639414794921875,-0.0054666707292199135,-0.00148125016130507,-0.028004469349980354
1761478270868450800,3.649450927734375,-0.008287757635116577,0.016047408804297447,-0.010962103493511677
1761478270878486800,3.65948681640625,-0.011621768586337566,0.019879432395100594,-0.0001203748834086582
1761478270888522800,3.669522705078125,-0.016346482560038567,0.01954840123653412,-0.0035236284602433443
1761478270898559000,3.67955908203125,-0.015447932295501232,0.00324799120426178,-0.01613769121468067
1761478270908595200,3.68959521484375,-0.016476711258292198,-0.024086693301796913,-0.023186812177300453
1761478270918631200,3.699631103515625,-0.008434497751295567,-0.026492593809962273,-0.018184330314397812
1761478270928667100,3.709667236328125,-0.004723382648080587,-0.023148195818066597,0.0030980552546679974
1761478270938703000,3.719703125,-0.003486610483378172,-0.0067423246800899506,0.029814088717103004
1761478270948740000,3.729739990234375,-0.013112073764204979,0.0044440170750021935,0.04116661101579666
1761478270958776000,3.739776123046875,-0.028132569044828415,0.009912019595503807,0.0277946125715971
1761478270968812000,3.74981201171875,-0.041059818118810654,0.009190302342176437,-0.0014705975772812963
1761478270978848000,3.759847900390625,-0.034458376467227936,-0.00020532972121145576,-0.01763518713414669
1761478270988884000,3.769884033203125,-0.02570376545190811,-0.0027955202385783195,-0.023449931293725967
1761478270998920000,3.779919921875,-0.01793425902724266,0.010200705379247665,-0.0182863287627697
1761478271008956000,3.789955810546875,-0.008175105787813663,0.006325273774564266,-0.01689722388982773
1761478271018991900,3.799991943359375,-0.001401089015416801,0.005255482159554958,-0.016283631324768066
1761478271029027800,3.81002783203125,0.001996571896597743,0.001678057829849422,-0.01028406247496605
1761478271039063800,3.820063720703125,0.010063020512461662,-0.006608367897570133,-0.00603472301736474
1761478271049100800,3.830100830078125,0.012018047273159027,-0.01344576757401228,0.0034413367975503206
1761478271059136800,3.84013671875,0.006759635638445616,-0.011355718597769737,0.01877768151462078
1761478271069173000,3.850173095703125,0.0007965514669194818,-0.010309362784028053,0.02496607042849064
1761478271079209200,3.860209228515625,-0.008739429526031017,0.001746234716847539,0.03771595284342766
1761478271089245200,3.8702451171875,-0.017492707818746567,0.005253351293504238,0.03783233463764191
1761478271099281200,3.88028125,-0.010009224526584148,-0.0002633866388350725,0.025602566078305244
1761478271109317000,3.890317138671875,0.011064901947975159,-0.01636885292828083,0.006911968346685171
1761478271119353000,3.90035302734375,0.021280787885189056,-0.0347803495824337,-0.008009989745914936
1761478271129389000,3.91038916015625,0.01817847043275833,-0.029089175164699554,-0.01044518407434225
1761478271139426000,3.920426025390625,0.0025334651581943035,-0.02369680628180504,0.004775580484420061
1761478271149462000,3.9304619140625,-0.021918615326285362,-0.0011917646043002605,0.016082296147942543
1761478271159498000,3.940498046875,-0.03289642930030823,0.012198342941701412,0.02088850364089012
1761478271169534000,3.950533935546875,-0.03447036072611809,0.015143533237278461,0.01882908120751381
1761478271179570000,3.96056982421875,-0.0320599302649498,0.008046741597354412,0.010849984362721443
1761478271189606000,3.97060595703125,-0.03206312656402588,-0.006195311434566975,-0.0036599822342395782
1761478271199641900,3.980641845703125,-0.03549567610025406,-0.006934072356671095,-0.010026535019278526
1761478271209677800,3.990677734375,-0.03633350506424904,0.004749747924506664,-0.02002856880426407
1761478271219714000,4.000714111328125,-0.03634921833872795,0.012348279356956482,-0.02930089645087719
1761478271229749000,4.0107490234375,-0.02899809554219246,0.017186444252729416,-0.03639981895685196
1761478271239785000,4.020784912109375,-0.01998116448521614,0.007932491600513458,-0.03908934444189072
1761478271249821000,4.030821044921875,-0.020179569721221924,0.0012777847005054355,-0.03741288557648659
1761478271259857000,4.04085693359375,-0.020023776218295097,-0.0024322650860995054,-0.03159813955426216
1761478271269892900,4.050892822265625,-0.018989935517311096,-0.003430950455367565,-0.019752666354179382
1761478271279929900,4.060929931640625,-0.014390391297638416,-0.006398244295269251,-0.0018580874893814325
1761478271289965800,4.0709658203125,-0.0068176924251019955,0.0001573928166180849,0.01489239651709795
1761478271300002000,4.081001953125,0.006864830385893583,-0.0011233213590458035,0.025198830291628838
1761478271310038000,4.0910380859375,0.013685718178749084,-0.00815166998654604,0.02479749172925949
1761478271320074000,4.101073974609375,0.0200959462672472,-0.013099290430545807,0.02245470881462097
1761478271330110000,4.11110986328125,0.01836409419775009,-0.018626147881150246,0.02093697339296341
1761478271340146200,4.121146240234375,0.01582104153931141,-0.013802364468574524,0.018570488318800926
1761478271350182100,4.13118212890625,0.006376406643539667,-0.01008166279643774,0.02026958577334881
1761478271360218000,4.141218017578125,0.0015851134667173028,-0.005420598201453686,0.01497948169708252
1761478271370255000,4.151255126953125,-0.003486876841634512,0.00016884441720321774,0.010477142408490181
1761478271380291000,4.161291015625,0.0011819108622148633,-0.00689172837883234,0.00040320257539860904
1761478271390327000,4.1713271484375,0.00860573910176754,-0.017858892679214478,-0.010062754154205322
1761478271400363000,4.181363037109375,0.012600214220583439,-0.017415741458535194,-0.019413644447922707
1761478271410399000,4.19139892578125,0.011202853173017502,-0.014740063808858395,-0.019461581483483315
1761478271420435000,4.20143505859375,0.00740278884768486,-0.007198524195700884,-0.01780935749411583
1761478271430471000,4.211470947265625,0.004661597311496735,0.006911968346685171,-0.0008530105114914477
1761478271440507000,4.2215068359375,-0.0028280108235776424,0.014401310123503208,0.014395717531442642
1761478271450542800,4.23154296875,-0.010185792110860348,0.01624102145433426,0.020624319091439247
1761478271460578800,4.241578857421875,-0.017402691766619682,0.007668306119740009,0.022493325173854828
1761478271470615800,4.25161572265625,-0.020350012928247452,-0.0046663908287882805,0.01531610544770956
1761478271480652000,4.261652099609375,-0.023679763078689575,-0.015738217160105705,-0.0007848335662856698
1761478271490688000,4.27168798828125,-0.023205187171697617,-0.016444221138954163,-0.008598814718425274
1761478271500724000,4.281723876953125,-0.024028103798627853,-0.015147261321544647,-0.011602327227592468
1761478271510760200,4.29176025390625,-0.020200077444314957,-0.004288754425942898,-0.009836651384830475
1761478271520796200,4.301796142578125,-0.01654808409512043,0.0006476807757280767,-0.005636580288410187
1761478271530832100,4.31183203125,-0.012703810818493366,0.005494633689522743,-0.004129763692617416
1761478271540868000,4.3218681640625,-0.008957009762525558,0.0062698801048099995,-0.002254898427054286
1761478271550904000,4.331904052734375,-0.008074704557657242,-0.003891144646331668,-0.005681055132299662
1761478271560941000,4.341941162109375,-0.011213505640625954,-0.01335788331925869,-0.0027925907634198666
1761478271570977000,4.35197705078125,-0.014279603026807308,-0.004382231738418341,0.006844057701528072
1761478271581013000,4.362012939453125,-0.013797038234770298,0.007044061087071896,0.013093165121972561
1761478271591049000,4.372049072265625,-0.0043649207800626755,0.007597998715937138,0.005238970275968313
1761478271601085000,4.3820849609375,0.006947921123355627,-0.005138036794960499,-0.01014185044914484
1761478271611121000,4.392120849609375,0.021455490961670876,-0.01907435804605484,-0.025068068876862526
1761478271621156900,4.402156982421875,0.023752734065055847,-0.028364529833197594,-0.02835254557430744
1761478271631192800,4.41219287109375,0.017895109951496124,-0.01882801577448845,-0.012472381815314293
1761478271641228800,4.422228759765625,0.005022721830755472,0.0032051142770797014,0.012465192005038261
1761478271651266000,4.43226611328125,-0.004667988512665033,0.02184564433991909,0.02899649739265442
1761478271661302000,4.442302001953125,-0.011406052857637405,0.020961208269000053,0.029696909710764885
1761478271671338000,4.452337890625,-0.014990135096013546,0.003061037277802825,0.013250557705760002
1761478271681374000,4.4623740234375,-0.01079512294381857,-0.007212372962385416,0.00021411814668681473
1761478271691410200,4.47241015625,-0.0024311996530741453,-0.012295814231038094,-0.005185174755752087
1761478271701446100,4.482446044921875,0.0025829998776316643,-0.016025571152567863,-0.011506720446050167
1761478271711482000,4.492482177734375,0.006738330237567425,-0.0036751623265445232,-0.011462777853012085
1761478271721518000,4.50251806640625,0.006218214984983206,0.0030146983917802572,-0.007184675894677639
1761478271731554000,4.512553955078125,0.00020905814017169178,0.0054703992791473866,-0.00926114246249199
1761478271741591000,4.522591064453125,-0.010093114338815212,0.01017034612596035,-0.010326140560209751
1761478271751627000,4.532626953125,-0.020551614463329315,0.012134959921240807,-0.007819040678441525
1761478271761663000,4.5426630859375,-0.02514529973268509,0.008363923989236355,-0.004575310740619898
1761478271771699000,4.552698974609375,-0.027595674619078636,0.0064981128089129925,-0.002132925670593977
1761478271781735000,4.56273486328125,-0.030356042087078094,-0.00015686018741689622,-0.002974750939756632
1761478271791771000,4.57277099609375,-0.024028902873396873,-0.0031494542490690947,-0.008858473040163517
1761478271801808000,4.582807861328125,-0.012771721929311752,-0.012465724721550941,-0.01720402017235756
1761478271811843300,4.59284326171875,-0.004237089306116104,-0.012693957425653934,-0.02136813849210739
1761478271821879300,4.60287939453125,-0.0013395700370892882,-0.016498282551765442,-0.012397813610732555
1761478271831915300,4.612915283203125,-0.004856806714087725,-0.012251073494553566,0.006741792429238558
1761478271841952500,4.622952392578125,-0.011117632500827312,-0.0030277478508651257,0.02263500541448593
1761478271851988500,4.632988525390625,-0.017404023557901382,-0.0030125677585601807,0.03484320268034935
1761478271862024400,4.6430244140625,-0.021981464698910713,0.0012815131340175867,0.034502316266298294
1761478271872060400,4.653060302734375,-0.012594887986779213,-0.003935885615646839,0.03652525320649147
1761478271882096600,4.6630966796875,0.006346845533698797,-0.0051777176558971405,0.03081117570400238
1761478271892132600,4.673132568359375,0.019229087978601456,0.0003246393462177366,0.017055682837963104
1761478271902168600,4.68316845703125,0.030946996062994003,0.0009861685102805495,-0.0029704899061471224
1761478271912204500,4.69320458984375,0.03834179788827896,0.005973204039037228,-0.0244374331086874
1761478271922240500,4.703240478515625,0.04031200334429741,0.006205165293067694,-0.043041475117206573
1761478271932277500,4.713277587890625,0.037455763667821884,0.004050401505082846,-0.05289064347743988
1761478271942313500,4.7233134765625,0.023058447986841202,-0.003756654914468527,-0.05023600533604622
1761478271952349400,4.733349365234375,0.012148541398346424,-0.00015472965606022626,-0.03465811163187027
1761478271962385400,4.743385498046875,-0.0018309232546016574,0.01726953499019146,0.0019118833588436246
1761478271972421400,4.75342138671875,-0.012827647849917412,0.033294305205345154,0.032409604638814926
1761478271982457300,4.763457275390625,-0.02117372862994671,0.029513683170080185,0.03837508708238602
1761478271992493300,4.773493408203125,-0.02520788460969925,0.016166718676686287,0.023058980703353882
1761478272002529300,4.783529296875,-0.023847809061408043,-0.011569837108254433,0.0006791060441173613
1761478272012565200,4.793565185546875,-0.02303767390549183,-0.028059598058462143,-0.019525498151779175
1761478272022602500,4.8036025390625,-0.025666747242212296,-0.03219202533364296,-0.03050384670495987
1761478272032638500,4.813638427734375,-0.029398901388049126,-0.03183995559811592,-0.033317212015390396
1761478272042674400,4.82367431640625,-0.03599608317017555,-0.01992896758019924,-0.023262178525328636
1761478272052710700,4.833710693359375,-0.047030892223119736,0.0011089402250945568,0.005575860384851694
1761478272062746600,4.84374658203125,-0.05086185038089752,0.017166202887892723,0.028792764991521835
1761478272072782600,4.853782470703125,-0.04225051775574684,0.020844828337430954,0.04075568541884422
1761478272082818600,4.863818603515625,-0.02658873423933983,0.006632336415350437,0.038727156817913055
1761478272092854500,4.8738544921875,-0.007598265074193478,-0.018128138035535812,0.029202094301581383
1761478272102890500,4.883890380859375,0.009631055407226086,-0.021372932940721512,0.020167585462331772
1761478272112927500,4.893927490234375,0.01847674511373043,-0.02742816135287285,0.009384979493916035
1761478272122963500,4.90396337890625,0.018728148192167282,-0.027106719091534615,0.005042961798608303
1761478272132999400,4.91399951171875,0.017956895753741264,-0.01816701889038086,0.002216815249994397
1761478272143035400,4.924035400390625,0.02003602683544159,-0.015629826113581657,0.005823800805956125
1761478272153071400,4.9340712890625,0.020677048712968826,-0.007333812769502401,0.012379437685012817
1761478272163107300,4.944107421875,0.011606056243181229,0.008214520290493965,0.01870817318558693
1761478272173143300,4.954143310546875,0.0035414716694504023,0.017528127878904343,0.018754778429865837
1761478272183179300,4.96417919921875,0.0008215851848945022,0.01293417438864708,0.009698433801531792
1761478272193215500,4.974215576171875,0.006959904916584492,-0.0021044297609478235,-0.005965214688330889
1761478272203252500,4.98425244140625,0.017878333106637,-0.015479356981813908,-0.01695900969207287
1761478272213288400,4.994288330078125,0.017728131264448166,-0.004542553797364235,-0.020236030220985413
1761478272223324400,5.004324462890625,0.012926717288792133,0.005164135713130236,-0.020061058923602104
1761478272233360600,5.014360595703125,0.0023790018167346716,0.006719687953591347,-0.028057200834155083
1761478272243396600,5.024396728515625,-0.007705057505518198,-0.004628574009984732,-0.0491691455245018
1761478272253432600,5.0344326171875,-0.02636715956032276,-0.00327275856398046,-0.059854280203580856
1761478272263468500,5.044468505859375,-0.034452781081199646,-0.005628058221191168,-0.05120033770799637
1761478272273504500,5.05450439453125,-0.03370523452758789,-0.014450045302510262,-0.028178641572594643
1761478272283541500,5.06454150390625,-0.04242522269487381,-0.0032208270858973265,0.006620618514716625
1761478272293577500,5.074577392578125,-0.04595310986042023,0.005260009318590164,0.029346436262130737
1761478272303613400,5.084613525390625,-0.04854516685009003,0.008832373656332493,0.027157051488757133
1761478272313649400,5.0946494140625,-0.042399656027555466,0.006813431158661842,0.010337858460843563
1761478272323685400,5.104685302734375,-0.029268139973282814,0.0006061354652047157,-0.015731291845440865
1761478272333721300,5.114721435546875,-0.0070435283705592155,0.0006375607335940003,-0.034138262271881104
1761478272343757300,5.12475732421875,0.00714552728459239,-0.006958040874451399,-0.03829545900225639
1761478272353793300,5.134793212890625,0.021458687260746956,0.0024458470288664103,-0.02895042486488819
1761478272363829200,5.144829345703125,0.02634718455374241,0.0082102594897151,-0.006139917764812708
1761478272373866500,5.154866455078125,0.02701031230390072,0.010394318029284477,0.016868729144334793
1761478272383902500,5.16490234375,0.02311810292303562,0.002097239252179861,0.02870754525065422
1761478272393938400,5.1749384765625,0.01702266000211239,-0.007381749805063009,0.033313214778900146
1761478272403974700,5.184974609375,0.013361345045268536,-0.011627361178398132,0.038054972887039185
1761478272414010600,5.1950107421875,0.005364671815186739,-0.004582767374813557,0.042641736567020416
1761478272424046600,5.205046630859375,0.005584116093814373,-0.00043036683928221464,0.0369657427072525
1761478272434082600,5.21508251953125,0.007156180217862129,-0.0009411611245013773,0.024816665798425674
1761478272444118500,5.225118408203125,0.011896872892975807,-0.00023462448734790087,0.01025849673897028
1761478272454154500,5.235154541015625,0.0068094367161393166,-0.003966245800256729,0.013039369136095047
1761478272464191500,5.24519140625,-0.015790414065122604,0.008402539417147636,0.011159710586071014
1761478272474227500,5.2552275390625,-0.03128548339009285,-0.006192914675921202,0.0076299565844237804
1761478272484263400,5.265263427734375,-0.036373186856508255,-0.02106587029993534,0.00495054991915822
1761478272494299400,5.27529931640625,-0.04021293297410011,-0.006448311731219292,0.010436128824949265
1761478272504335400,5.28533544921875,-0.04182148352265358,0.0019598202779889107,0.01443939283490181
1761478272514371300,5.295371337890625,-0.03904220834374428,0.0025121597573161125,-0.002811499172821641
1761478272524407300,5.3054072265625,-0.03248470649123192,0.00344479875639081,-0.02684306539595127
1761478272534443300,5.315443359375,-0.02371544949710369,-0.006229133810847998,-0.05360650271177292
1761478272544479500,5.3254794921875,-0.009125587530434132,-0.014148576185107231,-0.06161276251077652
1761478272554516500,5.3355166015625,-0.0017302557826042175,-0.0020929782185703516,-0.05143868923187256
1761478272564552400,5.345552490234375,0.008801747113466263,0.007990015670657158,-0.028679048642516136
1761478272574588400,5.35558837890625,0.011484881862998009,0.01732519455254078,0.0007882956997491419
1761478272584624600,5.365624755859375,0.013484915718436241,0.009428655728697777,0.019102854654192924
1761478272594660600,5.37566064453125,0.01962456852197647,-0.002430933527648449,0.026368755847215652
1761478272604696600,5.385696533203125,0.021469872444868088,-0.01912682317197323,0.0260478463023901
1761478272614732500,5.395732666015625,0.015175490640103817,-0.030845263972878456,0.02760899066925049
1761478272624768500,5.4057685546875,0.009669671766459942,-0.01871190220117569,0.03512629494071007
1761478272634804500,5.415804443359375,0.0051446943543851376,-0.005735650192946196,0.040596429258584976
1761478272644841500,5.425841552734375,0.0027441212441772223,0.0021654162555933,0.03639023005962372
1761478272654877400,5.43587744140625,0.0034503915812820196,-0.001936917076818645,0.02251116745173931
1761478272664913400,5.445913330078125,0.003964115399867296,-0.009728527627885342,0.0027265443932265043
1761478272674949400,5.455949462890625,0.0021963089238852262,-0.013274526223540306,-0.013103551231324673
1761478272684985300,5.4659853515625,-0.00049108691746369,-0.012383166700601578,-0.026550117880105972
1761478272695021300,5.476021240234375,-0.01233629509806633,-0.010089651681482792,-0.02484755963087082
1761478272705057300,5.486057373046875,-0.03014991246163845,-0.002433596644550562,-0.0057130130007863045
1761478272715093200,5.49609326171875,-0.04809535667300224,0.010630805976688862,0.00971680972725153
1761478272725129500,5.50612939453125,-0.0543426014482975,0.010512562468647957,0.014209828339517117
1761478272735166500,5.51616650390625,-0.04105475917458534,-0.007063768338412046,0.0025446503423154354
1761478272745202400,5.526202392578125,-0.022097045555710793,-0.011854262091219425,-0.012544820085167885
1761478272755238700,5.53623876953125,-0.005635248962789774,-0.012927516363561153,-0.020679712295532227
1761478272765274600,5.546274658203125,0.001279382617212832,-0.00820839498192072,-0.02689845860004425
1761478272775310600,5.556310546875,0.003028813051059842,-0.0039880839176476,-0.02720046229660511
1761478272785346600,5.5663466796875,-0.0036546560004353523,-0.0030807447619736195,-0.019629361107945442
1761478272795382500,5.576382568359375,-0.004348143003880978,-0.004833903629332781,-0.008607336319983006
1761478272805418500,5.58641845703125,-0.003311108099296689,-0.008884305134415627,0.0049074068665504456
1761478272815455000,5.596455078125,-0.007568437606096268,0.0033190976828336716,0.030761906877160072
1761478272825492000,5.606491943359375,-0.005407814867794514,0.009652361273765564,0.03626826032996178
1761478272835528000,5.61652783203125,0.0002713761059567332,0.0012373046483844519,0.02647554874420166
1761478272845564000,5.62656396484375,0.010701379738748074,-0.016744358465075493,0.007185208611190319
1761478272855599900,5.636599853515625,0.01786847971379757,-0.034867968410253525,-0.00923264678567648
1761478272865635800,5.6466357421875,0.02040727064013481,-0.03738731890916824,-0.014374411664903164
1761478272875671800,5.656671875,0.0162386242300272,-0.026218820363283157,0.0012359730899333954
1761478272885707800,5.666707763671875,0.0049617355689406395,-0.010542122647166252,0.018561434000730515
1761478272895743700,5.67674365234375,-0.004147873260080814,0.010415622964501381,0.030129939317703247
1761478272905779700,5.68677978515625,-0.011899802833795547,0.01768578588962555,0.023867249488830566
1761478272915816700,5.696816650390625,-0.015211443416774273,0.014706774614751339,0.0018197379540652037
1761478272925852700,5.706852783203125,-0.010369550436735153,-0.009137305431067944,-0.01894998922944069
1761478272935888600,5.716888671875,-0.006310093682259321,-0.01116024237126112,-0.028311265632510185
1761478272945924900,5.7269248046875,-0.0004913532175123692,-0.003485811408609152,-0.01859498955309391
1761478272955960800,5.7369609375,0.0007784419576637447,0.010941331274807453,-0.0011582087026908994
1761478272965996800,5.746996826171875,-0.0073018549010157585,0.020135095342993736,0.007022489327937365
1761478272976033000,5.757032958984375,-0.012092082761228085,0.015425029210746288,0.0030509172938764095
1761478272986069000,5.767069091796875,-0.008742891252040863,0.0021872541401535273,-0.011722968891263008
1761478272996105000,5.77710498046875,-0.008983108215034008,-0.01775689236819744,-0.024538366124033928
1761478273006142000,5.787141845703125,-0.005884254351258278,-0.017490576952695847,-0.02791045978665352
1761478273016178000,5.797177978515625,-0.011156514286994934,-0.012118714861571789,-0.017016267403960228
1761478273026214000,5.8072138671875,-0.008224906399846077,-0.002916427794843912,0.0041212416253983974
1761478273036249900,5.817249755859375,-0.008371646516025066,0.010715494863688946,0.020063988864421844
1761478273046285800,5.827285888671875,-0.001107076066546142,0.006759369280189276,0.01763385534286499
1761478273056321800,5.83732177734375,0.011591941118240356,0.001413073274306953,0.014431935735046864
1761478273066357800,5.847357666015625,0.015750201418995857,-0.009460346773266792,0.0037441381718963385
1761478273076393700,5.857393798828125,0.020206468179821968,-0.014669756405055523,0.0008178567513823509
1761478273086430000,5.867429931640625,0.01497948169708252,-0.010804977267980576,-0.004578506574034691
1761478273096466700,5.877466796875,0.0036272252909839153,-0.006889065261930227,-0.009979397058486938
1761478273106502700,5.887502685546875,-0.0005821670056320727,0.0017065536230802536,-0.011591408401727676
1761478273116539000,5.897538818359375,-0.004322044085711241,0.0031220237724483013,-0.012741628102958202
1761478273126574800,5.907574951171875,-0.0034677020739763975,-0.00003462109452812001,-0.009729859419167042
1761478273136610800,5.91761083984375,-0.007383613847196102,0.0011318434262648225,-0.006788397673517466
1761478273146646800,5.927646728515625,-0.0076246303506195545,-0.0015760586829856038,-0.006380933802574873
1761478273156683000,5.93768310546875,0.000618918624240905,-0.005131911486387253,0.0020240023732185364
1761478273166719000,5.947718994140625,0.006238188594579697,-0.008292817510664463,0.015083345584571362
1761478273176755000,5.9577548828125,0.007048055995255709,-0.011062238365411758,0.01812174543738365
1761478273186792000,5.9677919921875,-0.004176901653409004,-0.008280566893517971,0.012057195417582989
1761478273196828000,5.977827880859375,-0.01497894898056984,-0.007521831896156073,0.0013262542197480798
1761478273206864000,5.98786376953125,-0.010834272019565105,-0.012957343831658363,-0.0011893677292391658
1761478273216899800,5.99789990234375,-0.005334311630576849,-0.0073199644684791565,0.0031396006233990192
1761478273226935800,6.007935791015625,-0.0022181468084454536,0.0030951257795095444,0.009865946136415005
1761478273236971800,6.0179716796875,-0.00586641114205122,0.010836668312549591,0.007342068944126368
1761478273247007700,6.0280078125,-0.004298874642699957,0.003704190719872713,0.002641855739057064
1761478273257043700,6.038043701171875,-0.007090932689607143,0.004110322799533606,-0.005035238806158304
1761478273267080000,6.048079833984375,-0.005329251755028963,-0.008107461035251617,-0.014240987598896027
1761478273277116700,6.05811669921875,-0.008798818103969097,-0.00561048137024045,-0.015894010663032532
1761478273287152600,6.068152587890625,-0.009423329494893551,-0.0035774242132902145,-0.010338657535612583
1761478273297188900,6.07818896484375,-0.015500130131840706,-0.001714010490104556,-0.00890747457742691
1761478273307224800,6.088224853515625,-0.025783659890294075,-0.001958488719537854,-0.014227671548724174
1761478273317260800,6.0982607421875,-0.030967237427830696,-0.003584614722058177,-0.019693810492753983
1761478273327297000,6.108297119140625,-0.027631627395749092,-0.008655006997287273,-0.023754065856337547
1761478273337333000,6.1183330078125,-0.015372032299637794,-0.00042450788896530867,-0.00965475756675005
1761478273347369000,6.128368896484375,0.004110589157789946,0.00000958738019107841,0.003290601773187518
1761478273357405000,6.138405029296875,0.02094363048672676,-0.0028847360517829657,0.01642477884888649
1761478273367441000,6.14844091796875,0.02462145686149597,-0.016399214044213295,0.02508910745382309
1761478273377478000,6.158477783203125,0.022599851712584496,-0.017119331285357475,0.03440111503005028
1761478273387513900,6.168513916015625,0.00609384523704648,-0.006440588738769293,0.03802620992064476
1761478273397549800,6.1785498046875,-0.008038219064474106,0.00030652983696199954,0.03039492294192314
1761478273407585800,6.188585693359375,-0.012346947565674782,0.00088949577184394,0.0172604788094759
1761478273417621800,6.198621826171875,-0.008024370297789574,-0.003287405939772725,-0.006030461750924587
1761478273427657700,6.20865771484375,-0.0006948187365196645,-0.01950312778353691,-0.018381403759121895
1761478273437694000,6.21869384765625,0.001933454885147512,-0.024776453152298927,-0.022793995216488838
1761478273447730000,6.22872998046875,-0.005637379363179207,-0.018162226304411888,-0.013451360166072845
1761478273457766000,6.238765869140625,-0.011623100377619267,0.0009648632840253413,0.0016146745765581727
1761478273467801900,6.2488017578125,-0.020728981122374535,0.021915152668952942,0.006947654765099287
1761478273477838800,6.2588388671875,-0.02557779848575592,0.016016783192753792,-0.007576959673315287
1761478273487874800,6.268874755859375,-0.03117203339934349,0.012708870694041252,-0.024633441120386124
1761478273497910800,6.278910888671875,-0.030059898272156715,0.003290868131443858,-0.044375453144311905
1761478273507947000,6.288947021484375,-0.027816982939839363,-0.00205276464112103,-0.05393487215042114
1761478273517983000,6.29898291015625,-0.022036859765648842,-0.008588162250816822,-0.05031563341617584
1761478273528019000,6.30901904296875,-0.01200100313872099,-0.004005926661193371,-0.03165539726614952
1761478273538055000,6.319054931640625,-0.007616906892508268,0.009385512210428715,-0.011240670457482338
1761478273548091000,6.3290908203125,-0.003234142903238535,0.007186806295067072,-0.00030120351584628224
1761478273558126800,6.339126953125,-0.00013981595111545175,-0.00004953479583491571,-0.0007352987886406481
1761478273568163800,6.349163818359375,-0.00039015308720991015,-0.004985437728464603,0.0054485611617565155
1761478273578199800,6.35919970703125,-0.0006788397440686822,-0.0024138891603797674,0.009021191857755184
1761478273588235800,6.36923583984375,-0.003388339886441827,-0.0004596615908667445,0.017649300396442413
1761478273598271700,6.379271728515625,0.002129729837179184,0.00192226970102638,0.020191287621855736
1761478273608307700,6.3893076171875,0.008475510403513908,-0.006804110016673803,0.016343286260962486
1761478273618344000,6.399343994140625,0.017434917390346527,-0.01667165383696556,0.015795474871993065
1761478273628380000,6.4093798828125,0.01782134175300598,-0.020306337624788284,0.015211177058517933
1761478273638416000,6.419415771484375,0.011138138361275196,-0.019712718203663826,0.01738112047314644
1761478273648451800,6.429451904296875,-0.006649646908044815,-0.003584881080314517,0.02046053297817707
1761478273658487800,6.43948779296875,-0.01697312481701374,0.013939251191914082,0.016820792108774185
1761478273668524800,6.44952490234375,-0.028856681659817696,0.0198685135692358,-0.004327636677771807
1761478273678561000,6.45956103515625,-0.028421254828572273,0.007476025726646185,-0.02941701002418995
1761478273688597000,6.469596923828125,-0.026268355548381805,-0.005685582756996155,-0.05283631756901741
1761478273698633000,6.479633056640625,-0.01841975376009941,-0.014147777110338211,-0.05944574996829033
1761478273708669000,6.4896689453125,-0.015170697122812271,-0.013744041323661804,-0.04958779364824295
1761478273718705000,6.499704833984375,-0.015059643425047398,-0.0003539340978022665,-0.03322506323456764
1761478273728740900,6.509740966796875,-0.01011095754802227,0.005149221979081631,-0.022225942462682724
1761478273738776800,6.51977685546875,0.001058872789144516,0.00942093227058649,-0.003498594742268324
1761478273748812800,6.529812744140625,0.005941512528806925,0.0014255901332944632,0.005044027231633663
1761478273758849000,6.53984912109375,0.015184812247753143,-0.00942146498709917,0.011538677848875523
1761478273768885800,6.5498857421875,0.019215771928429604,-0.012021508999168873,0.02767450548708439
1761478273778921700,6.559921630859375,0.012401276268064976,-0.0125203188508749,0.041675273329019547
1761478273788958000,6.5699580078125,0.008340754546225071,-0.009938650764524937,0.049739059060811996
1761478273798994000,6.579993896484375,0.003748399205505848,-0.011846805922687054,0.05029939115047455
1761478273809030400,6.590030517578125,-0.0007177218794822693,-0.019947342574596405,0.03958922252058983
1761478273819066400,6.60006640625,-0.003204315435141325,-0.024715732783079147,0.02285684645175934
1761478273829102300,6.610102294921875,-0.004204865079373121,-0.029698241502046585,0.0076217008754611015
1761478273839138300,6.62013818359375,-0.004404069390147924,-0.02185150235891342,0.004573180340230465
1761478273849174300,6.63017431640625,-0.008475776761770248,-0.0046541402116417885,0.008155664429068565
1761478273859211500,6.64021142578125,-0.016572318971157074,0.004975317511707544,0.002654106356203556
1761478273869247500,6.65024755859375,-0.031977638602256775,0.013044961728155613,-0.016266588121652603
1761478273879283500,6.660283447265625,-0.03362826630473137,0.009435845538973808,-0.03332466632127762
1761478273889319400,6.6703193359375,-0.02605397067964077,0.0005083974683657289,-0.04204918444156647
1761478273899355400,6.68035546875,-0.016026370227336884,-0.008476309478282928,-0.0509025938808918
1761478273909391400,6.690391357421875,-0.005848301574587822,-0.011827630922198296,-0.046899862587451935
1761478273919427300,6.70042724609375,-0.004007524810731411,-0.014087589457631111,-0.03827868029475212
1761478273929463300,6.71046337890625,-0.013593573123216629,-0.009523996151983738,-0.020079702138900757
1761478273939499300,6.720499267578125,-0.02147306688129902,-0.0019947076216340065,0.002086320426315069
1761478273949535500,6.730535400390625,-0.03856630250811577,0.010185259394347668,0.016771789640188217
1761478273959572200,6.740572265625,-0.03741421550512314,0.01324176974594593,0.021402493119239807
1761478273969608200,6.750608154296875,-0.029258020222187042,0.0016913736471906304,0.02026985213160515
1761478273979644400,6.76064453125,-0.016809873282909393,-0.01871190220117569,0.010445983149111271
1761478273989680400,6.770680419921875,-0.007782022934406996,-0.02923591621220112,-0.0030123014003038406
1761478273999716400,6.78071630859375,-0.0010839065071195364,-0.029583724215626717,-0.0017526262672618032
1761478274009752300,6.79075244140625,-0.004791559185832739,-0.02214258722960949,0.007237939164042473
1761478274019788300,6.800788330078125,-0.01302472222596407,-0.003879160387441516,0.009681656025350094
1761478274029824300,6.81082421875,-0.022479210048913956,0.0017358483746647835,0.008715194649994373
1761478274039860200,6.820860107421875,-0.023484021425247192,0.012917130254209042,0.00475560687482357
1761478274049896200,6.830896240234375,-0.021794244647026062,0.02257268689572811,-0.0011614045361056924
1761478274059933400,6.840933349609375,-0.012435897253453732,0.021883727982640266,-0.010751181282103062
1761478274069969400,6.850969482421875,0.00227806787006557,0.004914863966405392,-0.020623253658413887
1761478274080005400,6.86100537109375,0.008504006080329418,-0.0149224903434515,-0.03155020251870155
1761478274090041300,6.871041259765625,0.012531770393252373,-0.015035941265523434,-0.03086017817258835
1761478274100077300,6.881077392578125,0.012898754328489304,-0.007558051031082869,-0.019290873780846596
1761478274110113300,6.89111328125,0.010936803184449673,-0.00239231763407588,-0.00520727876573801
1761478274120149200,6.901149169921875,0.010015349835157394,0.0065527078695595264,0.010618023574352264
1761478274130185500,6.911185546875,0.008744223043322563,0.00657534459605813,0.01607670448720455
1761478274140221400,6.921221435546875,0.007756456732749939,-0.00751916877925396,0.01601278781890869
1761478274150257400,6.93125732421875,0.0034583809319883585,-0.01577550172805786,0.009840646758675575
1761478274160294400,6.94129443359375,0.0056980992667376995,-0.019271433353424072,0.009724532254040241
1761478274170330400,6.951330322265625,0.012721654027700424,-0.020196881145238876,0.012823653407394886
1761478274180366300,6.961366455078125,0.021556157618761063,-0.01938195340335369,0.01871483214199543
1761478274190402300,6.97140234375,0.027718713507056236,-0.0067756143398582935,0.03056589886546135
1761478274200438300,6.981438232421875,0.02774827368557453,0.0015137407463043928,0.0384531170129776
1761478274210474200,6.99147412109375,0.02400040812790394,0.021879466250538826,0.03681473806500435
1761478274220510200,7.00151025390625,0.018122544512152672,0.019478892907500267,0.021400630474090576
1761478274230546400,7.01154638671875,0.013836720027029514,0.00564137427136302,-0.014102502726018429
1761478274240582400,7.02158251953125,0.00837031565606594,-0.011715778149664402,-0.03973223268985748
1761478274250618400,7.031618408203125,0.005796103738248348,-0.02713867649435997,-0.054837416857481
1761478274260654300,7.041654296875,-0.0020093549974262714,-0.020115654915571213,-0.039618514478206635
1761478274270691300,7.05169140625,-0.009873935952782631,-0.0027598338201642036,-0.012065717950463295
1761478274280727300,7.061727294921875,-0.016416257247328758,0.01318291388452053,0.01708684116601944
1761478274290763300,7.07176318359375,-0.016513995826244354,0.030792267993092537,0.03571884706616402
1761478274300799500,7.081799560546875,-0.019535085186362267,0.02479749172925949,0.037034183740615845
1761478274310835500,7.09183544921875,-0.01501277182251215,-0.00029401297797448933,0.02250504307448864
1761478274320871400,7.101871337890625,-0.013168798759579659,-0.0029348034877330065,0.003183276392519474
1761478274330907400,7.111907470703125,-0.00896686315536499,-0.017609354108572006,-0.02430054545402527
1761478274340943400,7.121943359375,-0.00923317950218916,-0.022730346769094467,-0.036081038415431976
1761478274350979300,7.131979248046875,-0.015988552942872047,-0.014085192233324051,-0.04059989005327225
1761478274361015300,7.142015380859375,-0.018810439854860306,-0.006842459551990032,-0.040467265993356705
1761478274371052300,7.15205224609375,-0.02154736965894699,0.0036448021419346333,-0.03044525720179081
1761478274381088300,7.162088134765625,-0.020988639444112778,0.009489375166594982,-0.020658141002058983
1761478274391124200,7.172124267578125,-0.01104332972317934,0.004224305972456932,-0.010904579423367977
1761478274401160200,7.18216015625,-0.006937001831829548,0.00036218989407643676,0.0035153725184500217
1761478274411196400,7.192196533203125,-0.0003664509567897767,0.004276770167052746,0.008371380157768726
1761478274421232400,7.202232421875,0.0016138756182044744,0.0007669904152862728,0.009439574554562569
1761478274431268400,7.212268310546875,-0.002304965863004327,-0.0015006912872195244,0.007337008602917194
1761478274441304300,7.22230419921875,0.007541805971413851,-0.012052668258547783,-0.002915096003562212
1761478274451340500,7.232340576171875,0.011802863329648972,-0.01447161752730608,-0.006521548610180616
1761478274461376500,7.24237646484375,0.008294681087136269,-0.013554424978792667,-0.006669886875897646
1761478274471412500,7.25241259765625,0.013727796263992786,-0.015864983201026917,-0.004078098572790623
1761478274481449500,7.262449462890625,0.01588309183716774,-0.018641062080860138,0.01031761895865202
1761478274491485400,7.2724853515625,0.00845420453697443,-0.0089980224147439,0.02502652443945408
1761478274501521400,7.282521484375,-0.005654423497617245,0.003584881080314517,0.04446467012166977
1761478274511557400,7.292557373046875,-0.023912789300084114,0.017600830644369125,0.03849412873387337
1761478274521593300,7.30259326171875,-0.027453195303678513,0.016650348901748657,0.020719658583402634
1761478274531629300,7.31262939453125,-0.020056799054145813,-0.014342986978590488,-0.018373148515820503
1761478274541665300,7.322665283203125,-0.0011518171522766352,-0.03615161404013634,-0.05154894292354584
1761478274551701200,7.332701171875,0.015958992764353752,-0.03797933831810951,-0.05309570953249931
1761478274561737200,7.3427373046875,0.01973775215446949,-0.025546371936798096,-0.029157087206840515
1761478274571773200,7.352773193359375,0.007656854577362537,0.00236249016597867,0.0008564725867472589
1761478274581810400,7.362810546875,-0.00580888707190752,0.016746489331126213,0.024217721074819565
1761478274591846400,7.372846435546875,-0.009038502350449562,0.026554912328720093,0.027308320626616478
1761478274601882400,7.38288232421875,-0.0059865196235477924,0.02857678383588791,0.01672065630555153
1761478274611918300,7.39291845703125,0.0035238948184996843,0.007709318771958351,-0.0021723404061049223
1761478274621954600,7.40295458984375,0.009601227939128876,-0.003826696192845702,-0.02738235518336296
1761478274631990500,7.412990478515625,0.013914749957621098,-0.014190653339028358,-0.04604072868824005
1761478274642026500,7.423026611328125,0.014659636653959751,-0.01666712760925293,-0.04599039629101753
1761478274652062500,7.4330625,0.01546311192214489,-0.004907673224806786,-0.031792815774679184
1761478274662098400,7.443098388671875,0.018604576587677002,0.012318451888859272,-0.007510646712034941
1761478274672134400,7.453134521484375,0.021462947130203247,0.01684609241783619,0.014760304242372513
1761478274682170400,7.46317041015625,0.02033376693725586,0.010569021105766296,0.031074563041329384
1761478274692207400,7.473207275390625,0.019514312967658043,0.007933823391795158,0.03556891158223152
1761478274702243300,7.483243408203125,0.015096395276486874,-0.0014612764352932572,0.028296619653701782
1761478274712279300,7.493279296875,0.010159959085285664,-0.010398845188319683,0.02197214402258396
1761478274722315300,7.503315185546875,0.006936469115316868,-0.012513927184045315,0.014493721537292004
1761478274732351200,7.513351318359375,0.004258128348737955,-0.030299050733447075,0.01001907791942358
1761478274742387200,7.52338720703125,-0.00065460498444736,-0.01956438086926937,0.013462278991937637
1761478274752423200,7.533423095703125,-0.008289354853332043,-0.006184126250445843,0.018615761771798134
1761478274762459400,7.54345947265625,-0.01489506009966135,0.005381715949624777,0.013307283632457256
1761478274772495400,7.553495361328125,-0.01474752090871334,0.009034507907927036,0.008951949886977673
1761478274782531300,7.56353125,-0.021677598357200623,0.009802563115954399,-0.0014647386269643903
1761478274792567300,7.5735673828125,-0.03111291117966175,0.012615926563739777,-0.011336278170347214
1761478274802604500,7.5836044921875,-0.0368988960981369,0.004290618933737278,-0.025226261466741562
1761478274812639500,7.593639404296875,-0.03171425312757492,-0.0015659386990591884,-0.02773469127714634
1761478274822675500,7.603675537109375,-0.028198881074786186,-0.006725546903908253,-0.0292377807199955
1761478274832711400,7.61371142578125,-0.020329507067799568,-0.004030960611999035,-0.022371351718902588
1761478274842747400,7.623747314453125,-0.021576132625341415,0.00016325176693499088,-0.012583436444401741
1761478274852783400,7.633783447265625,-0.012485697865486145,-0.0009337042574770749,-0.0007970841252245009
1761478274862819300,7.6438193359375,0.000021837920940015465,-0.007795072626322508,0.008882706984877586
1761478274872855600,7.65385546875,0.009019593708217144,-0.006845921743661165,0.02299213409423828
1761478274882891500,7.6638916015625,0.015971509739756584,-0.0012274509062990546,0.03104926273226738
1761478274892927500,7.673927490234375,0.011097392067313194,-0.0038136467337608337,0.03406129777431488
1761478274902963500,7.68396337890625,0.005527656991034746,-0.01560985203832388,0.022850986570119858
1761478274913000400,7.69400048828125,0.0036402747500687838,-0.028295287862420082,0.01366361416876316
1761478274923036400,7.704036376953125,0.0065535069443285465,-0.03305355831980705,0.014027135446667671
1761478274933072400,7.714072265625,0.002757703186944127,-0.02443423680961132,0.024534637108445168
1761478274943108600,7.724108642578125,0.0036570527590811253,-0.00774766830727458,0.0360964834690094
1761478274953144600,7.73414453125,-0.0035872780717909336,0.01004997082054615,0.04632781818509102
1761478274963180500,7.7441806640625,-0.003766508772969246,0.021391574293375015,0.04083904251456261
1761478274973216500,7.754216552734375,-0.0005994775565341115,0.011333880946040154,0.022224079817533493
1761478274983252500,7.76425244140625,-0.0032927324064075947,-0.0022652847692370415,-0.005546299275010824
1761478274993288400,7.774288330078125,-0.0028037759475409985,-0.005791842471808195,-0.03585999459028244
1761478275003324400,7.784324462890625,-0.008980978280305862,-0.015536349266767502,-0.06190145015716553
1761478275013360400,7.7943603515625,-0.008355667814612389,-0.02202833630144596,-0.06563334167003632
1761478275023397400,7.8043974609375,-0.011661183089017868,-0.015975771471858025,-0.05134574696421623
1761478275033433300,7.814433349609375,-0.011039068922400475,-0.007873635739088058,-0.02183445915579796
1761478275043469300,7.82446923828125,-0.01734010875225067,0.010341587476432323,0.014199442230165005
1761478275053505500,7.834505615234375,-0.02196788229048252,0.01607244275510311,0.03713059052824974
1761478275063541500,7.84454150390625,-0.02791445516049862,0.024873923510313034,0.04093305021524429
1761478275073577500,7.854577392578125,-0.025423068553209305,0.01167583093047142,0.022720225155353546
1761478275083613400,7.864613525390625,-0.012683837674558163,-0.008044078014791012,0.0012266519479453564
1761478275093649400,7.8746494140625,0.0012743226252496243,-0.026282737031579018,-0.022355105727910995
1761478275103685400,7.884685302734375,0.01296160463243723,-0.031245004385709763,-0.027300862595438957
1761478275113721300,7.894721435546875,0.010755708441138268,-0.02364674024283886,-0.019002186134457588
1761478275123757300,7.90475732421875,0.0007611314067617059,-0.008628642186522484,0.009555421769618988
1761478275133794600,7.914794677734375,-0.016639163717627525,0.015721971169114113,0.03165912628173828
1761478275143830500,7.92483056640625,-0.0244361013174057,0.03506584092974663,0.04328569024801254
1761478275153866500,7.934866455078125,-0.015221563167870045,0.03898521512746811,0.044567469507455826
1761478275163902500,7.94490234375,0.006836600601673126,0.01399011816829443,0.018987273797392845
1761478275173938400,7.9549384765625,0.014582404866814613,-0.005143629387021065,-0.004763596225529909
1761478275183974400,7.964974365234375,0.01227477565407753,-0.008206530474126339,-0.030646592378616333
1761478275194010600,7.9750107421875,0.009278985671699047,-0.010469152592122555,-0.042640138417482376
1761478275204046600,7.985046630859375,0.005360676907002926,-0.0017193368403241038,-0.04006272926926613
1761478275214082600,7.99508251953125,-0.005497563164681196,0.015604259446263313,-0.017878333106637
1761478275224118500,8.005118408203124,-0.009243299253284931,0.012977584265172482,0.004972388036549091
1761478275234153500,8.015153564453126,-0.013378655537962914,0.004281564150005579,0.0199233740568161
1761478275244190500,8.0251904296875,-0.015386146493256092,-0.0054485611617565155,0.030834611505270004
1761478275254226400,8.035226318359374,-0.023981232196092606,-0.009078715927898884,0.032043952494859695
1761478275264262400,8.045262451171874,-0.022401979193091393,-0.015106781385838985,0.018793128430843353
1761478275274298400,8.05529833984375,-0.014157896861433983,-0.014970427379012108,0.00800572894513607
1761478275284334300,8.065334228515624,0.004766525700688362,-0.013890781439840794,0.006655772216618061
1761478275294370300,8.075370361328124,0.009417736902832985,-0.0041486723348498344,0.020354805514216423
1761478275304406500,8.085406494140624,0.007924501784145832,-0.0022037657909095287,0.022250177338719368
1761478275314442500,8.0954423828125,-0.00016005597717594355,-0.0038043255917727947,0.018516693264245987
1761478275324478500,8.105478515625,-0.011096859350800514,0.0018096179701387882,0.018332401290535927
1761478275334514400,8.115514404296874,-0.008609733544290066,0.004018443636596203,0.015990683808922768
1761478275344550400,8.12555029296875,0.0023433153983205557,-0.004698881413787603,0.005379851907491684
1761478275354587600,8.135587646484375,0.014243650250136852,-0.008685899898409843,-0.005391835700720549
1761478275364623600,8.14562353515625,0.020131899043917656,-0.003509779926389456,0.00011371697473805398
1761478275374659600,8.15565966796875,0.00580835435539484,0.0015536881983280182,0.004416320007294416
1761478275384695600,8.165695556640625,-0.006736465729773045,0.01564926654100418,0.0038812910206615925
1761478275394731500,8.1757314453125,-0.010390855371952057,0.007733819540590048,-0.011838816106319427
1761478275404767500,8.185767578125,-0.005787048954516649,-0.0049590724520385265,-0.026736006140708923
1761478275414803500,8.195803466796875,-0.0032256206031888723,-0.005485845264047384,-0.02684865891933441
1761478275424839400,8.20583935546875,-0.0013888385146856308,-0.0038804919458925724,-0.008073106408119202
1761478275434875400,8.21587548828125,-0.01022547297179699,0.016935573890805244,0.03176432102918625
1761478275444911400,8.225911376953125,-0.021191570907831192,0.021290907636284828,0.06322290748357773
1761478275454947600,8.235947509765625,-0.030980553478002548,0.022702382877469063,0.05913921818137169
1761478275464983600,8.245983642578125,-0.02539111115038395,0.013430854305624962,0.014732873067259789
1761478275475020300,8.256020263671875,-0.035356391221284866,0.1372409462928772,0.11962786316871643
1761478275485056500,8.266056396484375,-0.003784351982176304,0.06495050340890884,-0.05397748202085495
1761478275495092500,8.276092529296875,0.01423672679811716,-0.05927078053355217,-0.08013744652271271
1761478275505128400,8.28612841796875,0.0010130665032193065,-0.01979980431497097,0.038839273154735565
1761478275515164400,8.296164306640625,0.005800098646432161,0.03504480421543121,0.1443270891904831
1761478275525200400,8.306200439453125,0.009544502943754196,0.08910777419805527,0.22393882274627686
1761478275535236400,8.316236328125,0.005353220272809267,0.030435670167207718,0.23593716323375702
1761478275545272300,8.326272216796875,0.029685724526643753,-0.019754528999328613,0.17706133425235748
1761478275555308300,8.336308349609375,0.04892067238688469,-0.08236704766750336,0.07172904908657074
1761478275565344300,8.34634423828125,0.06335154175758362,-0.14282293617725372,-0.039544478058815
1761478275575380200,8.356380126953125,0.061170145869255066,-0.12180819362401962,-0.10360149294137955
1761478275585417500,8.36641748046875,0.05077769234776497,-0.042814310640096664,-0.11581075191497803
1761478275595453400,8.376453369140625,0.03501604124903679,-0.022217154502868652,-0.15650679171085358
