time,seconds_elapsed,z,y,x
1761478267306882600,0.087882568359375,0.013549160212278366,-0.014466936700046062,-0.010123013518750668
1761478267316918500,0.09791845703125,0.0120676439255476,-0.019554374739527702,-0.038187671452760696
1761478267326954500,0.10795458984375,0.012074057944118977,-0.01242789439857006,-0.053752824664115906
1761478267336991700,0.11799169921875,0.004531719256192446,-0.01266171969473362,-0.05981258302927017
1761478267347027700,0.12802783203125,-0.013980694115161896,0.014914093539118767,-0.04517048969864845
1761478267357063700,0.138063720703125,-0.029025156050920486,0.02601308375597,-0.039886247366666794
1761478267367099600,0.148099609375,-0.02304697036743164,0.017529118806123734,-0.04536362737417221
1761478267377135900,0.158135986328125,-0.013120036572217941,0.014594316482543945,-0.043584633618593216
1761478267387171800,0.168171875,-0.0044427490793168545,0.00020073656924068928,-0.041466906666755676
1761478267397207800,0.178207763671875,0.001039101742208004,-0.015852000564336777,-0.04694902151823044
1761478267407243800,0.188243896484375,-0.002367448527365923,-0.01012521330267191,-0.04010116308927536
1761478267417279700,0.19827978515625,-0.005714775528758764,-0.000931980786845088,-0.03090127743780613
1761478267427315700,0.208315673828125,-0.0035090846940875053,0.002399202436208725,-0.02549724467098713
1761478267437352700,0.218352783203125,-0.003851567395031452,0.005373154766857624,-0.015514918603003025
1761478267447388700,0.228388671875,-0.008977624587714672,0.025996923446655273,0.005191760137677193
1761478267457424600,0.238424560546875,-0.01058830413967371,0.026481352746486664,0.019590407609939575
1761478267467460600,0.248460693359375,-0.019937075674533844,0.029850954189896584,0.01865926757454872
1761478267477496600,0.25849658203125,-0.01792958751320839,0.022711819037795067,0.010180827230215073
1761478267487532500,0.268532470703125,-0.009157238528132439,0.01593904383480549,0.0057627856731414795
1761478267497568500,0.278568603515625,-0.011618265882134438,0.017130009829998016,-0.0006639545317739248
1761478267507604500,0.2886044921875,-0.012404059059917927,0.011755840852856636,-0.005402127280831337
1761478267517640700,0.298640625,-0.014686387963593006,-0.0008944408036768436,-0.007778732106089592
1761478267527677700,0.308677734375,-0.011368762701749802,-0.004559265449643135,-0.001690668985247612
1761478267537713700,0.318713623046875,-0.004575039725750685,-0.015024956315755844,-0.002413184614852071
1761478267547749600,0.32874951171875,-0.0004256507381796837,-0.008655969053506851,0.012541364878416061
1761478267557785900,0.338785888671875,-0.0002831714227795601,0.0005500463303178549,0.03429592773318291
1761478267567821800,0.34882177734375,-0.007838660851120949,0.015330515801906586,0.05613924190402031
1761478267577857800,0.35885791015625,-0.015382597222924232,0.024643324315547943,0.06549812108278275
1761478267587893800,0.368893798828125,-0.014370987191796303,0.01968136988580227,0.057488590478897095
1761478267597929700,0.3789296875,-0.0035713366232812405,-0.005145150236785412,0.03231878578662872
1761478267607965700,0.388965576171875,0.012141291983425617,-0.019306102767586708,0.004615297541022301
1761478267618001700,0.399001708984375,0.023414717987179756,-0.017678111791610718,-0.005389932077378035
1761478267628038700,0.40903857421875,0.021934619173407555,-0.015995550900697708,-0.013281057588756084
1761478267638074600,0.41907470703125,0.014838093891739845,-0.01465491484850645,-0.01816556230187416
1761478267648110600,0.429110595703125,0.009978272020816803,0.00507753249257803,-0.022554803639650345
1761478267658146600,0.439146484375,0.005759559106081724,0.014530688524246216,-0.021517237648367882
1761478267668182500,0.4491826171875,0.006114925257861614,-0.0025339729618281126,-0.034585971385240555
1761478267678218500,0.459218505859375,0.005615582689642906,-0.007819282822310925,-0.044702786952257156
1761478267688254700,0.469254638671875,0.0004423558712005615,-0.0016058196779340506,-0.03764014691114426
1761478267698290700,0.479290771484375,-0.0045848931185901165,0.0062025683000683784,-0.022350408136844635
1761478267708326700,0.48932666015625,-0.014466858468949795,0.03523264825344086,-0.003254734445363283
1761478267718363600,0.49936376953125,-0.017441876232624054,0.03707076236605644,0.0019291085191071033
1761478267728400000,0.50939990234375,-0.015762101858854294,0.024123726412653923,0.006974969524890184
1761478267738435800,0.519435791015625,-0.014094962738454342,0.00978313572704792,0.006998139433562756
1761478267748471800,0.529471923828125,-0.013462334871292114,-0.006370582617819309,-0.0026538793463259935
1761478267758507800,0.5395078125,-0.009585305117070675,-0.016959575936198235,-0.005156451836228371
1761478267768543700,0.549543701171875,0.002308411756530404,-0.0021966365166008472,0.009285327978432178
1761478267778579700,0.559579833984375,0.009241418913006783,0.0018694776808843017,0.021278874948620796
1761478267788615700,0.56961572265625,0.0052856383845210075,0.0034835669212043285,0.02528424561023712
1761478267798651600,0.579651611328125,0.007589272689074278,0.009102837182581425,0.02773888036608696
1761478267808687000,0.58968701171875,0.01485134195536375,-0.0019725412130355835,0.022545592859387398
1761478267818724000,0.59972412109375,0.015757616609334946,-0.013891518115997314,0.01659848727285862
1761478267828760000,0.609760009765625,0.01555696502327919,-0.011714024469256401,0.01648845337331295
1761478267838796000,0.619796142578125,0.011076994240283966,-0.007440449204295874,0.019285839051008224
1761478267848832300,0.629832275390625,0.010151421651244164,-0.002849111333489418,0.0173211507499218
1761478267858868200,0.6398681640625,0.010416138917207718,0.014707512222230434,0.018005317077040672
1761478267868904200,0.649904296875,0.005099364556372166,0.017698002979159355,0.00244447635486722
1761478267878940200,0.659940185546875,-0.004009445197880268,0.009518635459244251,-0.020647527649998665
1761478267888976100,0.66997607421875,-0.010232925415039062,-0.01325368694961071,-0.05643753707408905
1761478267899012000,0.68001220703125,-0.004409390967339277,-0.02564564161002636,-0.05878671258687973
1761478267909049300,0.69004931640625,0.007324209436774254,-0.02397676557302475,-0.029561135917901993
1761478267919085300,0.700085205078125,0.008035006932914257,-0.017525792121887207,-0.0002911327173933387
1761478267929121300,0.710121337890625,-0.005881935358047485,-0.0038668063934892416,0.013408489525318146
1761478267939157200,0.7201572265625,-0.021903246641159058,0.019981801509857178,0.025606032460927963
1761478267949193200,0.730193115234375,-0.03807838633656502,0.03697044774889946,0.02469490095973015
1761478267959229200,0.740229248046875,-0.043780215084552765,0.028078418225049973,0.005496438127011061
1761478267969265200,0.75026513671875,-0.035856690257787704,0.008188577368855476,-0.0237729474902153
1761478267979301000,0.760301025390625,-0.02770395576953888,-0.009131023660302162,-0.05277743563055992
1761478267989337000,0.770337158203125,-0.02044575661420822,-0.011749849654734135,-0.0591520257294178
1761478267999374000,0.7803740234375,-0.018426282331347466,-0.001872184919193387,-0.05234897881746292
1761478268009410000,0.79041015625,-0.02030862495303154,0.005026872735470533,-0.034263938665390015
1761478268019446000,0.800446044921875,-0.024258624762296677,0.013959381729364395,-0.020569168031215668
1761478268029482200,0.810482177734375,-0.024546943604946136,0.026982342824339867,-0.0036404915153980255
1761478268039518200,0.820518310546875,-0.011064422316849232,0.018206162378191948,0.00741988280788064
1761478268049554200,0.83055419921875,-0.0036190864630043507,0.01184347365051508,0.012752295471727848
1761478268059590100,0.840590087890625,0.008114268071949482,-0.0019493040163069963,0.012746702879667282
1761478268069626000,0.850626220703125,0.013509134761989117,-0.0070406598970294,0.014407385140657425
1761478268079662000,0.860662109375,0.016117168590426445,-0.004661925137042999,0.019641296938061714
1761478268089699300,0.87069921875,0.014422232285141945,-0.0003354283981025219,0.01856677606701851
1761478268099735300,0.8807353515625,0.014731423929333687,-0.004290754906833172,0.011483832262456417
1761478268109771300,0.890771240234375,0.01780126988887787,-0.0027052629739046097,0.0032946476712822914
1761478268119807200,0.90080712890625,0.026995033025741577,0.0003509807866066694,0.005268049892038107
1761478268129843200,0.91084326171875,0.028954630717635155,0.0015944145852699876,0.002843332476913929
1761478268139879200,0.920879150390625,0.027377506718039513,0.002952094189822674,0.0013610169989988208
1761478268149915100,0.9309150390625,0.022102482616901398,0.0013743473682552576,0.0034621339291334152
1761478268159951000,0.940951171875,0.01807897724211216,0.01106905285269022,0.0002210669917985797
1761478268169988000,0.950988037109375,0.012681365013122559,0.005260394886136055,-0.000017920159734785557
1761478268180024000,0.961024169921875,0.0167836993932724,0.0008936093654483557,0.006393373943865299
1761478268190060000,0.97106005859375,0.014012143947184086,0.013467442244291306,0.023917589336633682
1761478268200096300,0.98109619140625,-0.00005547143518924713,0.013443740084767342,0.03197604790329933
1761478268210132200,0.99113232421875,-0.011296732351183891,0.014820242300629616,0.022960687056183815
1761478268220168200,1.001168212890625,-0.014788404107093811,0.01361569482833147,0.006421658210456371
1761478268230204200,1.0112041015625,-0.012383241206407547,0.0013985447585582733,-0.016360940411686897
1761478268240240000,1.021240234375,-0.011907599866390228,-0.0019250803161412477,-0.0379200279712677
1761478268250276000,1.031276123046875,-0.015063917264342308,0.00563333835452795,-0.03612271696329117
1761478268260313300,1.041313232421875,-0.015489757061004639,0.02492394670844078,-0.02565675973892212
1761478268270349300,1.051349365234375,-0.012760098092257977,0.018685277551412582,-0.031723957508802414
1761478268280385300,1.06138525390625,-0.01525095198303461,0.005307686515152454,-0.03316552937030792
1761478268290421200,1.071421142578125,-0.01806679554283619,0.0062440913170576096,-0.017560632899403572
1761478268300457200,1.081457275390625,-0.0210892166942358,0.01334913820028305,0.0020841744262725115
1761478268310493200,1.0914931640625,-0.015138774178922176,0.002296802820637822,0.01155217457562685
1761478268320529200,1.101529052734375,-0.004847520962357521,-0.0017163145821541548,0.023573150858283043
1761478268330565000,1.111565185546875,0.001772853545844555,0.000050835078582167625,0.0315377302467823
1761478268340602000,1.12160205078125,0.004386213608086109,-0.0017204335890710354,0.032930031418800354
1761478268350638000,1.13163818359375,-0.00370445242151618,-0.0027003788854926825,0.029322374612092972
1761478268360674000,1.141674072265625,-0.007144190836697817,-0.005193630233407021,0.013866718858480453
1761478268370710000,1.1517099609375,-0.0015520011074841022,-0.010773508809506893,-0.0028384122997522354
1761478268380746200,1.161746337890625,0.0013644266873598099,-0.010706929489970207,-0.002150251530110836
1761478268390782200,1.1717822265625,0.00857202522456646,0.0007176119834184647,0.006509589031338692
1761478268400818200,1.181818115234375,0.00433174055069685,0.012349767610430717,0.00929285865277052
1761478268410854100,1.191854248046875,-0.0016963649541139603,0.01194046437740326,0.0022916824091225863
1761478268420890000,1.20189013671875,-0.01247071661055088,0.005894822999835014,-0.004397645592689514
1761478268430927400,1.21192724609375,-0.021225489675998688,0.01057087630033493,0.0029462247621268034
1761478268440963300,1.22196337890625,-0.02057168260216713,0.01707005500793457,0.002891363576054573
1761478268450999300,1.231999267578125,-0.014814687892794609,0.010931219905614853,0.0004510903381742537
1761478268461035300,1.24203515625,-0.009105934761464596,0.0066368733532726765,-0.0035079647786915302
1761478268471071200,1.2520712890625,-0.004016534425318241,-0.0015264840330928564,-0.006775985471904278
1761478268481107200,1.262107177734375,0.0005382699891924858,-0.009955654852092266,-0.005511782597750425
1761478268491143200,1.27214306640625,0.0027867183089256287,-0.00399425532668829,-0.01028952095657587
1761478268501179100,1.28217919921875,0.007382269017398357,0.0027256992179900408,-0.00032583647407591343
1761478268511216000,1.292216064453125,0.01060166023671627,0.00935208611190319,0.00593779981136322
1761478268521252000,1.302252197265625,0.011455737054347992,0.009315067902207375,0.01382288709282875
1761478268531288000,1.3122880859375,0.01268284022808075,0.003814391326159239,0.020288603380322456
1761478268541324000,1.322323974609375,0.007093664258718491,0.005346241407096386,0.014727124944329262
1761478268551360300,1.3323603515625,0.007170733064413071,-0.0041153766214847565,0.007589890621602535
1761478268561396200,1.342396240234375,0.009425630792975426,-0.006812626495957375,0.010178483091294765
1761478268571432200,1.35243212890625,0.008865896612405777,-0.00827565137296915,0.013946441933512688
1761478268581468200,1.36246826171875,0.0021539314184337854,-0.0008712641429156065,0.01918194815516472
1761478268591505400,1.37250537109375,-0.0017908657900989056,0.01586117409169674,0.019128261134028435
1761478268601541400,1.382541259765625,-0.012433922849595547,0.0224186759442091,0.003705895971506834
1761478268611577300,1.392577392578125,-0.012146404013037682,0.016603855416178703,-0.01932639628648758
1761478268621613300,1.40261328125,-0.01171150989830494,-0.0009197450708597898,-0.04233557730913162
1761478268631649300,1.412649169921875,-0.006280401721596718,-0.014037755317986012,-0.04727707803249359
1761478268641685200,1.422685302734375,-0.0045762453228235245,-0.015901703387498856,-0.035077936947345734
1761478268651721200,1.43272119140625,-0.005192503798753023,-0.005996045656502247,-0.013697749935090542
1761478268661757200,1.442757080078125,-0.008427977561950684,0.006545844953507185,0.014047328382730484
1761478268671793200,1.452793212890625,-0.010967032052576542,0.011499029584228992,0.023815738037228584
1761478268681830100,1.462830078125,-0.016311198472976685,0.005760183557868004,0.015920795500278473
1761478268691866000,1.4728662109375,-0.023198481649160385,0.00045146094635128975,0.006931755691766739
1761478268701902000,1.482902099609375,-0.03174084052443504,0.004150325432419777,-0.002072392264381051
1761478268711938000,1.49293798828125,-0.02854285202920437,-0.004547176882624626,-0.0057479641400277615
1761478268721974000,1.50297412109375,-0.01862044632434845,-0.002459258073940873,-0.010046306997537613
1761478268732010200,1.51301025390625,-0.008669605478644371,0.004648351576179266,-0.0002090674825012684
1761478268742046200,1.523046142578125,0.003962033428251743,0.0020168819464743137,0.00590235460549593
1761478268752083200,1.533083251953125,0.015854379162192345,-0.006887929979711771,0.006366543471813202
1761478268762119200,1.543119140625,0.02082010917365551,-0.01041768305003643,0.006665616296231747
1761478268772155400,1.5531552734375,0.027502410113811493,-0.013209017924964428,0.007367418147623539
1761478268782191400,1.56319140625,0.027216386049985886,-0.01992124877870083,0.010280916467308998
1761478268792227300,1.573227294921875,0.024149224162101746,-0.01105879619717598,0.017515752464532852
1761478268802263300,1.58326318359375,0.0173064973205328,-0.01719871535897255,0.027142278850078583
1761478268812299000,1.593299072265625,0.010853393003344536,-0.007790549658238888,0.035428617149591446
1761478268822335000,1.6033349609375,0.006572894286364317,0.002300966065376997,0.042633797973394394
1761478268832371000,1.613370849609375,0.006342407315969467,0.007607096806168556,0.040132757276296616
1761478268842408200,1.623408203125,0.01059813890606165,0.0026426983531564474,0.02222939021885395
1761478268852444200,1.633444091796875,0.009786447510123253,-0.003343818010762334,-0.003446606919169426
1761478268862480100,1.643480224609375,0.008258325979113579,-0.009208365343511105,-0.02621929720044136
1761478268872516000,1.65351611328125,0.00403992086648941,-0.00969736184924841,-0.03477567434310913
1761478268882552000,1.663552001953125,-0.005260637030005455,-0.0023616848047822714,-0.03346220403909683
1761478268892588000,1.673588134765625,-0.012986836954951286,-0.0006951391696929932,-0.02481256239116192
1761478268902624300,1.683624267578125,-0.01673097535967827,0.0009453678503632545,-0.00667430367320776
1761478268912660200,1.69366015625,-0.021130476146936417,0.010546289384365082,0.01836722530424595
1761478268922697000,1.703697021484375,-0.01765318587422371,0.021029023453593254,0.030813241377472878
1761478268932733200,1.713733154296875,-0.01824498176574707,0.01579352654516697,0.029676169157028198
1761478268942769200,1.72376904296875,-0.011176953092217445,0.012463243678212166,0.018767595291137695
1761478268952805000,1.73380517578125,-0.01185196079313755,-0.0016540540382266045,-0.0061913649551570415
1761478268962841000,1.743841064453125,-0.009613042697310448,-0.005806721281260252,-0.023092584684491158
1761478268972877000,1.753876953125,-0.0030690403655171394,-0.005200400948524475,-0.03806043416261673
1761478268982913000,1.7639130859375,0.006619273219257593,-0.009019640274345875,-0.04177980497479439
1761478268992949000,1.773948974609375,0.02029319293797016,-0.004443730227649212,-0.029880346730351448
1761478269002986000,1.783986083984375,0.02083621174097061,0.0012825990561395884,-0.011082957498729229
1761478269013022200,1.794022216796875,0.019604621455073357,0.010005971416831017,0.0041021062061190605
1761478269023058200,1.80405810546875,0.014712661504745483,0.007958266884088516,0.015828803181648254
1761478269033094100,1.81409423828125,0.00447364617139101,0.0052176108583807945,0.02288784831762314
1761478269043130000,1.824130126953125,0.003362308954820037,0.0035624562297016382,0.025881508365273476
1761478269053166000,1.834166015625,0.006430844776332378,0.00005050515756011009,0.03443301096558571
1761478269063202000,1.8442021484375,0.00986658874899149,0.008716697804629803,0.03815078362822533
1761478269073238000,1.854238037109375,0.008494897745549679,0.0012002817820757627,0.024710722267627716
1761478269083275000,1.86427490234375,0.008405681699514389,-0.010859310626983643,0.003952713217586279
1761478269093311000,1.87431103515625,0.0031480281613767147,-0.021925531327724457,-0.010412811301648617
1761478269103347000,1.884346923828125,-0.0018062503077089787,-0.010235054418444633,-0.009947823360562325
1761478269113383200,1.894383056640625,-0.0005490751937031746,0.0004949979484081268,-0.0072251236997544765
1761478269123419100,1.904419189453125,-0.004257527180016041,0.01284860260784626,0.0007430543191730976
1761478269133455000,1.914455078125,-0.0025245873257517815,0.01867600716650486,-0.0013205037685111165
1761478269143491000,1.924490966796875,0.0030874921940267086,0.008762657642364502,-0.0051072523929178715
1761478269153527000,1.934527099609375,0.005096538923680782,0.003691196208819747,-0.012993217445909977
1761478269163564000,1.94456396484375,0.007287787739187479,-0.004687108099460602,-0.011765233241021633
1761478269173600000,1.95460009765625,0.011990929022431374,-0.007074587978422642,-0.0011666720965877175
1761478269183636000,1.964635986328125,0.014929461292922497,0.004309892654418945,0.009678784757852554
1761478269193672200,1.974672119140625,0.011542904190719128,-0.000056898919865489006,0.02029506489634514
1761478269203708200,1.984708251953125,0.011606819927692413,-0.0017245702911168337,0.02162824384868145
1761478269213744000,1.994744140625,0.007844164036214352,0.0023761307820677757,0.021478550508618355
1761478269223780000,2.004780029296875,0.006565580610185862,0.006062478292733431,0.011063195765018463
1761478269233816000,2.014816162109375,0.0040811579674482346,0.005434759892523289,-0.0012260631192475557
1761478269243853000,2.02485302734375,0.00005605630576610565,0.00772614311426878,-0.001563485711812973
1761478269253889000,2.034888916015625,-0.004760620184242725,0.024842064827680588,0.010776273906230927
1761478269263925000,2.044925048828125,-0.004190970212221146,0.02071469835937023,0.009341894648969173
1761478269273961000,2.0549609375,-0.0013263486325740814,0.007209716364741325,-0.005286226514726877
1761478269283997200,2.0649970703125,0.0000627557747066021,-0.000176294706761837,-0.020924309268593788
1761478269294033200,2.075033203125,0.008853482082486153,-0.0022954472806304693,-0.019990278407931328
1761478269304069000,2.085069091796875,0.010847390629351139,0.010547647252678871,-0.008140010759234428
1761478269314105000,2.09510498046875,0.016175882890820503,0.022858865559101105,0.0041889105923473835
1761478269324142000,2.10514208984375,0.022069726139307022,0.04052947089076042,0.014853538945317268
1761478269334178000,2.115177978515625,0.02239692583680153,0.04135847091674805,0.013756189495325089
1761478269344214000,2.125214111328125,0.015809064731001854,0.028475161641836166,0.005737145431339741
1761478269354250000,2.13525,0.011649738997220993,0.007525656837970018,-0.005878133699297905
1761478269364286200,2.1452861328125,0.012610874138772488,-0.0029823780059814453,-0.007918648421764374
1761478269374322200,2.155322265625,0.006589364726096392,-0.008344728499650955,-0.003878574585542083
1761478269384358100,2.165358154296875,-0.005644930526614189,-0.005568116903305054,-0.004511607810854912
1761478269394394000,2.17539404296875,-0.017830058932304382,0.005502820946276188,-0.0035580419935286045
1761478269404430000,2.18543017578125,-0.017194628715515137,0.005355015397071838,-0.008835362270474434
1761478269414467000,2.195467041015625,-0.01344678457826376,-0.008663192391395569,-0.013267877511680126
1761478269424503000,2.2055029296875,-0.008032844401896,-0.016537627205252647,-0.00643047783523798
1761478269434539000,2.2155390625,-0.015520241111516953,-0.019209643825888634,0.014629337936639786
1761478269444575000,2.225574951171875,-0.024362735450267792,-0.005904491525143385,0.036889635026454926
1761478269454611000,2.23561083984375,-0.03154560923576355,0.006074054166674614,0.053059257566928864
1761478269464647200,2.245647216796875,-0.03525485843420029,0.00804106518626213,0.057879310101270676
1761478269474683100,2.25568310546875,-0.034320928156375885,0.010935148224234581,0.04782082512974739
1761478269484719000,2.265718994140625,-0.02875998243689537,-0.0007151162717491388,0.019196104258298874
1761478269494756000,2.275756103515625,-0.021265313029289246,-0.015654118731617928,-0.016233526170253754
1761478269504792000,2.2857919921875,-0.015738721936941147,-0.025265732780098915,-0.030396748334169388
1761478269514828000,2.295828125,-0.010009115561842918,-0.017108524218201637,-0.02438121661543846
1761478269524864000,2.305864013671875,-0.00498133385553956,0.0026902153622359037,-0.013223635032773018
1761478269534900000,2.31589990234375,0.0031887940131127834,0.023978954181075096,0.0028313957154750824
1761478269544936200,2.325936279296875,0.013272054493427277,0.03222836181521416,0.009338296949863434
1761478269554972200,2.33597216796875,0.012998323887586594,0.023345910012722015,0.006515783723443747
1761478269565008100,2.346008056640625,0.009821439161896706,0.006770928390324116,-0.00265694223344326
1761478269575045000,2.356045166015625,0.006296539679169655,-0.009460922330617905,-0.008140538819134235
1761478269585081000,2.3660810546875,0.000985397957265377,-0.009291012771427631,-0.006063805893063545
1761478269595117000,2.376116943359375,0.0026435432955622673,-0.008115392178297043,0.006025027483701706
1761478269605153000,2.386153076171875,0.004652365576475859,-0.0032697708811610937,0.020043639466166496
1761478269615189000,2.39618896484375,0.004626471549272537,-0.005812939256429672,0.021911997348070145
1761478269625225000,2.406224853515625,0.007564204279333353,-0.006580461747944355,0.012650320306420326
1761478269635261200,2.41626123046875,0.009123750030994415,-0.007894480600953102,0.0044625187292695045
1761478269645297200,2.426297119140625,0.011344825848937035,-0.012623456306755543,-0.0008076108060777187
1761478269655334000,2.436333984375,0.006044336594641209,-0.0056944433599710464,0.0018611429259181023
1761478269665370000,2.4463701171875,-0.0051705013029277325,0.0162955429404974,0.010981137864291668
1761478269675406000,2.456406005859375,-0.0035018231719732285,0.01711198315024376,0.012784598395228386
1761478269685442000,2.466442138671875,-0.009170095436275005,0.008513434790074825,0.0007074293098412454
1761478269695478000,2.47647802734375,-0.0017005647532641888,-0.009173211641609669,-0.01719810627400875
1761478269705514000,2.486513916015625,-0.0031011211685836315,-0.006508186459541321,-0.01581512577831745
1761478269715550200,2.49655029296875,-0.00870474148541689,0.001279816497117281,-0.003420980181545019
1761478269725586200,2.506586181640625,-0.010807307437062263,0.005837816745042801,0.00009758840315043926
1761478269735623200,2.516623046875,-0.00214264914393425,-0.00011796061880886555,0.00355476513504982
1761478269745659100,2.5266591796875,0.004441483877599239,-0.0020117342937737703,0.0036333282478153706
1761478269755695000,2.536695068359375,0.007638240233063698,0.003173631615936756,0.003350295824930072
1761478269765731000,2.54673095703125,0.007845168001949787,0.0022553736343979836,-0.002027957933023572
1761478269775767000,2.55676708984375,0.0012485990300774574,0.0023349495604634285,-0.009163113310933113
1761478269785803000,2.566802978515625,0.0012738988734781742,0.0058165001682937145,-0.019528936594724655
1761478269795839000,2.5768388671875,0.002958123805001378,0.0025080437771975994,-0.03904494270682335
1761478269805876000,2.5868759765625,0.015325577929615974,-0.017241159453988075,-0.0454716831445694
1761478269815912000,2.596911865234375,0.028692658990621567,-0.018655501306056976,-0.027782056480646133
1761478269825949000,2.606948974609375,0.03213692456483841,-0.007776753976941109,0.0037391174118965864
1761478269835985000,2.61698486328125,0.027048934251070023,0.00762045057490468,0.032374538481235504
1761478269846020900,2.627020751953125,0.01914680376648903,0.020202022045850754,0.046646419912576675
1761478269856056800,2.637056884765625,0.011838925071060658,0.015780450776219368,0.04244255647063255
1761478269866092800,2.6470927734375,0.017164181917905807,0.0033341676462441683,0.024996988475322723
1761478269876129000,2.65712890625,0.019547095522284508,-0.008420455269515514,0.0014094708021730185
1761478269886165000,2.6671650390625,0.021347392350435257,-0.019581498578190804,-0.016447557136416435
1761478269896201000,2.677200927734375,0.016406327486038208,-0.011674928478896618,-0.008457127958536148
1761478269906238000,2.687238037109375,0.001480107195675373,0.0009905332699418068,0.010223082266747952
1761478269916274000,2.69727392578125,-0.013579818420112133,0.009801237843930721,0.02389402873814106
1761478269926310000,2.707309814453125,-0.03032231330871582,0.009142105467617512,0.024270333349704742
1761478269936346000,2.71734619140625,-0.03735506907105446,0.008108202368021011,0.023426268249750137
1761478269946382000,2.727382080078125,-0.030114199966192245,0.006849592551589012,0.024930156767368317
1761478269956418000,2.73741796875,-0.017221877351403236,-0.0008136420510709286,0.012540959753096104
1761478269966454000,2.7474541015625,-0.007542352192103863,-0.010154413059353828,-0.010498046875
1761478269976490000,2.757489990234375,-0.00024293502792716026,-0.019563868641853333,-0.02444394677877426
1761478269986527000,2.76752685546875,-0.003476811572909355,-0.013961109332740307,-0.024602938443422318
1761478269996563000,2.77756298828125,-0.011312629096210003,0.007586807943880558,-0.010994277894496918
1761478270006599000,2.787598876953125,-0.013998161070048809,0.011318962089717388,0.006857423111796379
1761478270016635000,2.797634765625,-0.007679237984120846,0.012637199833989143,0.015439720824360847
1761478270026670800,2.8076708984375,0.0002535204403102398,0.000449776416644454,0.012373623438179493
1761478270036706800,2.817706787109375,0.011950163170695305,-0.01799318753182888,0.002250497229397297
1761478270046743000,2.827742919921875,0.014252198860049248,-0.018101312220096588,0.004201794974505901
1761478270056779000,2.837779052734375,0.013049475848674774,-0.0030061928555369377,0.01410644594579935
1761478270066815000,2.84781494140625,0.014362679794430733,0.004233078099787235,0.019198942929506302
1761478270076852000,2.85785205078125,0.023227382451295853,0.01100210938602686,0.020092908293008804
1761478270086888000,2.867887939453125,0.02856329083442688,0.00914135854691267,0.011239763349294662
1761478270096924000,2.877923828125,0.03051268309354782,-0.008322855457663536,-0.0030031667556613684
1761478270106960100,2.887960205078125,0.025489695370197296,-0.020368866622447968,-0.002838849788531661
1761478270116996000,2.89799609375,0.011582627892494202,-0.012567359954118729,0.0030434560030698776
1761478270127032000,2.908031982421875,-0.0067649539560079575,-0.00046116323210299015,0.020280232653021812
1761478270137068000,2.918068115234375,-0.02594045363366604,0.02163863182067871,0.029767248779535294
1761478270147104000,2.92810400390625,-0.035894013941287994,0.02318859100341797,0.023349031805992126
1761478270157140000,2.938139892578125,-0.0282311849296093,0.0065727848559618,0.0014423741959035397
1761478270167177000,2.948177001953125,-0.018757253885269165,-0.016908040270209312,-0.021033108234405518
1761478270177213000,2.958212890625,-0.013085680082440376,-0.03330927714705467,-0.03799048438668251
1761478270187249000,2.968248779296875,-0.017880169674754143,-0.031084474176168442,-0.034104399383068085
1761478270197284900,2.978284912109375,-0.026414986699819565,-0.01477239839732647,-0.011571410112082958
1761478270207320800,2.98832080078125,-0.03294239565730095,0.0065989368595182896,0.013728885911405087
1761478270217356800,2.998356689453125,-0.03144744038581848,0.01864062249660492,0.030744243413209915
1761478270227393000,3.00839306640625,-0.02391655370593071,0.021330147981643677,0.03312750533223152
1761478270237429000,3.018428955078125,-0.016434872522950172,0.010917305015027523,0.02416769415140152
1761478270247465700,3.0284658203125,-0.009221168234944344,0.006754251662641764,0.020883217453956604
1761478270257502000,3.038501953125,-0.00025229575112462044,0.004227241966873407,0.007614924572408199
1761478270267538000,3.048537841796875,0.004360299091786146,-0.0030469160992652178,-0.0021764535922557116
1761478270277574000,3.058573974609375,0.01368463970720768,-0.008843072690069675,-0.007843407802283764
1761478270287610000,3.068610107421875,0.01999819651246071,-0.008134138770401478,-0.014718358404934406
1761478270297646000,3.07864599609375,0.02545505203306675,-0.002870960393920541,-0.01569734327495098
1761478270307682000,3.08868212890625,0.03630690276622772,0.003305176505818963,-0.011979571543633938
1761478270317718000,3.098718017578125,0.04604112356901169,-0.003052512649446726,-0.004828515462577343
1761478270327755000,3.108755126953125,0.03938215598464012,0.00018163002096116543,0.0038046534173190594
1761478270337791000,3.118791015625,0.02407192997634411,0.017844121903181076,0.02388795278966427
1761478270347827000,3.128826904296875,0.014926902949810028,0.02287430129945278,0.028977252542972565
1761478270357863000,3.13886279296875,0.008925056084990501,0.01189560815691948,0.023995518684387207
1761478270367899000,3.14889892578125,0.008615597151219845,0.008830309845507145,0.020818635821342468
1761478270377934800,3.158934814453125,0.008171075955033302,0.0002003624103963375,0.010962018743157387
1761478270387970800,3.168970703125,0.006178498733788729,-0.004257236607372761,0.006294029764831066
1761478270398007000,3.179007080078125,-0.004051931202411652,-0.007412992883473635,-0.0025033389683812857
1761478270408043000,3.18904296875,-0.00810606125742197,-0.0029279631562530994,-0.007548964116722345
1761478270418079700,3.199079833984375,-0.009957142174243927,0.0016800669254735112,-0.0031721610575914383
1761478270428116000,3.209115966796875,-0.0018515451811254025,0.02009822241961956,0.009149219840765
1761478270438152000,3.21915185546875,0.01143602654337883,0.0225986335426569,0.017595866695046425
1761478270448188000,3.22918798828125,0.015022771432995796,0.022999705746769905,0.024576012045145035
1761478270458224000,3.23922412109375,0.010042788460850716,0.024344835430383682,0.014622971415519714
1761478270468260000,3.249260009765625,0.008733844384551048,0.005437191110104322,-0.0019456184236332774
1761478270478296000,3.259296142578125,0.00645626662299037,-0.007879668846726418,-0.010414909571409225
1761478270488332000,3.26933203125,0.010096275247633457,-0.011302096769213676,-0.011497484520077705
1761478270498368000,3.279367919921875,0.003231056034564972,-0.010063130408525467,-0.0020617947448045015
1761478270508405000,3.289405029296875,-0.004901971202343702,-0.004940806422382593,0.007418525870889425
1761478270518441000,3.29944091796875,-0.009385855868458748,0.00093407416716218,0.02444862388074398
1761478270528477000,3.309476806640625,-0.013862895779311657,0.004479540511965752,0.037049904465675354
1761478270538513000,3.319512939453125,-0.01778249628841877,0.002657645847648382,0.03653643652796745
1761478270548548900,3.329548828125,-0.017711389809846878,0.000587038230150938,0.02796372026205063
1761478270558584800,3.339584716796875,-0.016119513660669327,-0.008356017991900444,0.0160911176353693
1761478270568620800,3.349620849609375,-0.011574029922485352,-0.02283322811126709,0.008802578784525394
1761478270578657000,3.359656982421875,-0.013453550636768341,-0.022050224244594574,0.00635860301554203
1761478270588693000,3.36969287109375,-0.02307395450770855,-0.010889183729887009,0.002487964928150177
1761478270598729700,3.379729736328125,-0.030797554180026054,-0.010404678992927074,0.003271132241934538
1761478270608766000,3.389765869140625,-0.03571134805679321,0.0010437173768877983,0.005749735981225967
1761478270618802000,3.399802001953125,-0.028522800654172897,0.004702180624008179,-0.0038461307995021343
1761478270628838000,3.409837890625,-0.011280163191258907,0.005816713906824589,-0.0032810079865157604
1761478270638874000,3.4198740234375,-0.0023303404450416565,0.0020504866261035204,-0.0019324666354805231
1761478270648910000,3.42991015625,0.0010598632507026196,0.0045495969243347645,-0.006902724504470825
1761478270658946000,3.439946044921875,-0.0016604945994913578,0.0030905522871762514,-0.009488708339631557
1761478270668982000,3.44998193359375,-0.0006897724233567715,0.00743549969047308,-0.0037029911763966084
1761478270679019000,3.46001904296875,-0.0003133662976324558,0.01005505956709385,-0.0014345739036798477
1761478270689055000,3.470054931640625,0.000473064836114645,0.015800297260284424,-0.00400798674672842
1761478270699091000,3.480091064453125,0.0018200092017650604,0.009527258574962616,-0.011444229632616043
1761478270709127000,3.490126953125,0.003077287459746003,-0.001217264449223876,-0.013150783255696297
1761478270719163000,3.500162841796875,-0.0023372494615614414,0.0038423584774136543,-0.008738856762647629
1761478270729198800,3.51019873046875,0.0018537668511271477,0.00718728918582201,-0.0030892272479832172
1761478270739234800,3.52023486328125,0.012701339088380337,0.006224991753697395,0.0028977086767554283
1761478270749271000,3.53027099609375,0.013346090912818909,0.001594020752236247,0.0031107612885534763
1761478270759307000,3.54030712890625,0.01304840762168169,0.009161212481558323,0.00679713673889637
1761478270769343700,3.55034375,0.006675463169813156,0.01032261736690998,0.011906145140528679
1761478270779380000,3.5603798828125,0.005287362262606621,0.00409444747492671,0.012510205619037151
1761478270789416000,3.570416015625,0.004775236360728741,-0.00023771659471094608,0.014579481445252895
1761478270799452000,3.580451904296875,-0.003765108995139599,-0.0036387606523931026,0.019467473030090332
1761478270809488100,3.590488037109375,-0.009743639267981052,0.00411103805527091,0.023629728704690933
1761478270819524000,3.600524169921875,-0.008625008165836334,0.0028708940371870995,0.009553705342113972
1761478270829560000,3.61056005859375,-0.0066334959119558334,0.0002836331259459257,-0.0068806614726781845
1761478270839596000,3.620595947265625,-0.0042781219817698,-0.007644680328667164,-0.023711692541837692
1761478270849632000,3.630632080078125,-0.0008463729172945023,-0.007291278801858425,-0.029707536101341248
1761478270859669000,3.6406689453125,-0.0010075513273477554,0.0035146772861480713,-0.025904295966029167
1761478270869705000,3.650705078125,-0.0013593551702797413,0.022300615906715393,-0.008032619953155518
1761478270879741000,3.660740966796875,-0.007173280231654644,0.02555406093597412,0.00212942436337471
1761478270889777000,3.67077685546875,-0.012805333361029625,0.0266419630497694,-0.0028887700755149126
1761478270899812900,3.680812744140625,-0.010586942546069622,0.0011029187589883804,-0.015109970234334469
1761478270909848800,3.690848876953125,-0.009896649979054928,-0.019698500633239746,-0.01943308115005493
1761478270919884800,3.700884765625,-0.0003657904453575611,-0.02322489209473133,-0.012790569104254246
1761478270929921000,3.710921142578125,0.0013191914185881615,-0.017005346715450287,0.009876127354800701
1761478270939957000,3.72095703125,-0.000375969335436821,-0.0017407110426574945,0.03663491830229759
1761478270949994000,3.730993896484375,-0.008263719268143177,0.008054395206272602,0.04064111411571503
1761478270960030000,3.741030029296875,-0.022855224087834358,0.011776677332818508,0.02620784193277359
1761478270970066200,3.751066162109375,-0.0338096059858799,0.010323124006390572,-0.0029942519031465054
1761478270980102100,3.76110205078125,-0.02733859233558178,0.000952108995988965,-0.018977882340550423
1761478270990138000,3.77113818359375,-0.017817258834838867,0.0012354692444205284,-0.02275744080543518
1761478271000174000,3.781174072265625,-0.011762299574911594,0.013103831559419632,-0.017057662829756737
1761478271010210000,3.7912099609375,-0.001129628624767065,0.007382562384009361,-0.016510915011167526
1761478271020246000,3.80124609375,0.0049820845015347,0.008547039702534676,-0.011953840032219887
1761478271030282000,3.811281982421875,0.00954248197376728,0.004917683079838753,-0.009297603741288185
1761478271040318000,3.82131787109375,0.016502488404512405,-0.004240038804709911,-0.004874242004007101
1761478271050355000,3.83135498046875,0.01652991957962513,-0.009127737954258919,0.006599454674869776
1761478271060391000,3.841390869140625,0.012308480218052864,-0.007548334077000618,0.019863469526171684
1761478271070427000,3.851427001953125,0.00611529964953661,-0.00653659924864769,0.03248339146375656
1761478271080462800,3.861462890625,-0.004598309751600027,0.005672791041433811,0.038824066519737244
1761478271090498800,3.871498779296875,-0.009176550433039665,0.010874477215111256,0.03857479244470596
1761478271100535000,3.88153515625,0.00009450037032365799,0.00457404088228941,0.02562607079744339
1761478271110571000,3.891571044921875,0.01861225813627243,-0.016499286517500877,0.006846257951110601
1761478271120607000,3.90160693359375,0.028432484716176987,-0.02807154320180416,-0.007224727421998978
1761478271130643000,3.911642822265625,0.023744523525238037,-0.023924734443426132,-0.00784178264439106
1761478271140680200,3.92168017578125,0.0034618268255144358,-0.01755189150571823,0.007665593642741442
1761478271150716200,3.931716064453125,-0.01935959979891777,0.007862389087677002,0.017836205661296844
1761478271160752000,3.941752197265625,-0.030046168714761734,0.017835304141044617,0.0221333596855402
1761478271170788000,3.9517880859375,-0.03020089864730835,0.019213223829865456,0.022967727854847908
1761478271180824000,3.961823974609375,-0.026608604937791824,0.008579765446484089,0.010788913816213608
1761478271190860000,3.971860107421875,-0.025542009621858597,-0.004946696572005749,-0.0034866947680711746
1761478271200896000,3.98189599609375,-0.031041428446769714,-0.002585772890597582,-0.009553533047437668
1761478271210932000,3.991931884765625,-0.03030506521463394,0.010254391469061375,-0.020128145813941956
1761478271220968000,4.001968017578125,-0.030246790498495102,0.01799726113677025,-0.02937500551342964
1761478271231004000,4.01200390625,-0.021878870204091072,0.020283585414290428,-0.03684330731630325
1761478271241040000,4.022039794921875,-0.015199616551399231,0.00935317762196064,-0.03933965787291527
1761478271251076000,4.032076171875,-0.01429494097828865,0.0055848052725195885,-0.03308708593249321
1761478271261112000,4.042112060546875,-0.01456216350197792,0.001491687260568142,-0.02897840552031994
1761478271271148000,4.05214794921875,-0.011575162410736084,-0.000058006029576063156,-0.01803387887775898
1761478271281184000,4.06218408203125,-0.0061949207447469234,-0.0034858244471251965,0.0009487568167969584
1761478271291220000,4.072219970703125,0.0002632443793118,0.003689796896651387,0.01796848513185978
1761478271301256000,4.082255859375,0.01351183746010065,0.0003261496312916279,0.025653904303908348
1761478271311292000,4.0922919921875,0.020555632188916206,-0.006618575192987919,0.027428368106484413
1761478271321327900,4.102327880859375,0.02721882238984108,-0.010018340311944485,0.023371586576104164
1761478271331364900,4.11236474609375,0.024788688868284225,-0.014249571599066257,0.02400701679289341
1761478271341401000,4.122401123046875,0.020158186554908752,-0.00816408358514309,0.019672775641083717
1761478271351437000,4.13243701171875,0.011590265668928623,-0.006817322224378586,0.018763840198516846
1761478271361473000,4.14247314453125,0.0043276166543364525,-0.0023612352088093758,0.014018907211720943
1761478271371509000,4.152509033203125,0.001963262213394046,0.0023336512967944145,0.00951709970831871
1761478271381545000,4.162544921875,0.008245925419032574,-0.006376749835908413,-0.00028786039911210537
1761478271391581200,4.172581298828125,0.015362158417701721,-0.014393397606909275,-0.0086813447996974
1761478271401617200,4.1826171875,0.019366737455129623,-0.013760194182395935,-0.018902670592069626
1761478271411653000,4.192653076171875,0.01783861592411995,-0.013294408097863197,-0.0182693712413311
1761478271421690000,4.202690185546875,0.012565968558192253,-0.002269123215228319,-0.014792236499488354
1761478271431726000,4.21272607421875,0.0086298156529665,0.011803019791841507,0.003949492238461971
1761478271441762000,4.222761962890625,0.0021496473345905542,0.017989085987210274,0.018411191180348396
1761478271451798000,4.232798095703125,-0.00450106430798769,0.01682262122631073,0.02157076634466648
1761478271461834000,4.242833984375,-0.011045437306165695,0.00992577988654375,0.02013024315237999
1761478271471870000,4.252869873046875,-0.014471858739852905,-0.0006216694600880146,0.01411069929599762
1761478271481906000,4.262906005859375,-0.019704684615135193,-0.010664588771760464,0.0014135014498606324
1761478271491942000,4.27294189453125,-0.01655682548880577,-0.01051971223205328,-0.006764533929526806
1761478271501977900,4.282977783203125,-0.01651962473988533,-0.010625387541949749,-0.013342788442969322
1761478271512014800,4.293014892578125,-0.014350744895637035,0.0006232724990695715,-0.007830844260752201
1761478271522051000,4.303051025390625,-0.00927242636680603,0.004723358899354935,-0.0033808317966759205
1761478271532087000,4.313087158203125,-0.006122173275798559,0.011326666921377182,-0.001723280525766313
1761478271542123000,4.323123046875,-0.0035009500570595264,0.01005532220005989,-0.0024698441848158836
1761478271552159000,4.333158935546875,-0.005335601512342691,-0.0027664669323712587,-0.0035793171264231205
1761478271562195000,4.34319482421875,-0.0063314191065728664,-0.009026594460010529,0.0008165524341166019
1761478271572231200,4.353231201171875,-0.007460332941263914,-0.0007193963974714279,0.009703254327178001
1761478271582267100,4.36326708984375,-0.005848920438438654,0.013678867369890213,0.012747639790177345
1761478271592303000,4.37330322265625,0.002097153104841709,0.009308086708188057,0.00402179267257452
1761478271602339000,4.383339111328125,0.014457355253398418,-0.00569493230432272,-0.01115577295422554
1761478271612376000,4.3933759765625,0.027836278080940247,-0.016700178384780884,-0.027114233002066612
1761478271622412000,4.403412109375,0.029466917738318443,-0.023192530497908592,-0.025622699409723282
1761478271632448000,4.413447998046875,0.022071052342653275,-0.01210152916610241,-0.007361669559031725
1761478271642484000,4.42348388671875,0.010519267991185188,0.00865186657756567,0.01734684593975544
1761478271652520000,4.43352001953125,-0.0012127561494708061,0.026166677474975586,0.0326182097196579
1761478271662556000,4.443555908203125,-0.0078587606549263,0.02306385152041912,0.028471319004893303
1761478271672592000,4.453591796875,-0.009227357804775238,0.006104575470089912,0.014359493739902973
1761478271682627800,4.4636279296875,-0.004475685302168131,-0.004025988280773163,0.0008737231837585568
1761478271692663800,4.473663818359375,0.007209466770291328,-0.00897147785872221,-0.004252862185239792
1761478271702701000,4.483701171875,0.009066736325621605,-0.011462978087365627,-0.011525456793606281
1761478271712737000,4.493737060546875,0.011256121098995209,-0.00019674119539558887,-0.010009318590164185
1761478271722773000,4.50377294921875,0.012473822571337223,0.007749422453343868,-0.009539151564240456
1761478271732809000,4.51380908203125,0.004021215718239546,0.01127784512937069,-0.007131654769182205
1761478271742845200,4.52384521484375,-0.0035424488596618176,0.014616788364946842,-0.008820584043860435
1761478271752881200,4.533881103515625,-0.015465155243873596,0.015524127520620823,-0.00514702033251524
1761478271762917000,4.543917236328125,-0.018886376172304153,0.013220274820923805,-0.0007297104457393289
1761478271772953000,4.553953125,-0.02265128679573536,0.008879588916897774,-0.0002708478132262826
1761478271782989000,4.563989013671875,-0.022329743951559067,0.00018257880583405495,-0.0019913173746317625
1761478271793026000,4.574026123046875,-0.018606111407279968,0.002051318995654583,-0.0061511751264333725
1761478271803062000,4.58406201171875,-0.006154235918074846,-0.010040497407317162,-0.015982234850525856
1761478271813097500,4.594097412109375,0.002335388446226716,-0.009441019967198372,-0.018220089375972748
1761478271823133400,4.604133544921875,0.007434589322656393,-0.01182827353477478,-0.008705848827958107
1761478271833169400,4.61416943359375,-0.0016683614812791348,-0.006045751739293337,0.009738671593368053
1761478271843206400,4.624206298828125,-0.004783934447914362,0.0020034722983837128,0.0267254039645195
1761478271853242400,4.634242431640625,-0.01227673888206482,0.0039547705091536045,0.034689854830503464
1761478271863278300,4.6442783203125,-0.01605365052819252,-0.00031490717083215714,0.03633503243327141
1761478271873314300,4.654314208984375,-0.002492301631718874,-0.0004091830924153328,0.03815530240535736
1761478271883350300,4.664350341796875,0.012179810553789139,-0.0019090489950031042,0.03003906086087227
1761478271893386200,4.67438623046875,0.026196027174592018,0.004030066542327404,0.014658506959676743
1761478271903422700,4.684422607421875,0.03652668744325638,0.0062119485810399055,-0.005019343923777342
1761478271913458700,4.694458740234375,0.04460325464606285,0.010559292510151863,-0.025041256099939346
1761478271923494700,4.70449462890625,0.045499883592128754,0.009398868307471275,-0.04191906005144119
1761478271933531600,4.71453173828125,0.04221487417817116,0.00599588081240654,-0.05138606205582619
1761478271943567600,4.724567626953125,0.02649048902094364,0.0006366891320794821,-0.05064920336008072
1761478271953603600,4.734603515625,0.017304714769124985,0.002969085704535246,-0.029867492616176605
1761478271963639600,4.7446396484375,0.002593044890090823,0.021803684532642365,0.008985960856080055
1761478271973675500,4.754675537109375,-0.01011236384510994,0.03843725472688675,0.03625566512346268
1761478271983711500,4.76471142578125,-0.016882939264178276,0.03438752517104149,0.040563106536865234
1761478271993747500,4.77474755859375,-0.018680306151509285,0.016723576933145523,0.020369157195091248
1761478272003783400,4.784783447265625,-0.02037162147462368,-0.011132202111184597,-0.0024889945052564144
1761478272013819400,4.7948193359375,-0.01640324480831623,-0.027109837159514427,-0.021208353340625763
1761478272023856400,4.8048564453125,-0.01987801492214203,-0.028518181294202805,-0.029667463153600693
1761478272033892400,4.814892333984375,-0.02476118877530098,-0.025740502402186394,-0.031017951667308807
1761478272043928300,4.82492822265625,-0.03135136142373085,-0.01602398231625557,-0.017505520954728127
1761478272053964300,4.83496435546875,-0.04271826520562172,0.00798654556274414,0.010645689442753792
1761478272064000300,4.845000244140625,-0.0431147925555706,0.02058553881943226,0.03192384913563728
1761478272074036500,4.855036376953125,-0.0337308794260025,0.02463327720761299,0.04399809241294861
1761478272084072700,4.86507275390625,-0.018014270812273026,0.006546727381646633,0.040417660027742386
1761478272094108700,4.875108642578125,0.00029602786526083946,-0.01378144696354866,0.03147156909108162
1761478272104144600,4.88514453125,0.015653125941753387,-0.018697770312428474,0.021511394530534744
1761478272114181600,4.895181640625,0.02499815821647644,-0.02504860982298851,0.00954048614948988
1761478272124217600,4.905217529296875,0.02459116466343403,-0.022436950355768204,0.006321311462670565
1761478272134253600,4.915253662109375,0.023613518103957176,-0.013592058792710304,0.004414754454046488
1761478272144289500,4.92528955078125,0.028764748945832253,-0.01220395602285862,0.00730359461158514
1761478272154325500,4.935325439453125,0.025213954970240593,-0.004223526921123266,0.016494430601596832
1761478272164361500,4.945361572265625,0.016362285241484642,0.012936081737279892,0.018711887300014496
1761478272174397400,4.9553974609375,0.006785291247069836,0.022873401641845703,0.019502045586705208
1761478272184433400,4.965433349609375,0.008067704737186432,0.016091737896203995,0.008942285552620888
1761478272194469400,4.975469482421875,0.014578601345419884,-0.002928026719018817,-0.005704567767679691
1761478272204506400,4.98550634765625,0.026289155706763268,-0.013548622839152813,-0.01880800351500511
1761478272214542300,4.995542236328125,0.02365449070930481,0.00039994949474930763,-0.01694246008992195
1761478272224578300,5.005578369140625,0.017199477180838585,0.007515911944210529,-0.019362028688192368
1761478272234614300,5.0156142578125,0.005386759527027607,0.010042186826467514,-0.030184583738446236
1761478272244650200,5.025650146484375,-0.0062812017276883125,-0.0021946935448795557,-0.047728925943374634
1761478272254686700,5.035686767578125,-0.024428781121969223,-0.0009933414403349161,-0.060141388326883316
1761478272264722700,5.04572265625,-0.027194861322641373,-0.0030652168206870556,-0.050361089408397675
1761478272274758700,5.055758544921875,-0.02899063006043434,-0.01057080365717411,-0.021639429032802582
1761478272284795600,5.065795654296875,-0.0369853600859642,0.0018224299419671297,0.011729431338608265
1761478272294831600,5.07583154296875,-0.04082270711660385,0.011273722164332867,0.03139501065015793
1761478272304867600,5.08586767578125,-0.041826535016298294,0.012576859444379807,0.026949413120746613
1761478272314903600,5.095903564453125,-0.035826168954372406,0.008859086781740189,0.008335781283676624
1761478272324939500,5.105939453125,-0.019704211503267288,0.003084145486354828,-0.017228836193680763
1761478272334975500,5.1159755859375,0.0015299697406589985,0.0011003566905856133,-0.035471491515636444
1761478272345011500,5.126011474609375,0.014476211741566658,-0.0017319524195045233,-0.03679065778851509
1761478272355047400,5.13604736328125,0.02868896909058094,0.005218631587922573,-0.02546529471874237
1761478272365083400,5.14608349609375,0.030839715152978897,0.009996214881539345,0.0006305321003310382
1761478272375120400,5.156120361328125,0.032224562019109726,0.014436770230531693,0.020273741334676743
1761478272385156400,5.16615625,0.02966737560927868,0.004353411961346865,0.030226651579141617
1761478272395192300,5.1761923828125,0.020623814314603806,-0.008996215648949146,0.03648614510893822
1761478272405228300,5.186228271484375,0.017190702259540558,-0.01146380789577961,0.03906463459134102
1761478272415264300,5.19626416015625,0.009774863719940186,0.0013686337042599916,0.04275231435894966
1761478272425300500,5.206300537109375,0.009678076952695847,0.0048939548432827,0.03666588291525841
1761478272435336700,5.216336669921875,0.017483800649642944,0.003415900282561779,0.02604013867676258
1761478272445372700,5.22637255859375,0.019140493124723434,-0.0013603137340396643,0.00977999810129404
1761478272455408600,5.23640869140625,0.008980266749858856,0.0013925957027822733,0.017343107610940933
1761478272465445600,5.246445556640625,-0.012581031769514084,0.01061677373945713,0.013260765001177788
1761478272475481600,5.256481689453125,-0.02554423362016678,-0.00605408288538456,0.007822323590517044
1761478272485517600,5.266517578125,-0.03234449401497841,-0.016554472967982292,0.005809214897453785
1761478272495553500,5.276553466796875,-0.032921068370342255,0.001364872558042407,0.013734515756368637
1761478272505589500,5.286589599609375,-0.036561138927936554,0.00359811307862401,0.015013070777058601
1761478272515625500,5.29662548828125,-0.0319107249379158,0.00815318338572979,-0.004095909185707569
1761478272525661400,5.306661376953125,-0.02681298553943634,0.005397367291152477,-0.02978031523525715
1761478272535697400,5.316697509765625,-0.019096214324235916,-0.005776990205049515,-0.05457727611064911
1761478272545733400,5.3267333984375,-0.0027640266343951225,-0.012494038790464401,-0.06049766391515732
1761478272555770400,5.336770263671875,0.0057756658643484116,0.003154696896672249,-0.046936050057411194
1761478272565806300,5.346806396484375,0.015870124101638794,0.012454803101718426,-0.024026548489928246
1761478272575842300,5.35684228515625,0.02047659270465374,0.021760687232017517,0.00636384729295969
1761478272585878300,5.366878173828125,0.018444301560521126,0.012460453435778618,0.021693922579288483
1761478272595914200,5.376914306640625,0.026433520019054413,0.000043730949983000755,0.027324911206960678
1761478272605950700,5.38695068359375,0.02520131506025791,-0.016283588483929634,0.02812456339597702
1761478272615986700,5.396986572265625,0.021413767710328102,-0.02846834808588028,0.030001292005181313
1761478272626022700,5.407022705078125,0.015028982423245907,-0.01270798034965992,0.037794165313243866
1761478272636058600,5.41705859375,0.011488309130072594,0.001841135905124247,0.04246002063155174
1761478272646095600,5.427095703125,0.009431387297809124,0.005098005291074514,0.036998797208070755
1761478272656131600,5.437131591796875,0.008058261126279831,-0.0004051506984978914,0.021826235577464104
1761478272666167600,5.44716748046875,0.009750761091709137,-0.006048288196325302,0.00018400221597403288
1761478272676203500,5.45720361328125,0.007920371368527412,-0.008812116459012032,-0.012954436242580414
1761478272686239500,5.467239501953125,0.0038318438455462456,-0.00976791325956583,-0.02683101035654545
1761478272696275500,5.477275390625,-0.008295925334095955,-0.004928949289023876,-0.02021891437470913
1761478272706311400,5.4873115234375,-0.025570496916770935,0.0009019025601446629,-0.0036085587926208973
1761478272716347400,5.497347412109375,-0.04443340003490448,0.015182038769125938,0.012924877926707268
1761478272726383400,5.50738330078125,-0.0478234626352787,0.013197765685617924,0.01434400212019682
1761478272736420400,5.51742041015625,-0.03199336677789688,-0.004607862792909145,0.0010849226964637637
1761478272746456300,5.527456298828125,-0.014694742858409882,-0.010902926325798035,-0.012829964980483055
1761478272756492300,5.5374921875,0.004069890361279249,-0.008958285674452782,-0.020429294556379318
1761478272766528300,5.5475283203125,0.009458940476179123,-0.0025687662418931723,-0.029483400285243988
1761478272776564500,5.557564453125,0.007209900766611099,-0.0005234584677964449,-0.024710750207304955
1761478272786600700,5.5676005859375,0.001830520574003458,0.0019052429124712944,-0.018756667152047157
1761478272796636700,5.57763671875,0.001940509071573615,-0.003210156923159957,-0.007463796995580196
1761478272806672600,5.587672607421875,0.00514338631182909,-0.004317071754485369,0.014382874593138695
1761478272816708900,5.597708984375,-0.0009760251268744469,0.009975580498576164,0.03322526812553406
1761478272826745900,5.607745849609375,0.0007549715228378773,0.012310820631682873,0.037354741245508194
1761478272836781800,5.61778173828125,0.007813946343958378,0.004342376720160246,0.026331651955842972
1761478272846818000,5.627818115234375,0.0161545779556036,-0.017529569566249847,0.00672583794221282
1761478272856854000,5.63785400390625,0.02464446984231472,-0.031354572623968124,-0.010787641629576683
1761478272866890000,5.647889892578125,0.025975722819566727,-0.03145427629351616,-0.01093699038028717
1761478272876926000,5.657926025390625,0.02093888446688652,-0.023477040231227875,0.006877160631120205
1761478272886962000,5.6679619140625,0.010461883619427681,-0.0010153597686439753,0.020190760493278503
1761478272896998000,5.677997802734375,-0.000619795173406601,0.018151143565773964,0.03449726477265358
1761478272907033900,5.688033935546875,-0.007596517447382212,0.020710201933979988,0.022629162296652794
1761478272917070800,5.69807080078125,-0.00901198759675026,0.013325789012014866,0.00011879275552928448
1761478272927106800,5.70810693359375,-0.002470285166054964,-0.006772265769541264,-0.02117832750082016
1761478272937142800,5.718142822265625,0.0012821084819734097,-0.009394947439432144,-0.02575337328016758
1761478272947178800,5.7281787109375,0.007148070260882378,-0.0002731254789978266,-0.01558898389339447
1761478272957214700,5.738214599609375,0.005603170488029718,0.013974253088235855,-0.0002555683022364974
1761478272967251000,5.7482509765625,-0.002401143778115511,0.022012967616319656,0.0076832156628370285
1761478272977287000,5.758286865234375,-0.006500015500932932,0.015423508360981941,0.002269275253638625
1761478272987323000,5.768322998046875,-0.003671654500067234,0.003008879255503416,-0.008887073025107384
1761478272997358800,5.77835888671875,-0.002896941266953945,-0.016460958868265152,-0.022420192137360573
1761478273007395800,5.788395751953125,0.00005385838449001312,-0.01301231887191534,-0.025502236559987068
1761478273017432000,5.79843212890625,-0.0022196820937097073,-0.010295362211763859,-0.014835742302238941
1761478273027468000,5.808468017578125,-0.00423395773395896,0.003005844308063388,0.008210104890167713
1761478273037504000,5.81850390625,-0.003783083986490965,0.01392187550663948,0.018788181245326996
1761478273047540000,5.8285400390625,0.007388927973806858,0.011347698047757149,0.01990850642323494
1761478273057576000,5.838575927734375,0.017688436433672905,0.0038639488629996777,0.014568068087100983
1761478273067612000,5.84861181640625,0.021450165659189224,-0.006428021006286144,0.005403271410614252
1761478273077648000,5.85864794921875,0.02551628090441227,-0.012440640479326248,0.0016045385273173451
1761478273087683800,5.868683837890625,0.018458083271980286,-0.006751722656190395,-0.0020548678003251553
1761478273097720800,5.878720947265625,0.00676653953269124,-0.0007569468580186367,-0.00820250902324915
1761478273107756800,5.8887568359375,0.0021824403665959835,0.005713469348847866,-0.010117587633430958
1761478273117792800,5.898792724609375,0.0023816446773707867,0.0074370671063661575,-0.009747408330440521
1761478273127828700,5.908828857421875,0.00022686319425702095,0.0048419707454741,-0.007661652285605669
1761478273137864700,5.91886474609375,-0.0012884754687547684,0.005807632580399513,-0.00526027986779809
1761478273147901000,5.92890087890625,-0.003772033378481865,0.0019003478810191154,-0.0042730094864964485
1761478273157937000,5.93893701171875,0.006125072482973337,-0.003068311605602503,0.007480319123715162
1761478273167972900,5.948972900390625,0.012082050554454327,-0.00302026211284101,0.016352413222193718
1761478273178008800,5.9590087890625,0.012099094688892365,-0.005932961590588093,0.020486170426011086
1761478273188045800,5.9690458984375,0.0007705939933657646,-0.005629290826618671,0.01028795912861824
1761478273198082000,5.97908203125,-0.0115614403039217,-0.005275090225040913,0.002331765601411462
1761478273208118000,5.989117919921875,-0.00509744742885232,-0.00935526192188263,-0.0004702896112576127
1761478273218154000,5.999154052734375,-0.001592461485415697,-0.004190860316157341,0.0060936035588383675
1761478273228190000,6.00918994140625,0.002514007966965437,0.009074127301573753,0.009989201091229916
1761478273238226000,6.019225830078125,0.0005816183984279633,0.012558873742818832,0.008945775218307972
1761478273248262000,6.029261962890625,0.0025255209766328335,0.007974609732627869,0.002620978746563196
1761478273258297900,6.0392978515625,-0.003118249587714672,0.004785207565873861,-0.00532802427187562
1761478273268333800,6.049333740234375,0.00045225024223327637,-0.005493528209626675,-0.013414180837571621
1761478273278370800,6.059370849609375,-0.002127554267644882,0.00003812299109995365,-0.015256822109222412
1761478273288406800,6.06940673828125,-0.0041337935253977776,0.00170131993945688,-0.011178171262145042
1761478273298442800,6.07944287109375,-0.009015101008117199,0.0013764144387096167,-0.008538978174328804
1761478273308478700,6.089478759765625,-0.020347261801362038,-0.0011741586495190859,-0.013724262826144695
1761478273318515000,6.099514892578125,-0.026488246396183968,-0.0020825632382184267,-0.020438892766833305
1761478273328551000,6.109551025390625,-0.020419662818312645,-0.002802989911288023,-0.021163471043109894
1761478273338587000,6.1195869140625,-0.00765087129548192,0.003757707541808486,-0.008345941081643105
1761478273348622800,6.129622802734375,0.012761668302118778,0.002234293380752206,0.005283828359097242
1761478273358658800,6.139658935546875,0.027703600004315376,-0.0030110685620456934,0.0186449084430933
1761478273368694800,6.14969482421875,0.03144890442490578,-0.013214362785220146,0.027671359479427338
1761478273378732000,6.15973193359375,0.026488233357667923,-0.012353096157312393,0.036561522632837296
1761478273388768000,6.16976806640625,0.01255052536725998,-0.000570226926356554,0.0400981605052948
1761478273398804000,6.179803955078125,-0.0015530427917838097,0.0010854601860046387,0.030668703839182854
1761478273408840000,6.18983984375,-0.004939381033182144,0.0031507243402302265,0.015658272430300713
1761478273418876000,6.1998759765625,0.0018042754381895065,-0.0029479144141077995,-0.007895522750914097
1761478273428911900,6.209911865234375,0.003354109125211835,-0.017143845558166504,-0.017983656376600266
1761478273438947800,6.21994775390625,0.007657511159777641,-0.02212688699364662,-0.02294752188026905
1761478273448983800,6.22998388671875,0.0006352267228066921,-0.014618736691772938,-0.008530975319445133
1761478273459019800,6.240019775390625,-0.007675167638808489,0.007339024916291237,0.00644051656126976
1761478273469056000,6.250055908203125,-0.01647210121154785,0.026123760268092155,0.008992314338684082
1761478273479092700,6.2600927734375,-0.02126578986644745,0.02030368708074093,-0.006131244823336601
1761478273489128700,6.270128662109375,-0.026437748223543167,0.015997547656297684,-0.024685688316822052
1761478273499165000,6.2801650390625,-0.0241176038980484,0.0013307202607393265,-0.04445992782711983
1761478273509201000,6.290200927734375,-0.02168789878487587,0.004660012666136026,-0.05253895744681358
1761478273519236900,6.30023681640625,-0.014154349453747272,-0.004661317449063063,-0.048150599002838135
1761478273529272800,6.31027294921875,-0.004183086100965738,0.0007725327741354704,-0.02854771539568901
1761478273539308800,6.320308837890625,0.00036772293969988823,0.012824135832488537,-0.009182805195450783
1761478273549344800,6.3303447265625,0.004128185100853443,0.010083690285682678,-0.00009719154331833124
1761478273559380700,6.340380615234375,0.00648747943341732,0.0018334833439439535,0.0004857744206674397
1761478273569418000,6.35041796875,0.004013101104646921,-0.0018693343736231327,0.005936136934906244
1761478273579454000,6.360453857421875,0.006213405169546604,-0.0003204396925866604,0.013136258348822594
1761478273589490000,6.370489990234375,0.002324242377653718,0.002730398438870907,0.01909531280398369
1761478273599526000,6.38052587890625,0.009089204482734203,0.006367211230099201,0.02180561050772667
1761478273609561900,6.390561767578125,0.01652657426893711,-0.008241266012191772,0.01684868335723877
1761478273619597800,6.400597900390625,0.025112073868513107,-0.014379053376615047,0.01528487540781498
1761478273629633800,6.4106337890625,0.02272370643913746,-0.01824621856212616,0.01693798415362835
1761478273639670000,6.420669921875,0.014153389260172844,-0.014475715346634388,0.019184892997145653
1761478273649706000,6.4307060546875,-0.0037056468427181244,0.000992393121123314,0.022336632013320923
1761478273659742000,6.440741943359375,-0.009897762909531593,0.017955664545297623,0.016033995896577835
1761478273669779000,6.450779052734375,-0.022308116778731346,0.021733762696385384,-0.005251011345535517
1761478273679815000,6.46081494140625,-0.024032779037952423,0.008456307463347912,-0.031266096979379654
1761478273689851000,6.470850830078125,-0.019091034308075905,-0.0029349441174417734,-0.053067028522491455
1761478273699886800,6.480886962890625,-0.010963600128889084,-0.011926575563848019,-0.05985196679830551
1761478273709922800,6.4909228515625,-0.009101416915655136,-0.009443901479244232,-0.04726061224937439
1761478273719958800,6.500958740234375,-0.008620450273156166,0.0077859521843492985,-0.03313707187771797
1761478273729994800,6.510994873046875,-0.0023736474104225636,0.011125614866614342,-0.018439091742038727
1761478273740030700,6.52103076171875,0.007288035005331039,0.013377850875258446,0.0008927947492338717
1761478273750066700,6.531066650390625,0.013550715520977974,0.0016784872859716415,0.00716791208833456
1761478273760102700,6.5411025390625,0.02261052280664444,-0.00832061655819416,0.01772521436214447
1761478273770140000,6.551139892578125,0.027719615027308464,-0.010936678387224674,0.029851553961634636
1761478273780176000,6.56117578125,0.019367408007383347,-0.00847112387418747,0.044115178287029266
1761478273790211800,6.5712119140625,0.010632744058966637,-0.005404902622103691,0.04896516725420952
1761478273800247800,6.581247802734375,0.010680414736270905,-0.008270730264484882,0.04873267561197281
1761478273810284300,6.5912841796875,0.004768614191561937,-0.015717115253210068,0.03952670842409134
1761478273820320300,6.6013203125,0.004034646786749363,-0.02290472202003002,0.025225797668099403
1761478273830356500,6.6113564453125,0.0020341414492577314,-0.02493607997894287,0.009345844388008118
1761478273840392400,6.621392333984375,0.0003214622847735882,-0.016878686845302582,0.005831271409988403
1761478273850428400,6.631428466796875,-0.0027537504211068153,-0.000030830735340714455,0.009338976815342903
1761478273860465400,6.64146533203125,-0.010281973518431187,0.010484394617378712,0.0009481552406214178
1761478273870501400,6.65150146484375,-0.027653362601995468,0.01891016773879528,-0.01724112406373024
1761478273880537300,6.661537353515625,-0.0274331197142601,0.011856252327561378,-0.034533824771642685
1761478273890573300,6.6715732421875,-0.018555721268057823,0.004525214899331331,-0.04236482083797455
1761478273900609300,6.681609375,-0.010283144190907478,-0.006307459436357021,-0.049033910036087036
1761478273910645200,6.691645263671875,-0.0004905965179204941,-0.008402211591601372,-0.04236070066690445
1761478273920681200,6.70168115234375,0.0023347511887550354,-0.011907197535037994,-0.03453367203474045
1761478273930717400,6.711717529296875,-0.010612616315484047,-0.005758022889494896,-0.01682589389383793
1761478273940753400,6.72175341796875,-0.018842583522200584,0.0018604822689667344,0.005897262133657932
1761478273950789400,6.731789306640625,-0.03361138701438904,0.014556164853274822,0.019135525450110435
1761478273960826400,6.741826416015625,-0.030464064329862595,0.014962829649448395,0.025082897394895554
1761478273970862300,6.7518623046875,-0.021450577303767204,0.003417606232687831,0.022445596754550934
1761478273980898300,6.761898193359375,-0.010681552812457085,-0.016892990097403526,0.012031039223074913
1761478273990934300,6.771934326171875,0.002030085539445281,-0.027125565335154533,-0.0007069994462653995
1761478274000970200,6.78197021484375,0.0031685868743807077,-0.02632448635995388,0.0008040782413445413
1761478274011006500,6.79200634765625,-0.0025337697006762028,-0.01630512624979019,0.005338834598660469
1761478274021042400,6.80204248046875,-0.007808425929397345,-0.0012241776566952467,0.014986401423811913
1761478274031078400,6.812078369140625,-0.013045748695731163,0.006395196542143822,0.010193330235779285
1761478274041114400,6.8221142578125,-0.0159752257168293,0.017231598496437073,0.004899232182651758
1761478274051150300,6.832150390625,-0.014890164136886597,0.026700180023908615,0.00027368846349418163
1761478274061187300,6.842187255859375,-0.005857521202415228,0.022083323448896408,-0.008832991123199463
1761478274071223300,6.852223388671875,0.00804080069065094,0.009260431863367558,-0.021484436467289925
1761478274081259300,6.86225927734375,0.016514712944626808,-0.01205790601670742,-0.030675005167722702
1761478274091295200,6.872295166015625,0.019109221175312996,-0.010272437706589699,-0.025957999750971794
1761478274101331500,6.88233154296875,0.017979241907596588,-0.004225197248160839,-0.014942899346351624
1761478274111367400,6.892367431640625,0.01579963229596615,0.0013568412978202105,-0.0010915037710219622
1761478274121403400,6.9024033203125,0.014693621546030045,0.008795582689344883,0.01301179826259613
1761478274131439400,6.912439453125,0.013361364603042603,0.007465003989636898,0.017998721450567245
1761478274141475300,6.922475341796875,0.013238325715065002,-0.006671854294836521,0.016863949596881866
1761478274151511600,6.932511474609375,0.00872745830565691,-0.011551846750080585,0.012441304512321949
1761478274161548300,6.94254833984375,0.011133890599012375,-0.017857147380709648,0.010032741352915764
1761478274171584300,6.952584228515625,0.01994674652814865,-0.019812118262052536,0.015581735409796238
1761478274181620500,6.962620361328125,0.02993040531873703,-0.016622185707092285,0.02182178758084774
1761478274191656400,6.972656494140625,0.0341978520154953,-0.0004903536755591631,0.03474317863583565
1761478274201692400,6.9826923828125,0.03240181878209114,0.008092481642961502,0.0415656641125679
1761478274211728400,6.992728271484375,0.028675133362412453,0.024356205016374588,0.038266122341156006
1761478274221764400,7.002764404296875,0.025573084130883217,0.022901052609086037,0.019762476906180382
1761478274231800300,7.01280029296875,0.021394850686192513,0.007500524632632732,-0.01628740318119526
1761478274241836300,7.022836181640625,0.015343083068728447,-0.010048109106719494,-0.04186626523733139
1761478274251872300,7.032872314453125,0.011514478363096714,-0.025212137028574944,-0.05344187840819359
1761478274261908200,7.042908203125,0.0028072732966393232,-0.012099796906113625,-0.03643093630671501
1761478274271945200,7.0529453125,-0.007455728016793728,0.005677197128534317,-0.006171876098960638
1761478274281981400,7.0629814453125,-0.010787341743707657,0.016334369778633118,0.02159184403717518
1761478274292017400,7.073017333984375,-0.012143990024924278,0.035486798733472824,0.03678911179304123
1761478274302053400,7.083053466796875,-0.012868104502558708,0.02409113198518753,0.03665835037827492
1761478274312089300,7.09308935546875,-0.00782761164009571,0.000893536489456892,0.021360551938414574
1761478274322125300,7.103125244140625,-0.005748214665800333,0.0011017958167940378,-0.0007516726618632674
1761478274332161500,7.11316162109375,-0.0017989026382565498,-0.015309828333556652,-0.02359621226787567
1761478274342197500,7.123197509765625,-0.0053443689830601215,-0.01821933314204216,-0.03376016765832901
1761478274352233500,7.1332333984375,-0.010685943067073822,-0.012367433868348598,-0.03714458644390106
1761478274362269400,7.14326953125,-0.013730468228459358,-0.0023486223071813583,-0.03844926878809929
1761478274372306400,7.153306396484375,-0.015809981152415276,0.009647133760154247,-0.02763199247419834
1761478274382342400,7.16334228515625,-0.015204643830657005,0.012000835500657558,-0.019901102408766747
1761478274392378400,7.17337841796875,-0.004151316825300455,0.007098819129168987,-0.006429123226553202
1761478274402414300,7.183414306640625,-0.0018111970275640488,0.0027679866179823875,0.00563020259141922
1761478274412450300,7.1934501953125,0.005253341980278492,0.01045479066669941,0.011066886596381664
1761478274422486300,7.203486328125,0.006093303207308054,0.00644140737131238,0.011381406337022781
1761478274432522200,7.213522216796875,0.0041915238834917545,0.002419922035187483,0.0071283141151070595
1761478274442558200,7.22355810546875,0.014130707830190659,-0.008797844871878624,-0.004227138590067625
1761478274452594200,7.23359423828125,0.01848773844540119,-0.012429523281753063,-0.005069036036729813
1761478274462630100,7.243630126953125,0.01390230655670166,-0.012484650127589703,-0.005939090624451637
1761478274472666400,7.253666259765625,0.02078135870397091,-0.012915991246700287,-0.0010225005680695176
1761478274482703400,7.263703369140625,0.021708138287067413,-0.011628619395196438,0.01181872934103012
1761478274492739300,7.2737392578125,0.013359288685023785,-0.0037785102613270283,0.029711848124861717
1761478274502775600,7.283775634765625,-0.0012939558364450932,0.00862516276538372,0.04735768586397171
1761478274512811500,7.2938115234375,-0.02054520882666111,0.02251211367547512,0.04036108776926994
1761478274522847500,7.303847412109375,-0.022160949185490608,0.01643930748105049,0.01704271323978901
1761478274532883500,7.313883544921875,-0.012282767333090305,-0.012799648568034172,-0.02217555232346058
1761478274542919400,7.32391943359375,0.007407845929265022,-0.03768662363290787,-0.05252813175320625
1761478274552955400,7.333955322265625,0.024141233414411545,-0.03241277113556862,-0.050395864993333817
1761478274562991400,7.343991455078125,0.021992061287164688,-0.01959550939500332,-0.02465907484292984
1761478274573027300,7.35402734375,0.010311590507626534,0.007374136708676815,0.0040101720951497555
1761478274583064300,7.364064208984375,-0.0006206859834492207,0.0218737181276083,0.025132235139608383
1761478274593100300,7.374100341796875,-0.0019095954485237598,0.031193284317851067,0.028490692377090454
1761478274603136300,7.38413623046875,0.0017621046863496304,0.027138886973261833,0.014340784400701523
1761478274613172200,7.394172119140625,0.010128319263458252,0.009423715993762016,-0.003694539424031973
1761478274623208200,7.404208251953125,0.01674547605216503,-0.003437487641349435,-0.030024679377675056
1761478274633244200,7.414244140625,0.02101113647222519,-0.01256419438868761,-0.04711981117725372
1761478274643280400,7.4242802734375,0.020806871354579926,-0.01292505208402872,-0.042496830224990845
1761478274653316400,7.43431640625,0.02058514952659607,0.0047379531897604465,-0.028893139213323593
1761478274663352300,7.444352294921875,0.02396443486213684,0.01893926039338112,-0.005987025331705809
1761478274673388300,7.45438818359375,0.025532109662890434,0.02164294943213463,0.017770417034626007
1761478274683424500,7.464424560546875,0.024220770224928856,0.012706978246569633,0.033356837928295135
1761478274693461500,7.47446142578125,0.024769790470600128,0.010490492917597294,0.03768378496170044
1761478274703497500,7.48449755859375,0.023591075092554092,0.0006431888323277235,0.027487607672810555
1761478274713533400,7.494533447265625,0.015564147382974625,-0.00774914026260376,0.02373906597495079
1761478274723569400,7.5045693359375,0.01090814359486103,-0.012187831103801727,0.015643056482076645
1761478274733605400,7.51460546875,0.009614162147045135,-0.027476701885461807,0.012132552452385426
1761478274743641300,7.524641357421875,0.00242629018612206,-0.01353318989276886,0.016567781567573547
1761478274753677300,7.53467724609375,-0.0029476345516741276,0.000521759269759059,0.021957101300358772
1761478274763713300,7.54471337890625,-0.006917343009263277,0.008964778855443,0.01529387291520834
1761478274773749200,7.554749267578125,-0.010842705145478249,0.012039447203278542,0.009429500438272953
1761478274783785200,7.56478515625,-0.01572134904563427,0.015052281320095062,-0.003047409001737833
1761478274793821400,7.574821533203125,-0.02487848326563835,0.01609310880303383,-0.011502564884722233
1761478274803858200,7.584858154296875,-0.02961597964167595,0.004926207475364208,-0.022214865311980247
1761478274813893600,7.5948935546875,-0.02652239426970482,0.0011155910324305296,-0.025226423516869545
1761478274823929600,7.6049296875,-0.018355542793869972,-0.000712136272341013,-0.02677265554666519
1761478274833965600,7.614965576171875,-0.014197945594787598,-0.0022647110745310783,-0.018804306164383888
1761478274844001500,7.62500146484375,-0.013722304254770279,0.004143653437495232,-0.01009177416563034
1761478274854037500,7.63503759765625,-0.006797979585826397,-0.00008855201303958893,0.0018558322917670012
1761478274864073500,7.645073486328125,0.0077977413311600685,-0.004511529579758644,0.009488452225923538
1761478274874109400,7.655109375,0.0153513103723526,-0.001473139738664031,0.027514513581991196
1761478274884145400,7.6651455078125,0.02101185917854309,0.0015349006280303001,0.03553195670247078
1761478274894181400,7.675181396484375,0.014236439019441605,-0.0015463079325854778,0.03357476741075516
1761478274904217600,7.685217529296875,0.010111203417181969,-0.01602325215935707,0.022004127502441406
1761478274914254300,7.69525439453125,0.010462302714586258,-0.027986641973257065,0.013546459376811981
1761478274924290300,7.705290283203125,0.01414012722671032,-0.029370155185461044,0.0157781895250082
1761478274934326500,7.715326416015625,0.009013116359710693,-0.020077764987945557,0.02799796499311924
1761478274944362500,7.725362548828125,0.005403201095759869,-0.0023621506989002228,0.0394815169274807
1761478274954398500,7.7353984375,0.0013013556599617004,0.016285579651594162,0.04666654020547867
1761478274964434400,7.745434326171875,-0.0010108007118105888,0.024242306128144264,0.03881287947297096
1761478274974470400,7.755470458984375,0.004240496549755335,0.012009289115667343,0.019485749304294586
1761478274984506400,7.76550634765625,0.00519204419106245,0.00009137671440839767,-0.009232448413968086
1761478274994542300,7.775542236328125,0.0014014681801199913,-0.003528466448187828,-0.03687305375933647
1761478275004578300,7.785578369140625,-0.003822055645287037,-0.015649311244487762,-0.059286218136548996
1761478275014614300,7.7956142578125,-0.003170982003211975,-0.017966378480196,-0.06250666826963425
1761478275024651500,7.805651611328125,-0.0040745921432971954,-0.011913280002772808,-0.04682570695877075
1761478275034687500,7.8156875,-0.006270787678658962,-0.0038832102436572313,-0.017731931060552597
1761478275044723500,7.825723388671875,-0.011095370166003704,0.016614608466625214,0.01570085994899273
1761478275054759400,7.835759521484375,-0.016587508842349052,0.023493893444538116,0.03879651799798012
1761478275064795400,7.84579541015625,-0.020859485492110252,0.02959572896361351,0.03898879885673523
1761478275074831400,7.855831298828125,-0.019158128648996353,0.01334294117987156,0.02410394698381424
1761478275084867600,7.86586767578125,-0.003969056531786919,-0.0054483236744999886,0.0007307147607207298
1761478275094903600,7.875903564453125,0.009469925425946712,-0.025926653295755386,-0.022129949182271957
1761478275104939500,7.885939453125,0.01868739165365696,-0.028439875692129135,-0.024180317297577858
1761478275114975500,7.8959755859375,0.016043726354837418,-0.019260942935943604,-0.015078429132699966
1761478275125011500,7.906011474609375,0.00561531912535429,-0.0026918184012174606,0.01642170548439026
1761478275135048400,7.91604833984375,-0.011196465231478214,0.020585551857948303,0.03736887499690056
1761478275145084400,7.92608447265625,-0.01830098032951355,0.04096619039773941,0.04586302489042282
1761478275155120400,7.936120361328125,-0.0067951190285384655,0.042056307196617126,0.04303519427776337
1761478275165156400,7.94615625,0.015327226370573044,0.013119997456669807,0.018165800720453262
1761478275175192300,7.9561923828125,0.021648675203323364,-0.0036885382141917944,-0.008033360354602337
1761478275185228300,7.966228271484375,0.017735159024596214,-0.00589363556355238,-0.03209688514471054
1761478275195264300,7.97626416015625,0.01247701421380043,-0.0050981491804122925,-0.040482647716999054
1761478275205300200,7.98630029296875,0.010452745482325554,0.004547020886093378,-0.03692306578159332
1761478275215336400,7.99633642578125,0.000004906207323074341,0.01812622882425785,-0.014831935055553913
1761478275225372700,8.00637255859375,-0.004096095450222492,0.016337117180228233,0.00997700821608305
1761478275235408600,8.01640869140625,-0.007390281185507774,0.006531422026455402,0.024170437827706337
1761478275245444600,8.026444580078126,-0.009692051447927952,-0.003272206522524357,0.032339952886104584
1761478275255480600,8.03648046875,-0.017592014744877815,-0.005009146872907877,0.03173273056745529
1761478275265516500,8.0465166015625,-0.015462551265954971,-0.011803403496742249,0.022082768380641937
1761478275275552500,8.056552490234376,-0.006333995144814253,-0.01055200956761837,0.009560566395521164
1761478275285588500,8.06658837890625,0.010141383856534958,-0.010705674067139626,0.009925419464707375
1761478275295624400,8.07662451171875,0.01646506041288376,0.0003379217814654112,0.020990321412682533
1761478275305661400,8.086661376953124,0.0096734669059515,0.000007423572242259979,0.02114318683743477
1761478275315697400,8.096697509765624,0.004016980994492769,0.002089866204187274,0.020228007808327675
1761478275325733400,8.1067333984375,-0.0060050273314118385,0.007048672065138817,0.020095381885766983
1761478275335769300,8.116769287109374,-0.0003797081299126148,0.006413108669221401,0.01616818830370903
1761478275345805300,8.126805419921874,0.008393542841076851,-0.004649662412703037,0.003375694854184985
1761478275355841300,8.13684130859375,0.023352915421128273,-0.00752459280192852,-0.0026690498925745487
1761478275365877500,8.14687744140625,0.026808366179466248,0.0007913941517472267,-0.0008583663729950786
1761478275375913500,8.15691357421875,0.010686790570616722,0.006920973304659128,0.006702515762299299
1761478275385949400,8.166949462890624,-0.003588817548006773,0.018331021070480347,0.0022078987676650286
1761478275395985400,8.1769853515625,-0.0048901974223554134,0.00601159455254674,-0.010399635881185532
1761478275406021400,8.187021484375,-0.0005897246301174164,-0.002345671411603689,-0.027255581691861153
1761478275416058600,8.19705859375,0.004410512745380402,-0.0025341433938592672,-0.025807831436395645
1761478275426094600,8.207094482421875,0.005051002837717533,-0.0015019017737358809,-0.0046133301220834255
1761478275436130600,8.217130615234375,-0.0065366243943572044,0.02278195135295391,0.03788512945175171
1761478275446166500,8.22716650390625,-0.01809900440275669,0.023754270747303963,0.06957115978002548
1761478275456202500,8.237202392578125,-0.02659601904451847,0.024465452879667282,0.0540461428463459
1761478275466238500,8.247238525390625,-0.017596930265426636,0.011607177555561066,0.007394483312964439
1761478275476274400,8.2572744140625,-0.03263160586357117,0.17081375420093536,0.10355974733829498
1761478275486310400,8.267310302734375,0.006430573295801878,0.03967251628637314,-0.07107730209827423
1761478275496346400,8.277346435546875,0.018581891432404518,-0.05525335669517517,-0.06574052572250366
1761478275506382600,8.287382568359375,0.006674898788332939,-0.012300829403102398,0.05346363037824631
1761478275516418600,8.29741845703125,0.00826635118573904,0.048640549182891846,0.1590503752231598
1761478275526455300,8.307455322265625,0.014925586059689522,0.09487728774547577,0.22994904220104218
1761478275536491500,8.317491455078125,0.013256086967885494,0.02433864399790764,0.23421861231327057
1761478275546527500,8.327527587890625,0.037962231785058975,-0.020169967785477638,0.16880817711353302
1761478275556563500,8.3375634765625,0.056539423763751984,-0.0878150686621666,0.059039000421762466
1761478275566599400,8.347599365234375,0.06941820681095123,-0.14062263071537018,-0.050858207046985626
1761478275576635400,8.357635498046875,0.06678256392478943,-0.10851956903934479,-0.1067085787653923
1761478275586671400,8.36767138671875,0.054724838584661484,-0.031299348920583725,-0.11732500046491623
