time,seconds_elapsed,z,y,x
1761505947814189800,0.08818994140625,-1.015106201171875,-0.019500732421875,-0.0331573486328125
1761505947824225800,0.098225830078125,-1.013916015625,-0.0205078125,-0.033599853515625
1761505947834262000,0.108261962890625,-1.01422119140625,-0.0205230712890625,-0.0330810546875
1761505947844298800,0.118298828125,-1.0146331787109375,-0.01995849609375,-0.0330963134765625
1761505947854334700,0.128334716796875,-1.014923095703125,-0.0196990966796875,-0.03253173828125
1761505947864371000,0.138370849609375,-1.01397705078125,-0.020416259765625,-0.0328369140625
1761505947874407700,0.14840771484375,-1.0137786865234375,-0.02069091796875,-0.0333404541015625
1761505947884443600,0.158443603515625,-1.0152130126953125,-0.0195159912109375,-0.0335235595703125
1761505947894480000,0.16847998046875,-1.0140380859375,-0.0197296142578125,-0.0327301025390625
1761505947904515800,0.178515869140625,-1.0143585205078125,-0.020477294921875,-0.0329437255859375
1761505947914552800,0.188552734375,-1.014068603515625,-0.0202178955078125,-0.0328826904296875
1761505947924588800,0.1985888671875,-1.01416015625,-0.020050048828125,-0.0337066650390625
1761505947934625000,0.208625,-1.0137481689453125,-0.0199737548828125,-0.03314208984375
1761505947944661800,0.218661865234375,-1.0145263671875,-0.020233154296875,-0.032989501953125
1761505947954697700,0.22869775390625,-1.0144500732421875,-0.02020263671875,-0.03289794921875
1761505947964734000,0.23873388671875,-1.014129638671875,-0.01995849609375,-0.03363037109375
1761505947974770700,0.248770751953125,-1.0144805908203125,-0.02020263671875,-0.032928466796875
1761505947984806700,0.258806640625,-1.01324462890625,-0.020111083984375,-0.03228759765625
1761505947994843000,0.2688427734375,-1.0138092041015625,-0.0200042724609375,-0.032745361328125
1761505948004878800,0.27887890625,-1.014007568359375,-0.02001953125,-0.03350830078125
1761505948014915800,0.288915771484375,-1.0141754150390625,-0.0196533203125,-0.0324554443359375
1761505948024951800,0.298951904296875,-1.012939453125,-0.0202789306640625,-0.0335845947265625
1761505948034988000,0.308988037109375,-1.014190673828125,-0.02008056640625,-0.0329132080078125
1761505948045024800,0.319024658203125,-1.0140533447265625,-0.0205841064453125,-0.0327911376953125
1761505948055061000,0.32906103515625,-1.014495849609375,-0.0206298828125,-0.032958984375
1761505948065097200,0.33909716796875,-1.0144500732421875,-0.020751953125,-0.032806396484375
1761505948075133200,0.34913330078125,-1.013702392578125,-0.01995849609375,-0.0329132080078125
1761505948085170000,0.359169921875,-1.0147857666015625,-0.0198822021484375,-0.032562255859375
1761505948095206100,0.3692060546875,-1.013153076171875,-0.0208282470703125,-0.0337066650390625
1761505948105242400,0.379242431640625,-1.013885498046875,-0.020782470703125,-0.032012939453125
1761505948115279000,0.389279052734375,-1.014312744140625,-0.019805908203125,-0.03289794921875
1761505948125315000,0.399315185546875,-1.0128936767578125,-0.0202789306640625,-0.0333404541015625
1761505948135351300,0.409351318359375,-1.013916015625,-0.0200042724609375,-0.032318115234375
1761505948145387300,0.41938720703125,-1.0135345458984375,-0.021270751953125,-0.0318603515625
1761505948155424000,0.429424072265625,-1.0130462646484375,-0.02081298828125,-0.03240966796875
1761505948165460200,0.439460205078125,-1.0141754150390625,-0.0203399658203125,-0.032806396484375
1761505948175496200,0.44949609375,-1.01348876953125,-0.01995849609375,-0.033355712890625
1761505948185533000,0.459532958984375,-1.013397216796875,-0.019866943359375,-0.033599853515625
1761505948195569200,0.469569091796875,-1.0142669677734375,-0.0207672119140625,-0.032867431640625
1761505948205605000,0.479605224609375,-1.0138092041015625,-0.0189361572265625,-0.0334014892578125
1761505948215641300,0.489641357421875,-1.0142364501953125,-0.0199127197265625,-0.0335845947265625
1761505948225678000,0.499677978515625,-1.014678955078125,-0.0206146240234375,-0.03326416015625
1761505948235714300,0.50971435546875,-1.013702392578125,-0.0204315185546875,-0.03277587890625
1761505948245750300,0.519750244140625,-1.0130157470703125,-0.020721435546875,-0.0333099365234375
1761505948255787000,0.529787109375,-1.0135040283203125,-0.0205078125,-0.032806396484375
1761505948265823200,0.5398232421875,-1.0127410888671875,-0.01995849609375,-0.0332489013671875
1761505948275859200,0.549859130859375,-1.0125274658203125,-0.0198974609375,-0.0325775146484375
1761505948285896000,0.55989599609375,-1.0132598876953125,-0.0207366943359375,-0.0335235595703125
1761505948295932200,0.56993212890625,-1.0134124755859375,-0.0197906494140625,-0.0331878662109375
1761505948305968000,0.579968017578125,-1.0134429931640625,-0.02008056640625,-0.0331878662109375
1761505948316004000,0.590004150390625,-1.013519287109375,-0.020660400390625,-0.032867431640625
1761505948326041300,0.600041259765625,-1.0127410888671875,-0.0205078125,-0.03302001953125
1761505948336077300,0.610077392578125,-1.0124664306640625,-0.0193939208984375,-0.0332489013671875
1761505948346113300,0.62011328125,-1.013092041015625,-0.0198822021484375,-0.0333099365234375
1761505948356150300,0.630150390625,-1.0134429931640625,-0.0202789306640625,-0.0335540771484375
1761505948366186200,0.640186279296875,-1.014068603515625,-0.0203399658203125,-0.0328369140625
1761505948376222200,0.65022216796875,-1.0138092041015625,-0.020050048828125,-0.0331268310546875
1761505948386258200,0.660258056640625,-1.0130615234375,-0.0200042724609375,-0.0335693359375
1761505948396295200,0.670295166015625,-1.0126800537109375,-0.01983642578125,-0.03350830078125
1761505948406331100,0.6803310546875,-1.0124664306640625,-0.0203857421875,-0.0327301025390625
1761505948416367000,0.6903671875,-1.013824462890625,-0.019866943359375,-0.0330963134765625
1761505948426404400,0.700404296875,-1.0133514404296875,-0.02044677734375,-0.033416748046875
1761505948436440300,0.7104404296875,-1.01397705078125,-0.0189208984375,-0.032806396484375
1761505948446476300,0.720476318359375,-1.012969970703125,-0.0193939208984375,-0.0329132080078125
1761505948456512300,0.73051220703125,-1.0134124755859375,-0.0196990966796875,-0.0334930419921875
1761505948466549200,0.74054931640625,-1.0130615234375,-0.020263671875,-0.0332183837890625
1761505948476585200,0.750585205078125,-1.0131683349609375,-0.01983642578125,-0.0325469970703125
1761505948486621200,0.76062109375,-1.013671875,-0.0195770263671875,-0.0328521728515625
1761505948496658200,0.770658203125,-1.0144195556640625,-0.020904541015625,-0.0331878662109375
1761505948506694100,0.780694091796875,-1.013336181640625,-0.0204315185546875,-0.0329132080078125
1761505948516730000,0.790730224609375,-1.01324462890625,-0.0197906494140625,-0.0327606201171875
1761505948526766000,0.80076611328125,-1.0134735107421875,-0.0197601318359375,-0.03369140625
1761505948536803300,0.81080322265625,-1.0129852294921875,-0.0201263427734375,-0.0330352783203125
1761505948546839300,0.82083935546875,-1.012847900390625,-0.0204620361328125,-0.0328216552734375
1761505948556875300,0.830875244140625,-1.0127410888671875,-0.0202789306640625,-0.0335540771484375
1761505948566912300,0.840912353515625,-1.0128326416015625,-0.020172119140625,-0.0323944091796875
1761505948576948200,0.8509482421875,-1.01318359375,-0.019805908203125,-0.0333099365234375
1761505948586984200,0.860984130859375,-1.0128326416015625,-0.0202484130859375,-0.0325775146484375
1761505948597021200,0.871021240234375,-1.0126800537109375,-0.0199737548828125,-0.0327301025390625
1761505948607057200,0.88105712890625,-1.01373291015625,-0.0197906494140625,-0.0332794189453125
1761505948617093000,0.891093017578125,-1.013824462890625,-0.0200653076171875,-0.0332489013671875
1761505948627129000,0.901129150390625,-1.0135040283203125,-0.02020263671875,-0.0328826904296875
1761505948637166300,0.911166259765625,-1.0129547119140625,-0.020599365234375,-0.03350830078125
1761505948647202300,0.921202392578125,-1.0119781494140625,-0.0203704833984375,-0.0339508056640625
1761505948657238300,0.93123828125,-1.013031005859375,-0.0199127197265625,-0.033905029296875
1761505948667274200,0.941274169921875,-1.013336181640625,-0.0195159912109375,-0.0326385498046875
1761505948677311200,0.951311279296875,-1.0124664306640625,-0.0190887451171875,-0.0328369140625
1761505948687347200,0.96134716796875,-1.0130767822265625,-0.019683837890625,-0.032958984375
1761505948697383200,0.971383056640625,-1.01336669921875,-0.0200042724609375,-0.033355712890625
1761505948707420200,0.981420166015625,-1.013702392578125,-0.0197906494140625,-0.033294677734375
1761505948717456100,0.9914560546875,-1.0129547119140625,-0.019805908203125,-0.0330657958984375
1761505948727492000,1.0014921875,-1.0119476318359375,-0.0202178955078125,-0.0328826904296875
1761505948737529000,1.011529052734375,-1.0128326416015625,-0.020599365234375,-0.0333099365234375
1761505948747565000,1.02156494140625,-1.012786865234375,-0.019744873046875,-0.032989501953125
1761505948757601300,1.031601318359375,-1.0121612548828125,-0.019775390625,-0.032501220703125
1761505948767637200,1.04163720703125,-1.0130462646484375,-0.0196685791015625,-0.032867431640625
1761505948777674200,1.05167431640625,-1.0135040283203125,-0.0205535888671875,-0.033966064453125
1761505948787710200,1.061710205078125,-1.0141448974609375,-0.0203857421875,-0.0325927734375
1761505948797746200,1.07174609375,-1.0146636962890625,-0.0198211669921875,-0.033447265625
1761505948807783200,1.081783203125,-1.013946533203125,-0.01959228515625,-0.0330047607421875
1761505948817819100,1.091819091796875,-1.014251708984375,-0.0210113525390625,-0.0334930419921875
1761505948827855000,1.101855224609375,-1.0130157470703125,-0.0201873779296875,-0.0326385498046875
1761505948837891000,1.11189111328125,-1.013336181640625,-0.0201873779296875,-0.033172607421875
1761505948847928000,1.121927978515625,-1.0135498046875,-0.02093505859375,-0.0335693359375
1761505948857964000,1.131964111328125,-1.01318359375,-0.019775390625,-0.0331878662109375
1761505948868000000,1.142,-1.01361083984375,-0.0193939208984375,-0.0333404541015625
1761505948878037200,1.152037353515625,-1.012908935546875,-0.0209808349609375,-0.0328521728515625
1761505948888073200,1.1620732421875,-1.0132293701171875,-0.0202484130859375,-0.0322723388671875
1761505948898109200,1.172109130859375,-1.01318359375,-0.020843505859375,-0.0328216552734375
1761505948908145200,1.182145263671875,-1.0128173828125,-0.02020263671875,-0.03289794921875
1761505948918182100,1.19218212890625,-1.0140838623046875,-0.0204925537109375,-0.0336456298828125
1761505948928218000,1.202218017578125,-1.0132293701171875,-0.02056884765625,-0.032684326171875
1761505948938254000,1.212254150390625,-1.0131683349609375,-0.0201263427734375,-0.0328521728515625
1761505948948290000,1.2222900390625,-1.0133514404296875,-0.0200653076171875,-0.0337677001953125
1761505948958327000,1.2323271484375,-1.013092041015625,-0.01983642578125,-0.0336151123046875
1761505948968363000,1.242363037109375,-1.0128326416015625,-0.01971435546875,-0.0324859619140625
1761505948978399000,1.25239892578125,-1.0132293701171875,-0.0198974609375,-0.0322723388671875
1761505948988436200,1.262436279296875,-1.013946533203125,-0.0205841064453125,-0.03271484375
1761505948998472200,1.27247216796875,-1.014251708984375,-0.020263671875,-0.0326690673828125
1761505949008508200,1.282508056640625,-1.01312255859375,-0.0206756591796875,-0.03265380859375
1761505949018545200,1.292545166015625,-1.0142974853515625,-0.019683837890625,-0.0322723388671875
1761505949028581000,1.3025810546875,-1.013763427734375,-0.0208892822265625,-0.032440185546875
1761505949038617000,1.3126171875,-1.0128936767578125,-0.02093505859375,-0.0323028564453125
1761505949048653000,1.322653076171875,-1.0125274658203125,-0.0197601318359375,-0.03338623046875
1761505949058689800,1.332689697265625,-1.013397216796875,-0.019927978515625,-0.033294677734375
1761505949068725800,1.342725830078125,-1.01361083984375,-0.02008056640625,-0.03265380859375
1761505949078761700,1.35276171875,-1.0130462646484375,-0.0195159912109375,-0.0326385498046875
1761505949088798700,1.362798828125,-1.0129852294921875,-0.019622802734375,-0.03271484375
1761505949098834700,1.372834716796875,-1.0135650634765625,-0.019989013671875,-0.032135009765625
1761505949108870700,1.38287060546875,-1.01312255859375,-0.0196075439453125,-0.032684326171875
1761505949118906600,1.39290673828125,-1.013427734375,-0.0200653076171875,-0.033447265625
1761505949128943900,1.40294384765625,-1.0130615234375,-0.0203857421875,-0.0328216552734375
1761505949138979800,1.412979736328125,-1.0137481689453125,-0.0202178955078125,-0.033203125
1761505949149015800,1.423015869140625,-1.0141754150390625,-0.020355224609375,-0.032958984375
1761505949159051800,1.4330517578125,-1.0132293701171875,-0.019561767578125,-0.0325469970703125
1761505949169088800,1.4430888671875,-1.0132904052734375,-0.020111083984375,-0.03289794921875
1761505949179124700,1.453124755859375,-1.0134429931640625,-0.0203857421875,-0.03271484375
1761505949189160700,1.46316064453125,-1.013153076171875,-0.0193939208984375,-0.0325775146484375
1761505949199197700,1.47319775390625,-1.0124359130859375,-0.0199432373046875,-0.032958984375
1761505949209233700,1.483233642578125,-1.0130462646484375,-0.0209197998046875,-0.0334930419921875
1761505949219269600,1.49326953125,-1.013336181640625,-0.0211334228515625,-0.032867431640625
1761505949229305900,1.503305908203125,-1.0130767822265625,-0.0205535888671875,-0.03338623046875
1761505949239342800,1.5133427734375,-1.0146331787109375,-0.020172119140625,-0.0323638916015625
1761505949249378800,1.52337890625,-1.013763427734375,-0.0196533203125,-0.03179931640625
1761505949259414800,1.533414794921875,-1.01336669921875,-0.019866943359375,-0.033416748046875
1761505949269451800,1.54345166015625,-1.0131378173828125,-0.020538330078125,-0.033294677734375
1761505949279487700,1.55348779296875,-1.0134429931640625,-0.0208282470703125,-0.0325775146484375
1761505949289523700,1.563523681640625,-1.013214111328125,-0.0197601318359375,-0.03253173828125
1761505949299560000,1.573559814453125,-1.013031005859375,-0.019805908203125,-0.0331268310546875
1761505949309596700,1.5835966796875,-1.012969970703125,-0.0208740234375,-0.03265380859375
1761505949319633000,1.5936328125,-1.013092041015625,-0.0198822021484375,-0.0327606201171875
1761505949329668900,1.6036689453125,-1.0137939453125,-0.0208740234375,-0.0325775146484375
1761505949339705900,1.613705810546875,-1.013580322265625,-0.020355224609375,-0.0328521728515625
1761505949349741800,1.623741943359375,-1.013427734375,-0.0198822021484375,-0.0333251953125
1761505949359778000,1.633778076171875,-1.0142059326171875,-0.0214385986328125,-0.03253173828125
1761505949369814000,1.64381396484375,-1.0129241943359375,-0.020751953125,-0.0333251953125
1761505949379850800,1.653850830078125,-1.01361083984375,-0.02044677734375,-0.0322723388671875
1761505949389887000,1.663886962890625,-1.01409912109375,-0.02001953125,-0.03253173828125
1761505949399923000,1.6739228515625,-1.013824462890625,-0.0199737548828125,-0.0335540771484375
1761505949409959000,1.683958984375,-1.0136871337890625,-0.0197906494140625,-0.0322418212890625
1761505949419996000,1.693995849609375,-1.0128173828125,-0.0213775634765625,-0.032501220703125
1761505949430032000,1.704031982421875,-1.013824462890625,-0.01983642578125,-0.0334014892578125
1761505949440067800,1.71406787109375,-1.0136566162109375,-0.019805908203125,-0.0330047607421875
1761505949450104800,1.724104736328125,-1.01275634765625,-0.02069091796875,-0.0326995849609375
1761505949460141000,1.73414111328125,-1.013427734375,-0.0204925537109375,-0.0325469970703125
1761505949470177000,1.744177001953125,-1.013153076171875,-0.0196990966796875,-0.0325927734375
1761505949480213000,1.754212890625,-1.0133209228515625,-0.019927978515625,-0.03326416015625
1761505949490250000,1.76425,-1.0151214599609375,-0.019439697265625,-0.0324554443359375
1761505949500286000,1.774285888671875,-1.01385498046875,-0.0193023681640625,-0.0324859619140625
1761505949510322000,1.784322021484375,-1.014251708984375,-0.019866943359375,-0.03289794921875
1761505949520358000,1.79435791015625,-1.0142059326171875,-0.021026611328125,-0.0335693359375
1761505949530395000,1.804394775390625,-1.0133209228515625,-0.0208587646484375,-0.0331268310546875
1761505949540430800,1.814430908203125,-1.01446533203125,-0.0198822021484375,-0.0330963134765625
1761505949550466800,1.824466796875,-1.013916015625,-0.020050048828125,-0.032867431640625
1761505949560504000,1.834504150390625,-1.0144500732421875,-0.0205230712890625,-0.033721923828125
1761505949570540000,1.8445400390625,-1.0151519775390625,-0.01995849609375,-0.0332183837890625
1761505949580576000,1.854575927734375,-1.013275146484375,-0.019317626953125,-0.033203125
1761505949590612000,1.864612060546875,-1.0141448974609375,-0.019927978515625,-0.033294677734375
1761505949600649000,1.87464892578125,-1.0139923095703125,-0.0191802978515625,-0.0330963134765625
1761505949610685000,1.884684814453125,-1.0136871337890625,-0.0203399658203125,-0.0336456298828125
1761505949620721000,1.894720947265625,-1.013397216796875,-0.0208892822265625,-0.0333709716796875
1761505949630756900,1.9047568359375,-1.0141754150390625,-0.0198822021484375,-0.0327911376953125
1761505949640793900,1.9147939453125,-1.013671875,-0.0200042724609375,-0.0334930419921875
1761505949650829800,1.924829833984375,-1.01397705078125,-0.02044677734375,-0.032684326171875
1761505949660865800,1.93486572265625,-1.0126953125,-0.0193328857421875,-0.03289794921875
1761505949670903000,1.944903076171875,-1.0123748779296875,-0.019287109375,-0.03277587890625
1761505949680939000,1.95493896484375,-1.013580322265625,-0.0209503173828125,-0.033203125
1761505949690975000,1.96497509765625,-1.0139923095703125,-0.019805908203125,-0.032928466796875
1761505949701011000,1.975010986328125,-1.01446533203125,-0.0198211669921875,-0.0323944091796875
1761505949711048000,1.9850478515625,-1.013092041015625,-0.020599365234375,-0.0337677001953125
1761505949721084000,1.995083984375,-1.0134429931640625,-0.019561767578125,-0.03302001953125
1761505949731119900,2.005119873046875,-1.0134429931640625,-0.020050048828125,-0.0334320068359375
1761505949741155800,2.01515576171875,-1.01336669921875,-0.0201263427734375,-0.0330810546875
1761505949751192800,2.02519287109375,-1.0128021240234375,-0.020721435546875,-0.03228759765625
1761505949761228800,2.035228759765625,-1.01397705078125,-0.020294189453125,-0.0329742431640625
1761505949771264800,2.0452646484375,-1.0142974853515625,-0.0198974609375,-0.0330657958984375
1761505949781301800,2.0553017578125,-1.014373779296875,-0.0189971923828125,-0.0328826904296875
1761505949791338000,2.065337890625,-1.01416015625,-0.019805908203125,-0.0325775146484375
1761505949801374000,2.0753740234375,-1.014251708984375,-0.020355224609375,-0.0328826904296875
1761505949811410000,2.085409912109375,-1.01373291015625,-0.0208587646484375,-0.0330810546875
1761505949821447000,2.095447021484375,-1.013275146484375,-0.0206146240234375,-0.0328826904296875
1761505949831483000,2.10548291015625,-1.014312744140625,-0.0199737548828125,-0.033538818359375
1761505949841518800,2.115518798828125,-1.014007568359375,-0.019927978515625,-0.032379150390625
1761505949851554800,2.125554931640625,-1.0134735107421875,-0.019256591796875,-0.032867431640625
1761505949861591800,2.135591796875,-1.0129852294921875,-0.0201416015625,-0.0333251953125
1761505949871627800,2.145627685546875,-1.013763427734375,-0.02056884765625,-0.03277587890625
1761505949881663700,2.155663818359375,-1.014068603515625,-0.0200042724609375,-0.0332183837890625
1761505949891699700,2.16569970703125,-1.0133819580078125,-0.0205230712890625,-0.0325164794921875
1761505949901736700,2.17573681640625,-1.0126800537109375,-0.0203857421875,-0.0324859619140625
1761505949911773000,2.18577294921875,-1.01324462890625,-0.0200347900390625,-0.03277587890625
1761505949921809000,2.195808837890625,-1.0141143798828125,-0.019927978515625,-0.033416748046875
1761505949931844900,2.205844970703125,-1.014007568359375,-0.0201873779296875,-0.032745361328125
1761505949941881900,2.2158818359375,-1.0146331787109375,-0.020751953125,-0.0328826904296875
1761505949951917800,2.225917724609375,-1.0135650634765625,-0.0204010009765625,-0.03314208984375
1761505949961953800,2.235953857421875,-1.0139007568359375,-0.020233154296875,-0.0329437255859375
1761505949971989800,2.24598974609375,-1.0146331787109375,-0.0208282470703125,-0.032470703125
1761505949982026800,2.25602685546875,-1.01434326171875,-0.0205841064453125,-0.0323333740234375
1761505949992062700,2.266062744140625,-1.0127410888671875,-0.021087646484375,-0.0333404541015625
1761505950002098700,2.2760986328125,-1.0129241943359375,-0.020263671875,-0.0335540771484375
1761505950012135700,2.2861357421875,-1.0139617919921875,-0.0201568603515625,-0.0332489013671875
1761505950022171600,2.296171630859375,-1.01397705078125,-0.0196380615234375,-0.033233642578125
1761505950032208000,2.306207763671875,-1.0135955810546875,-0.020599365234375,-0.0334930419921875
1761505950042243800,2.316243896484375,-1.0147705078125,-0.020965576171875,-0.0329132080078125
1761505950052280800,2.32628076171875,-1.014190673828125,-0.02001953125,-0.03265380859375
1761505950062316500,2.336316650390625,-1.0145416259765625,-0.0205535888671875,-0.032379150390625
1761505950072352500,2.3463525390625,-1.013427734375,-0.0205535888671875,-0.03271484375
1761505950082388500,2.356388427734375,-1.0127410888671875,-0.02020263671875,-0.03271484375
1761505950092425500,2.366425537109375,-1.01458740234375,-0.0202789306640625,-0.0327606201171875
1761505950102461400,2.37646142578125,-1.0140380859375,-0.020355224609375,-0.0328369140625
1761505950112497400,2.386497314453125,-1.0136566162109375,-0.020050048828125,-0.0323486328125
1761505950122533400,2.396533447265625,-1.0143890380859375,-0.019378662109375,-0.0329132080078125
1761505950132570400,2.4065703125,-1.0142669677734375,-0.0211181640625,-0.032745361328125
1761505950142606300,2.4166064453125,-1.0138397216796875,-0.020416259765625,-0.0340728759765625
1761505950152642300,2.426642333984375,-1.0131378173828125,-0.0203857421875,-0.0335845947265625
1761505950162678300,2.43667822265625,-1.01397705078125,-0.0204925537109375,-0.032867431640625
1761505950172715500,2.446715576171875,-1.0136566162109375,-0.0198974609375,-0.032958984375
1761505950182751500,2.45675146484375,-1.0139617919921875,-0.0203094482421875,-0.0328216552734375
1761505950192787500,2.466787353515625,-1.01336669921875,-0.02044677734375,-0.0325469970703125
1761505950202823400,2.476823486328125,-1.0132904052734375,-0.019775390625,-0.0330810546875
1761505950212860400,2.4868603515625,-1.0135955810546875,-0.019561767578125,-0.0334930419921875
1761505950222896400,2.496896484375,-1.013824462890625,-0.0200042724609375,-0.0323486328125
1761505950232932400,2.506932373046875,-1.013214111328125,-0.019256591796875,-0.033233642578125
1761505950242968300,2.51696826171875,-1.014678955078125,-0.01995849609375,-0.032928466796875
1761505950253005300,2.52700537109375,-1.0147552490234375,-0.0196075439453125,-0.0328216552734375
1761505950263041300,2.537041259765625,-1.014678955078125,-0.0198974609375,-0.032867431640625
1761505950273077200,2.5470771484375,-1.0146331787109375,-0.0202484130859375,-0.033355712890625
1761505950283113200,2.55711328125,-1.0139617919921875,-0.0203857421875,-0.033538818359375
1761505950293150500,2.567150390625,-1.0138397216796875,-0.020355224609375,-0.0330352783203125
1761505950303186400,2.5771865234375,-1.0140380859375,-0.021026611328125,-0.032562255859375
1761505950313222400,2.587222412109375,-1.0146026611328125,-0.019744873046875,-0.032135009765625
1761505950323258400,2.59725830078125,-1.0138397216796875,-0.0194549560546875,-0.0324554443359375
1761505950333295400,2.60729541015625,-1.01416015625,-0.0204315185546875,-0.03253173828125
1761505950343331300,2.617331298828125,-1.0132904052734375,-0.0206451416015625,-0.0331878662109375
1761505950353367300,2.6273671875,-1.0135040283203125,-0.0201568603515625,-0.0330047607421875
1761505950363403300,2.6374033203125,-1.0132293701171875,-0.0194549560546875,-0.03240966796875
1761505950373440300,2.647440185546875,-1.0132904052734375,-0.02008056640625,-0.0326385498046875
1761505950383476200,2.657476318359375,-1.0142669677734375,-0.0203399658203125,-0.032684326171875
1761505950393512200,2.66751220703125,-1.01287841796875,-0.0208740234375,-0.0326080322265625
1761505950403548200,2.677548095703125,-1.0124053955078125,-0.0191192626953125,-0.0329742431640625
1761505950413585400,2.68758544921875,-1.0142364501953125,-0.0198516845703125,-0.03314208984375
1761505950423621400,2.697621337890625,-1.0135955810546875,-0.021087646484375,-0.032989501953125
1761505950433657300,2.7076572265625,-1.0144195556640625,-0.0196685791015625,-0.03289794921875
1761505950443693300,2.717693359375,-1.014495849609375,-0.0203857421875,-0.033172607421875
1761505950453730300,2.727730224609375,-1.0147552490234375,-0.0194549560546875,-0.0324249267578125
1761505950463766300,2.737766357421875,-1.01458740234375,-0.02044677734375,-0.0328826904296875
1761505950473802200,2.74780224609375,-1.0133209228515625,-0.0196685791015625,-0.033660888671875
1761505950483838200,2.757838134765625,-1.0141448974609375,-0.01983642578125,-0.0325775146484375
1761505950493875200,2.767875244140625,-1.0141448974609375,-0.02044677734375,-0.0321197509765625
1761505950503911200,2.7779111328125,-1.014404296875,-0.02032470703125,-0.0328521728515625
1761505950513947100,2.787947021484375,-1.0137481689453125,-0.020355224609375,-0.032562255859375
1761505950523983400,2.7979833984375,-1.0141754150390625,-0.0203399658203125,-0.0326080322265625
1761505950534020400,2.808020263671875,-1.014495849609375,-0.0201873779296875,-0.0322723388671875
1761505950544056300,2.818056396484375,-1.013519287109375,-0.0204315185546875,-0.03314208984375
1761505950554092300,2.82809228515625,-1.01409912109375,-0.02020263671875,-0.0331573486328125
1761505950564128500,2.83812841796875,-1.0139312744140625,-0.0201568603515625,-0.033203125
1761505950574165200,2.848165283203125,-1.0133514404296875,-0.020294189453125,-0.0328826904296875
1761505950584201200,2.858201171875,-1.0129241943359375,-0.02044677734375,-0.032440185546875
1761505950594237400,2.868237548828125,-1.01434326171875,-0.0200347900390625,-0.032989501953125
1761505950604273400,2.8782734375,-1.0140533447265625,-0.020599365234375,-0.032318115234375
1761505950614310100,2.88831005859375,-1.0126800537109375,-0.019561767578125,-0.0329742431640625
1761505950624346400,2.898346435546875,-1.0137481689453125,-0.020263671875,-0.03302001953125
1761505950634382300,2.90838232421875,-1.0139923095703125,-0.02008056640625,-0.0329132080078125
1761505950644418300,2.918418212890625,-1.0137481689453125,-0.020050048828125,-0.0326995849609375
1761505950654455300,2.928455322265625,-1.01263427734375,-0.0204925537109375,-0.032684326171875
1761505950664491500,2.938491455078125,-1.0146026611328125,-0.0206146240234375,-0.033477783203125
1761505950674527500,2.948527587890625,-1.0140838623046875,-0.020538330078125,-0.0332183837890625
1761505950684563500,2.9585634765625,-1.01397705078125,-0.0202484130859375,-0.033172607421875
1761505950694599400,2.968599365234375,-1.0144195556640625,-0.020721435546875,-0.03277587890625
1761505950704636400,2.978636474609375,-1.0137786865234375,-0.0204010009765625,-0.0324249267578125
1761505950714672400,2.98867236328125,-1.0135040283203125,-0.02093505859375,-0.0334930419921875
1761505950724708400,2.998708251953125,-1.0130157470703125,-0.019866943359375,-0.03277587890625
1761505950734744300,3.008744384765625,-1.012451171875,-0.0204925537109375,-0.0325927734375
1761505950744781300,3.01878125,-1.013916015625,-0.0211029052734375,-0.0334320068359375
1761505950754817300,3.0288173828125,-1.013763427734375,-0.019561767578125,-0.0327606201171875
1761505950764853200,3.038853271484375,-1.0133819580078125,-0.0204620361328125,-0.0327301025390625
1761505950774889500,3.048889404296875,-1.0130615234375,-0.01995849609375,-0.032745361328125
1761505950784926500,3.058926513671875,-1.0135650634765625,-0.0188751220703125,-0.0328369140625
1761505950794962400,3.06896240234375,-1.01348876953125,-0.019195556640625,-0.0328216552734375
1761505950804998400,3.078998291015625,-1.0141754150390625,-0.02008056640625,-0.0324859619140625
1761505950815034400,3.089034423828125,-1.015289306640625,-0.020355224609375,-0.032440185546875
1761505950825071400,3.0990712890625,-1.0133209228515625,-0.0204925537109375,-0.0334320068359375
1761505950835107300,3.109107421875,-1.014678955078125,-0.0204925537109375,-0.033294677734375
1761505950845143300,3.119143310546875,-1.0142364501953125,-0.0198974609375,-0.03277587890625
1761505950855179300,3.12917919921875,-1.013153076171875,-0.019378662109375,-0.032989501953125
1761505950865215200,3.13921533203125,-1.01324462890625,-0.020050048828125,-0.0330352783203125
1761505950875252200,3.149252197265625,-1.013824462890625,-0.0204925537109375,-0.0337066650390625
1761505950885288200,3.1592880859375,-1.0137481689453125,-0.020599365234375,-0.0333709716796875
1761505950895324400,3.169324462890625,-1.014678955078125,-0.02008056640625,-0.032958984375
1761505950905360400,3.1793603515625,-1.014007568359375,-0.020416259765625,-0.032562255859375
1761505950915397400,3.1893974609375,-1.014617919921875,-0.01947021484375,-0.03326416015625
1761505950925433300,3.199433349609375,-1.0145721435546875,-0.0201263427734375,-0.03265380859375
1761505950935469300,3.20946923828125,-1.01348876953125,-0.0195465087890625,-0.03240966796875
1761505950945505300,3.21950537109375,-1.0132904052734375,-0.0204010009765625,-0.0335540771484375
1761505950955542300,3.229542236328125,-1.0129547119140625,-0.02001953125,-0.0329437255859375
1761505950965578200,3.239578125,-1.0137786865234375,-0.01922607421875,-0.032562255859375
1761505950975614200,3.2496142578125,-1.01373291015625,-0.0194091796875,-0.0338287353515625
1761505950985650200,3.259650146484375,-1.0141754150390625,-0.02056884765625,-0.0333099365234375
1761505950995687200,3.269687255859375,-1.0135040283203125,-0.019622802734375,-0.032745361328125
1761505951005723100,3.27972314453125,-1.013671875,-0.0198822021484375,-0.0329132080078125
1761505951015759400,3.28975927734375,-1.0133056640625,-0.0201416015625,-0.0326995849609375
1761505951025795600,3.299795654296875,-1.013336181640625,-0.0204925537109375,-0.0325927734375
1761505951035831600,3.30983154296875,-1.0140533447265625,-0.0198822021484375,-0.0328521728515625
1761505951045868300,3.319868408203125,-1.01409912109375,-0.01934814453125,-0.032745361328125
1761505951055904500,3.329904541015625,-1.0133514404296875,-0.0188140869140625,-0.0324859619140625
1761505951065940700,3.339940673828125,-1.01361083984375,-0.0196075439453125,-0.0322723388671875
1761505951075976700,3.349976806640625,-1.014251708984375,-0.0206451416015625,-0.0330047607421875
1761505951086013400,3.360013427734375,-1.0125885009765625,-0.019500732421875,-0.03253173828125
1761505951096049700,3.370049560546875,-1.0141143798828125,-0.019805908203125,-0.0326385498046875
1761505951106085600,3.380085693359375,-1.01434326171875,-0.019561767578125,-0.0325927734375
1761505951116121600,3.39012158203125,-1.01318359375,-0.01953125,-0.03253173828125
1761505951126158600,3.40015869140625,-1.0133056640625,-0.0203399658203125,-0.032257080078125
1761505951136194800,3.41019482421875,-1.01397705078125,-0.0206756591796875,-0.0328216552734375
1761505951146230800,3.420230712890625,-1.0138092041015625,-0.0209808349609375,-0.0331573486328125
1761505951156266800,3.430266845703125,-1.0137786865234375,-0.0201416015625,-0.033538818359375
1761505951166302700,3.440302734375,-1.0139617919921875,-0.0199432373046875,-0.0328521728515625
1761505951176339700,3.450339599609375,-1.013275146484375,-0.0205230712890625,-0.0327606201171875
1761505951186375700,3.460375732421875,-1.0143280029296875,-0.0210113525390625,-0.0319976806640625
1761505951196411600,3.47041162109375,-1.0137786865234375,-0.0203704833984375,-0.0338134765625
1761505951206447600,3.480447509765625,-1.012908935546875,-0.0201873779296875,-0.03271484375
1761505951216484600,3.490484619140625,-1.0131988525390625,-0.0199127197265625,-0.032562255859375
1761505951226520600,3.5005205078125,-1.0142669677734375,-0.0207672119140625,-0.0334625244140625
1761505951236556500,3.510556640625,-1.01361083984375,-0.019561767578125,-0.0337982177734375
1761505951246592500,3.520592529296875,-1.013580322265625,-0.020294189453125,-0.03265380859375
1761505951256628500,3.53062841796875,-1.0139617919921875,-0.020721435546875,-0.032928466796875
1761505951266665700,3.540665771484375,-1.014129638671875,-0.020233154296875,-0.0320587158203125
1761505951276701700,3.55070166015625,-1.013671875,-0.0198516845703125,-0.032928466796875
1761505951286737700,3.560737548828125,-1.0128021240234375,-0.020050048828125,-0.033416748046875
1761505951296773600,3.570773681640625,-1.0136566162109375,-0.020111083984375,-0.0326995849609375
1761505951306810600,3.580810546875,-1.0143280029296875,-0.020111083984375,-0.03302001953125
1761505951316846600,3.5908466796875,-1.0143890380859375,-0.0199127197265625,-0.033660888671875
1761505951326882600,3.600882568359375,-1.0141448974609375,-0.0204010009765625,-0.033294677734375
1761505951336918500,3.61091845703125,-1.0146484375,-0.0201263427734375,-0.0323638916015625
1761505951346954500,3.62095458984375,-1.014556884765625,-0.019927978515625,-0.0332183837890625
1761505951356991500,3.630991455078125,-1.0135498046875,-0.020355224609375,-0.033203125
1761505951367027500,3.64102734375,-1.0142974853515625,-0.0201416015625,-0.0332794189453125
1761505951377063400,3.6510634765625,-1.0135498046875,-0.0200042724609375,-0.033203125
1761505951387099400,3.661099365234375,-1.01434326171875,-0.0204925537109375,-0.03314208984375
1761505951397135600,3.671135498046875,-1.0147705078125,-0.020233154296875,-0.0322265625
1761505951407172600,3.681172607421875,-1.0137939453125,-0.019805908203125,-0.032928466796875
1761505951417208600,3.69120849609375,-1.014404296875,-0.0200042724609375,-0.0330657958984375
1761505951427244500,3.70124462890625,-1.0144500732421875,-0.01898193359375,-0.0320892333984375
1761505951437280800,3.71128076171875,-1.01446533203125,-0.019775390625,-0.0326995849609375
1761505951447317500,3.7213173828125,-1.014678955078125,-0.020477294921875,-0.0319976806640625
1761505951457353500,3.731353515625,-1.0129852294921875,-0.020538330078125,-0.032501220703125
1761505951467389700,3.7413896484375,-1.0136260986328125,-0.0213165283203125,-0.0325469970703125
1761505951477425700,3.75142578125,-1.014495849609375,-0.020965576171875,-0.0326690673828125
1761505951487461600,3.761461669921875,-1.0134429931640625,-0.020294189453125,-0.03350830078125
1761505951497498600,3.77149853515625,-1.0140228271484375,-0.0204010009765625,-0.0328216552734375
1761505951507534600,3.78153466796875,-1.0144195556640625,-0.02069091796875,-0.03302001953125
1761505951517570600,3.791570556640625,-1.0139923095703125,-0.0203857421875,-0.0333251953125
1761505951527606500,3.8016064453125,-1.0139312744140625,-0.0198822021484375,-0.032928466796875
1761505951537643800,3.811643798828125,-1.0146026611328125,-0.0198974609375,-0.0330047607421875
1761505951547679700,3.8216796875,-1.0128936767578125,-0.0196685791015625,-0.0334930419921875
1761505951557715700,3.8317158203125,-1.0128936767578125,-0.0208740234375,-0.0333099365234375
1761505951567751700,3.841751708984375,-1.013641357421875,-0.0202789306640625,-0.033447265625
1761505951577787600,3.85178759765625,-1.0134124755859375,-0.0198516845703125,-0.032562255859375
1761505951587824600,3.86182470703125,-1.0141143798828125,-0.0202789306640625,-0.0322265625
1761505951597860600,3.871860595703125,-1.0126495361328125,-0.02020263671875,-0.03228759765625
1761505951607896600,3.881896484375,-1.0136566162109375,-0.0194091796875,-0.032867431640625
1761505951617932500,3.8919326171875,-1.0139312744140625,-0.0207061767578125,-0.0328216552734375
1761505951627968500,3.901968505859375,-1.01446533203125,-0.0195159912109375,-0.0327606201171875
1761505951638005500,3.912005615234375,-1.0148773193359375,-0.020050048828125,-0.032501220703125
1761505951648041500,3.92204150390625,-1.014404296875,-0.02081298828125,-0.0322723388671875
1761505951658077700,3.93207763671875,-1.01397705078125,-0.020538330078125,-0.0331878662109375
1761505951668113700,3.94211376953125,-1.013641357421875,-0.0198516845703125,-0.0327301025390625
1761505951678150700,3.952150634765625,-1.0141754150390625,-0.019744873046875,-0.03253173828125
1761505951688186600,3.9621865234375,-1.01495361328125,-0.020538330078125,-0.033050537109375
1761505951698222600,3.97222265625,-1.0137481689453125,-0.0204315185546875,-0.0336151123046875
1761505951708258600,3.982258544921875,-1.0144195556640625,-0.02032470703125,-0.0335235595703125
1761505951718294500,3.99229443359375,-1.014404296875,-0.0194854736328125,-0.033660888671875
1761505951728331500,4.00233154296875,-1.0139923095703125,-0.0189056396484375,-0.03314208984375
1761505951738365700,4.01236572265625,-1.0135650634765625,-0.01959228515625,-0.0327301025390625
1761505951748401700,4.022401611328125,-1.014007568359375,-0.020904541015625,-0.033233642578125
1761505951758438700,4.032438720703125,-1.0133209228515625,-0.0202789306640625,-0.03253173828125
1761505951768474600,4.042474609375,-1.0133209228515625,-0.020599365234375,-0.0333099365234375
1761505951778510600,4.052510498046875,-1.0133209228515625,-0.020233154296875,-0.03363037109375
1761505951788546600,4.062546630859375,-1.0131072998046875,-0.0194091796875,-0.0325469970703125
1761505951798582500,4.07258251953125,-1.014190673828125,-0.02008056640625,-0.0319976806640625
1761505951808619500,4.08261962890625,-1.0142974853515625,-0.0205841064453125,-0.0321807861328125
1761505951818655500,4.092655517578125,-1.01416015625,-0.0203704833984375,-0.032806396484375
1761505951828691700,4.102691650390625,-1.0139007568359375,-0.0199127197265625,-0.03326416015625
1761505951838727700,4.112727783203125,-1.0148773193359375,-0.019439697265625,-0.0328826904296875
1761505951848764700,4.1227646484375,-1.0146942138671875,-0.020050048828125,-0.0331268310546875
1761505951858800600,4.132800537109375,-1.013427734375,-0.02056884765625,-0.03326416015625
1761505951868836600,4.142836669921875,-1.01312255859375,-0.019744873046875,-0.03265380859375
1761505951878872600,4.15287255859375,-1.0134124755859375,-0.019866943359375,-0.03289794921875
1761505951888908500,4.162908447265625,-1.0139007568359375,-0.0200958251953125,-0.0327301025390625
1761505951898945500,4.172945556640625,-1.0142059326171875,-0.0202178955078125,-0.0321807861328125
1761505951908981500,4.1829814453125,-1.0135955810546875,-0.02105712890625,-0.032684326171875
1761505951919017500,4.193017578125,-1.013427734375,-0.0206756591796875,-0.033447265625
1761505951929053400,4.203053466796875,-1.012786865234375,-0.02032470703125,-0.032318115234375
1761505951939089700,4.213089599609375,-1.013824462890625,-0.0211639404296875,-0.0313262939453125
1761505951949126700,4.223126708984375,-1.013427734375,-0.020782470703125,-0.0326690673828125
1761505951959162600,4.23316259765625,-1.0135040283203125,-0.02099609375,-0.032806396484375
1761505951969198600,4.243198486328125,-1.0142822265625,-0.0200653076171875,-0.033355712890625
1761505951979234800,4.25323486328125,-1.0130615234375,-0.02032470703125,-0.032867431640625
1761505951989270800,4.263270751953125,-1.013336181640625,-0.0212554931640625,-0.033111572265625
1761505951999307500,4.2733076171875,-1.012908935546875,-0.020172119140625,-0.032379150390625
1761505952009343700,4.28334375,-1.0136260986328125,-0.019989013671875,-0.0326080322265625
1761505952019379700,4.293379638671875,-1.0139923095703125,-0.0200347900390625,-0.0329742431640625
1761505952029415700,4.303415771484375,-1.013397216796875,-0.0200347900390625,-0.03289794921875
1761505952039451600,4.31345166015625,-1.0132598876953125,-0.020172119140625,-0.032806396484375
1761505952049488600,4.323488525390625,-1.0128173828125,-0.0201568603515625,-0.0333404541015625
1761505952059524600,4.333524658203125,-1.0127410888671875,-0.0198974609375,-0.0331268310546875
1761505952069560600,4.343560546875,-1.0140380859375,-0.0196075439453125,-0.0331878662109375
1761505952079596800,4.3535966796875,-1.0128936767578125,-0.01947021484375,-0.0330047607421875
1761505952089632800,4.3636328125,-1.013519287109375,-0.0198516845703125,-0.0327911376953125
1761505952099669800,4.373669677734375,-1.0130615234375,-0.0197906494140625,-0.0330657958984375
1761505952109705700,4.383705810546875,-1.0138092041015625,-0.02032470703125,-0.0330047607421875
1761505952119741700,4.39374169921875,-1.0139007568359375,-0.020538330078125,-0.0321502685546875
1761505952129777700,4.403777587890625,-1.0134124755859375,-0.0194091796875,-0.0326080322265625
1761505952139813600,4.413813720703125,-1.0122222900390625,-0.018951416015625,-0.0321502685546875
1761505952149850600,4.4238505859375,-1.012939453125,-0.0202789306640625,-0.03375244140625
1761505952159886600,4.433886474609375,-1.0140533447265625,-0.0197601318359375,-0.0334625244140625
1761505952169922600,4.443922607421875,-1.013702392578125,-0.02020263671875,-0.032562255859375
1761505952179958500,4.45395849609375,-1.0141754150390625,-0.020355224609375,-0.0330352783203125
1761505952189994500,4.463994384765625,-1.014312744140625,-0.0190582275390625,-0.0331878662109375
1761505952200031700,4.47403173828125,-1.013397216796875,-0.019744873046875,-0.0336456298828125
1761505952210067700,4.484067626953125,-1.013885498046875,-0.019866943359375,-0.0328521728515625
1761505952220103700,4.494103759765625,-1.0139923095703125,-0.019989013671875,-0.0330352783203125
1761505952230139600,4.5041396484375,-1.0135498046875,-0.0205535888671875,-0.033294677734375
1761505952240175600,4.514175537109375,-1.012725830078125,-0.0208282470703125,-0.0327301025390625
1761505952250212600,4.524212646484375,-1.01416015625,-0.0199127197265625,-0.0337982177734375
1761505952260248600,4.53424853515625,-1.0141448974609375,-0.0209197998046875,-0.0330963134765625
1761505952270284500,4.544284423828125,-1.014190673828125,-0.0203399658203125,-0.0325469970703125
1761505952280320800,4.55432080078125,-1.0135040283203125,-0.0196075439453125,-0.0326080322265625
1761505952290356700,4.564356689453125,-1.0132598876953125,-0.0201263427734375,-0.03326416015625
1761505952300393500,4.5743935546875,-1.0136566162109375,-0.0198516845703125,-0.0327606201171875
1761505952310430500,4.584430419921875,-1.0140838623046875,-0.019775390625,-0.0332794189453125
1761505952320466700,4.594466796875,-1.013336181640625,-0.0195159912109375,-0.0337677001953125
1761505952330502700,4.604502685546875,-1.013153076171875,-0.0201263427734375,-0.0330047607421875
1761505952340538600,4.61453857421875,-1.0134429931640625,-0.0195465087890625,-0.033477783203125
1761505952350575600,4.62457568359375,-1.014190673828125,-0.01995849609375,-0.032318115234375
1761505952360611600,4.634611572265625,-1.0134429931640625,-0.0206756591796875,-0.0331878662109375
1761505952370647600,4.6446474609375,-1.0130157470703125,-0.02020263671875,-0.0334320068359375
1761505952380683800,4.654683837890625,-1.0138092041015625,-0.0198974609375,-0.03363037109375
1761505952390719700,4.6647197265625,-1.01361083984375,-0.01934814453125,-0.0330810546875
1761505952400756500,4.674756591796875,-1.013641357421875,-0.02056884765625,-0.033203125
1761505952410792700,4.684792724609375,-1.01275634765625,-0.0204315185546875,-0.033355712890625
1761505952420828700,4.69482861328125,-1.013519287109375,-0.02099609375,-0.032989501953125
1761505952430864600,4.70486474609375,-1.01385498046875,-0.020233154296875,-0.0328216552734375
1761505952440900600,4.714900634765625,-1.0133056640625,-0.021087646484375,-0.032318115234375
1761505952450937900,4.724937744140625,-1.0133514404296875,-0.0198822021484375,-0.0331268310546875
1761505952460973800,4.734973876953125,-1.01324462890625,-0.0190582275390625,-0.0327606201171875
1761505952471009800,4.745009765625,-1.0128021240234375,-0.02008056640625,-0.0333251953125
1761505952481045800,4.755045654296875,-1.0145263671875,-0.02008056640625,-0.032989501953125
1761505952491081700,4.765081787109375,-1.014251708984375,-0.0201568603515625,-0.0327301025390625
1761505952501118700,4.77511865234375,-1.0133514404296875,-0.0198822021484375,-0.0328826904296875
1761505952511154700,4.78515478515625,-1.0138397216796875,-0.0209503173828125,-0.03314208984375
1761505952521190700,4.795190673828125,-1.013946533203125,-0.0203857421875,-0.033172607421875
1761505952531226600,4.8052265625,-1.0146026611328125,-0.02056884765625,-0.03240966796875
1761505952541262600,4.8152626953125,-1.0123291015625,-0.019683837890625,-0.0328216552734375
1761505952551299600,4.825299560546875,-1.013153076171875,-0.02105712890625,-0.0328216552734375
1761505952561335600,4.83533544921875,-1.012847900390625,-0.0210723876953125,-0.03277587890625
1761505952571371500,4.84537158203125,-1.0138702392578125,-0.020294189453125,-0.033477783203125
1761505952581407500,4.855407470703125,-1.013763427734375,-0.01995849609375,-0.0331573486328125
1761505952591443500,4.865443359375,-1.012054443359375,-0.0202484130859375,-0.032989501953125
1761505952601480700,4.875480712890625,-1.01263427734375,-0.019622802734375,-0.0334320068359375
1761505952611516700,4.8855166015625,-1.01373291015625,-0.0206756591796875,-0.033355712890625
1761505952621552600,4.895552734375,-1.0131683349609375,-0.0205841064453125,-0.033050537109375
1761505952631588600,4.905588623046875,-1.0145263671875,-0.019866943359375,-0.032318115234375
1761505952641624600,4.91562451171875,-1.0143890380859375,-0.0206298828125,-0.0327911376953125
1761505952651661600,4.92566162109375,-1.013427734375,-0.0204315185546875,-0.032928466796875
1761505952661697500,4.935697509765625,-1.012298583984375,-0.0199127197265625,-0.0332183837890625
1761505952671733500,4.9457333984375,-1.013092041015625,-0.01934814453125,-0.03277587890625
1761505952681769700,4.955769775390625,-1.014129638671875,-0.02020263671875,-0.033050537109375
1761505952691805700,4.9658056640625,-1.014404296875,-0.020263671875,-0.03277587890625
1761505952701842400,4.975842529296875,-1.01275634765625,-0.0204315185546875,-0.032470703125
1761505952711878700,4.985878662109375,-1.0134429931640625,-0.020233154296875,-0.0324249267578125
1761505952721914600,4.99591455078125,-1.013916015625,-0.0204010009765625,-0.0327606201171875
1761505952731950800,5.005950927734375,-1.013702392578125,-0.0193634033203125,-0.032318115234375
1761505952741986800,5.01598681640625,-1.0131988525390625,-0.0199432373046875,-0.03240966796875
1761505952752023800,5.02602392578125,-1.01312255859375,-0.0205078125,-0.0325927734375
1761505952762059800,5.036059814453125,-1.0123291015625,-0.0206756591796875,-0.0323333740234375
1761505952772095700,5.046095703125,-1.0143280029296875,-0.0203399658203125,-0.03240966796875
1761505952782131700,5.056131591796875,-1.01385498046875,-0.0196075439453125,-0.0336761474609375
1761505952792167700,5.066167724609375,-1.0126953125,-0.0196685791015625,-0.03289794921875
1761505952802204700,5.07620458984375,-1.0140838623046875,-0.0198516845703125,-0.0330047607421875
1761505952812240600,5.08624072265625,-1.014190673828125,-0.01959228515625,-0.0332489013671875
1761505952822276600,5.096276611328125,-1.0131988525390625,-0.0202178955078125,-0.0330810546875
1761505952832312600,5.1063125,-1.0133514404296875,-0.0203704833984375,-0.03326416015625
1761505952842348500,5.1163486328125,-1.013519287109375,-0.02099609375,-0.033203125
1761505952852385800,5.1263857421875,-1.013214111328125,-0.0208282470703125,-0.032958984375
1761505952862421800,5.136421875,-1.0135498046875,-0.0200042724609375,-0.0330657958984375
1761505952872457700,5.146457763671875,-1.0128326416015625,-0.020721435546875,-0.032989501953125
1761505952882493700,5.15649365234375,-1.0124969482421875,-0.01983642578125,-0.03350830078125
1761505952892529700,5.16652978515625,-1.014190673828125,-0.0197296142578125,-0.0330047607421875
1761505952902565600,5.176565673828125,-1.0124053955078125,-0.0203399658203125,-0.0324554443359375
1761505952912602600,5.1866025390625,-1.0125885009765625,-0.0197296142578125,-0.03289794921875
1761505952922638600,5.196638671875,-1.014007568359375,-0.019805908203125,-0.0327301025390625
1761505952932674600,5.206674560546875,-1.0144805908203125,-0.0199127197265625,-0.033905029296875
1761505952942710500,5.21671044921875,-1.0131378173828125,-0.021148681640625,-0.0327606201171875
1761505952952746800,5.226746826171875,-1.0132598876953125,-0.019775390625,-0.0330657958984375
1761505952962783500,5.236783447265625,-1.0133514404296875,-0.0201263427734375,-0.0328216552734375
1761505952972819500,5.2468193359375,-1.01385498046875,-0.0200653076171875,-0.0331878662109375
1761505952982855700,5.256855712890625,-1.0137176513671875,-0.020355224609375,-0.0329132080078125
1761505952992891600,5.2668916015625,-1.0139007568359375,-0.0198822021484375,-0.0330047607421875
1761505953002927600,5.276927734375,-1.0135040283203125,-0.019866943359375,-0.033416748046875
1761505953012964600,5.286964599609375,-1.013153076171875,-0.019500732421875,-0.03326416015625
1761505953023000800,5.297000732421875,-1.01348876953125,-0.0190582275390625,-0.0326080322265625
1761505953033036800,5.307036865234375,-1.013824462890625,-0.020263671875,-0.0328826904296875
1761505953043072800,5.31707275390625,-1.012603759765625,-0.019775390625,-0.033111572265625
1761505953053108700,5.327108642578125,-1.0123138427734375,-0.0196990966796875,-0.0321502685546875
1761505953063146200,5.337146240234375,-1.0137176513671875,-0.019744873046875,-0.03271484375
1761505953073182200,5.34718212890625,-1.0145263671875,-0.020721435546875,-0.0330963134765625
1761505953083218200,5.35721826171875,-1.0140228271484375,-0.0195770263671875,-0.03338623046875
1761505953093254100,5.367254150390625,-1.01361083984375,-0.0206756591796875,-0.0331878662109375
1761505953103290000,5.3772900390625,-1.013519287109375,-0.0200958251953125,-0.0329742431640625
1761505953113326000,5.387326171875,-1.013214111328125,-0.0201416015625,-0.0323486328125
1761505953123363300,5.39736328125,-1.013214111328125,-0.019744873046875,-0.0323486328125
1761505953133399300,5.4073994140625,-1.01287841796875,-0.0208740234375,-0.0329437255859375
1761505953143435300,5.417435302734375,-1.0138092041015625,-0.020965576171875,-0.0332794189453125
1761505953153471200,5.42747119140625,-1.0143585205078125,-0.02069091796875,-0.0330657958984375
1761505953163507200,5.437507080078125,-1.013458251953125,-0.0199127197265625,-0.0333099365234375
1761505953173544200,5.447544189453125,-1.01300048828125,-0.020599365234375,-0.0334320068359375
1761505953183580200,5.457580078125,-1.0134429931640625,-0.02069091796875,-0.033233642578125
1761505953193616100,5.4676162109375,-1.01446533203125,-0.0201263427734375,-0.0325927734375
1761505953203652000,5.477652099609375,-1.013031005859375,-0.019256591796875,-0.0329437255859375
1761505953213688000,5.48768798828125,-1.0132904052734375,-0.0202484130859375,-0.03302001953125
1761505953223725000,5.49772509765625,-1.0137481689453125,-0.0202789306640625,-0.0330810546875
1761505953233761000,5.507760986328125,-1.0141754150390625,-0.0198516845703125,-0.03271484375
1761505953243797000,5.517796875,-1.0133514404296875,-0.0197601318359375,-0.0326385498046875
1761505953253833000,5.5278330078125,-1.0125274658203125,-0.0200347900390625,-0.033935546875
1761505953263869000,5.537868896484375,-1.012786865234375,-0.0202178955078125,-0.0323486328125
1761505953273906200,5.54790625,-1.01434326171875,-0.0205230712890625,-0.0319671630859375
1761505953283942100,5.557942138671875,-1.01361083984375,-0.02044677734375,-0.0328826904296875
1761505953293978000,5.56797802734375,-1.01300048828125,-0.01971435546875,-0.0329742431640625
1761505953304014000,5.57801416015625,-1.0132598876953125,-0.0204620361328125,-0.03253173828125
1761505953314050300,5.58805029296875,-1.0138397216796875,-0.0198822021484375,-0.0328521728515625
1761505953324086300,5.598086181640625,-1.0132598876953125,-0.020233154296875,-0.0335845947265625
1761505953334123000,5.608123046875,-1.0132293701171875,-0.021087646484375,-0.033294677734375
1761505953344159200,5.6181591796875,-1.0128326416015625,-0.0200958251953125,-0.0334625244140625
1761505953354195200,5.6281953125,-1.0136871337890625,-0.018951416015625,-0.0325775146484375
1761505953364231200,5.638231201171875,-1.0140380859375,-0.0206298828125,-0.032958984375
1761505953374267100,5.64826708984375,-1.014007568359375,-0.0199432373046875,-0.03338623046875
1761505953384304000,5.65830419921875,-1.012847900390625,-0.0196685791015625,-0.0334014892578125
1761505953394340000,5.668340087890625,-1.013458251953125,-0.0198822021484375,-0.033172607421875
1761505953404376000,5.6783759765625,-1.0142822265625,-0.0205230712890625,-0.0328521728515625
1761505953414412300,5.688412353515625,-1.01422119140625,-0.020355224609375,-0.032562255859375
1761505953424448300,5.6984482421875,-1.0142364501953125,-0.021026611328125,-0.032470703125
1761505953434484200,5.708484130859375,-1.013336181640625,-0.02044677734375,-0.032989501953125
1761505953444521200,5.718521240234375,-1.0146636962890625,-0.0197296142578125,-0.032958984375
1761505953454557200,5.72855712890625,-1.013671875,-0.0195770263671875,-0.032745361328125
1761505953464593200,5.73859326171875,-1.01336669921875,-0.01947021484375,-0.0329437255859375
1761505953474629000,5.748629150390625,-1.01287841796875,-0.02105712890625,-0.032867431640625
1761505953484665000,5.7586650390625,-1.0146942138671875,-0.0200347900390625,-0.033355712890625
1761505953494702000,5.7687021484375,-1.014404296875,-0.0192718505859375,-0.032989501953125
1761505953504738000,5.778738037109375,-1.0124664306640625,-0.020233154296875,-0.0330352783203125
1761505953514774000,5.78877392578125,-1.01324462890625,-0.02197265625,-0.0334320068359375
1761505953524810000,5.79881005859375,-1.0140838623046875,-0.02093505859375,-0.0329742431640625
1761505953534846000,5.808845947265625,-1.0132598876953125,-0.019744873046875,-0.0330810546875
1761505953544882200,5.818882080078125,-1.0140533447265625,-0.0202484130859375,-0.0328369140625
1761505953554919200,5.828919189453125,-1.0136260986328125,-0.0193328857421875,-0.032958984375
1761505953564955100,5.838955078125,-1.01416015625,-0.01971435546875,-0.0330352783203125
1761505953574991000,5.8489912109375,-1.0137176513671875,-0.0206146240234375,-0.03338623046875
1761505953585027300,5.85902734375,-1.0142669677734375,-0.019622802734375,-0.032257080078125
1761505953595063300,5.869063232421875,-1.013641357421875,-0.0195465087890625,-0.033782958984375
1761505953605100000,5.87910009765625,-1.0129241943359375,-0.0198516845703125,-0.0326690673828125
1761505953615136300,5.88913623046875,-1.0138397216796875,-0.0207977294921875,-0.03240966796875
1761505953625172200,5.899172119140625,-1.013763427734375,-0.020965576171875,-0.033203125
1761505953635208200,5.909208251953125,-1.01416015625,-0.01947021484375,-0.03338623046875
1761505953645244200,5.919244140625,-1.0137786865234375,-0.0201416015625,-0.0333709716796875
1761505953655280000,5.929280029296875,-1.0141143798828125,-0.0197906494140625,-0.032440185546875
1761505953665317000,5.939317138671875,-1.0137786865234375,-0.01995849609375,-0.0328521728515625
1761505953675353000,5.94935302734375,-1.0129547119140625,-0.020355224609375,-0.03363037109375
1761505953685389000,5.95938916015625,-1.0134735107421875,-0.020111083984375,-0.0328826904296875
1761505953695425000,5.969425048828125,-1.012176513671875,-0.0196533203125,-0.0332489013671875
1761505953705461000,5.9794609375,-1.012939453125,-0.0199432373046875,-0.0335235595703125
1761505953715497200,5.989497314453125,-1.01385498046875,-0.0199737548828125,-0.03375244140625
1761505953725534200,5.9995341796875,-1.013153076171875,-0.0203399658203125,-0.0334625244140625
1761505953735570200,6.009570068359375,-1.0142059326171875,-0.020751953125,-0.0321807861328125
1761505953745606100,6.019606201171875,-1.014801025390625,-0.0200653076171875,-0.033355712890625
1761505953755642000,6.02964208984375,-1.0133819580078125,-0.020660400390625,-0.0327606201171875
1761505953765678000,6.039677978515625,-1.0126800537109375,-0.02105712890625,-0.0323638916015625
1761505953775715000,6.049715087890625,-1.012542724609375,-0.020172119140625,-0.032135009765625
1761505953785751000,6.0597509765625,-1.0126495361328125,-0.0198211669921875,-0.032958984375
1761505953795787000,6.069787109375,-1.0121612548828125,-0.0196380615234375,-0.033416748046875
1761505953805823000,6.079822998046875,-1.01312255859375,-0.020172119140625,-0.0335845947265625
1761505953815859200,6.089859130859375,-1.0133819580078125,-0.020050048828125,-0.033782958984375
1761505953825895200,6.099895263671875,-1.0150299072265625,-0.0202178955078125,-0.033294677734375
1761505953835932200,6.10993212890625,-1.0128326416015625,-0.01971435546875,-0.032745361328125
1761505953845968100,6.119968017578125,-1.0139923095703125,-0.020233154296875,-0.0329437255859375
1761505953856004400,6.13000439453125,-1.0138092041015625,-0.019683837890625,-0.032470703125
1761505953866040300,6.140040283203125,-1.0128173828125,-0.02020263671875,-0.033050537109375
1761505953876076300,6.150076171875,-1.0125579833984375,-0.0208587646484375,-0.033538818359375
1761505953886113300,6.16011328125,-1.0130615234375,-0.0201263427734375,-0.0328216552734375
1761505953896149200,6.170149169921875,-1.013031005859375,-0.0206756591796875,-0.0333251953125
1761505953906185200,6.180185302734375,-1.013671875,-0.0207061767578125,-0.0328521728515625
1761505953916221200,6.19022119140625,-1.013763427734375,-0.021026611328125,-0.0324554443359375
1761505953926257200,6.200257080078125,-1.0135650634765625,-0.020599365234375,-0.0333709716796875
1761505953936293000,6.210293212890625,-1.015045166015625,-0.0196380615234375,-0.0332794189453125
1761505953946330000,6.220330078125,-1.0141448974609375,-0.0202178955078125,-0.033203125
1761505953956366000,6.230365966796875,-1.0131988525390625,-0.019989013671875,-0.033111572265625
1761505953966402000,6.240402099609375,-1.0135955810546875,-0.0199432373046875,-0.03314208984375
1761505953976438000,6.25043798828125,-1.013519287109375,-0.0204315185546875,-0.0333709716796875
1761505953986474000,6.260473876953125,-1.012908935546875,-0.019989013671875,-0.033416748046875
1761505953996510000,6.270510009765625,-1.0131988525390625,-0.020355224609375,-0.033294677734375
1761505954006547200,6.280547119140625,-1.0133209228515625,-0.020172119140625,-0.032135009765625
1761505954016583200,6.290583251953125,-1.0121307373046875,-0.0196685791015625,-0.0325469970703125
1761505954026619100,6.300619140625,-1.01275634765625,-0.0200042724609375,-0.0334014892578125
1761505954036655000,6.310655029296875,-1.0130157470703125,-0.0208740234375,-0.03289794921875
1761505954046691000,6.320691162109375,-1.0138397216796875,-0.020355224609375,-0.0336456298828125
1761505954056727300,6.330727294921875,-1.013580322265625,-0.0198822021484375,-0.0331878662109375
1761505954066764000,6.340763916015625,-1.0143585205078125,-0.0194244384765625,-0.0326690673828125
1761505954076800000,6.350800048828125,-1.01397705078125,-0.0203857421875,-0.032958984375
1761505954086836200,6.360836181640625,-1.013092041015625,-0.0197906494140625,-0.0332183837890625
1761505954096872200,6.3708720703125,-1.0137786865234375,-0.020477294921875,-0.0325775146484375
1761505954106908200,6.380908203125,-1.01416015625,-0.0203094482421875,-0.0326995849609375
1761505954116944100,6.390944091796875,-1.015045166015625,-0.019317626953125,-0.0332183837890625
1761505954126981400,6.4009814453125,-1.0137481689453125,-0.019378662109375,-0.0325927734375
1761505954137017300,6.411017333984375,-1.0133056640625,-0.020263671875,-0.033447265625
1761505954147053300,6.42105322265625,-1.013824462890625,-0.0207366943359375,-0.0326995849609375
1761505954157089300,6.43108935546875,-1.0138397216796875,-0.0209503173828125,-0.0326080322265625
1761505954167125200,6.441125244140625,-1.0144195556640625,-0.0199737548828125,-0.032806396484375
1761505954177161200,6.4511611328125,-1.012786865234375,-0.0207672119140625,-0.0331573486328125
1761505954187198200,6.4611982421875,-1.0135498046875,-0.0205535888671875,-0.0333709716796875
1761505954197234200,6.471234130859375,-1.013092041015625,-0.0197906494140625,-0.032684326171875
1761505954207270100,6.481270263671875,-1.01458740234375,-0.019622802734375,-0.0331573486328125
1761505954217306000,6.49130615234375,-1.013580322265625,-0.020050048828125,-0.0334014892578125
1761505954227342000,6.501342041015625,-1.0126800537109375,-0.0203704833984375,-0.0332794189453125
1761505954237378000,6.5113779296875,-1.0139007568359375,-0.0207672119140625,-0.0328521728515625
1761505954247415000,6.5214150390625,-1.0128936767578125,-0.0197601318359375,-0.0331268310546875
1761505954257451000,6.531450927734375,-1.0147552490234375,-0.0191802978515625,-0.0331573486328125
1761505954267487000,6.541487060546875,-1.0141754150390625,-0.019805908203125,-0.032989501953125
1761505954277523000,6.55152294921875,-1.0146636962890625,-0.0198211669921875,-0.0323486328125
1761505954287559000,6.561558837890625,-1.013946533203125,-0.0203857421875,-0.033599853515625
1761505954297595100,6.57159521484375,-1.0128021240234375,-0.0201873779296875,-0.0331878662109375
1761505954307632000,6.581632080078125,-1.0134429931640625,-0.0200958251953125,-0.0332183837890625
1761505954317668000,6.591668212890625,-1.013519287109375,-0.0205078125,-0.03253173828125
1761505954327704000,6.6017041015625,-1.0128326416015625,-0.0211639404296875,-0.03228759765625
1761505954337740300,6.611740234375,-1.0127410888671875,-0.0207977294921875,-0.0321807861328125
1761505954347776300,6.6217763671875,-1.013671875,-0.0203094482421875,-0.033111572265625
1761505954357812200,6.631812255859375,-1.0138397216796875,-0.0201416015625,-0.0333709716796875
1761505954367849200,6.64184912109375,-1.0138092041015625,-0.0204925537109375,-0.033294677734375
1761505954377885200,6.65188525390625,-1.0125885009765625,-0.019927978515625,-0.0330657958984375
1761505954387921200,6.661921142578125,-1.012847900390625,-0.0193328857421875,-0.0332489013671875
1761505954397957000,6.67195703125,-1.0133819580078125,-0.0194091796875,-0.0320587158203125
1761505954407993000,6.6819931640625,-1.013519287109375,-0.020355224609375,-0.0326690673828125
1761505954418029000,6.692029052734375,-1.0145111083984375,-0.02001953125,-0.033599853515625
1761505954428066300,6.70206640625,-1.0131072998046875,-0.020965576171875,-0.0330352783203125
1761505954438102300,6.712102294921875,-1.012786865234375,-0.020904541015625,-0.0326080322265625
1761505954448138200,6.72213818359375,-1.0135040283203125,-0.0200653076171875,-0.03338623046875
1761505954458174200,6.73217431640625,-1.01336669921875,-0.01971435546875,-0.032562255859375
1761505954468210200,6.742210205078125,-1.0130767822265625,-0.020172119140625,-0.0326995849609375
1761505954478246100,6.75224609375,-1.01361083984375,-0.0201873779296875,-0.032958984375
1761505954488283100,6.762283203125,-1.014129638671875,-0.0199127197265625,-0.03289794921875
1761505954498319000,6.772319091796875,-1.014190673828125,-0.0194244384765625,-0.0330810546875
1761505954508355000,6.78235498046875,-1.013885498046875,-0.01983642578125,-0.0328369140625
1761505954518391000,6.79239111328125,-1.0140533447265625,-0.019775390625,-0.0333099365234375
1761505954528427000,6.802427001953125,-1.013458251953125,-0.0201568603515625,-0.0330810546875
1761505954538463200,6.812463134765625,-1.01263427734375,-0.020050048828125,-0.033203125
1761505954548500000,6.8225,-1.013458251953125,-0.021026611328125,-0.03271484375
1761505954558536000,6.832535888671875,-1.0134429931640625,-0.0204315185546875,-0.0328216552734375
1761505954568572200,6.842572265625,-1.014617919921875,-0.0201873779296875,-0.033447265625
1761505954578608000,6.852608154296875,-1.01318359375,-0.01953125,-0.033233642578125
1761505954588644000,6.86264404296875,-1.0135955810546875,-0.0205230712890625,-0.03314208984375
1761505954598680300,6.872680419921875,-1.0133819580078125,-0.020721435546875,-0.03289794921875
1761505954608717300,6.88271728515625,-1.0137481689453125,-0.0205230712890625,-0.0323638916015625
1761505954618753300,6.892753173828125,-1.0137481689453125,-0.019775390625,-0.033447265625
1761505954628789200,6.902789306640625,-1.0131072998046875,-0.019775390625,-0.033477783203125
1761505954638825200,6.9128251953125,-1.0146026611328125,-0.0191802978515625,-0.0319671630859375
1761505954648861200,6.922861083984375,-1.0135345458984375,-0.019378662109375,-0.033294677734375
1761505954658897200,6.932897216796875,-1.01324462890625,-0.020782470703125,-0.03302001953125
1761505954668933000,6.94293310546875,-1.01373291015625,-0.0198211669921875,-0.032989501953125
1761505954678970000,6.95297021484375,-1.014129638671875,-0.020477294921875,-0.0333251953125
1761505954689006000,6.963006103515625,-1.0133514404296875,-0.020050048828125,-0.0326690673828125
1761505954699042000,6.9730419921875,-1.01434326171875,-0.0197601318359375,-0.032684326171875
1761505954709078000,6.983078125,-1.0137481689453125,-0.0204315185546875,-0.03228759765625
1761505954719114000,6.993114013671875,-1.013214111328125,-0.02117919921875,-0.032958984375
1761505954729150000,7.00314990234375,-1.0125274658203125,-0.0211029052734375,-0.0330657958984375
1761505954739187200,7.013187255859375,-1.01318359375,-0.0197906494140625,-0.0325927734375
1761505954749223200,7.02322314453125,-1.01214599609375,-0.0201873779296875,-0.033294677734375
1761505954759259100,7.033259033203125,-1.014373779296875,-0.0195770263671875,-0.0321197509765625
1761505954769295000,7.043295166015625,-1.0143280029296875,-0.020050048828125,-0.0328826904296875
1761505954779331300,7.053331298828125,-1.0136260986328125,-0.0200958251953125,-0.032684326171875
1761505954789367300,7.0633671875,-1.0132904052734375,-0.01971435546875,-0.0324554443359375
1761505954799404000,7.073404052734375,-1.014068603515625,-0.020294189453125,-0.0328369140625
1761505954809440300,7.083440185546875,-1.01324462890625,-0.02081298828125,-0.033050537109375
1761505954819476200,7.093476318359375,-1.0137939453125,-0.0211944580078125,-0.033416748046875
1761505954829512200,7.10351220703125,-1.0135650634765625,-0.0199432373046875,-0.0327606201171875
1761505954839548200,7.113548095703125,-1.01324462890625,-0.0203857421875,-0.0327606201171875
1761505954849584000,7.123584228515625,-1.013336181640625,-0.0202789306640625,-0.0336456298828125
1761505954859620000,7.1336201171875,-1.0137939453125,-0.01922607421875,-0.033294677734375
1761505954869657000,7.143656982421875,-1.0129241943359375,-0.020416259765625,-0.0319366455078125
1761505954879693000,7.153693115234375,-1.013092041015625,-0.0203704833984375,-0.0323028564453125
1761505954889729300,7.163729248046875,-1.01397705078125,-0.0194091796875,-0.0321807861328125
1761505954899765200,7.17376513671875,-1.0137176513671875,-0.0194549560546875,-0.032928466796875
1761505954909801200,7.18380126953125,-1.0135498046875,-0.0198211669921875,-0.0335845947265625
1761505954919837200,7.193837158203125,-1.012786865234375,-0.0197906494140625,-0.0333404541015625
1761505954929874200,7.203874267578125,-1.0129852294921875,-0.0199432373046875,-0.0327606201171875
1761505954939910100,7.21391015625,-1.014373779296875,-0.020660400390625,-0.0337066650390625
1761505954949946000,7.223946044921875,-1.01275634765625,-0.01995849609375,-0.0335693359375
1761505954959982000,7.233982177734375,-1.01214599609375,-0.019500732421875,-0.0325775146484375
1761505954970018000,7.24401806640625,-1.013824462890625,-0.0206451416015625,-0.033294677734375
1761505954980054000,7.254053955078125,-1.013763427734375,-0.0204010009765625,-0.0329742431640625
1761505954990090200,7.26409033203125,-1.0130462646484375,-0.019989013671875,-0.0330047607421875
1761505955000127000,7.274126953125,-1.0145416259765625,-0.0197601318359375,-0.032928466796875
1761505955010163000,7.284162841796875,-1.012786865234375,-0.0199737548828125,-0.0338287353515625
1761505955020199200,7.29419921875,-1.0124664306640625,-0.019439697265625,-0.0323944091796875
1761505955030235100,7.304235107421875,-1.0137481689453125,-0.019561767578125,-0.0333251953125
1761505955040271000,7.31427099609375,-1.0134735107421875,-0.0203094482421875,-0.0330810546875
1761505955050307000,7.32430712890625,-1.013641357421875,-0.0200958251953125,-0.0325927734375
1761505955060344600,7.334344482421875,-1.0135040283203125,-0.0208740234375,-0.033294677734375
1761505955070380500,7.344380615234375,-1.0131378173828125,-0.02044677734375,-0.0329742431640625
1761505955080416500,7.35441650390625,-1.0140533447265625,-0.0204620361328125,-0.032989501953125
1761505955090452500,7.364452392578125,-1.0143585205078125,-0.0197296142578125,-0.0335845947265625
1761505955100488400,7.374488525390625,-1.0132293701171875,-0.0206298828125,-0.0333404541015625
1761505955110524400,7.3845244140625,-1.013153076171875,-0.020172119140625,-0.0331878662109375
1761505955120560400,7.394560302734375,-1.0130157470703125,-0.02081298828125,-0.0326080322265625
1761505955130597400,7.404597412109375,-1.0136871337890625,-0.0204925537109375,-0.0325927734375
1761505955140633300,7.41463330078125,-1.0133209228515625,-0.0211944580078125,-0.0331268310546875
1761505955150669300,7.42466943359375,-1.0135345458984375,-0.0191650390625,-0.0326385498046875
1761505955160705300,7.434705322265625,-1.0141143798828125,-0.0194549560546875,-0.03289794921875
1761505955170741200,7.4447412109375,-1.0139923095703125,-0.0207061767578125,-0.0328216552734375
1761505955180777200,7.454777099609375,-1.01336669921875,-0.020843505859375,-0.033233642578125
1761505955190814200,7.464814208984375,-1.0134124755859375,-0.0204620361328125,-0.0332183837890625
1761505955200850200,7.47485009765625,-1.0134429931640625,-0.01995849609375,-0.0337371826171875
1761505955210886100,7.48488623046875,-1.0130615234375,-0.0203094482421875,-0.0327606201171875
1761505955220922400,7.49492236328125,-1.0130615234375,-0.0207366943359375,-0.03277587890625
1761505955230958300,7.504958251953125,-1.0131072998046875,-0.0208892822265625,-0.033233642578125
1761505955240994600,7.51499462890625,-1.0130615234375,-0.01983642578125,-0.032623291015625
1761505955251030500,7.525030517578125,-1.0139007568359375,-0.020782470703125,-0.0323028564453125
1761505955261067300,7.5350673828125,-1.013946533203125,-0.0202178955078125,-0.0321044921875
1761505955271103500,7.545103515625,-1.012847900390625,-0.0222015380859375,-0.0324554443359375
1761505955281139500,7.555139404296875,-1.01348876953125,-0.0204620361328125,-0.03326416015625
1761505955291175400,7.565175537109375,-1.0135498046875,-0.02056884765625,-0.0325775146484375
1761505955301211400,7.57521142578125,-1.013824462890625,-0.02056884765625,-0.032806396484375
1761505955311247400,7.585247314453125,-1.01312255859375,-0.0203094482421875,-0.0330810546875
1761505955321283300,7.595283447265625,-1.0128173828125,-0.020172119140625,-0.0331878662109375
1761505955331320300,7.6053203125,-1.012939453125,-0.020233154296875,-0.032958984375
1761505955341356300,7.615356201171875,-1.0136566162109375,-0.020599365234375,-0.032684326171875
1761505955351392300,7.625392333984375,-1.0140228271484375,-0.019866943359375,-0.033233642578125
1761505955361428200,7.63542822265625,-1.013336181640625,-0.01971435546875,-0.032501220703125
1761505955371464200,7.645464111328125,-1.01324462890625,-0.019989013671875,-0.032806396484375
1761505955381500200,7.655500244140625,-1.0133209228515625,-0.020477294921875,-0.033477783203125
1761505955391536000,7.6655361328125,-1.0133514404296875,-0.0204010009765625,-0.032867431640625
1761505955401573400,7.675573486328125,-1.014007568359375,-0.0200347900390625,-0.0323486328125
1761505955411609300,7.685609375,-1.0131988525390625,-0.0205078125,-0.0332489013671875
1761505955421645300,7.695645263671875,-1.0143890380859375,-0.0199737548828125,-0.0332183837890625
1761505955431681300,7.705681396484375,-1.0133819580078125,-0.0196685791015625,-0.0325775146484375
1761505955441717500,7.715717529296875,-1.0129241943359375,-0.0207366943359375,-0.0325775146484375
1761505955451753500,7.72575341796875,-1.013702392578125,-0.0196380615234375,-0.0326080322265625
1761505955461789400,7.73578955078125,-1.013427734375,-0.019500732421875,-0.03314208984375
1761505955471826400,7.745826416015625,-1.0137786865234375,-0.019561767578125,-0.0331573486328125
1761505955481862400,7.7558623046875,-1.013824462890625,-0.020721435546875,-0.032623291015625
1761505955491898400,7.7658984375,-1.013946533203125,-0.0197601318359375,-0.033172607421875
1761505955501934300,7.775934326171875,-1.0139007568359375,-0.0206756591796875,-0.0328369140625
1761505955511970300,7.78597021484375,-1.013702392578125,-0.0205841064453125,-0.0328216552734375
1761505955522006300,7.79600634765625,-1.0136566162109375,-0.020599365234375,-0.0326080322265625
1761505955532042200,7.806042236328125,-1.013519287109375,-0.021087646484375,-0.0332183837890625
1761505955542079500,7.81607958984375,-1.0137939453125,-0.020477294921875,-0.0327911376953125
1761505955552115500,7.826115478515625,-1.0139617919921875,-0.0205078125,-0.0328216552734375
1761505955562151400,7.8361513671875,-1.014373779296875,-0.020050048828125,-0.032623291015625
1761505955572187400,7.8461875,-1.013885498046875,-0.020263671875,-0.032928466796875
1761505955582223400,7.856223388671875,-1.013763427734375,-0.019622802734375,-0.033355712890625
1761505955592259300,7.86625927734375,-1.013092041015625,-0.0199432373046875,-0.0328826904296875
1761505955602295300,7.87629541015625,-1.01385498046875,-0.0198211669921875,-0.032318115234375
1761505955612332300,7.886332275390625,-1.0139923095703125,-0.02001953125,-0.0323333740234375
1761505955622368300,7.8963681640625,-1.0129852294921875,-0.01959228515625,-0.0334930419921875
1761505955632404200,7.906404296875,-1.012969970703125,-0.0190582275390625,-0.03363037109375
1761505955642440200,7.916440185546875,-1.013824462890625,-0.0199432373046875,-0.0333099365234375
1761505955652476400,7.926476318359375,-1.0134124755859375,-0.0196990966796875,-0.0331878662109375
1761505955662512400,7.936512451171875,-1.0143585205078125,-0.020355224609375,-0.0327606201171875
1761505955672548400,7.94654833984375,-1.0135955810546875,-0.0205078125,-0.0328826904296875
1761505955682585300,7.95658544921875,-1.0135040283203125,-0.020050048828125,-0.0330657958984375
1761505955692621600,7.96662158203125,-1.0134124755859375,-0.0194854736328125,-0.0323333740234375
1761505955702657500,7.976657470703125,-1.012847900390625,-0.020111083984375,-0.0331573486328125
1761505955712693500,7.986693603515625,-1.0125274658203125,-0.0204315185546875,-0.0320892333984375
1761505955722729500,7.9967294921875,-1.013153076171875,-0.019744873046875,-0.03289794921875
1761505955732765400,8.006765380859376,-1.01312255859375,-0.019561767578125,-0.0322723388671875
1761505955742800100,8.016800048828125,-1.0135345458984375,-0.0191497802734375,-0.03271484375
1761505955752837400,8.02683740234375,-1.0128936767578125,-0.020172119140625,-0.033294677734375
1761505955762873300,8.036873291015626,-1.01300048828125,-0.0199737548828125,-0.033355712890625
1761505955772909300,8.046909423828126,-1.0135345458984375,-0.0196380615234375,-0.0333404541015625
1761505955782945300,8.0569453125,-1.014495849609375,-0.0198211669921875,-0.0325775146484375
1761505955792981500,8.0669814453125,-1.013397216796875,-0.0206298828125,-0.03265380859375
1761505955803017500,8.077017578125,-1.0136871337890625,-0.020233154296875,-0.0332489013671875
1761505955813053400,8.087053466796876,-1.0135040283203125,-0.0200653076171875,-0.0322113037109375
1761505955823089400,8.09708935546875,-1.013641357421875,-0.020660400390625,-0.033294677734375
1761505955833126400,8.10712646484375,-1.013427734375,-0.019500732421875,-0.032684326171875
1761505955843162400,8.117162353515624,-1.0133209228515625,-0.0206298828125,-0.03289794921875
1761505955853198300,8.1271982421875,-1.013671875,-0.0195465087890625,-0.0328216552734375
1761505955863234300,8.137234375,-1.0134735107421875,-0.019744873046875,-0.032501220703125
1761505955873270300,8.147270263671874,-1.013031005859375,-0.0200347900390625,-0.0332794189453125
1761505955883306200,8.15730615234375,-1.014404296875,-0.0199737548828125,-0.033782958984375
1761505955893342200,8.16734228515625,-1.0127105712890625,-0.0199432373046875,-0.0336456298828125
1761505955903379500,8.17737939453125,-1.013397216796875,-0.0205230712890625,-0.0335693359375
1761505955913415400,8.18741552734375,-1.0133209228515625,-0.0211639404296875,-0.0323333740234375
1761505955923451400,8.197451416015625,-1.0127410888671875,-0.0197906494140625,-0.0328369140625
1761505955933487400,8.2074873046875,-1.0137939453125,-0.02032470703125,-0.032440185546875
1761505955943523300,8.2175234375,-1.0132904052734375,-0.02020263671875,-0.0325469970703125
1761505955953559300,8.227559326171875,-1.0132904052734375,-0.01983642578125,-0.0336456298828125
1761505955963595300,8.23759521484375,-1.0129547119140625,-0.020538330078125,-0.0331573486328125
1761505955973632300,8.24763232421875,-1.0138092041015625,-0.020263671875,-0.032623291015625
1761505955983668200,8.257668212890625,-1.0129852294921875,-0.021240234375,-0.033172607421875
1761505955993704200,8.2677041015625,-1.0120849609375,-0.020355224609375,-0.032562255859375
1761505956003740400,8.277740478515625,-1.0134735107421875,-0.01934814453125,-0.032318115234375
1761505956013776400,8.2877763671875,-1.0133056640625,-0.01995849609375,-0.032867431640625
1761505956023812400,8.297812255859375,-1.013458251953125,-0.0201568603515625,-0.0331878662109375
1761505956033848300,8.307848388671875,-1.013580322265625,-0.0198516845703125,-0.033538818359375
1761505956043885600,8.317885498046875,-1.0147552490234375,-0.02020263671875,-0.03314208984375
1761505956053921500,8.327921630859375,-1.013427734375,-0.01971435546875,-0.0329132080078125
1761505956063957500,8.33795751953125,-1.0139923095703125,-0.0196533203125,-0.03302001953125
1761505956073993500,8.347993408203125,-1.013336181640625,-0.019683837890625,-0.032745361328125
1761505956084029400,8.358029541015625,-1.012969970703125,-0.0197296142578125,-0.0329437255859375
1761505956094065400,8.3680654296875,-1.0139007568359375,-0.01947021484375,-0.032196044921875
1761505956104101400,8.378101318359375,-1.0124969482421875,-0.019805908203125,-0.0327606201171875
1761505956114137300,8.388137451171875,-1.006805419921875,-0.019500732421875,-0.0346527099609375
1761505956124174300,8.39817431640625,-1.009429931640625,-0.0182952880859375,-0.038909912109375
1761505956134210300,8.408210205078126,-0.98846435546875,-0.015045166015625,-0.056854248046875
1761505956144246300,8.418246337890626,-1.04693603515625,-0.0298614501953125,0.00872802734375
1761505956154282200,8.4282822265625,-1.02508544921875,-0.0245208740234375,-0.0121917724609375
1761505956164318200,8.438318115234376,-0.9903106689453125,-0.01416015625,-0.0622100830078125
1761505956174354400,8.4483544921875,-1.029815673828125,-0.0263214111328125,-0.005340576171875
1761505956184390400,8.458390380859376,-1.0211334228515625,-0.0222320556640625,-0.02618408203125
1761505956194427100,8.46842724609375,-1.011016845703125,-0.0201263427734375,-0.0340423583984375
1761505956204463400,8.47846337890625,-1.0245361328125,-0.0232391357421875,-0.0216827392578125
