time,seconds_elapsed,z,y,x
1761505947836769800,0.110769775390625,-0.14678572145998478,-0.011093239085562527,0.012413747099600731
1761505947846806800,0.120806884765625,-0.15217559780478476,-0.006413447238877415,0.013219108665734529
1761505947856842800,0.1308427734375,-0.15472002159059048,-0.004219389527011662,0.021649923609010874
1761505947866878700,0.140878662109375,-0.1436433317810297,-0.013816672700084746,0.01077489385139197
1761505947876916000,0.150916015625,-0.14647826294600963,-0.010586020215786992,0.011769348248839377
1761505947886952000,0.160951904296875,-0.155450089430809,-0.0024178930629976093,0.00803801623340696
1761505947896988000,0.17098779296875,-0.143329443526268,-0.0066139747796580195,0.018368527318164705
1761505947907024000,0.18102392578125,-0.14751988095343113,-0.011514149645064026,0.012975618766061962
1761505947917060900,0.191060791015625,-0.14557342306077478,-0.008171305490564554,0.010816102644614875
1761505947927096800,0.201096923828125,-0.1460223358720541,-0.007735069497767835,0.007983838360756635
1761505947937132800,0.2111328125,-0.14317980592250823,-0.006846541426517069,0.01158398174457252
1761505947947169800,0.221169677734375,-0.15125789843797682,-0.01196722717480734,0.016328399792686105
1761505947957205800,0.231205810546875,-0.14871873534917832,-0.009461655828356742,0.013039696978218853
1761505947967241700,0.24124169921875,-0.14617255799770354,-0.005721848245523869,0.00975132295731455
1761505947977279000,0.251279052734375,-0.14766776499152182,-0.01051741195898503,0.014503595518320799
1761505947987315000,0.26131494140625,-0.1350987907975912,-0.006328947293199599,0.021339067561551926
1761505947997351000,0.271350830078125,-0.1430295837968588,-0.010511986865196376,0.012451558359339832
1761505948007387000,0.281386962890625,-0.14856500609219073,-0.00851334212757647,0.011187164446711539
1761505948017424000,0.291423828125,-0.14257014959156514,-0.0062864415920339525,0.017963270985521376
1761505948027459800,0.3014599609375,-0.13553659769296644,-0.009732855718862265,0.0043246582660824056
1761505948037495800,0.311495849609375,-0.14750526790618895,-0.006361388258077204,0.01792016249615699
1761505948047532800,0.32153271484375,-0.1476519829005003,-0.01696370202153921,0.01302570498548448
1761505948057569000,0.331569091796875,-0.1469108091443777,-0.011793952967133372,0.014240012678690253
1761505948067605200,0.341605224609375,-0.1461667127788067,-0.015764628430083392,0.012601195963099597
1761505948077641200,0.35164111328125,-0.14422902271449564,-0.005033829448744654,0.015007745648175476
1761505948087678200,0.36167822265625,-0.14946867693364618,-0.00857369401268661,0.015048150723800063
1761505948097714200,0.371714111328125,-0.13211305298507212,-0.01740238569974899,0.008373787526413799
1761505948107750100,0.381750244140625,-0.14991583617925644,-0.008982402677740902,0.022978907190449534
1761505948117787100,0.391787109375,-0.1421311736524105,-0.008364709170814603,0.01278637980427593
1761505948127823000,0.401822998046875,-0.13330197050869463,-0.008536156747583299,0.010834734279848634
1761505948137859000,0.411859130859375,-0.1478168180733919,-0.012348682506754994,0.022544607426412403
1761505948147895000,0.42189501953125,-0.13509820627570152,-0.019119893674738705,0.024893947031535208
1761505948157932000,0.43193212890625,-0.14153437680304048,-0.014153083313908427,0.0178898769557476
1761505948167968000,0.441968017578125,-0.1437818634688854,-0.011541402978170662,0.015852818170189856
1761505948178004000,0.45200390625,-0.13914543583989142,-0.003737469495274126,0.00901635974626988
1761505948188041200,0.462041259765625,-0.14453881931602955,-0.010275200700946152,0.00969305343143642
1761505948198077200,0.4720771484375,-0.14662965411543846,-0.009813592804875225,0.015468458495102822
1761505948208113200,0.482113037109375,-0.1431909118384123,0.003006853665784001,0.0083744816461578
1761505948218149000,0.492149169921875,-0.14723463427126407,-0.007954447869490832,0.008874868916347622
1761505948228186000,0.50218603515625,-0.15321663129031657,-0.015313614993263036,0.013492993703670799
1761505948238222000,0.51222216796875,-0.13989771551191807,-0.011268960978649555,0.013296119424700737
1761505948248258000,0.522258056640625,-0.1354033267021179,-0.01464104949394241,0.009152882140129805
1761505948258295000,0.532294921875,-0.14213701887130736,-0.009900010713003575,0.014938151010684669
1761505948268331000,0.5423310546875,-0.1298626437097788,-0.005160871628206223,0.01020714043341577
1761505948278367000,0.552366943359375,-0.1341968735218048,-0.010303860539849847,0.017867336330376564
1761505948288404200,0.562404296875,-0.13658698352873325,-0.010862846129480748,0.00748491239529103
1761505948298440200,0.572440185546875,-0.14078151260912417,-0.0068462126329541205,0.012707286686077714
1761505948308476200,0.58247607421875,-0.13883447019457817,-0.0068454089153558014,0.009368534184806048
1761505948318512000,0.59251220703125,-0.13883154758512972,-0.01568683221982792,0.015733319976367056
1761505948328549000,0.602549072265625,-0.13015139752328395,-0.007812171588279306,0.011380093202926218
1761505948338585000,0.612585205078125,-0.130602648422122,0.0007045863390900194,0.010110657788999378
1761505948348621000,0.62262109375,-0.1373340025037527,-0.006623107934184372,0.008925904983840882
1761505948358658000,0.632657958984375,-0.13957622847259044,-0.011019863322097808,0.010390278447978197
1761505948368694000,0.642694091796875,-0.14705693961679936,-0.009751195093151182,0.013847506229765712
1761505948378730000,0.65272998046875,-0.14122224211394785,-0.007389854522980749,0.012458682219870388
1761505948388766000,0.662765869140625,-0.1353857910454273,-0.006338518839143216,0.005409896219521761
1761505948398803200,0.67280322265625,-0.13014613682627676,-0.00782413602070883,0.009668978436104952
1761505948408839200,0.682839111328125,-0.13583295029103756,-0.010055877128150313,0.013136873742379247
1761505948418875100,0.692875244140625,-0.1430155552715063,-0.008507387310825287,0.011828823351114988
1761505948428912000,0.702912109375,-0.13972411251068115,-0.006212115980498492,0.008317746490240096
1761505948438948000,0.712947998046875,-0.1427192026734352,0.0015224785932339726,0.015967457525804637
1761505948448984000,0.722984130859375,-0.13703589634001254,-0.0018557474019005895,0.01032265657186508
1761505948459020000,0.73302001953125,-0.14077858999967574,-0.00762229330567643,0.00899582841489464
1761505948469057000,0.74305712890625,-0.13314824125170707,-0.008675912278145551,0.014861761306226252
1761505948479093000,0.753093017578125,-0.13913257635831833,-0.005214008321240544,0.016906345811113714
1761505948489129000,0.76312890625,-0.14107844972908495,-0.007517188963387161,0.01238349809180945
1761505948499166200,0.773166259765625,-0.14900982725024223,-0.015745083479396998,0.01225260172113776
1761505948509202200,0.7832021484375,-0.13704232608079908,-0.00793316761944443,0.016141279722750188
1761505948519238100,0.793238037109375,-0.1383878954708576,-0.004776530219428241,0.011765402726083993
1761505948529274000,0.803274169921875,-0.1400304019808769,-0.005550583331845701,0.0071945511465892195
1761505948539311000,0.81331103515625,-0.13358897075653076,-0.009376425230316817,0.01495605199355632
1761505948549347000,0.82334716796875,-0.13598200337290764,-0.009516509554442018,0.012072788174822926
1761505948559383000,0.833383056640625,-0.13418167595267294,-0.009076821229234337,0.008357786239683628
1761505948569420000,0.843419921875,-0.13088789510428905,-0.007218790538702159,0.020398169982247052
1761505948579456000,0.8534560546875,-0.1404670398324728,-0.008058474499545991,0.008162007939256727
1761505948589492000,0.863491943359375,-0.1313432376563549,-0.006717435154132544,0.0168063195027411
1761505948599529000,0.873529052734375,-0.13298691321015357,-0.007867061846982687,0.01491933671236038
1761505948609565200,0.883565185546875,-0.14330956978201864,-0.00038808600213378663,0.00832687964476645
1761505948619601200,0.89360107421875,-0.14450316348075865,-0.010177877806313336,0.010868746147304773
1761505948629637000,0.90363720703125,-0.13671440930068493,-0.008347958965413273,0.012873729294165968
1761505948639674000,0.913674072265625,-0.13491875805556774,-0.011994389176368712,0.0038408202718943356
1761505948649710000,0.9237099609375,-0.123696522295475,-0.010205642596073448,0.0020744316538795827
1761505948659746000,0.93374609375,-0.13836100746393204,-0.005139700976014137,0.004476414761692285
1761505948669782300,0.9437822265625,-0.13536591730117797,0.00012764496766030787,0.01629745666515082
1761505948679819000,0.953819091796875,-0.1304331370741129,0.0012045169515535236,0.01194718903377652
1761505948689855000,0.96385498046875,-0.1388116738408804,-0.004445983090810478,0.011210106930881737
1761505948699891200,0.97389111328125,-0.13940671712458133,-0.006829480693861842,0.007813925153948366
1761505948709928000,0.983927978515625,-0.13820669368505478,-0.005889569495245814,0.00829582691937685
1761505948719964000,0.9939638671875,-0.1314694943845272,-0.003607997896708548,0.01364442140571773
1761505948730000400,1.00400048828125,-0.12354162399470806,-0.014311707941722124,0.009648337506875396
1761505948740037000,1.014037109375,-0.13671382477879523,-0.00924932825192809,0.010392616535536945
1761505948750073000,1.024072998046875,-0.12998188617527484,-0.004509367183223366,0.01270023589078337
1761505948760109300,1.034109375,-0.13132745556533335,-0.002558872436266392,0.018000315060280263
1761505948770145300,1.044145263671875,-0.13641513409316539,-0.005865549298841506,0.009628244566917419
1761505948780182000,1.05418212890625,-0.14360007716119289,-0.012902590062469244,0.0038553967865183948
1761505948790218200,1.06421826171875,-0.14644202258884906,-0.006804930774495005,0.016111359508521855
1761505948800254200,1.074254150390625,-0.15018179363906384,-0.0031334939864464104,0.00451681983731687
1761505948810291000,1.084291015625,-0.1440536661475897,-0.007978851658385246,0.013564414972066879
1761505948820327200,1.0943271484375,-0.146449621373415,-0.016952048116363583,0.006191803844831883
1761505948830363100,1.104363037109375,-0.1338748019605875,-0.0059419938022270795,0.016992489724606274
1761505948840399000,1.114399169921875,-0.1444926420867443,-0.01103939000647515,0.005523147335648537
1761505948850436000,1.12443603515625,-0.1352168642193079,-0.012392686045262962,0.009175495830737054
1761505948860472300,1.134472412109375,-0.14015607418715953,-0.0015997268142178653,0.008589476103708147
1761505948870508300,1.14450830078125,-0.14015607418715953,-0.0035705702294595537,0.008979388736747205
1761505948880545000,1.154544921875,-0.13506488852798937,-0.01629718267051503,0.015015928954631089
1761505948890581200,1.164581298828125,-0.13791209465265272,-0.010935253778565674,0.016400259452499448
1761505948900617200,1.1746171875,-0.13326982180476188,-0.011043554724939167,0.014635880128480494
1761505948910653200,1.184653076171875,-0.1353647482573986,-0.009027009004447608,0.010941738318279385
1761505948920690200,1.194690185546875,-0.143142981043458,-0.01126602010289207,0.008904716065339744
1761505948930726100,1.20472607421875,-0.1361053374916315,-0.008825403751432896,0.014509513802453874
1761505948940762000,1.21476220703125,-0.13790215778052806,-0.008535261698439716,0.010512370457686483
1761505948950798000,1.224798095703125,-0.13700140954852102,-0.00870148511081934,0.003110496703349054
1761505948960835300,1.23483544921875,-0.13550503351092338,-0.003940152460522949,0.008866539479419589
1761505948970871300,1.244871337890625,-0.13176058628559112,-0.005219890072755516,0.015459434938430786
1761505948980907300,1.2549072265625,-0.1369990714609623,-0.006040284811239689,0.018001812897622583
1761505948990944300,1.2649443359375,-0.1470242063909769,-0.013201244215480983,0.010776391688734292
1761505949000980200,1.274980224609375,-0.14552841487526894,-0.008090349208842962,0.014983451457135378
1761505949011016200,1.28501611328125,-0.13638941513001918,-0.012256766439601779,0.015775807411223648
1761505949021053200,1.29505322265625,-0.1488023219794035,-0.0027670900931581854,0.016366612911224366
1761505949031089200,1.305089111328125,-0.138331196847558,-0.018820107010565697,0.01760481293667108
1761505949041125000,1.315125,-0.13369067756533623,-0.010578220501821488,0.015741393684968352
1761505949051161000,1.3251611328125,-0.13159165945947168,-0.0021493965862318873,0.006174523916468024
1761505949061197800,1.33519775390625,-0.1407242294639349,-0.007730667317286133,0.008797164037637412
1761505949071233800,1.34523388671875,-0.13938099816143512,-0.006027224400267005,0.016581716966629027
1761505949081269800,1.355269775390625,-0.13294482763409612,-0.0004035758322104811,0.014390088673867284
1761505949091307000,1.36530712890625,-0.13727788840234278,-0.0032942740387283263,0.012734503486566245
1761505949101343000,1.375343017578125,-0.13847382018864154,-0.005326638382859528,0.019330394620262085
1761505949111379000,1.38537890625,-0.13577625166773796,-0.0018613003598526119,0.01111216298174113
1761505949121415000,1.395414794921875,-0.13786474837958812,-0.009378507589548826,0.006761274295859038
1761505949131452000,1.405451904296875,-0.13606792809069157,-0.0110623507569544,0.01124050206914544
1761505949141487900,1.41548779296875,-0.14459785602688788,-0.006859035581909119,0.004148278785869479
1761505949151523800,1.42552392578125,-0.14294833525419234,-0.008395725363586097,0.013643325427174568
1761505949161559800,1.435559814453125,-0.1381616854995489,-0.0026051592634059486,0.014984839696623384
1761505949171596800,1.4455966796875,-0.1389157187372446,-0.008688844824954868,0.0106927319932729
1761505949181632800,1.4556328125,-0.138771341830492,-0.007419975666608661,0.015606003802269697
1761505949191668700,1.465668701171875,-0.13489011648297308,0.0011341185964643954,0.012412760718911885
1761505949201706000,1.4757060546875,-0.13144962064027785,-0.010620068615861237,0.008666413797438145
1761505949211742000,1.485741943359375,-0.13743804740011692,-0.014398052784614264,0.008847505985386668
1761505949221778000,1.49577783203125,-0.13683891246318816,-0.014938918195664883,0.008802497799880802
1761505949231814000,1.50581396484375,-0.14058335968852043,-0.012104571552574633,0.009195625303313136
1761505949241851000,1.515850830078125,-0.14956161591410636,-0.006274568491149693,0.017285956245847046
1761505949251886800,1.525886962890625,-0.14267887066304683,-0.00009834580793976783,0.021325002503581342
1761505949261922800,1.5359228515625,-0.13714461741149425,-0.008132325187046081,0.004380772367492318
1761505949271959800,1.545959716796875,-0.1384931094110012,-0.011892189177218824,0.008049231747165321
1761505949281995800,1.555995849609375,-0.1414823543548584,-0.012762414406798778,0.01720383092034608
1761505949292031700,1.56603173828125,-0.13490122239887714,-0.0010457827258855104,0.01133804415948689
1761505949302067700,1.576067626953125,-0.1347545074045658,-0.008829239676333964,0.010743475799821317
1761505949312105000,1.58610498046875,-0.1360971541851759,-0.011712430429831146,0.012584427491389215
1761505949322141000,1.596140869140625,-0.1384925248891115,-0.005777761417534202,0.013163506020978093
1761505949332177000,1.606177001953125,-0.14268179327249525,-0.013442980549484491,0.0134619409782812
1761505949342214000,1.6162138671875,-0.13893676152527332,-0.007258026570547371,0.009971906905435025
1761505949352249900,1.626249755859375,-0.14327157585918904,-0.0069729077525436875,0.011932101062498986
1761505949362285800,1.636285888671875,-0.1438695417523384,-0.023290968814305958,0.01385923320017755
1761505949372321800,1.64632177734375,-0.13444354175925255,-0.011151472078822552,0.009837649533897638
1761505949382358800,1.65635888671875,-0.14027765474021434,-0.009449472200218587,0.01934709002673626
1761505949392394800,1.666394775390625,-0.14805939465761184,-0.0047126164040528235,0.009956672803685068
1761505949402430700,1.6764306640625,-0.14341361467838287,-0.0055905134834349154,0.008923859157226979
1761505949412466700,1.686466796875,-0.14011632669866084,-0.005473846567515283,0.01673168336395174
1761505949422504000,1.69650390625,-0.132637369120121,-0.019637286878656596,0.014835384755954145
1761505949432540000,1.706539794921875,-0.14355448445379734,-0.0013456059226766228,0.005499145405553281
1761505949442576000,1.716575927734375,-0.13772037147283553,-0.006203439483698457,0.010290653998404741
1761505949452612900,1.72661279296875,-0.13547814550399778,-0.01303028982905671,0.015263072116114199
1761505949462648800,1.73664892578125,-0.14026421073675155,-0.009530172753613442,0.014423625617288053
1761505949472684800,1.746684814453125,-0.13248656247258186,-0.002296842232905328,0.012989829954504966
1761505949482720800,1.756720703125,-0.1408633456736803,-0.003069927230942994,0.009172317492961882
1761505949492757800,1.7667578125,-0.1540302857607603,0.0017073701734654605,0.015292736602015793
1761505949502793700,1.776793701171875,-0.14146072704493998,-0.0008275916642509401,0.0149890044150874
1761505949512829700,1.78682958984375,-0.14789748209416864,-0.007523289910610765,0.01083477081246674
1761505949522865700,1.79686572265625,-0.1453507202208042,-0.01582834131605923,0.006072817107662558
1761505949532903000,1.80690283203125,-0.1411591137498617,-0.010115370496734976,0.010343955088220537
1761505949542939000,1.81693896484375,-0.14923369913399218,-0.0016208792001008987,0.010639175175130366
1761505949552974800,1.826974853515625,-0.1444359434634447,-0.009091105482913553,0.00715776280015707
1761505949563011800,1.83701171875,-0.15086509972810744,-0.008779427451547235,0.003708572194352746
1761505949573047800,1.8470478515625,-0.15161328774690627,-0.0026715572968125344,0.00805266581326723
1761505949583083800,1.857083740234375,-0.13963818779289722,-0.0009587620295584201,0.007302724228799342
1761505949593119700,1.86711962890625,-0.14591829097568987,-0.004786942015588283,0.006375782109610736
1761505949603156700,1.87715673828125,-0.1430804372012615,0.003976246687211096,0.008875636101327836
1761505949613192700,1.887192626953125,-0.1414338390380144,-0.009653196345083414,0.003409406584687531
1761505949623228700,1.897228759765625,-0.14097498935461045,-0.012182166833430527,0.007156849484704434
1761505949633265000,1.907264892578125,-0.14396832595169543,-0.004816040245909243,0.007674589748494326
1761505949643302000,1.917302001953125,-0.1423188051789999,-0.005197678240947425,0.006407711617834866
1761505949653337900,1.927337890625,-0.14500819039344787,-0.009489840743225068,0.009712452251650393
1761505949663373800,1.937373779296875,-0.1276525664448738,0.0032150165237486363,0.011939297988265752
1761505949673410800,1.947410888671875,-0.1339431910216808,-0.003889883578009903,0.006295154621452093
1761505949683446800,1.95744677734375,-0.1405278301090002,-0.013413188199419527,0.00883070098105818
1761505949693482800,1.967482666015625,-0.14501754274368286,-0.001769165096990764,0.011852240759320556
1761505949703519000,1.97751904296875,-0.14905191282629965,-0.004298135585337877,0.011376841799914836
1761505949713555700,1.9875556640625,-0.13274316758215426,-0.010600450599938631,0.0020027911897748706
1761505949723591700,1.997591796875,-0.14156535646319388,0.0013844766283407806,0.009377375078387557
1761505949733628000,2.0076279296875,-0.13932605310380458,-0.007599076826870441,0.0045956937598064535
1761505949743663900,2.017663818359375,-0.13932605310380458,-0.007538030822016298,0.008097345205210148
1761505949753700900,2.027700927734375,-0.1345370652616024,-0.012365688440483063,0.014077405995503067
1761505949763737000,2.037737060546875,-0.14605799170732497,-0.006773677119705826,0.009832863760925828
1761505949773773000,2.04777294921875,-0.14725392349362373,-0.004154105738457292,0.00520392531864345
1761505949783809800,2.057809814453125,-0.14799918890297412,0.004346979695744812,0.010514562414772808
1761505949793846000,2.067845947265625,-0.14665245046913622,-0.007134436723496764,0.014081862974911928
1761505949803882000,2.077882080078125,-0.14860358453691005,-0.007772643295489251,0.006495609096996486
1761505949813918000,2.08791796875,-0.1385796186506748,-0.017225458230264484,0.008869425556249916
1761505949823955000,2.097954833984375,-0.1417132405012846,-0.007143478546477853,0.007462664030864834
1761505949833991000,2.107990966796875,-0.14635200621783734,-0.004423752992693334,0.007234189037233591
1761505949844027000,2.11802685546875,-0.14395780455768106,-0.003314220848213881,0.015583353579044341
1761505949854062800,2.128062744140625,-0.13871873486042022,0.0006233560627326369,0.009526062834076582
1761505949864099800,2.138099853515625,-0.13407821557819843,-0.010160707475803792,0.005436565030738711
1761505949874136000,2.148135986328125,-0.1454512579858303,-0.008636164789646864,0.011260704606957732
1761505949884172000,2.158172119140625,-0.14335340892374515,-0.0046553149925544855,0.006583835369721055
1761505949894208000,2.1682080078125,-0.1381137547045946,-0.011362466214690357,0.013223163786344229
1761505949904245000,2.178244873046875,-0.1337748487174511,-0.006516615352407097,0.013209573652409016
1761505949914281000,2.188281005859375,-0.13931903884112834,-0.006101824006438255,0.007089227608591318
1761505949924317000,2.19831689453125,-0.14485679922401903,-0.002109064575843513,0.00355272404551506
1761505949934353000,2.208352783203125,-0.1463531752616167,-0.008477467096596955,0.010553469653055071
1761505949944390000,2.218389892578125,-0.1481517491161823,-0.011729929553903638,0.009421104622259735
1761505949954425900,2.22842578125,-0.14381635026037692,-0.008462598321028053,0.007906681471318006
1761505949964461800,2.2384619140625,-0.1462087983548641,-0.004624536261800676,0.007950082221627235
1761505949974497800,2.248497802734375,-0.1490501592606306,-0.017452837245352567,0.016186908962763844
1761505949984534800,2.25853466796875,-0.14665128142535686,-0.009627459115628153,0.012291910818219185
1761505949994571000,2.268571044921875,-0.13123627015054226,-0.014718023720290511,0.003546294304728508
1761505950004607000,2.27860693359375,-0.13527180927693844,-0.0077284205612726505,0.002834456240944564
1761505950014644000,2.28864404296875,-0.1473907016158104,-0.00565090190116316,0.0080139777706936
1761505950024680000,2.298679931640625,-0.14319558801352977,-0.003893737769220024,0.006534698998369276
1761505950034716000,2.3087158203125,-0.14394143794476985,-0.014394764848984777,0.005740881739556789
1761505950044752000,2.318751953125,-0.1514244871765375,-0.0138818468907848,0.009706533967517316
1761505950054788400,2.328788330078125,-0.14454232644736767,-0.004931611183285713,0.012765373548865318
1761505950064824300,2.33882421875,-0.15262451061606405,-0.011976049802079796,0.012737864487431942
1761505950074860300,2.3488603515625,-0.13406652514040468,-0.007629764226078987,0.0115892424415797
1761505950084896300,2.358896240234375,-0.13780629619061946,-0.005584814395010471,0.009795015968568622
1761505950094933200,2.368933349609375,-0.15277005656659604,-0.008469375121686606,0.009582797989994287
1761505950104969200,2.37896923828125,-0.14154256010949612,-0.008640694834291935,0.010496697964519262
1761505950115005200,2.389005126953125,-0.146479431989789,-0.005290069232136011,0.011032046950235963
1761505950125041200,2.399041259765625,-0.14588205061852932,-0.0024859715968370438,0.010543788509257137
1761505950135078400,2.409078369140625,-0.14633037890791892,-0.017300057836435734,0.005449899436347186
1761505950145114400,2.4191142578125,-0.14004267694056033,-0.006955920085124671,-0.0005563187085092067
1761505950155150300,2.429150390625,-0.1364537125378847,-0.010302563631907105,0.004780621872656047
1761505950165186300,2.439186279296875,-0.14363164134323597,-0.00774988347440958,0.010472659501805901
1761505950175223300,2.449223388671875,-0.14258184002935886,-0.0023538696497678755,0.0072580813694745295
1761505950185259300,2.45925927734375,-0.145716630923748,-0.009769333538040518,0.008938362606614828
1761505950195295200,2.469295166015625,-0.13449088803231715,-0.007880980774480848,0.011288323266245424
1761505950205331200,2.479331298828125,-0.13943068252205848,-0.0009396920029073954,0.005610825619101524
1761505950215368200,2.4893681640625,-0.14212474391162394,-0.004190382628235965,0.005165931395813822
1761505950225404200,2.499404052734375,-0.14196926108896732,-0.0007527180634438991,0.011724011269770561
1761505950235440000,2.509440185546875,-0.14136778806447983,0.0003609240005724132,0.0035155338402837514
1761505950245476400,2.519476318359375,-0.1534855113595724,-0.004199351385980844,0.01132657291740179
1761505950255513300,2.529513427734375,-0.15139759916961193,-0.0002745426250621676,0.007622640365548432
1761505950265549300,2.53954931640625,-0.1527449221253395,-0.003434979417361319,0.009346395418234168
1761505950275585500,2.54958544921875,-0.1496025324463844,-0.00816094849333167,0.0021342720823362468
1761505950285621500,2.55962158203125,-0.1443710615336895,-0.006492028900422156,0.006251205881871283
1761505950295658200,2.569658203125,-0.14482406599819658,-0.009503686605487019,0.00743570295870304
1761505950305694500,2.579694580078125,-0.14976678309738636,-0.012303035000432281,0.013534640888310969
1761505950315730400,2.58973046875,-0.14931260958909987,0.0020442191787064076,0.01262983753569424
1761505950325766400,2.599766357421875,-0.14512392572760582,-0.0026581132933497426,0.014112404243648052
1761505950335803400,2.609803466796875,-0.143329443526268,-0.009529661296959965,0.008912789773941039
1761505950345839400,2.61983935546875,-0.1382400114327669,-0.009806432411726563,0.0037557723369449373
1761505950355875300,2.629875244140625,-0.14018763836920262,-0.0013960574682801961,0.007925970693677663
1761505950365911300,2.639911376953125,-0.13375263688564298,0.00015690759476274252,0.015214447201415895
1761505950375948500,2.649948486328125,-0.14108429494798183,-0.0024556129911914464,0.009315452290698885
1761505950385984500,2.659984619140625,-0.14526947167813778,-0.007258519760891795,0.009928834948688745
1761505950396020500,2.6700205078125,-0.13194763329029083,-0.010948204591684043,0.009560586158186196
1761505950406056400,2.680056396484375,-0.1338917530953884,0.008524411510862409,0.0030935821011662482
1761505950416093400,2.690093505859375,-0.14796002593636512,-0.008303243040852249,0.007742905744351446
1761505950426129400,2.70012939453125,-0.13928513657152652,-0.009927702437527478,0.0077127298017963765
1761505950436165400,2.710165283203125,-0.1503483823776245,-0.0005444090750068426,0.007195391396805644
1761505950446201300,2.720201416015625,-0.1481003111898899,-0.007836940703354776,0.005125014863535762
1761505950456238300,2.73023828125,-0.1546837812334299,0.0034454094798304137,0.013401004571281372
1761505950466274300,2.7402744140625,-0.14465630821585654,-0.009586780045367777,0.005864654249697923
1761505950476310300,2.750310302734375,-0.14121698141694067,0.0014930150367319583,0.0005379793342202902
1761505950486346200,2.76034619140625,-0.1469014567941427,-0.00266741084465757,0.013937997524812817
1761505950496383500,2.770383544921875,-0.14869360090792177,-0.009393412897735834,0.010542948259040712
1761505950506419500,2.78041943359375,-0.14615326877534388,-0.007190569091215729,0.010823518766090274
1761505950516455400,2.790455322265625,-0.14481237556040286,-0.008258782844617962,0.011148805197700857
1761505950526491400,2.800491455078125,-0.14481412912607192,-0.008833258264325558,0.011489179600588977
1761505950536528400,2.8105283203125,-0.1497515855282545,-0.006368073727190495,0.012412030066549777
1761505950546564400,2.820564453125,-0.13987316559255122,-0.010448091316130012,0.002955525337345898
1761505950556600300,2.830600341796875,-0.14525953480601309,-0.0054453693917021154,0.007468618847616016
1761505950566636300,2.84063623046875,-0.14496552029550075,-0.007129322156962007,0.005023746446147561
1761505950576673300,2.85067333984375,-0.13479425489306449,-0.007418203834630549,0.00886716053392738
1761505950586709200,2.860709228515625,-0.13823942691087723,-0.007635097988322377,0.010718889347836375
1761505950596745200,2.8707451171875,-0.1481184313684702,-0.004888393096067011,0.009134396635368466
1761505950606781200,2.88078125,-0.1407809280872345,-0.009337444926798343,0.014577318341657519
1761505950616818400,2.890818359375,-0.13284955056607722,0.0004906330611556769,0.004780585340037942
1761505950626854400,2.9008544921875,-0.14512158764004707,-0.006703534492943436,0.009031082391366362
1761505950636890400,2.910890380859375,-0.1466179636776447,-0.00556010007886216,0.0071046809060499065
1761505950646926300,2.92092626953125,-0.13868015641570092,-0.0036361462789587674,0.011549056561663747
1761505950656963300,2.93096337890625,-0.13524082961678505,-0.01103575501097366,0.008882869559712708
1761505950666999300,2.940999267578125,-0.15140227534472941,-0.008970182516984641,0.00037796646691858765
1761505950677035300,2.95103515625,-0.1433288590043783,-0.011190087056159972,0.00416347635500133
1761505950687071200,2.9610712890625,-0.14721943670213222,-0.006378467257041484,0.004612937155552208
1761505950697107200,2.971107177734375,-0.1461748960852623,-0.012674060269910841,0.011582739635556935
1761505950707144200,2.981144287109375,-0.14273323119878767,-0.00783717816537246,0.011261471791937946
1761505950717180200,2.99118017578125,-0.13689678013026713,-0.009879077522829174,0.0029816826919093725
1761505950727216000,3.001216064453125,-0.13360650641322136,-0.0005573050891980528,0.010339498108811676
1761505950737252400,3.01125244140625,-0.1336035838037729,-0.013250270988978444,0.00813961344435811
1761505950747289300,3.021289306640625,-0.14198095152676105,-0.009791654967702925,0.004617174939252436
1761505950757325300,3.0313251953125,-0.14317980592250823,0.001729929065145552,0.01095284423418343
1761505950767361300,3.041361328125,-0.136149176633358,-0.009806322813872247,0.009388371396437287
1761505950777397500,3.0513974609375,-0.13973638747036457,-0.0009095525929704308,0.0070678194943815465
1761505950787434200,3.061434326171875,-0.13898586136400698,0.0057408086743205786,0.008899930292367934
1761505950797470200,3.07147021484375,-0.14123159446418285,0.0025364962076768276,0.009493804532289504
1761505950807506400,3.08150634765625,-0.15065291828215122,-0.004230531975533813,0.013076777585595846
1761505950817542400,3.09154248046875,-0.1534942791879177,-0.007956950353831052,0.011308781532384455
1761505950827579100,3.1015791015625,-0.135835872900486,-0.007915120506100356,-0.00012052110712975263
1761505950837615400,3.111615478515625,-0.15244155526459216,-0.007392411806248128,0.005777925814315676
1761505950847651300,3.1216513671875,-0.14316168574392796,-0.0019477365342900155,0.008964446895942092
1761505950857687300,3.131687255859375,-0.13612813384532926,0.001221121026482433,0.005727912660129368
1761505950867723500,3.1417236328125,-0.14016834914684295,-0.003788012372422963,0.004333827953226864
1761505950877760500,3.151760498046875,-0.14345803834199905,-0.007940766404010355,0.0014096476022154093
1761505950887796500,3.16179638671875,-0.1445055015683174,-0.00813435274735093,0.0036701033474877474
1761505950897832400,3.17183251953125,-0.15273264716565607,-0.006302716873399913,0.008813640248402952
1761505950907868400,3.181868408203125,-0.14509937580823898,-0.0061059521922841664,0.009331891968846321
1761505950917905400,3.191905517578125,-0.15228022722303866,-0.0009607347909361124,0.003260463100671768
1761505950927941400,3.20194140625,-0.15063362905979155,-0.0024556129911914464,0.011247297136113048
1761505950937977300,3.211977294921875,-0.13701777616143226,-0.002790763229690492,0.011755100527778267
1761505950948013300,3.222013427734375,-0.136716162866354,-0.00872296629026532,-0.0006792144358158111
1761505950958050300,3.23205029296875,-0.13641630313694475,-0.001496449102833867,0.00894398862980306
1761505950968086300,3.242086181640625,-0.14225275420546532,0.0050421223530545825,0.007641089337691664
1761505950978122200,3.252122314453125,-0.14449965634942055,-0.00200474568484351,-0.004695281676761805
1761505950988158500,3.262158447265625,-0.14465513917207717,-0.011268084195815027,0.006742934921570122
1761505950998195500,3.272195556640625,-0.13956687612235547,0.0024026041623204943,0.008198796285688877
1761505951008231400,3.2822314453125,-0.1437567290276289,-0.005838716090843081,0.009548238133266568
1761505951018267400,3.292267333984375,-0.1385194128960371,-0.005548099113814532,0.009253931361809372
1761505951028303400,3.302303466796875,-0.1386667124122381,-0.008015073749236762,0.011691899098455905
1761505951038339300,3.31233935546875,-0.14973346534967422,-0.0011684409911744296,0.006123085990175604
1761505951048376300,3.322376220703125,-0.14284955105483532,0.004719356672093272,0.009219115776754916
1761505951058412500,3.33241259765625,-0.13955810829401016,0.006950367127172648,0.01030563237182796
1761505951068448500,3.342448486328125,-0.14195464804172514,-0.0018838775178417562,0.012321867565065621
1761505951078484500,3.352484375,-0.14644436067640781,-0.00986702175885439,0.004189925970509648
1761505951088521700,3.362521728515625,-0.13237199618220327,0.0038934637745842333,0.011285948646068572
1761505951098557700,3.3725576171875,-0.15018004007339478,-0.003376180168520659,0.01068557160012424
1761505951108593700,3.38259375,-0.14449030399918555,0.0026181648754514753,0.009228979583643377
1761505951118629600,3.392629638671875,-0.13522037135064602,-0.0022765300972387194,0.013017083287611603
1761505951128666600,3.40266650390625,-0.14150690427422521,-0.007037680084444582,0.013047405360639095
1761505951138702600,3.41270263671875,-0.1428542272299528,-0.010982618317939341,0.008375248831138014
1761505951148738600,3.422738525390625,-0.14090835385918615,-0.012841251796670257,0.0038958749273791905
1761505951158774500,3.4327744140625,-0.14359715455174446,-0.003975041110813617,0.004580898049473763
1761505951168810500,3.442810546875,-0.14479600894749164,-0.004047741020843387,0.006672682696953415
1761505951178847500,3.452847412109375,-0.14105682241916656,-0.01157904984112829,0.013637516740895807
1761505951188883500,3.462883544921875,-0.14629296950697898,-0.011349040477536617,0.011176606520079076
1761505951198919400,3.47291943359375,-0.13985562993586062,-0.006729052526690066,-0.002069207489490509
1761505951208955600,3.48295556640625,-0.13342004393041132,-0.005932020397484302,0.012083455699309706
1761505951218992600,3.49299267578125,-0.14299451248347758,-0.0029092202438972888,0.008943111846968532
1761505951229028600,3.503028564453125,-0.14643793093562124,-0.01082896212618798,-0.0008951222088187932
1761505951239064600,3.513064697265625,-0.13985679897964,0.00018558569997549057,-0.00011493161655962466
1761505951249100800,3.523100830078125,-0.1400093591928482,-0.00944185514934361,0.010179923632927239
1761505951259136800,3.53313671875,-0.14330021743178367,-0.01160254031457007,0.007784589461609721
1761505951269173500,3.543173583984375,-0.14854162521660327,-0.004761095188278704,0.015474121050909161
1761505951279209700,3.553209716796875,-0.13702128329277038,-0.003499276825226843,0.0035270050823688506
1761505951289245700,3.56324560546875,-0.13388006265759467,-0.003010105068795383,0.0045199981750920415
1761505951299281700,3.57328173828125,-0.1457002643108368,-0.006446545790880918,0.009655022975988685
1761505951309318700,3.583318603515625,-0.14883505520522594,-0.0016269801473245023,0.002613762694969773
1761505951319354600,3.593354736328125,-0.14958382774591444,-0.003790989780798554,-0.00032382512688636776
1761505951329390600,3.603390625,-0.14329612577855586,-0.010754252922162413,0.005782200130634009
1761505951339426600,3.613426513671875,-0.1548188057899475,-0.004023994819074869,0.012232874107360838
1761505951349462500,3.623462646484375,-0.14658698401749135,-0.005415924101509153,0.0024823183350265025
1761505951359499800,3.633499755859375,-0.13970131615698336,-0.009631733431946485,0.003177460992336273
1761505951369535700,3.64353564453125,-0.1488280409425497,-0.004707995027862489,0.004343801357969641
1761505951379571700,3.65357177734375,-0.1405927120387554,-0.004620535940118134,0.0021290844505652785
1761505951389607700,3.663607666015625,-0.15420739589333532,-0.012771839822269976,0.006952047627605497
1761505951399643600,3.6736435546875,-0.14688099852800368,-0.004821428807079792,0.012701989456452428
1761505951409680600,3.6836806640625,-0.14702595995664597,-0.005816759987361729,0.004617321069724858
1761505951419716600,3.693716552734375,-0.14821721556782722,-0.004073514782916754,0.008348945346102117
1761505951429752600,3.703752685546875,-0.14731763637959958,0.006610906039737165,0.015001973494514821
1761505951439788500,3.71378857421875,-0.1495610313922167,-0.005064589913189411,0.009586305121332406
1761505951449825500,3.723825439453125,-0.14716156903505326,-0.009254132291208953,0.016459624956920743
1761505951459861500,3.733861572265625,-0.1338444068223238,-0.013238123893458395,0.010016805493086575
1761505951469897500,3.7438974609375,-0.1447714590281248,-0.01581354560572654,0.01034925231784582
1761505951479933400,3.753933349609375,-0.14971476064920425,-0.011505655811354517,0.0067740241795778275
1761505951489969400,3.763969482421875,-0.13714870906472204,-0.006447787899896502,0.003910305311530828
1761505951500006700,3.774006591796875,-0.14552841487526894,-0.00867178409229964,0.0074039926461875434
1761505951510042600,3.784042724609375,-0.1494154854416847,-0.014533570531476287,0.006864004017971456
1761505951520078600,3.79407861328125,-0.14118249462544918,-0.0037869163938798007,0.0018592910658568143
1761505951530114600,3.804114501953125,-0.14866963551044463,-0.0026348420156165958,0.00928443609792739
1761505951540151600,3.814151611328125,-0.14717384399473665,-0.001327650140877813,0.0016027590215206145
1761505951550187500,3.8241875,-0.13415654151141643,-0.0020435433252714574,0.002971417026221752
1761505951560223500,3.834223388671875,-0.13565584015846252,-0.01238315103193745,-0.00009052782766520976
1761505951570259500,3.844259521484375,-0.13984744662940501,-0.00558649489544332,0.004124422986246645
1761505951580295700,3.854295654296875,-0.14313947391211987,-0.003503953000344336,0.00957107101958245
1761505951590332400,3.86433251953125,-0.14104104032814502,-0.005833528459072113,0.014382343758828938
1761505951600368400,3.874368408203125,-0.13386018891334533,-0.004449965146183967,0.0076778411515057085
1761505951610404600,3.884404541015625,-0.14239128589332103,0.001622596233151853,0.0097658264067024
1761505951620440800,3.89444091796875,-0.14613339503109454,-0.0102846443827264,0.004074409832060337
1761505951630476800,3.904476806640625,-0.15017244128882884,0.0001704977286979556,0.009897161168791354
1761505951640513500,3.914513427734375,-0.15376725091040133,-0.005091039528697729,0.009708470196276903
1761505951650549800,3.9245498046875,-0.1473340029925108,-0.013036445575207471,0.011106865752115846
1761505951660585700,3.934585693359375,-0.14104805459082126,-0.004783690612576902,0.0022241788554936645
1761505951670621700,3.94462158203125,-0.14254209254086017,0.00008059095554053783,0.012133870712295174
1761505951680658700,3.95465869140625,-0.1486795723825693,-0.0032042576677165924,0.011005122410692274
1761505951690694700,3.964694580078125,-0.15017594842016696,-0.00938771380931139,0.0019643588755279776
1761505951700730600,3.974730712890625,-0.14269699084162712,-0.005938413605652749,0.0006946312006562948
1761505951710766600,3.9847666015625,-0.14613865572810172,-0.0019467501536011695,0.0004237053047865629
1761505951720802600,3.994802490234375,-0.14868191047012805,0.004734371578134596,0.0003587503097951412
1761505951730839600,4.004839599609375,-0.14225392324924468,0.006191986507922411,0.004224997283890843
1761505951740874500,4.01487451171875,-0.13986322872042656,-0.003252572055160999,0.005827756305411457
1761505951750910500,4.024910400390625,-0.14181144017875194,-0.010935637371055781,0.004310702805966139
1761505951760947700,4.03494775390625,-0.14002338771820066,-0.006350465005263686,0.009856865691021083
1761505951770983700,4.044983642578125,-0.13658406091928482,-0.006960523195005953,0.0007330269822850823
1761505951781019600,4.05501953125,-0.13732698824107645,-0.0035644875485450027,0.0002937222495675087
1761505951791055600,4.0650556640625,-0.1389718328386545,0.004584807039611042,0.013481924320384859
1761505951801091600,4.075091552734375,-0.14660510419607162,-0.006962605554237961,0.015191760445572435
1761505951811128600,4.085128662109375,-0.14870412230193614,-0.007684855414181947,0.011704100992903112
1761505951821164500,4.09516455078125,-0.14720949983000756,-0.005852287958469242,0.007389964120835066
1761505951831200500,4.105200439453125,-0.1439180570691824,-0.0012880670491605996,0.0038660277783870694
1761505951841236500,4.115236572265625,-0.15694412738084793,0.00173639533855021,0.006616495530307293
1761505951851273500,4.1252734375,-0.14646774155199527,-0.003916406258754432,0.004901983230002224
1761505951861309400,4.135309326171875,-0.1391378370553255,-0.009174345053266733,0.003544467673823237
1761505951871345400,4.145345458984375,-0.13509586818814276,0.0024429361727088686,0.010414389975927769
1761505951881381600,4.155381591796875,-0.13809154287278652,-0.0039268911201506855,0.0070231035698205225
1761505951891417600,4.16541748046875,-0.14512567929327488,-0.0020985979807563123,0.008676533332653343
1761505951901454600,4.17545458984375,-0.14363222586512564,-0.008153294909838587,0.016507665349729358
1761505951911490600,4.185490478515625,-0.14079144948124886,-0.015037081340514123,0.004066957177966833
1761505951921526800,4.19552685546875,-0.13824527212977408,-0.00805887635834515,0.004179185380786657
1761505951931562800,4.205562744140625,-0.13510522053837776,-0.008905830310191959,0.01707476118057966
1761505951941598700,4.2155986328125,-0.1427367383301258,-0.01645279335733503,0.021014730978012083
1761505951951635700,4.2256357421875,-0.14004676859378815,-0.008496573655866086,0.007537665495835244
1761505951961671700,4.235671630859375,-0.14049217427372931,-0.012118380882218479,0.007310797937400639
1761505951971707600,4.245707763671875,-0.14483634095788,-0.0003841770119965076,0.0026162834456190465
1761505951981743600,4.25574365234375,-0.1316653092175722,-0.009797792447544633,0.009264598886296152
1761505951991779600,4.265779541015625,-0.13989479290246962,-0.0131041405165568,0.006411693673208356
1761505952001816600,4.275816650390625,-0.13166647826135158,-0.0032666371131315824,0.012830511206947266
1761505952011852500,4.2858525390625,-0.1434825882613659,-0.0016992233996279537,0.008538403503596782
1761505952021888500,4.295888427734375,-0.14153613036870955,-0.0025273995857685804,0.005255034451372921
1761505952031924500,4.305924560546875,-0.14078151260912417,-0.0007002937564626336,0.008485431207343935
1761505952041960700,4.315960693359375,-0.13614099332690238,-0.0073694693220779295,0.009821355986222625
1761505952051997700,4.325997802734375,-0.13150398117601872,-0.0019940781603567303,-0.00029551234785467383
1761505952062033700,4.33603369140625,-0.1386848325908184,-0.0036227936070412393,0.006228226865082979
1761505952072069600,4.346069580078125,-0.14241992746591567,0.0032929040655493734,0.002145889454893768
1761505952082105600,4.356105712890625,-0.13508300870656967,-0.0014318594340234994,0.00780227124877274
1761505952092141600,4.3661416015625,-0.13807283817231655,0.0014488105688244103,0.008898395922407508
1761505952102178600,4.376178466796875,-0.13717033637464046,-0.0008524886434897779,0.002797192970477044
1761505952112214500,4.386214599609375,-0.1413596047580242,-0.007398494487162679,0.008984612901136278
1761505952122250500,4.39625048828125,-0.14523966106176375,-0.006458418891765177,0.013590499261394143
1761505952132286500,4.406286376953125,-0.13252221830785274,0.005379702010657638,0.009597009178437293
1761505952142322400,4.416322509765625,-0.12653788320124149,0.004958206929266453,0.00945792950130999
1761505952152359700,4.426359619140625,-0.13926000213026998,-0.006813004483096301,-0.0015505539102479815
1761505952162395600,4.436395751953125,-0.14479250181615352,0.0014993351796641944,0.0003075315792113542
1761505952172431600,4.446431640625,-0.1413461607545614,-0.007982230925559997,0.012375168654881417
1761505952182467600,4.456467529296875,-0.15091829122006892,-0.0046388387817889445,0.005178498616442084
1761505952192503800,4.46650390625,-0.1435907248109579,0.009504216328449546,0.0013836363781243562
1761505952202540500,4.47654052734375,-0.14104454745948314,-0.0035940059039741754,-0.0013273761462420225
1761505952212576500,4.486576416015625,-0.13939794929623603,0.00014128990052267909,0.00867934634424746
1761505952222612700,4.49661279296875,-0.14792027844786643,-0.003853387492522597,0.0028987901814281937
1761505952232648700,4.506648681640625,-0.13580080158710478,-0.008698069311026483,0.0034907281925901767
1761505952242684700,4.5166845703125,-0.13550269542336463,-0.008784103626664727,0.005566548085957765
1761505952252721700,4.5267216796875,-0.14762158776223658,-0.0007948584384284913,-0.004891206107661128
1761505952262757600,4.536757568359375,-0.1476169115871191,-0.015089268185477702,0.005842880809307098
1761505952272793600,4.546793701171875,-0.14641688814759254,-0.001878616820834577,0.00886723359916359
1761505952282829800,4.556829833984375,-0.1380313371181488,0.0005318235880695284,0.005777049031481146
1761505952292865800,4.56686572265625,-0.1395253750681877,-0.004070866168104112,0.0032982378277927635
1761505952302902800,4.57690283203125,-0.14192074577212332,0.001728065901622176,0.004110577123984694
1761505952312938800,4.586938720703125,-0.1449099907159805,-0.0010871741821989417,-0.0003504939381033182
1761505952322974700,4.596974609375,-0.13683072915673256,0.0017188962144777178,-0.00008859159890562295
1761505952333010700,4.6070107421875,-0.13534078285992146,-0.000670099547598511,0.003611030104011297
1761505952343046700,4.617046630859375,-0.141481185311079,0.0041480961227789515,0.0025533377446234225
1761505952353083600,4.627083740234375,-0.1459732360333204,-0.003717942810896784,0.011128383464179933
1761505952363119600,4.63711962890625,-0.13445114054381846,-0.007694335628580302,0.002653327520377934
1761505952373155600,4.647155517578125,-0.13774667495787143,-0.00384564257748425,0.0005388926496729254
1761505952383191600,4.657191650390625,-0.1450759949326515,0.0006649667147547006,0.00012242080327123402
1761505952393227500,4.6672275390625,-0.14118833984434603,0.0011978680150583386,0.004814231881313026
1761505952403264800,4.6772646484375,-0.14044424347877502,-0.008028006296046077,-0.000489938941411674
1761505952413300700,4.68730078125,-0.13131634964942931,-0.006465615817531943,0.002914864533394575
1761505952423336700,4.697336669921875,-0.1419394504725933,-0.009709584441129118,0.0059890478143468494
1761505952433372700,4.70737255859375,-0.14134499171078205,-0.007078724480886012,0.007259396543726325
1761505952443408600,4.71740869140625,-0.14014496827125547,-0.012292385742254554,0.00775919929202646
1761505952453445600,4.727445556640625,-0.13700199407041072,0.004099982664734125,0.005533303403481841
1761505952463481600,4.737481689453125,-0.13670564147233963,0.004290482001844793,0.007091419565677643
1761505952473517600,4.747517578125,-0.1340145026922226,-0.0005786218718625605,0.0008492737730965017
1761505952483553500,4.757553466796875,-0.15271920316219328,-0.004324786130245775,0.004965440387651324
1761505952493589800,4.76758984375,-0.1435907248109579,-0.0007173544891178607,0.008534384915605186
1761505952503626500,4.77762646484375,-0.1390986740887165,-0.0008065306099131703,0.004014715534076094
1761505952513662500,4.787662353515625,-0.14148819957375525,-0.01165547607820481,0.0025781799249351024
1761505952523698700,4.79769873046875,-0.14493161802589893,-0.006115304542519152,0.005520224726200103
1761505952533734700,4.807734619140625,-0.14717442851662635,-0.0070121437843888995,0.011152275796420872
1761505952543770600,4.8177705078125,-0.12532909193336964,-0.0018470891714096069,0.004134944380261004
1761505952553807600,4.8278076171875,-0.13730010023415087,-0.014983195728808641,0.00889773833528161
1761505952563843800,4.83784375,-0.13655015864968298,-0.009727704619709402,0.0025573563326150178
1761505952573879800,4.8478798828125,-0.14417875383198261,-0.0013146262625232338,-0.0012901859410107135
1761505952583915800,4.857915771484375,-0.14103227249979972,-0.0025797142948955297,0.004961275669187307
1761505952593951700,4.86795166015625,-0.1262239949464798,-0.0016604440255090593,0.0016968670457601547
1761505952603988700,4.87798876953125,-0.13446166193783282,0.0004805135259404778,-0.0007953881613910198
1761505952614024700,4.888024658203125,-0.13985562993586062,-0.006331997766811401,0.00011204553972929716
1761505952624060700,4.898060791015625,-0.13970716137588024,-0.005401676380448043,0.007009696098975837
1761505952634096600,4.9080966796875,-0.1522743820041418,0.00013129822947084902,0.009493548803962767
1761505952644132600,4.918132568359375,-0.14554127435684203,-0.009151018976606428,0.005911781327053904
1761505952654169600,4.928169677734375,-0.136716162866354,-0.001113167139980942,0.0035029300870373843
1761505952664205600,4.93820556640625,-0.1266933660238981,0.001374338826816529,0.005022248608805239
1761505952674241500,4.948241455078125,-0.1425537829786539,0.0037314233469776807,0.0056725292110815645
1761505952684277500,4.958277587890625,-0.14554828861951827,-0.0043705432344228025,0.004541808148100972
1761505952694313500,4.9683134765625,-0.14764613768160342,-0.006239113585278392,0.008179433998093009
1761505952704350700,4.978350830078125,-0.13013853804171086,-0.005257628267258405,0.009712415719032287
1761505952714386700,4.98838671875,-0.1421095463424921,-0.004446366683300585,0.010520444166287779
1761505952724422700,4.998422607421875,-0.1415080733180046,-0.001161956451460719,0.006037161272391676
1761505952734458600,5.008458740234375,-0.14180617948174476,0.0045953284336253996,0.01307348964996636
1761505952744494600,5.01849462890625,-0.13447101428806782,-0.005965192014724016,0.009809007961302995
1761505952754531600,5.028531494140625,-0.1340221014767885,-0.0039050263482145963,0.011091850846074522
1761505952764567600,5.038567626953125,-0.1305804365903139,-0.006711626467853784,0.01150850535556674
1761505952774603500,5.048603515625,-0.15048165336847305,-0.0023686653601005673,0.009103818834014236
1761505952784639500,5.058639404296875,-0.14135375953912735,0.0035235527499578893,-0.0005153291109949351
1761505952794675700,5.06867578125,-0.1349246032744646,0.00042774215908721085,0.007103292666561901
1761505952804712400,5.07871240234375,-0.14600187760591507,-0.0005940934356302022,0.004572860873490571
1761505952814748400,5.08874853515625,-0.1455459505319595,0.0025273082542233167,0.0031846944507211445
1761505952824784600,5.09878466796875,-0.13612053506076335,-0.004726772793568671,0.003482216092571616
1761505952834820900,5.10882080078125,-0.1389683257073164,-0.0036502296032384037,-0.0005837181720882654
1761505952844856800,5.11885693359375,-0.14106091407239435,-0.011691899098455905,0.0018707988405600188
1761505952854893600,5.1288935546875,-0.13507657896578312,-0.007906864134408532,0.0065222048429772255
1761505952864929800,5.1389296875,-0.1412152278512716,-0.000925243352446705,0.0031262787943705916
1761505952874965800,5.1489658203125,-0.12834464036226273,-0.010213058717548847,0.0044137247890233995
1761505952885001700,5.159001708984375,-0.13522621656954287,0.00582311666291207,0.0022521628409624098
1761505952895037700,5.16903759765625,-0.1440530816257,-0.004455134511645883,0.005707783187553286
1761505952905073700,5.17907373046875,-0.1274438921302557,0.0000032148703932762145,0.007849507923983036
1761505952915110700,5.189110595703125,-0.135229723700881,0.0019479922626167534,0.006691314332187176
1761505952925146600,5.199146728515625,-0.14779694432914256,0.0045729339387267825,0.004631641856022179
1761505952935182600,5.2091826171875,-0.1460048002153635,-0.0041614487946964795,-0.003404182420298457
1761505952945218600,5.219218505859375,-0.13613397906422614,-0.010364230691269039,0.004489858765155077
1761505952955254500,5.229254638671875,-0.13972761964201927,0.001266750266496092,0.004137866989709436
1761505952965291800,5.239291748046875,-0.1404804838359356,-0.00627137188706547,0.005209295613504946
1761505952975327700,5.24932763671875,-0.14377660277187823,-0.0007253551324829458,0.003381459131836891
1761505952985363700,5.25936376953125,-0.14198445865809917,-0.005710760595928877,0.005215944550000131
1761505952995399700,5.269399658203125,-0.14347615852057932,-0.0012507672460749745,0.005184526498429477
1761505953005435600,5.279435546875,-0.13629530710577964,0.0008498948276042938,-0.0020994564972817895
1761505953015472600,5.28947265625,-0.13748773176074028,0.005212437418662012,0.005369089285098016
1761505953025508600,5.299508544921875,-0.1404758076608181,0.004479446968995034,0.008219254551827907
1761505953035544600,5.309544677734375,-0.14272037171721458,-0.00445464132130146,0.003550933947227895
1761505953045580500,5.31958056640625,-0.12895195860564707,0.0028354243553243576,0.0058423328200355165
1761505953055616500,5.329616455078125,-0.12985212231576443,0.005747366279270499,0.011994644904695451
1761505953065654000,5.339654052734375,-0.14796002593636512,-0.003072740242537111,0.005169621190242469
1761505953075690000,5.34968994140625,-0.14646131181120872,-0.0025085122222080827,0.002562507431767881
1761505953085726200,5.359726318359375,-0.14466039986908436,0.000985211645066738,-0.0006756342392414808
1761505953095762200,5.36976220703125,-0.13972002085745333,-0.007649254377838224,0.004915902157500386
1761505953105798100,5.379798095703125,-0.13942016112804412,-0.004206913637928664,0.003704334410652518
1761505953115834000,5.389834228515625,-0.13717793515920637,0.0003321180311962962,0.013011895655840634
1761505953125871000,5.39987109375,-0.13463058876395226,-0.0005493044458329677,0.007372209268435835
1761505953135907000,5.409906982421875,-0.13492752588391302,-0.011525145963113754,0.0026968013359233737
1761505953145943000,5.419943115234375,-0.14629939924776553,-0.009863258899189532,0.0010253975249826907
1761505953155979300,5.429979248046875,-0.1465934137582779,-0.003020188071392476,0.0038852804681286214
1761505953166015200,5.44001513671875,-0.13687515282034873,-0.0031964944863691926,0.00015515402909368274
1761505953176052000,5.450052001953125,-0.13419161282479763,-0.007265972414985299,-0.0017079364290460944
1761505953186088200,5.460088134765625,-0.14092588951587676,-0.005459836308471858,0.005033317992091179
1761505953196124200,5.470124267578125,-0.1488625277340412,0.000763714381493628,0.007101356437802314
1761505953206160100,5.48016015625,-0.1332984633773565,0.007823314036801457,0.0055323535554111
1761505953216196000,5.490196044921875,-0.14003741624355315,-0.005484020901657641,0.0027488968493416905
1761505953226233300,5.5002333984375,-0.14377718729376793,-0.0013826499974355102,0.0038744302805513143
1761505953236269300,5.510269287109375,-0.14303133736252785,0.0049158108259551225,0.006938822819851339
1761505953246305300,5.52030517578125,-0.1360007080733776,-0.0015538966448046267,0.006046878948807716
1761505953256341200,5.53034130859375,-0.13166297113001346,0.0019081351762637495,-0.002893675614893436
1761505953266377200,5.540377197265625,-0.13689678013026713,-0.002502776601165533,0.014240341472253202
1761505953276414200,5.550414306640625,-0.15111469057500362,-0.004418674958776682,0.01399769182279706
1761505953286450200,5.5604501953125,-0.1371983934253454,-0.003241630536038428,0.004735504089295864
1761505953296486100,5.570486083984375,-0.13644845184087753,0.0014284253679215906,0.0070576634265482425
1761505953306522000,5.580522216796875,-0.13704407964646814,-0.003213518686406314,0.0092217095926404
1761505953316558000,5.59055810546875,-0.1446674141317606,0.0008516849258914589,0.004099763469025492
1761505953326594000,5.600593994140625,-0.1331470722079277,-0.0023845387826673687,-0.0012517170941457152
1761505953336631000,5.610631103515625,-0.13897826257944107,-0.009831055396329611,0.0009144844964146614
1761505953346667000,5.6206669921875,-0.13598200337290764,0.0019330138891935347,0.0001606704544275999
1761505953356703000,5.630702880859375,-0.14331892213225364,0.00706676004845649,0.00909000950437039
1761505953366739000,5.640739013671875,-0.1439221487224102,-0.00658745209891349,0.00453545147255063
1761505953376775000,5.65077490234375,-0.1418295603573322,0.002244819784723222,-0.00019815292060375213
1761505953386812200,5.660812255859375,-0.13179916473031042,0.002570690738223493,0.0023527006059885025
1761505953396848000,5.67084814453125,-0.14151801019012927,-0.000008987024053931236,0.0015335662428289651
1761505953406884000,5.680884033203125,-0.1494464651018381,-0.0028226379389874635,0.005789652784727513
1761505953416920000,5.690920166015625,-0.14540449623465537,-0.004387238640896976,0.007186806231550872
1761505953426956300,5.700956298828125,-0.14225976846814153,-0.01017385921832174,0.008577383807115256
1761505953436992300,5.7109921875,-0.14211305347383021,-0.00018752192873507738,0.002465330667607486
1761505953447029000,5.721029052734375,-0.1497393105685711,0.0017679047216661273,0.005602203921228647
1761505953457065200,5.731065185546875,-0.141207044544816,0.008201298770029097,0.005210464657284319
1761505953467101200,5.74110107421875,-0.13537410060763358,0.0008879252830520272,0.0040005774108693
1761505953477137200,5.75113720703125,-0.1383668526828289,-0.006652991615794599,0.004703282320126891
1761505953487173000,5.761173095703125,-0.15363222635388374,0.003401807800121605,0.000854169143922627
1761505953497210000,5.771210205078125,-0.14315817861258984,0.008021503490023315,0.004921418582834303
1761505953507246300,5.781246337890625,-0.1329810679912567,-0.005735091319587081,0.0029215134698897596
1761505953517282300,5.7912822265625,-0.1400093591928482,-0.0186317813642323,-0.0016847747491672634
1761505953527318300,5.801318359375,-0.14465455465018748,-0.005659706262126565,0.004581044179946184
1761505953537354200,5.811354248046875,-0.13867197310924528,0.002735617242660373,0.0021079685973003507
1761505953547390200,5.82139013671875,-0.14301029457449912,0.0015219123376533387,0.003726619307696819
1761505953557427200,5.83142724609375,-0.14046937792003153,0.008707147666625678,0.003967223130539059
1761505953567463200,5.841463134765625,-0.14765432098805903,0.0025016806226223704,-0.00005381254646927118
1761505953577499100,5.8514990234375,-0.14465981534719466,-0.003960464596189558,0.005301321278512477
1761505953587535000,5.86153515625,-0.14689970322847365,0.007493515826854855,0.007001731988228857
1761505953597571000,5.871571044921875,-0.13522797013521193,0.006187237267568707,-0.004009637500159442
1761505953607608000,5.881608154296875,-0.13657470856904982,-0.0008339666061103343,0.009003025340661407
1761505953617644000,5.89164404296875,-0.14226093751192093,-0.006333294674754142,0.006427475764229893
1761505953627680000,5.901679931640625,-0.14211246895194052,-0.008556706345267593,0.00001987374424934387
1761505953637716000,5.911716064453125,-0.14899872133433817,0.006255882056988776,-0.0006418415674939751
1761505953647752000,5.921751953125,-0.1389724173605442,-0.0004699190666899085,0.0033836510889232157
1761505953657788200,5.9317880859375,-0.14809797310233117,0.004831840603239834,0.009713438632339238
1761505953667825200,5.9418251953125,-0.13867314215302468,-0.0004754354920238256,0.0023884660391137002
1761505953677861000,5.951861083984375,-0.13628244762420655,-0.0016159838292747735,-0.0011279811166226862
1761505953687897000,5.96189697265625,-0.136432669749856,0.0006607654636725783,0.0044172319203615185
1761505953697933300,5.971933349609375,-0.12730594496428965,0.004353701697476208,-0.0011574994720518587
1761505953707969300,5.98196923828125,-0.14032675457894803,0.00034654841534793374,-0.0006529109507799148
1761505953718005200,5.992005126953125,-0.14002338771820066,0.0029956016194075345,-0.0034465602573007345
1761505953728042200,6.002042236328125,-0.13986848941743374,-0.0051998336654156445,0.002447393152117729
1761505953738078200,6.012078125,-0.14958967296481132,-0.004106375872902572,0.01163724630177021
1761505953748114200,6.0221142578125,-0.1494376972734928,-0.0014754793800413608,-0.004354103556275368
1761505953758150100,6.032150146484375,-0.13836860624849795,-0.006805844089947641,0.00921692381966859
1761505953768186000,6.04218603515625,-0.13222878831923007,-0.006536562161892652,0.010967457281425595
1761505953778223000,6.05222314453125,-0.13148469195365906,-0.001738185436837375,0.012734832280129194
1761505953788259000,6.062259033203125,-0.12789163589775562,0.0020915106528438627,0.0017321940874680875
1761505953798295300,6.07229541015625,-0.13163316051363944,0.0037105632220394906,0.0010276625473052262
1761505953808331300,6.082331298828125,-0.135073071834445,-0.0014289916235022246,-0.0060263841500505805
1761505953818367200,6.0923671875,-0.1419564016073942,-0.00029551234785467383,-0.002042757873982191
1761505953828403200,6.1024033203125,-0.15019348407685756,-0.00014271467262879013,0.0008507716104388237
1761505953838440200,6.112440185546875,-0.13148995265066624,0.0011119798298925162,0.006836933347955346
1761505953848476200,6.12247607421875,-0.14780746572315692,0.0007150529341772198,0.0044764512943103905
1761505953858512100,6.13251220703125,-0.1383849728614092,0.0062411959445104,0.008223419270291923
1761505953868548000,6.142548095703125,-0.13179741116464136,-0.004286372082307935,0.0011141717869788408
1761505953878584000,6.152583984375,-0.13044716559946537,-0.008418320787884294,-0.0020255875434726477
1761505953888621000,6.16262109375,-0.1388286249756813,0.0017013422914780676,0.007253551324829459
1761505953898657000,6.172656982421875,-0.1350900229692459,-0.009221234668605029,0.000950944049283862
1761505953908693000,6.18269287109375,-0.1436298877775669,-0.005418152591213584,0.005415741438418627
1761505953918729000,6.19272900390625,-0.14213643434941767,-0.010338274266105145,0.00967496978547424
1761505953928765200,6.20276513671875,-0.1445318050533533,-0.0032330271044746037,-0.0009583601707592606
1761505953938801200,6.21280126953125,-0.15470307045578954,0.0033225320188328624,0.0005882482167333364
1761505953948838100,6.222838134765625,-0.14318623566329478,-0.00028696371521800754,0.0022532953521236776
1761505953958874000,6.2328740234375,-0.13705050938725472,0.0029956564183346926,0.0013516703372821212
1761505953968910300,6.242910400390625,-0.1403401985824108,-0.0005824577967636287,0.0018688991444185375
1761505953978946300,6.2529462890625,-0.140345459279418,0.0007733224600553512,0.00028199527915567156
1761505953988982300,6.262982177734375,-0.1312175654500723,0.0010862973993644117,-0.0016180296558886765
1761505953999018200,6.273018310546875,-0.13869652302861213,-0.0011090937530621886,0.004336677497439086
1761505954009055200,6.28305517578125,-0.1343529408663511,-0.0004995835525915027,0.011340236116573215
1761505954019091200,6.29309130859375,-0.12641630264818668,0.007672982313297688,0.004914733113721013
1761505954029127200,6.303127197265625,-0.13344517837166786,-0.0008728190454654395,0.0021146905990317463
1761505954039163100,6.3131630859375,-0.13778116174936295,-0.00583911794964224,0.003722344991378486
1761505954049199000,6.32319921875,-0.1445142693966627,-0.0002931011950597167,-0.002290522089973092
1761505954059235000,6.333235107421875,-0.1409241359502077,0.004247172583080828,0.004149630492739379
1761505954069272000,6.34327197265625,-0.14825579401254654,0.004736746198311448,0.006868278334289789
1761505954079308000,6.35330810546875,-0.1416734930127859,-0.0012807970581576228,0.0011535539492964744
1761505954089344300,6.36334423828125,-0.13598960215747355,0.003998184524383395,0.00480217611733824
1761505954099380200,6.373380126953125,-0.1440706172823906,-0.006415748793818056,0.007316789286769926
1761505954109416200,6.383416259765625,-0.14946049362719058,0.003286291661672294,0.0053261634588241576
1761505954119452200,6.3934521484375,-0.15350421606004236,0.007921440649032592,0.0039915903868153685
1761505954129489200,6.4034892578125,-0.1404798993140459,0.004118212441168725,0.004517550489678978
1761505954139525000,6.413525146484375,-0.13943126704394818,-0.0014179405065253376,-0.003292063815332949
1761505954149561000,6.42356103515625,-0.1419733527421951,-0.004169376372825354,0.008361366436257957
1761505954159597000,6.43359716796875,-0.1482616392314434,-0.006162248956784606,0.0030084245683625337
1761505954169633000,6.443633056640625,-0.1451204185962677,0.001844970279559493,0.005239508088678122
1761505954179669200,6.453669189453125,-0.13344576289355753,-0.00636102293189615,-0.001291829908825457
1761505954189706000,6.4637060546875,-0.14018003958463668,-0.0012219064777716994,0.002731982247158885
1761505954199742000,6.473741943359375,-0.13673779017627238,0.0034457017407752573,0.005999788404069841
1761505954209778200,6.483778076171875,-0.15289397520720957,0.007308861708641052,0.00038344635963439937
1761505954219814100,6.493814208984375,-0.13523556891977787,0.001914564917050302,0.0011653905175626278
1761505954229850000,6.50385009765625,-0.13777122487723825,-0.002289754904992878,-0.001249232876114547
1761505954239886000,6.513885986328125,-0.14046996244192123,-0.003911273425910622,0.0017245587702840565
1761505954249923300,6.52392333984375,-0.13568039007782937,0.0061777570531703525,0.002639408592879772
1761505954259959300,6.533959228515625,-0.15244155526459216,0.009116130326315761,0.002428067397139966
1761505954269995300,6.543995361328125,-0.1475040988624096,0.00519460950102657,0.005160013111680746
1761505954280031200,6.55403125,-0.15198621271252633,0.00013929887283593417,0.00666150371581316
1761505954290067200,6.564067138671875,-0.14225626133680344,-0.00041636224854737515,-0.0062429129775613545
1761505954300103200,6.574103271484375,-0.13357611127495764,-0.00029300986351445314,0.0027178075913339853
1761505954310140200,6.58414013671875,-0.14045476487278938,0.0026444135615602132,0.00007277297526597976
1761505954320176000,6.594176025390625,-0.14030220465958118,-0.007772405833471566,0.006083192371204495
1761505954330212000,6.604212158203125,-0.13042261568009852,-0.008171360289491713,0.011026640122756361
1761505954340248000,6.614248046875,-0.13476970497369767,-0.004493877353146672,0.007170256955549121
1761505954350284000,6.624283935546875,-0.1429980196148157,-0.0007074358833022415,-0.0005407923458144068
1761505954360320000,6.634320068359375,-0.1420955178171396,0.0015389365376904606,-0.001886434801109135
1761505954370357000,6.64435693359375,-0.14014789088070392,-0.00155574154201895,-0.0021421265952289103
1761505954380393000,6.65439306640625,-0.12907178559303284,0.009223755419254303,-0.00027523674480617045
1761505954390429200,6.66442919921875,-0.13625263700783252,0.008151267349533736,0.002077646524272859
1761505954400465200,6.674465087890625,-0.13759762187600136,0.007826163581013679,0.009967997915297747
1761505954410501000,6.684501220703125,-0.14089666342139243,-0.0025970672884956,0.0017715397171676158
1761505954420537300,6.694537353515625,-0.1503273395895958,0.0012744038499891757,-0.001651895392872393
1761505954430574000,6.704573974609375,-0.13132336391210556,-0.006974113328941166,0.002398841302655637
1761505954440610000,6.714610107421875,-0.13625614413917064,-0.0072745575802400705,0.004785261515155435
1761505954450646300,6.724646240234375,-0.13954817142188547,0.007351184746716171,-0.00042414369620382786
1761505954460682200,6.73468212890625,-0.13939853381812572,0.002254756656847894,0.00646364305615425
1761505954470718200,6.74471826171875,-0.13565759372413158,0.004671498942375183,0.007054558154009283
1761505954480754200,6.754754150390625,-0.14254326158463954,-0.0007368263745680451,0.0014484452426433562
1761505954490791200,6.764791259765625,-0.1498819339096546,0.008804397496022284,0.0018059899760410189
1761505954500827100,6.7748271484375,-0.14345628477633,0.004508088541589677,0.001299099899828434
1761505954510863000,6.784863037109375,-0.14585107095837593,0.007419372878409922,0.0011254968985915184
1761505954520899000,6.794899169921875,-0.14420681088268755,0.0012769246006384492,0.0034856501586735247
1761505954530935000,6.80493505859375,-0.1364274090528488,0.0028042802983894942,-0.00320248583573848
1761505954540971000,6.814970947265625,-0.1329857441663742,0.0021274039501324293,0.0013807137686759233
1761505954551008300,6.82500830078125,-0.1392734461337328,-0.008628931331261991,0.00850011731982231
1761505954561044200,6.835044189453125,-0.1425619662851095,0.004190035568363964,0.00004077040180563926
1761505954571080200,6.845080078125,-0.15004267742931843,-0.0005070362066850066,-0.0028040611026808617
1761505954581116200,6.8551162109375,-0.13507833253145218,0.009493293075636029,-0.0011516907857730984
1761505954591152000,6.865152099609375,-0.14016367297172547,-0.007704400364868342,0.002205401089787483
1761505954601188000,6.87518798828125,-0.1388204416692257,-0.0004724580836482346,0.0049734775636345145
1761505954611225000,6.88522509765625,-0.14180851756930352,-0.0006603270722553133,0.006660517335124313
1761505954621261000,6.895260986328125,-0.1415121649712324,0.003797346456348896,-0.0020752719040960073
1761505954631297000,6.905297119140625,-0.13866963502168655,0.00857166645238176,0.0019042261861264705
1761505954641333000,6.9153330078125,-0.15018822337985038,0.011808346818666904,0.010668693530559539
1761505954651369200,6.925369140625,-0.1373205585002899,0.005855849888734519,-0.00294460208453238
1761505954661405200,6.9354052734375,-0.13881810358166694,-0.0032952056204900142,0.0030947511449456212
1761505954671441200,6.945441162109375,-0.1455558874040842,0.004019921432156116,0.0037401363763958214
1761505954681478100,6.95547802734375,-0.14241174415946006,-0.001344656074605882,-0.00006838906109333039
1761505954691514400,6.965514404296875,-0.13927403065562247,0.004553863912075758,0.005175429876521229
1761505954701550300,6.97555029296875,-0.15079904875457287,0.0056203788987360895,0.0070474708260968326
1761505954711586300,6.98558642578125,-0.14002104963064194,-0.0018731186618097125,0.006641374243237077
1761505954721622300,6.995622314453125,-0.1344751059412956,-0.009947356986068188,-0.0006833791542798281
1761505954731658200,7.005658203125,-0.13162848433852195,-0.0028226927379146217,0.003583046118542552
1761505954741695200,7.0156953125,-0.13477087401747703,0.004559672598354519,0.0026532909877598283
1761505954751731200,7.025731201171875,-0.13177636837661266,0.002762779244221747,0.0012525573443621396
1761505954761767200,7.03576708984375,-0.15197627584040163,0.006934000514261424,0.009170198601111769
1761505954771803100,7.04580322265625,-0.14703589682877063,0.0017849837206304073,0.001943498750589788
1761505954781839000,7.055839111328125,-0.139103350263834,0.0012554434211924672,0.006738185681216418
1761505954791875000,7.065875,-0.13835223963558674,0.006534625933133065,0.006119432728365063
1761505954801912000,7.075912109375,-0.14598492647111416,-0.0013711422227323054,0.0035905718378722667
1761505954811948000,7.085947998046875,-0.13640753530859948,-0.007374035899341106,-0.000752352737262845
1761505954821984000,7.09598388671875,-0.1429986041367054,-0.007855864599533378,0.0004249108811840415
1761505954832020000,7.10602001953125,-0.14030804987847803,0.0036008740361779925,0.00460647088214755
1761505954842056000,7.116055908203125,-0.1347720430612564,-0.0003688698450103402,0.003376308032684028
1761505954852092000,7.126091796875,-0.1398614751547575,0.0038382264560088515,-0.005714651319757104
1761505954862128400,7.13612841796875,-0.14375088380873202,0.0089898187992163,0.0021474603574723004
1761505954872165000,7.1461650390625,-0.13342238201797008,-0.0026326865911483763,0.012336005688272415
1761505954882201000,7.156201171875,-0.1380623167783022,0.0037113304070197045,0.009191679780557752
1761505954892237300,7.1662373046875,-0.14629121594130992,0.007136245088092982,0.008418211190029978
1761505954902273300,7.176273193359375,-0.13940671712458133,0.006406688704527914,0.0000021188918501138688
1761505954912309200,7.186309326171875,-0.13866145171523092,0.0059761335338465865,-0.005769523312151432
1761505954922345200,7.19634521484375,-0.13043781324923037,0.0030688495187088847,0.0027562399055808783
1761505954932382200,7.20638232421875,-0.14046061009168623,0.0019589337817393243,0.002249678622931242
1761505954942418200,7.216418212890625,-0.14734160177707673,-0.003076393504347652,-0.006884170023165643
1761505954952454100,7.2264541015625,-0.1286380703508854,0.007288659170828759,-0.0007320040689781308
1761505954962490000,7.236489990234375,-0.12879296865165232,0.002561228790134191,0.005077266731671989
1761505954972526000,7.246526123046875,-0.14330547812879085,-0.0019771635581739247,-0.001855455140955746
1761505954982562000,7.25656201171875,-0.13776888678967952,0.001833919162582606,0.004988675132766365
1761505954992598000,7.266597900390625,-0.14061258578300476,0.0051362303772941225,0.000365033920109272
1761505955002635300,7.27663525390625,-0.14644611424207687,0.005962908726092428,0.0010873568452894687
1761505955012671200,7.286671142578125,-0.1293874274134636,0.002673931916989386,-0.0029530045866966244
1761505955022707200,7.296707275390625,-0.13328034319877624,0.012105941525753587,0.008241722111962736
1761505955032743200,7.3067431640625,-0.14404957449436187,0.0033903000254184006,-0.003557619416341185
1761505955042779100,7.316779052734375,-0.13477321210503576,0.0011908902850002049,0.003942161754518747
1761505955052815000,7.326815185546875,-0.1419564016073942,0.0019422201089560984,0.004401669025048613
1761505955062852400,7.336852294921875,-0.1371685828089714,-0.004795709843933582,-0.00006952157225459813
1761505955072888300,7.346888427734375,-0.1368716456890106,-0.001482858968898654,0.005376651537045836
1761505955082924300,7.35692431640625,-0.14734920056164263,0.0017988661155104637,-0.0008969123071059584
1761505955092960300,7.366960205078125,-0.14525252054333687,0.004271338909957558,-0.0036057328743860123
1761505955102996200,7.376996337890625,-0.13896598761975765,-0.004502827844582498,0.0004432867880910635
1761505955113032400,7.387032470703125,-0.13373276314139365,0.0035776758236810563,0.0023521891493350267
1761505955123068400,7.397068359375,-0.13867197310924528,-0.004725749880261719,0.007231704819202422
1761505955133105200,7.407105224609375,-0.14196341587007044,-0.001029470911901444,0.0029617724150419232
1761505955143141400,7.417141357421875,-0.13732815728485584,-0.003755626206472516,0.00398329748250544
1761505955153177300,7.42717724609375,-0.13972118990123272,0.015254012026824056,0.0069344754382967945
1761505955163213300,7.43721337890625,-0.1472071617424488,0.0022996187118813393,0.0033392274253070354
1761505955173249300,7.447249267578125,-0.1416740775346756,-0.0028323921480216084,0.003525507245026529
1761505955183285200,7.45728515625,-0.13972937320768833,-0.005811298360954969,-0.0020001243086531758
1761505955193322500,7.467322509765625,-0.14197159917652605,0.0017180194316431879,0.00023362609278410672
1761505955203358500,7.4773583984375,-0.13628127858042716,0.003189936881419271,-0.004814268413931131
1761505955213394400,7.48739453125,-0.1361275493234396,0.0008266600824892521,0.005812668334133923
1761505955223430400,7.497430419921875,-0.1368681385576725,-0.00503872481957078,0.003807575589418411
1761505955233466400,7.50746630859375,-0.13686521594822407,-0.0019415807881392538,-0.0004287833387032151
1761505955243502300,7.51750244140625,-0.13551555490493775,0.004174947597086429,0.005779058325476944
1761505955253538300,7.527538330078125,-0.14568798935115337,-0.0010001717521809042,0.009992584367282687
1761505955263575300,7.5375751953125,-0.14119652315080164,-0.0025597309527918694,0.008061652837321161
1761505955273611300,7.547611328125,-0.13521452613174914,-0.01657470270395279,0.004547507236525416
1761505955283647200,7.557647216796875,-0.1397007316350937,0.0018716390907764435,-0.0028934564191848036
1761505955293683200,7.56768310546875,-0.14224515542089938,-0.0030588395813480017,0.006155088563635945
1761505955303719200,7.57771923828125,-0.14089900150895118,-0.0002976312397047877,0.0027821049991995092
1761505955313755400,7.58775537109375,-0.13625672866106034,0.00028795009590685367,0.0015825930163264274
1761505955323791400,7.597791259765625,-0.1346066233664751,0.002092478767223656,-0.00020765140131115913
1761505955333828400,7.607828369140625,-0.13460019362568854,0.0011498093559406696,0.002181435692310333
1761505955343864300,7.6178642578125,-0.1422311268955469,-0.0010736571134999395,0.0012433876572176814
1761505955353900500,7.627900634765625,-0.1455202315688133,0.00893607931798324,-0.000020933190174400805
1761505955363936500,7.6379365234375,-0.135796709933877,0.005011361888609826,0.00537255988381803
1761505955373972500,7.647972412109375,-0.1390858146071434,0.002606273508258164,0.0003529781561344862
1761505955384008400,7.658008544921875,-0.13728724075257778,-0.0019674824143759906,-0.0020644217165187
1761505955394044400,7.66804443359375,-0.14042846138775347,0.0018183745335787534,0.002742649771645665
1761505955404081400,7.678081298828125,-0.14566285490989683,0.001887238518707454,0.006654927844554186
1761505955414117400,7.688117431640625,-0.13668635224997996,0.00018048939974978564,-0.00338226284943521
1761505955424153300,7.6981533203125,-0.14805705657005308,0.00805198995983228,-0.0012339622417464851
1761505955434189300,7.708189208984375,-0.13413842133283616,0.004271448507811874,0.006648132777586579
1761505955444225300,7.718225341796875,-0.1339829385101795,-0.0004907061263918877,0.0005640270909294486
1761505955454261200,7.72826123046875,-0.14490414549708366,0.007233093058690429,0.0038176585920155046
1761505955464297200,7.738297119140625,-0.13532500076889992,0.009287029913812875,-0.0016210253305733203
1761505955474334200,7.748334228515625,-0.14744389310777187,0.005894830192252993,-0.0018515826834365724
1761505955484370400,7.758370361328125,-0.13996668909490106,-0.004143365148734301,0.0036901597548276185
1761505955494406400,7.768406494140625,-0.14505670571029186,0.004888173900358379,-0.00241283329539001
1761505955504442400,7.7784423828125,-0.1417693546026945,-0.00214786221627146,0.002374948970414698
1761505955514478300,7.788478271484375,-0.14206921433210373,-0.002331548220105469,0.004063596177101135
1761505955524514600,7.7985146484375,-0.1404191090375185,-0.004855331076681613,0.0033227512145414945
1761505955534550500,7.808550537109375,-0.14310498712062836,-0.00627670564930886,-0.0007010609414428472
1761505955544587300,7.818587158203125,-0.14354980827867983,0.000003726327046751976,0.002318615673296153
1761505955554623500,7.82862353515625,-0.14294716621041298,-0.00025269611943513155,0.002641527484729886
1761505955564659500,7.838659423828125,-0.14682956060171126,0.005814969889074564,0.00018237082958221434
1761505955574695400,7.8486953125,-0.14278759173452854,0.0010603044415824115,-0.002279050847887993
1761505955584731400,7.8587314453125,-0.14054361220002173,0.006936996188946068,-0.0028854557758197187
1761505955594767400,7.868767333984375,-0.1392068106383085,0.006937069254182279,0.0017973317455500363
1761505955604803300,7.87880322265625,-0.14355389993190765,0.0041146687772125,0.007612886156514287
1761505955614840300,7.88884033203125,-0.1431073252081871,0.007048018815368414,0.005978928279131651
1761505955624876300,7.898876220703125,-0.13247837916612623,0.009729549516923725,-0.008222542487457395
1761505955634912300,7.908912353515625,-0.1386059221357107,0.009323069341573864,-0.003587795358896255
1761505955644948200,7.9189482421875,-0.1411509304434061,0.007499580241460353,-0.003234634539671242
1761505955654984200,7.928984130859375,-0.14189619585275648,0.004346303842309862,-0.0016726459199562667
1761505955665020400,7.9390205078125,-0.1486269654124975,0.0019364479552954434,0.00153710990678519
1761505955675056400,7.949056396484375,-0.14009762199819087,-0.001407857503928244,-0.0008284136481583118
1761505955685093400,7.95909326171875,-0.14218670323193072,0.007704747424740344,0.0021464009115472436
1761505955695129300,7.96912939453125,-0.13484978447258472,0.00970109060741961,0.0013835998455062508
1761505955705165300,7.979165283203125,-0.13380641289949416,0.0019494535673409699,0.0008854045324027537
1761505955715201300,7.989201171875,-0.13215630760490893,0.001268302902765572,0.007749993072263896
1761505955725237200,7.9992373046875,-0.13604630078077315,0.007183463496994226,-0.0018915128350257872
1761505955735273500,8.0092734375,-0.13784721272289752,0.009474095184821636,0.006625701750069856
1761505955745309400,8.019309326171875,-0.1385930626541376,0.009575674129463732,-0.0019509879373013973
1761505955755346200,8.02934619140625,-0.13245733637809753,0.0016167692805640398,-0.004490297156572342
1761505955765382400,8.03938232421875,-0.13545359558463096,0.007445840760227292,-0.004931282389722764
1761505955775418400,8.04941845703125,-0.14173545233309268,0.007794818594679236,-0.0027075784582644698
1761505955785454300,8.059454345703125,-0.14817045381665228,0.00497729522222653,0.0047702831417322155
1761505955795490300,8.069490234375,-0.13934125067293643,-0.003496883938740939,0.00008190612979233264
1761505955805526300,8.0795263671875,-0.13979074800610541,0.003364380132872611,-0.001827032764069736
1761505955815562200,8.089562255859375,-0.13963584970533846,0.0007221585283987223,0.0074051616899669164
1761505955825599500,8.099599609375,-0.14053484437167643,0.00166382329268381,-0.004546082464419305
1761505955835635500,8.109635498046876,-0.13694587996900082,0.006347688526287675,0.0035685792017728086
1761505955845671400,8.11967138671875,-0.1402402453392744,-0.002314798014704138,-0.0025015710247680545
1761505955855707400,8.129707275390626,-0.13874270025789737,0.009249035990983248,0.003205518043041229
1761505955865743400,8.139743408203126,-0.13724340161085127,0.008432166650146245,0.002111183467693627
1761505955875779300,8.149779296875,-0.1391904440253973,0.003920077786874026,-0.004100530654005706
1761505955885815300,8.159815185546876,-0.1439823544770479,0.004558759282901883,-0.005662227012775838
1761505955895851300,8.169851318359376,-0.13306231653392314,0.005540281133539974,-0.0072584832282736895
1761505955905888300,8.17988818359375,-0.13949790253937244,-0.005343315523024648,-0.0021484467381611464
1761505955915924200,8.18992431640625,-0.1354606098473072,-0.0026422216044738886,0.005104191271215677
1761505955925960200,8.199960205078124,-0.13276947106719017,0.006262147400993854,0.003195836899243295
1761505955935996400,8.209996337890624,-0.14369827683866024,0.0014633140182122588,0.005050488322600722
1761505955946032400,8.220032470703124,-0.13517010246813296,0.003710216162167489,0.001642835303582251
1761505955956068400,8.230068359375,-0.13681670063138007,0.004359218122810125,-0.006598192688636481
1761505955966104300,8.240104248046874,-0.1359223821401596,0.0015677607733756303,-0.0017346417728811502
1761505955976141600,8.2501416015625,-0.14086451471745967,-0.00014876082092523573,0.002219868006557226
1761505955986177500,8.260177490234375,-0.1324889005601406,-0.0047016566186212,-0.0008453282503411173
1761505955996213500,8.270213623046875,-0.12814999457299708,0.002876249556057155,0.0036102629190310834
1761505956006249500,8.28024951171875,-0.1405705002069473,0.012513079288229345,0.005377966711297631
1761505956016285400,8.290285400390625,-0.13697978223860263,0.0032850860852748154,-0.001071574754267931
1761505956026321400,8.3003212890625,-0.1381792211562395,0.005891085598897189,-0.0019360095638781786
1761505956036357400,8.310357421875,-0.14536474874615668,0.004887479780614375,-0.006504705718904733
1761505956046394400,8.320394287109375,-0.14820669417381285,0.003952153425570577,0.0001147124208509922
1761505956056430300,8.330430419921875,-0.13563771997988222,0.006854359406791627,-0.0003587137771770358
1761505956066466300,8.34046630859375,-0.14895605123639105,0.01033723308648914,0.0013769143763929606
1761505956076502300,8.350502197265625,-0.1351946523874998,0.007602474360354244,0.0011724047802388667
1761505956086538200,8.360538330078125,-0.13594108684062958,0.010682849920075387,0.0006125058751553297
1761505956096574200,8.37057421875,-0.14312719895243645,0.008166574516519904,0.005948021684214473
1761505956106610200,8.380610107421875,-0.11347323444485664,0.008354498304054141,-0.005074234524369239
1761505956116647200,8.390647216796875,-0.08975976590216159,0.013542184873949736,-0.016448080649599434
1761505956126683100,8.40068310546875,-0.03186404177248478,0.04198690145593136,-0.14873099204255266
1761505956136719400,8.41071923828125,-0.05637012199759483,0.041627438760083166,-0.19705323399985208
1761505956146755600,8.420755615234375,-0.49527533400356766,-0.09200851294333115,0.4675577443860471
1761505956156791600,8.43079150390625,-0.10637947679162024,0.012467851907014845,-0.054715103065874425
1761505956166827500,8.44082763671875,0.02955342674255371,0.049807365948520595,-0.22415937718814238
1761505956176863500,8.450863525390625,-0.31684768908917904,-0.05711204467238858,0.2727119755689055
1761505956186899500,8.4608994140625,-0.16163842267692088,0.007843333911523222,-0.03804592701150104
1761505956196936400,8.4709365234375,-0.15769231539964676,-0.003271057559922337,0.0297849339434877
1761505956206972400,8.480972412109375,-0.22856734808981416,-0.002964695024490356,0.03434482573755085
