time,seconds_elapsed,z,y,x
1761505947836769800,0.110769775390625,0.0007791919633746147,-0.00002090679481625557,0.0015315319178625941
1761505947846806800,0.120806884765625,0.0010182643309235573,-0.0026663988828659058,-0.000941727077588439
1761505947856842800,0.1308427734375,-0.00009467080235481262,0.001661504153162241,0.0012857408728450537
1761505947866878700,0.140878662109375,0.002334600780159235,0.003174598328769207,-0.000799072440713644
1761505947876916000,0.150916015625,0.003047795267775655,0.002190293977037072,-0.0008821629453450441
1761505947886952000,0.160951904296875,0.0011090370826423168,-0.00008662533946335316,-0.001240942277945578
1761505947896988000,0.17098779296875,-0.0015285578556358814,0.0009035379625856876,0.0003630795981734991
1761505947907024000,0.18102392578125,0.0005167205817997456,-0.00119125097990036,0.0002522440627217293
1761505947917060900,0.191060791015625,-0.0018138112500309944,0.0008388767018914223,0.0011848830617964268
1761505947927096800,0.201096923828125,-0.0034860270097851753,-0.0010735620744526386,-0.0010647650342434645
1761505947937132800,0.2111328125,0.00011643068864941597,0.00047613121569156647,-0.0016791564412415028
1761505947947169800,0.221169677734375,0.0037355159875005484,-0.0010932465083897114,-0.00037093565333634615
1761505947957205800,0.231205810546875,-0.0014198310673236847,0.0007861461490392685,0.0010743618477135897
1761505947967241700,0.24124169921875,0.0004259836860001087,-0.0010768503416329622,0.0014851929154247046
1761505947977279000,0.251279052734375,0.0006904355250298977,-0.0014776561874896288,0.00040954211726784706
1761505947987315000,0.26131494140625,0.002724762074649334,-0.002258387627080083,-0.0028554664459079504
1761505947997351000,0.271350830078125,-0.0009402800351381302,0.0018221078207716346,0.00005456979852169752
1761505948007387000,0.281386962890625,-0.00038532819598913193,0.0007725409232079983,0.0006079663871787488
1761505948017424000,0.291423828125,-0.000173074658960104,-0.00011562323197722435,-0.002116447314620018
1761505948027459800,0.3014599609375,-0.0010148975998163223,-0.001612936146557331,-0.001183491782285273
1761505948037495800,0.311495849609375,-0.0004188823513686657,-0.0006334255449473858,-0.00030038750264793634
1761505948047532800,0.32153271484375,0.0015376047231256962,0.00121970078907907,0.0005957241519354284
1761505948057569000,0.331569091796875,-0.00054578622803092,-0.0026565303560346365,0.0008260876056738198
1761505948067605200,0.341605224609375,0.002062160987406969,-0.0005859911907464266,-0.0005676283035427332
1761505948077641200,0.35164111328125,0.00005440413951873779,-0.0023564607836306095,-0.00005230668466538191
1761505948087678200,0.36167822265625,0.00342087191529572,0.0005576300900429487,0.00015090708620846272
1761505948097714200,0.371714111328125,-0.00042366748675704,-0.0014290879480540752,0.0011818166822195053
1761505948107750100,0.381750244140625,0.0008203117176890373,0.00044290791265666485,-0.0022379346191883087
1761505948117787100,0.391787109375,-0.0006625363603234291,-0.001432489836588502,-0.0006032864330336452
1761505948127823000,0.401822998046875,-0.0018951436504721642,-0.001390836900100112,-0.00111059017945081
1761505948137859000,0.411859130859375,0.0001733340322971344,0.002109621884301305,0.001456430763937533
1761505948147895000,0.42189501953125,-0.0027888542972505093,0.002100468147546053,-0.0004335728008300066
1761505948157932000,0.43193212890625,0.0025395986158400774,-0.0024785709101706743,-0.00012278195936232805
1761505948167968000,0.441968017578125,-0.0008343784138560295,0.0007284465245902538,0.000832703779451549
1761505948178004000,0.45200390625,0.000654861330986023,-0.001160267274826765,-0.00024214806035161018
1761505948188041200,0.462041259765625,0.0009237192571163177,0.000015586847439408302,0.0016410568496212363
1761505948198077200,0.4720771484375,-0.0033376049250364304,0.0023218842688947916,0.00048151653027161956
1761505948208113200,0.482113037109375,0.0006865230388939381,0.0016632761107757688,0.002236470580101013
1761505948218149000,0.492149169921875,0.0010250108316540718,0.0008350331336259842,-0.00021843123249709606
1761505948228186000,0.50218603515625,-0.0006955941207706928,0.0005490691401064396,0.0009621617500670254
1761505948238222000,0.51222216796875,-0.001716916449368,0.0008851601742208004,-0.0031774556264281273
1761505948248258000,0.522258056640625,-0.00031427666544914246,0.0020095640793442726,0.0007603348349221051
1761505948258295000,0.532294921875,-0.0002793888561427593,-0.0006040623411536217,0.001753693912178278
1761505948268331000,0.5423310546875,0.0014555538073182106,0.0018742880783975124,-0.0016543015372008085
1761505948278367000,0.552366943359375,-0.000774310901761055,-0.001063178526237607,0.0002613102551549673
1761505948288404200,0.562404296875,-0.0019844016060233116,-0.0008695579599589109,-0.0019770541694015265
1761505948298440200,0.572440185546875,-0.000563605222851038,-0.0002149529755115509,0.0002549410564824939
1761505948308476200,0.58247607421875,-0.0008243788033723831,0.0012512978864833713,0.0010008236858993769
1761505948318512000,0.59251220703125,0.0024526407942175865,0.0008406385313719511,-0.001158467261120677
1761505948328549000,0.602549072265625,-0.0014097555540502071,-0.00024436297826468945,-0.0011433021863922477
1761505948338585000,0.612585205078125,0.0003125108778476715,-0.0006558212917298079,-0.00319180591031909
1761505948348621000,0.62262109375,-0.0006791269406676292,-0.00040875328704714775,0.0008587794727645814
1761505948358658000,0.632657958984375,0.0007592462934553623,-0.0028000054880976677,-0.0013867978705093265
1761505948368694000,0.642694091796875,-0.0006868345662951469,-0.0023826085962355137,-0.0015061950543895364
1761505948378730000,0.65272998046875,0.0013949587009847164,0.00003873743116855621,0.0004056881880387664
1761505948388766000,0.662765869140625,0.00011481065303087234,-0.00010054837912321091,-0.0003796194214373827
1761505948398803200,0.67280322265625,0.0001358496956527233,0.0008669779635965824,-0.0009183769579976797
1761505948408839200,0.682839111328125,0.00027859024703502655,0.00026763672940433025,-0.0014854889595881104
1761505948418875100,0.692875244140625,-0.002835976891219616,-0.002755850087851286,0.00013477832544595003
1761505948428912000,0.702912109375,0.0018948614597320557,-0.0007390074897557497,0.0001470508286729455
1761505948438948000,0.712947998046875,-0.0015030656941235065,0.0003225286491215229,0.0006221586954779923
1761505948448984000,0.722984130859375,-0.0021654656156897545,-0.001825402257964015,0.0001275775721296668
1761505948459020000,0.73302001953125,0.0006644092500209808,-0.0035375484731048346,0.0008077489328570664
1761505948469057000,0.74305712890625,-0.00045995693653821945,0.002081463811919093,-0.0018435626989230514
1761505948479093000,0.753093017578125,-0.0003260001540184021,0.0009371035266667604,0.0010579513618722558
1761505948489129000,0.76312890625,-0.0012669437564909458,-0.00042297528125345707,0.0005940964329056442
1761505948499166200,0.773166259765625,0.00017063040286302567,0.0013315152609720826,0.0017786704702302814
1761505948509202200,0.7832021484375,-0.001613424625247717,-0.0015696585178375244,0.0015186818782240152
1761505948519238100,0.793238037109375,0.0020542810671031475,0.0010133414762094617,0.0011801940854638815
1761505948529274000,0.803274169921875,0.0019085966050624847,0.001279326737858355,-0.0022269950713962317
1761505948539311000,0.81331103515625,0.00039778556674718857,-0.0006072565447539091,-0.0015548132359981537
1761505948549347000,0.82334716796875,0.0009759883396327496,-0.0005412159953266382,0.0011588985798880458
1761505948559383000,0.833383056640625,0.0003815707750618458,0.0021182168275117874,0.00012239627540111542
1761505948569420000,0.843419921875,0.0007360228337347507,0.0005301265046000481,0.0003949858946725726
1761505948579456000,0.8534560546875,0.0020606787875294685,-0.0021343661937862635,0.00004211708437651396
1761505948589492000,0.863491943359375,-0.00020855339244008064,0.00042689661495387554,0.0007302361773326993
1761505948599529000,0.873529052734375,-0.00026794150471687317,0.001886308891698718,0.0012594062136486173
1761505948609565200,0.883565185546875,-0.0014966176822781563,-0.0011825142428278923,0.000507407181430608
1761505948619601200,0.89360107421875,-0.001842029858380556,0.00312568130902946,0.0017516360385343432
1761505948629637000,0.90363720703125,0.0017254417762160301,0.002246886258944869,0.000044008600525557995
1761505948639674000,0.913674072265625,-0.0007078885100781918,-0.0028927482198923826,0.0008666589856147766
1761505948649710000,0.9237099609375,0.0009516235440969467,-0.0014576963149011135,0.0007992217433638871
1761505948659746000,0.93374609375,0.00008769426494836807,0.0013998756185173988,-0.0035963256377726793
1761505948669782300,0.9437822265625,-0.0005373843014240265,-0.0026899268850684166,-0.0021134838461875916
1761505948679819000,0.953819091796875,-0.001983480993658304,-0.0013250568881630898,0.0009558093152008951
1761505948689855000,0.96385498046875,0.00014597224071621895,0.0032934779301285744,0.0015838062390685081
1761505948699891200,0.97389111328125,-0.00066016661003232,0.00011206557974219322,0.0005278628668747842
1761505948709928000,0.983927978515625,0.0008787009865045547,0.0012629652628675103,-0.001106553478166461
1761505948719964000,0.9939638671875,-0.0008403696119785309,-0.0008888689335435629,-0.0003965547075495124
1761505948730000400,1.00400048828125,-0.0007819789461791515,-0.002805480035021901,-0.0001143389381468296
1761505948740037000,1.014037109375,0.0007107225246727467,-0.0007804122287780046,-0.0011484443675726652
1761505948750073000,1.024072998046875,0.000053306110203266144,-0.0038574906066060066,-0.00013440754264593124
1761505948760109300,1.034109375,0.0009486610069870949,0.000922883627936244,-0.000972504261881113
1761505948770145300,1.044145263671875,0.0008095679804682732,0.000570913078263402,0.001675763283856213
1761505948780182000,1.05418212890625,-0.0008799415081739426,0.0006702488753944635,-0.0023900847882032394
1761505948790218200,1.06421826171875,0.00009480584412813187,0.0012290695449337363,0.00044048327254131436
1761505948800254200,1.074254150390625,-0.001203484833240509,-0.0011302249040454626,0.0011094693327322602
1761505948810291000,1.084291015625,0.000623628031462431,-0.0007009727414697409,0.0017645079642534256
1761505948820327200,1.0943271484375,0.002633515978232026,-0.00006847199983894825,0.0010510471183806658
1761505948830363100,1.104363037109375,0.0005533904768526554,0.003018536139279604,-0.00166806997731328
1761505948840399000,1.114399169921875,-0.0008913739584386349,0.0017775031737983227,-0.0011724557261914015
1761505948850436000,1.12443603515625,0.00024393992498517036,-0.0007096922490745783,-0.0005327311810106039
1761505948860472300,1.134472412109375,0.0010221153497695923,-0.0003238001372665167,-0.0001388496020808816
1761505948870508300,1.14450830078125,-0.000551657285541296,-0.0002105850726366043,0.001961394678801298
1761505948880545000,1.154544921875,0.00028244499117136,-0.00004626787267625332,0.0005784150562249124
1761505948890581200,1.164581298828125,0.0008748001419007778,-0.0007836604490876198,0.002763850148767233
1761505948900617200,1.1746171875,-0.0015164520591497421,-0.0018683657981455326,-0.0014908158918842673
1761505948910653200,1.184653076171875,-0.0010748207569122314,0.00001942669041454792,0.0006800611154176295
1761505948920690200,1.194690185546875,0.000999249517917633,0.0008633823599666357,-0.0003726864233613014
1761505948930726100,1.20472607421875,-0.00022643478587269783,0.0003048274666070938,-0.0011098065879195929
1761505948940762000,1.21476220703125,0.0012444290332496166,-0.0004232809878885746,-0.00012550223618745804
1761505948950798000,1.224798095703125,0.0007455428130924702,0.003113041864708066,0.000748676888179034
1761505948960835300,1.23483544921875,0.0006046616472303867,-0.0004116517957299948,0.0007406873628497124
1761505948970871300,1.244871337890625,-0.000669227447360754,0.0012797241797670722,0.0016261988785117865
1761505948980907300,1.2549072265625,0.0032509455922991037,0.0008895709179341793,0.0008440284873358905
1761505948990944300,1.2649443359375,0.00035687582567334175,0.0023337570019066334,0.0005493926582857966
1761505949000980200,1.274980224609375,-0.0007139812223613262,0.001698326668702066,-0.0005635423585772514
1761505949011016200,1.28501611328125,-0.00015683751553297043,0.0038506442215293646,-0.0033134701661765575
1761505949021053200,1.29505322265625,0.001012023538351059,-0.0015763454139232635,0.0014549198094755411
1761505949031089200,1.305089111328125,0.0024422560818493366,0.0012899189023301005,0.0008783055236563087
1761505949041125000,1.315125,0.0012789871543645859,0.0010137490462511778,-0.0010378387523815036
1761505949051161000,1.3251611328125,-0.000477655790746212,-0.00024238741025328636,0.001253262278623879
1761505949061197800,1.33519775390625,0.0006805527955293655,-0.001184880267828703,-0.0010037666652351618
1761505949071233800,1.34523388671875,0.0004867464303970337,-0.00034296815283596516,-0.0015915100229904056
1761505949081269800,1.355269775390625,0.00025531789287924767,0.003266147803515196,-0.0008833754109218717
1761505949091307000,1.36530712890625,-0.0009695342741906643,-0.001570697408169508,0.000029034330509603024
1761505949101343000,1.375343017578125,-0.0011634123511612415,0.00031854910776019096,-0.0010471490677446127
1761505949111379000,1.38537890625,0.0007690256461501122,0.0008042538538575172,0.0006289644516073167
1761505949121415000,1.395414794921875,0.0009850081987679005,0.0011981354327872396,-0.0008498888928443193
1761505949131452000,1.405451904296875,-0.0017773788422346115,-0.0004650019109249115,-0.0019844896160066128
1761505949141487900,1.41548779296875,-0.0001224908046424389,-0.0013038977049291134,-0.0043134237639606
1761505949151523800,1.42552392578125,-0.0019880509935319424,0.00173160748090595,0.0016453517600893974
1761505949161559800,1.435559814453125,0.0025347957853227854,-0.0008708336390554905,0.0008565234020352364
1761505949171596800,1.4455966796875,0.00015313364565372467,-0.0028403489850461483,0.0017611600924283266
1761505949181632800,1.4556328125,0.0011073444038629532,-0.0012797368690371513,0.00017551402561366558
1761505949191668700,1.465668701171875,0.0007932325825095177,-0.0027308969292789698,0.00012554076965898275
1761505949201706000,1.4757060546875,-0.0016576745547354221,-0.00021074735559523106,0.0018478069687262177
1761505949211742000,1.485741943359375,0.00015769759193062782,0.0000431619118899107,0.0008630520314909518
1761505949221778000,1.49577783203125,-0.0006963778287172318,0.0011987073812633753,0.00012003013398498297
1761505949231814000,1.50581396484375,0.002235253807157278,-0.0010083350352942944,0.0004084613174200058
1761505949241851000,1.515850830078125,-0.0018710745498538017,-0.00013694865629076958,-0.0011247204383835196
1761505949251886800,1.525886962890625,-0.0002392604947090149,-0.0003188385162502527,0.0014131506904959679
1761505949261922800,1.5359228515625,0.0015434594824910164,-0.00282087828963995,-0.0001791532849892974
1761505949271959800,1.545959716796875,-0.002783409785479307,-0.002920678351074457,-0.000260833534412086
1761505949281995800,1.555995849609375,0.0021503621246665716,0.0006373047363013029,0.0002528902841731906
1761505949292031700,1.56603173828125,-0.0007949923165142536,-0.000859926687553525,0.0037396999541670084
1761505949302067700,1.576067626953125,-0.0005363994278013706,-0.000030618393793702126,-0.002074513351544738
1761505949312105000,1.58610498046875,-0.002260772045701742,0.0013679452240467072,0.0009018270066007972
1761505949322141000,1.596140869140625,0.0004476625472307205,-0.0016195890493690968,-0.00009233097080141306
1761505949332177000,1.606177001953125,-0.0002845153212547302,0.0009678949136286974,-0.00009271211456507444
1761505949342214000,1.6162138671875,0.00037301890552043915,0.001034473767504096,-0.0016687707975506783
1761505949352249900,1.626249755859375,-0.00009316811338067055,0.0020692762918770313,-0.0005058352835476398
1761505949362285800,1.636285888671875,0.001140408217906952,-0.001637577312067151,-0.0009729537414386868
1761505949372321800,1.64632177734375,0.00041422341018915176,-0.0010098619386553764,0.00044428190449252725
1761505949382358800,1.65635888671875,-0.0022508022375404835,-0.0001350133679807186,0.00013615412171930075
1761505949392394800,1.666394775390625,-0.002524040639400482,0.00013612513430416584,-0.0022077157627791166
1761505949402430700,1.6764306640625,0.0019593914039433002,-0.0005887872539460659,-0.000622868537902832
1761505949412466700,1.686466796875,-0.00042963773012161255,0.0007381511386483908,0.0007086703553795815
1761505949422504000,1.69650390625,0.0005642538890242577,0.0005972697399556637,0.0015227986732497811
1761505949432540000,1.706539794921875,0.0011956924572587013,-0.00028470996767282486,0.00010517588816583157
1761505949442576000,1.716575927734375,-0.0001292298547923565,-0.0000926959328353405,0.000585343805141747
1761505949452612900,1.72661279296875,-0.0005101454444229603,-0.00005899043753743172,0.001087009790353477
1761505949462648800,1.73664892578125,0.0009612510912120342,-0.00033169821836054325,0.0005272133275866508
1761505949472684800,1.746684814453125,-0.0017097326926887035,0.0004863683134317398,-0.0002596976701170206
1761505949482720800,1.756720703125,0.000592303927987814,0.0012088839430361986,-0.0011097786482423544
1761505949492757800,1.7667578125,0.0008508306927978992,-0.0005207404028624296,-0.0015108005609363317
1761505949502793700,1.776793701171875,0.0008436399511992931,-0.0023372825235128403,0.0007656695670448244
1761505949512829700,1.78682958984375,0.0003331000916659832,-0.0005291737616062164,0.0004913037992082536
1761505949522865700,1.79686572265625,0.0009576114825904369,-0.0007126654963940382,0.0011166139738634229
1761505949532903000,1.80690283203125,-0.0004861317574977875,0.001666475203819573,0.00031169073190540075
1761505949542939000,1.81693896484375,-0.0008464576676487923,0.001526392879895866,-0.0015788874588906765
1761505949552974800,1.826974853515625,0.0011876602657139301,0.0022677858360111713,-0.00014049350284039974
1761505949563011800,1.83701171875,-0.0009934687986969948,-0.0017610443755984306,0.00019133638124912977
1761505949573047800,1.8470478515625,-0.0003978116437792778,0.002119715791195631,0.0008213176624849439
1761505949583083800,1.857083740234375,-0.0005405568517744541,0.0008187617640942335,-0.00004420964978635311
1761505949593119700,1.86711962890625,-0.00002692127600312233,0.0010201714467257261,0.002422591671347618
1761505949603156700,1.87715673828125,0.0007973271422088146,-0.0025820203591138124,-0.0018198237521573901
1761505949613192700,1.887192626953125,-0.0021034409292042255,0.0009586620144546032,-0.0019607178401201963
1761505949623228700,1.897228759765625,0.0013717175461351871,0.0034077048767358065,0.0021285659167915583
1761505949633265000,1.907264892578125,0.000439375638961792,0.002091585658490658,-0.00015823240391910076
1761505949643302000,1.917302001953125,0.0022644400596618652,0.002125141443684697,-0.0009302827529609203
1761505949653337900,1.927337890625,-0.0005383607931435108,0.002251113299280405,0.0017032307805493474
1761505949663373800,1.937373779296875,0.0003902832977473736,-0.00031324452720582485,0.0014502304838970304
1761505949673410800,1.947410888671875,0.0010733245871961117,-0.0006190938875079155,0.0016729503404349089
1761505949683446800,1.95744677734375,0.0010131369344890118,-0.00035810424014925957,-0.00000936852302402258
1761505949693482800,1.967482666015625,-0.0008054315112531185,-0.0014232189860194921,0.0005010023596696556
1761505949703519000,1.97751904296875,0.000647589098662138,0.0009661694057285786,0.0026973113417625427
1761505949713555700,1.9875556640625,0.0012232526205480099,-0.000711807981133461,-0.002041602972894907
1761505949723591700,1.997591796875,0.00017290189862251282,-0.0007251237984746695,-0.0016890004044398665
1761505949733628000,2.0076279296875,0.002422126941382885,-0.0014467602595686913,-0.00009699934162199497
1761505949743663900,2.017663818359375,0.00018507149070501328,-0.00006031873635947704,-0.0010589330922812223
1761505949753700900,2.027700927734375,0.0004695099778473377,0.0011788001284003258,0.0004926401888951659
1761505949763737000,2.037737060546875,-0.0005885637365281582,-0.0002388006541877985,-0.00042535143438726664
1761505949773773000,2.04777294921875,-0.0017980989068746567,-0.002904085675254464,-0.001096487743780017
1761505949783809800,2.057809814453125,0.0021026330068707466,-0.00011282670311629772,-0.0019231329206377268
1761505949793846000,2.067845947265625,-0.0011564991436898708,-0.0006048327777534723,0.00036819977685809135
1761505949803882000,2.077882080078125,0.0011484664864838123,-0.004952975548803806,0.0017064382554963231
1761505949813918000,2.08791796875,0.0004129726439714432,0.004082740284502506,-0.0009763039415702224
1761505949823955000,2.097954833984375,-0.0010128836147487164,-0.00025528273545205593,-0.0021515567786991596
1761505949833991000,2.107990966796875,-0.00009630853310227394,-0.0007774659898132086,0.00018289813306182623
1761505949844027000,2.11802685546875,0.0010496494360268116,0.0008728948887437582,0.0001296348636969924
1761505949854062800,2.128062744140625,0.0003052712418138981,0.00048795435577630997,-0.00009226344991475344
1761505949864099800,2.138099853515625,-0.0032684244215488434,-0.00021591922268271446,0.00045741302892565727
1761505949874136000,2.148135986328125,-0.0007491451688110828,-0.0012194535229355097,0.0004670225316658616
1761505949884172000,2.158172119140625,-0.00047430722042918205,-0.000720643438398838,-0.0014997218968346715
1761505949894208000,2.1682080078125,0.0012264586985111237,0.0005082485731691122,0.0009820088744163513
1761505949904245000,2.178244873046875,-0.0003067231737077236,-0.0010968383867293596,0.00013379205483943224
1761505949914281000,2.188281005859375,-0.001957524102181196,-0.001859090058133006,0.00024433061480522156
1761505949924317000,2.19831689453125,-0.0006523085758090019,0.00006477744318544865,0.0004131750902161002
1761505949934353000,2.208352783203125,0.000902918167412281,0.0024549260269850492,-0.0003792856587097049
1761505949944390000,2.218389892578125,0.0016422118060290813,-0.0022476837038993835,0.0015589629765599966
1761505949954425900,2.22842578125,-0.00001774309203028679,-0.0008747635874897242,0.0006457441486418247
1761505949964461800,2.2384619140625,-0.0004539685323834419,0.0012094262056052685,-0.0012885098112747073
1761505949974497800,2.248497802734375,0.0020522919949144125,-0.00029443041421473026,-0.0006791080813854933
1761505949984534800,2.25853466796875,0.0008389558643102646,0.0016134580364450812,0.0002801624359562993
1761505949994571000,2.268571044921875,-0.000822482630610466,-0.0013176302891224623,0.00010773900430649519
1761505950004607000,2.27860693359375,-0.00040942616760730743,0.0023655216209590435,-0.0010422139894217253
1761505950014644000,2.28864404296875,-0.0015210756100714207,0.0024311619345098734,0.0005669279489666224
1761505950024680000,2.298679931640625,0.0008499366231262684,0.000933400122448802,-0.0009667864069342613
1761505950034716000,2.3087158203125,-0.0007943045347929001,-0.0011341867502778769,-0.001541010569781065
1761505950044752000,2.318751953125,-0.00003770040348172188,0.0005230982787907124,-0.0013069186825305223
1761505950054788400,2.328788330078125,-0.0015629944391548634,-0.0035811043344438076,0.0003981806803494692
1761505950064824300,2.33882421875,-0.00034007057547569275,0.0016541376244276762,-0.00047959713265299797
1761505950074860300,2.3488603515625,0.0028095105662941933,-0.0005331810098141432,0.00011751626152545214
1761505950084896300,2.358896240234375,0.0008949642069637775,0.00010677659884095192,-0.0005767698166891932
1761505950094933200,2.368933349609375,-0.004269679542630911,0.0019014819990843534,0.002580698113888502
1761505950104969200,2.37896923828125,0.0002726074308156967,-0.00047831865958869457,-0.0005740822525694966
1761505950115005200,2.389005126953125,-0.0017150803469121456,0.0011304795043542981,0.0006481209420599043
1761505950125041200,2.399041259765625,-0.00014647841453552246,-0.000051431357860565186,-0.0005383173702284694
1761505950135078400,2.409078369140625,-0.003114867489784956,0.0011306426022201777,-0.0018475836841389537
1761505950145114400,2.4191142578125,0.002811996964737773,-0.0023796698078513145,-0.0009650118881836534
1761505950155150300,2.429150390625,-0.0014927070587873459,-0.0000773498322814703,-0.0015848607290536165
1761505950165186300,2.439186279296875,-0.002010425552725792,0.0003197274636477232,0.0002561825094744563
1761505950175223300,2.449223388671875,-0.00018248287960886955,-0.0006161690689623356,0.0002010011812672019
1761505950185259300,2.45925927734375,-0.0007779658772051334,0.002138072159141302,-0.0014184671454131603
1761505950195295200,2.469295166015625,0.0012605218216776848,0.00025087781250476837,-0.0010428577661514282
1761505950205331200,2.479331298828125,-0.0021581780165433884,-0.00032516405917704105,0.001465573557652533
1761505950215368200,2.4893681640625,-0.0009292298927903175,0.0016744449967518449,0.0009390511550009251
1761505950225404200,2.499404052734375,0.000014594290405511856,0.00001529557630419731,0.000296164071187377
1761505950235440000,2.509440185546875,0.0008831131272017956,0.00250445818528533,0.000895260542165488
1761505950245476400,2.519476318359375,-0.0008122553117573261,0.0011579638812690973,0.0016041940543800592
1761505950255513300,2.529513427734375,-0.0018726238049566746,-0.000459473580121994,0.0008175636758096516
1761505950265549300,2.53954931640625,-0.0006704726256430149,0.0014486813452094793,0.0020111924968659878
1761505950275585500,2.54958544921875,-0.0003264634869992733,-0.0005073209758847952,0.0016733412630856037
1761505950285621500,2.55962158203125,0.00067089032381773,-0.0019102741498500109,-0.0005197718273848295
1761505950295658200,2.569658203125,0.0009888550266623497,-0.0015021192375570536,-0.0004907971015200019
1761505950305694500,2.579694580078125,0.0018812804482877254,0.00016182404942810535,-0.0000849312637001276
1761505950315730400,2.58973046875,-0.003179547842592001,0.00035591889172792435,0.000279840431176126
1761505950325766400,2.599766357421875,-0.0002514026127755642,0.0019679302349686623,0.001781863160431385
1761505950335803400,2.609803466796875,-0.001015366055071354,-0.0012683249078691006,0.0007351650856435299
1761505950345839400,2.61983935546875,0.0027817687951028347,-0.0005886864382773638,-0.0009777802042663097
1761505950355875300,2.629875244140625,0.0006066113710403442,-0.0005384800024330616,-0.00003270513843744993
1761505950365911300,2.639911376953125,-0.0015313741751015186,-0.0010607258882373571,0.00006130454130470753
1761505950375948500,2.649948486328125,-0.0017339801415801048,0.00045726471580564976,-0.0003387914039194584
1761505950385984500,2.659984619140625,0.0017052260227501392,0.002393915317952633,-0.0011808830313384533
1761505950396020500,2.6700205078125,-0.0014234171248972416,-0.0005718877073377371,-0.0002779468195512891
1761505950406056400,2.680056396484375,-0.0007981071248650551,0.00006567314267158508,0.0006248647696338594
1761505950416093400,2.690093505859375,-0.001467172522097826,-0.0030099512077867985,0.000670426117721945
1761505950426129400,2.70012939453125,-0.0019563958048820496,0.0004148739390075207,-0.0003825877793133259
1761505950436165400,2.710165283203125,-0.0019807573407888412,0.003058137372136116,0.0010032907593995333
1761505950446201300,2.720201416015625,0.0020922808907926083,-0.0002585635520517826,-0.002106748754158616
1761505950456238300,2.73023828125,-0.001174029428511858,-0.0010297866538167,-0.0007186693837866187
1761505950466274300,2.7402744140625,0.0006486382335424423,0.0009787697345018387,-0.00021373399067670107
1761505950476310300,2.750310302734375,-0.0009243721142411232,-0.0010759362485259771,0.0007939435308799148
1761505950486346200,2.76034619140625,-0.0006109182722866535,-0.0011513035278767347,0.001979582943022251
1761505950496383500,2.770383544921875,0.001668803859502077,0.00308993156068027,0.001160426065325737
1761505950506419500,2.78041943359375,-0.001737911719828844,-0.002692590234801173,-0.001681166817434132
1761505950516455400,2.790455322265625,0.00018613319844007492,-0.0028158000204712152,-0.00034070981200784445
1761505950526491400,2.800491455078125,-0.001172611489892006,-0.00132576166652143,0.0019299013074487448
1761505950536528400,2.8105283203125,-0.00032764067873358727,-0.000738916452974081,-0.003141134511679411
1761505950546564400,2.820564453125,-0.0006557423621416092,-0.000759689137339592,-0.0015568201197311282
1761505950556600300,2.830600341796875,0.0004200614057481289,-0.0014621273148804903,-0.00008448783773928881
1761505950566636300,2.84063623046875,0.00223287520930171,0.0012393833603709936,-0.0005739768967032433
1761505950576673300,2.85067333984375,0.00025339238345623016,-0.0007518469356000423,0.000627705012448132
1761505950586709200,2.860709228515625,0.0018800515681505203,-0.0018738366197794676,0.0013728574849665165
1761505950596745200,2.8707451171875,-0.000033128075301647186,-0.0013291945215314627,0.0008331054705195129
1761505950606781200,2.88078125,-0.0015079868026077747,0.0020652704406529665,0.00031565327662974596
1761505950616818400,2.890818359375,0.0008799959905445576,-0.000029851915314793587,0.002620924264192581
1761505950626854400,2.9008544921875,0.00008530868217349052,0.0022847014479339123,-0.00034636969212442636
1761505950636890400,2.910890380859375,0.0006943764165043831,-0.001285148086026311,0.000025047920644283295
1761505950646926300,2.92092626953125,-0.0021506785415112972,0.0024054604582488537,-0.00012062699533998966
1761505950656963300,2.93096337890625,-0.0009236517362296581,-0.005175224505364895,0.0005848081200383604
1761505950666999300,2.940999267578125,-0.0008663935586810112,-0.0014140426646918058,-0.0008831261657178402
1761505950677035300,2.95103515625,-0.0008037514053285122,-0.0025528057012706995,0.0004945853725075722
1761505950687071200,2.9610712890625,-0.0006455597467720509,-0.00017913035117089748,-0.00016001961193978786
1761505950697107200,2.971107177734375,0.0006352858617901802,0.00011260504834353924,-0.0008360323263332248
1761505950707144200,2.981144287109375,0.0009119883179664612,0.0007815912831574678,0.0015717316418886185
1761505950717180200,2.99118017578125,0.0018749726004898548,0.0002252331469208002,0.00026738690212368965
1761505950727216000,3.001216064453125,0.0006339396350085735,-0.000647484790533781,0.0006532788975164294
1761505950737252400,3.01125244140625,0.0017162570729851723,0.000758427195250988,0.000227850629016757
1761505950747289300,3.021289306640625,-0.0009213373996317387,0.0005323246587067842,0.0010704748565331101
1761505950757325300,3.0313251953125,0.00035062339156866074,-0.001103902468457818,-0.00036730070132762194
1761505950767361300,3.041361328125,-0.0013194447383284569,0.0006303482223302126,-0.00045625027269124985
1761505950777397500,3.0513974609375,0.0016787848435342312,0.003347129328176379,0.0003087769728153944
1761505950787434200,3.061434326171875,0.001420990563929081,-0.0007064680103212595,0.001860334537923336
1761505950797470200,3.07147021484375,0.00032945163547992706,-0.0005754833109676838,0.00112514931242913
1761505950807506400,3.08150634765625,0.0003158692270517349,0.002663719467818737,-0.0027726534754037857
1761505950817542400,3.09154248046875,0.0003440738655626774,0.00017928867600858212,0.0004620262188836932
1761505950827579100,3.1015791015625,-0.0018391855992376804,0.002915686694905162,-0.0007494458695873618
1761505950837615400,3.111615478515625,0.0012944121845066547,0.003402693895623088,-0.0014332630671560764
1761505950847651300,3.1216513671875,-0.001953312661498785,0.0001469794660806656,-0.000019124476239085197
1761505950857687300,3.131687255859375,0.0001322743482887745,0.0002355184406042099,0.0005476285004988313
1761505950867723500,3.1417236328125,-0.0003135385923087597,0.0010171562898904085,0.001694918260909617
1761505950877760500,3.151760498046875,0.0014697560109198093,0.0011188543867319822,-0.0006392775103449821
1761505950887796500,3.16179638671875,-0.0012373472563922405,-0.001884392462670803,0.001574608264490962
1761505950897832400,3.17183251953125,0.000052230432629585266,0.002196433488279581,-0.0006553174462169409
1761505950907868400,3.181868408203125,-0.0020316927693784237,0.0034955234732478857,-0.0009389440529048443
1761505950917905400,3.191905517578125,0.0009156828746199608,0.00017046649008989334,-0.0001130072632804513
1761505950927941400,3.20194140625,0.0024187706876546144,0.001242921338416636,-0.0020222272723913193
1761505950937977300,3.211977294921875,-0.00202132947742939,-0.0016854752320796251,-0.0007796415593475103
1761505950948013300,3.222013427734375,0.0007390365935862064,0.0002700840122997761,0.00030186818912625313
1761505950958050300,3.23205029296875,0.00007081637158989906,0.001831661444157362,-0.0009602973004803061
1761505950968086300,3.242086181640625,0.00018586497753858566,-0.0007843617349863052,-0.0019006592920050025
1761505950978122200,3.252122314453125,-0.002560009714215994,-0.002935475669801235,0.00046393019147217274
1761505950988158500,3.262158447265625,0.001757240854203701,-0.0005162602756172419,-0.00025219388771802187
1761505950998195500,3.272195556640625,-0.0003361012786626816,0.0007996323984116316,0.0006234465399757028
1761505951008231400,3.2822314453125,0.0013717836700379848,0.003696086350828409,0.0006226475816220045
1761505951018267400,3.292267333984375,-0.000845758244395256,-0.0036192983388900757,0.000966348045039922
1761505951028303400,3.302303466796875,0.002845116425305605,0.0009192605502903461,0.0015708855353295803
1761505951038339300,3.31233935546875,-0.0006770170293748379,0.00012979493476450443,-0.0004124055849388242
1761505951048376300,3.322376220703125,0.00030196085572242737,-0.0012364066205918789,-0.0009548914385959506
1761505951058412500,3.33241259765625,0.0005659186281263828,0.000008845934644341469,0.0016548989806324244
1761505951068448500,3.342448486328125,0.0009491471573710442,-0.00036879023537039757,-0.00019360112491995096
1761505951078484500,3.352484375,-0.0004547783173620701,0.0023619194980710745,0.0010943657252937555
1761505951088521700,3.362521728515625,-0.0027767890132963657,-0.00043653021566569805,-0.0015352395130321383
1761505951098557700,3.3725576171875,-0.0007293308153748512,-0.00000847596675157547,0.0020799986086785793
1761505951108593700,3.38259375,-0.0007588919252157211,0.0006298837251961231,-0.0004460096824914217
1761505951118629600,3.392629638671875,0.00006316648796200752,-0.0015571760013699532,0.00020027125719934702
1761505951128666600,3.40266650390625,0.0020240519661456347,-0.0008069633040577173,0.00008868472650647163
1761505951138702600,3.41270263671875,-0.0008080452680587769,-0.00043614814057946205,-0.00040726957377046347
1761505951148738600,3.422738525390625,-0.000992069486528635,-0.00047183455899357796,-0.0005548086483031511
1761505951158774500,3.4327744140625,-0.000734647735953331,-0.0015970580279827118,0.00025037629529833794
1761505951168810500,3.442810546875,0.0008408781141042709,-0.0021408754400908947,-0.0007893217261880636
1761505951178847500,3.452847412109375,0.002110678469762206,-0.001307062804698944,0.0012833414366468787
1761505951188883500,3.462883544921875,-0.00228220596909523,0.0007899103220552206,-0.0015318862861022353
1761505951198919400,3.47291943359375,0.0040272618643939495,-0.000016305828467011452,0.0008747035171836615
1761505951208955600,3.48295556640625,0.0009209509007632732,0.001076389104127884,0.0017500845715403557
1761505951218992600,3.49299267578125,-0.000669749453663826,-0.0004626750014722347,-0.0008688962552696466
1761505951229028600,3.503028564453125,0.00047514354810118675,-0.00042592338286340237,0.0008464457932859659
1761505951239064600,3.513064697265625,-0.0003095269203186035,-0.0014123255386948586,-0.0005055018700659275
1761505951249100800,3.523100830078125,-0.0006528082303702831,-0.0005100464913994074,-0.0005180188454687595
1761505951259136800,3.53313671875,0.0012488123029470444,-0.0023907704744488,0.0003105718642473221
1761505951269173500,3.543173583984375,0.0004160418175160885,-0.0017801078502088785,-0.00019462988711893559
1761505951279209700,3.553209716796875,-0.0005313768051564693,0.0017355848103761673,-0.0007467481773346663
1761505951289245700,3.56324560546875,-0.0007758550345897675,-0.0008926887530833483,-0.0025800683069974184
1761505951299281700,3.57328173828125,0.001864755991846323,0.000537531916052103,-0.0005452469922602177
1761505951309318700,3.583318603515625,0.0003334386274218559,-0.0008795361500233412,-0.0015734934713691473
1761505951319354600,3.593354736328125,0.0008322577923536301,-0.0005791075527667999,0.00040191179141402245
1761505951329390600,3.603390625,-0.002227713819593191,0.001032371073961258,-0.0007464432856068015
1761505951339426600,3.613426513671875,0.00021180929616093636,-0.0004604184068739414,-0.0011209634831175208
1761505951349462500,3.623462646484375,-0.0001573045738041401,0.000995265319943428,-0.0008559789275750518
1761505951359499800,3.633499755859375,0.0005157869309186935,0.0012447783956304193,-0.0006842638831585646
1761505951369535700,3.64353564453125,-0.0018445728346705437,-0.0005525890737771988,-0.000444845762103796
1761505951379571700,3.65357177734375,0.00038749445229768753,0.0013069354463368654,-0.00028775399550795555
1761505951389607700,3.663607666015625,0.0010413005948066711,-0.0009687356650829315,0.0028494498692452908
1761505951399643600,3.6736435546875,0.000854157842695713,-0.00013923575170338154,0.0013708818005397916
1761505951409680600,3.6836806640625,0.00016972515732049942,0.0012988713569939137,0.000926133943721652
1761505951419716600,3.693716552734375,0.0019493219442665577,-0.00004542805254459381,0.0004346806090325117
1761505951429752600,3.703752685546875,-0.00003073830157518387,-0.0005032254848629236,-0.0010803918121382594
1761505951439788500,3.71378857421875,-0.0020010978914797306,0.0008575499523431063,-0.0008331883000209928
1761505951449825500,3.723825439453125,0.0007536755874752998,-0.0007888162508606911,0.00014578970149159431
1761505951459861500,3.733861572265625,0.0008718241006135941,0.0016006871592253447,0.0014922453556209803
1761505951469897500,3.7438974609375,-0.0018235612660646439,-0.0026739526074379683,-0.0014454876072704792
1761505951479933400,3.753933349609375,0.0005048117600381374,-0.0017227218486368656,-0.0004773398395627737
1761505951489969400,3.763969482421875,0.00028083985671401024,-0.00034853070974349976,-0.0009066413622349501
1761505951500006700,3.774006591796875,0.0008025798015296459,0.002297410275787115,0.0038070676382631063
1761505951510042600,3.784042724609375,0.0022587960120290518,0.0007873980794101954,-0.0035472519230097532
1761505951520078600,3.79407861328125,0.0030383358243852854,-0.0006579817272722721,0.0008076292579062283
1761505951530114600,3.804114501953125,0.0006055380217730999,-0.0008774262387305498,0.001993534853681922
1761505951540151600,3.814151611328125,-0.00003893999382853508,-0.000994283240288496,-0.0001825030194595456
1761505951550187500,3.8241875,-0.0019678673706948757,-0.0008355588652193546,0.0002678375458344817
1761505951560223500,3.834223388671875,-0.00048744305968284607,-8.034985512495041e-7,-0.0006583062931895256
1761505951570259500,3.844259521484375,-0.00032951775938272476,-0.0008663306944072247,0.0018993936246261
1761505951580295700,3.854295654296875,0.00017487956210970879,0.00020999182015657425,0.002116910647600889
1761505951590332400,3.86433251953125,0.000910711009055376,0.0016883125063031912,-0.0011971271596848965
1761505951600368400,3.874368408203125,-0.0005742553621530533,0.0008181724697351456,0.0018678223714232445
1761505951610404600,3.884404541015625,0.0014409585855901241,-0.000790376914665103,0.0002832415048032999
1761505951620440800,3.89444091796875,-0.0002086414024233818,0.00021270941942930222,0.0010863970965147018
1761505951630476800,3.904476806640625,0.000966878142207861,0.0010883568320423365,-0.0018665159586817026
1761505951640513500,3.914513427734375,-0.00028571300208568573,-0.0013462973292917013,-0.002016907325014472
1761505951650549800,3.9245498046875,-0.0004718680866062641,-0.0008360357023775578,0.0006830053753219545
1761505951660585700,3.934585693359375,0.002586598973721266,0.0009666457772254944,0.00016366713680326939
1761505951670621700,3.94462158203125,0.0003514080308377743,-0.0013361896853893995,0.001105627277866006
1761505951680658700,3.95465869140625,-0.00038480013608932495,-0.0006451790686696768,-0.0015129151288419962
1761505951690694700,3.964694580078125,-0.0011014565825462341,-0.0018638416659086943,-0.0004995821509510279
1761505951700730600,3.974730712890625,0.0015148422680795193,-0.00037640449590981007,-0.00046639854554086924
1761505951710766600,3.9847666015625,-0.0003576260060071945,0.00043399538844823837,-0.00025734049268066883
1761505951720802600,3.994802490234375,0.0014216634444892406,-0.0018477041739970446,0.0027054897509515285
1761505951730839600,4.004839599609375,0.0005587991327047348,-0.00027643912471830845,0.000055644428357481956
1761505951740874500,4.01487451171875,-0.0027951644733548164,0.00011608889326453209,0.0005973855732008815
1761505951750910500,4.024910400390625,0.00003977026790380478,-0.00350714148953557,0.00034145580139011145
1761505951760947700,4.03494775390625,0.001104261726140976,0.0005866279825568199,0.0018783245468512177
1761505951770983700,4.044983642578125,0.0013223746791481972,-0.00019527622498571873,0.0002913468051701784
1761505951781019600,4.05501953125,-0.0011719483882188797,-0.0008166816551238298,-0.0016859483439475298
1761505951791055600,4.0650556640625,0.0020747112575918436,-0.0006313256453722715,-0.002048670779913664
1761505951801091600,4.075091552734375,-0.0017018038779497147,-0.0009707547724246979,-0.0003254949115216732
1761505951811128600,4.085128662109375,-0.0009079151786863804,-0.0026802378706634045,-0.00027649279218167067
1761505951821164500,4.09516455078125,0.0008526165038347244,0.00019007688388228416,-0.0006510013481602073
1761505951831200500,4.105200439453125,-0.0008057337254285812,-0.00022084894590079784,0.0006249191937968135
1761505951841236500,4.115236572265625,-0.0008441368117928505,-0.0013752579689025879,0.00017960765399038792
1761505951851273500,4.1252734375,-0.0006214962340891361,0.0001880174968391657,0.00020730448886752129
1761505951861309400,4.135309326171875,0.0030117917340248823,0.00039464235305786133,0.0011524746660143137
1761505951871345400,4.145345458984375,-0.0012300913222134113,-0.0007718221750110388,0.00044593808706849813
1761505951881381600,4.155381591796875,-0.0002887328155338764,-0.0011844765394926071,-0.0011586464243009686
1761505951891417600,4.16541748046875,-0.00039073172956705093,-0.000794057035818696,-0.0008140333229675889
1761505951901454600,4.17545458984375,-0.0010324222967028618,-0.0002529728226363659,0.004108773544430733
1761505951911490600,4.185490478515625,-0.000745333731174469,0.002153992187231779,0.000052779330871999264
1761505951921526800,4.19552685546875,-0.0015215342864394188,-0.0008002934046089649,0.001704416936263442
1761505951931562800,4.205562744140625,0.0023914482444524765,-0.0005297160241752863,-0.000410931883379817
1761505951941598700,4.2155986328125,-0.0006516743451356888,-0.0005126285832375288,0.0031970911659300327
1761505951951635700,4.2256357421875,0.0008860351517796516,-0.0013185010757297277,0.0010332729434594512
1761505951961671700,4.235671630859375,-0.0007163346745073795,0.000349878566339612,-0.0008981134742498398
1761505951971707600,4.245707763671875,-0.0007909033447504044,-0.0002810242585837841,0.0016204380663111806
1761505951981743600,4.25574365234375,0.00031695934012532234,0.0004484991077333689,-0.0012824611039832234
1761505951991779600,4.265779541015625,-0.0017264843918383121,-0.000640201149508357,0.0021687292028218508
1761505952001816600,4.275816650390625,-0.00026043690741062164,0.002161220647394657,0.0010806985665112734
1761505952011852500,4.2858525390625,-0.0004423311911523342,-0.00011578225530683994,-0.002795266220346093
1761505952021888500,4.295888427734375,0.0008949171751737595,0.001224586390890181,0.0011139956768602133
1761505952031924500,4.305924560546875,-0.00043613091111183167,0.00227387179620564,-0.001695372979156673
1761505952041960700,4.315960693359375,0.0005099154077470303,-0.0011043502017855644,-0.000655787531286478
1761505952051997700,4.325997802734375,0.0012659868225455284,0.00017769564874470234,0.0007359804003499448
1761505952062033700,4.33603369140625,0.00037785060703754425,0.0033296821638941765,-0.0009767013834789395
1761505952072069600,4.346069580078125,-0.000001916196197271347,0.002925680484622717,0.0015929825603961945
1761505952082105600,4.356105712890625,0.0010235602967441082,-0.0004966640844941139,0.0009121692273765802
1761505952092141600,4.3661416015625,-0.00042173732072114944,0.0025071152485907078,-0.0010596353095024824
1761505952102178600,4.376178466796875,-0.002219945192337036,-0.0009035489056259394,0.000697571667842567
1761505952112214500,4.386214599609375,-0.0005802367813885212,-0.0001464120578020811,-0.0007200289983302355
1761505952122250500,4.39625048828125,0.0004948298446834087,0.002656747819855809,0.0016240868717432022
1761505952132286500,4.406286376953125,0.00018856627866625786,-0.0018194930162280798,-0.0002041731495410204
1761505952142322400,4.416322509765625,0.0003613489679992199,-0.000880316598340869,0.0007928223931230605
1761505952152359700,4.426359619140625,-0.00010230718180537224,-0.0014997678808867931,-0.0000940102618187666
1761505952162395600,4.436395751953125,0.000756286084651947,0.0007232290226966143,-0.0013556071789935231
1761505952172431600,4.446431640625,-0.0004088468849658966,0.0024244561791419983,0.001818348071537912
1761505952182467600,4.456467529296875,-0.0007601822726428509,-0.0002808950375765562,0.0005971976788714528
1761505952192503800,4.46650390625,-0.00010291393846273422,-0.0030583057086914778,-0.0015711480518803
1761505952202540500,4.47654052734375,0.0012643677182495594,0.0011654848931357265,-0.001329345628619194
1761505952212576500,4.486576416015625,0.00007207086309790611,0.0011886544525623322,0.0007069072453305125
1761505952222612700,4.49661279296875,0.0007865456864237785,0.0024342320393770933,0.0008766745449975133
1761505952232648700,4.506648681640625,-0.0002869744785130024,-0.0015573138371109962,0.0015797490486875176
1761505952242684700,4.5166845703125,0.0007661036215722561,-0.002012839075177908,-0.0019283260917291045
1761505952252721700,4.5267216796875,0.0011954056099057198,0.00036110286600887775,-0.0009615985909476876
1761505952262757600,4.536757568359375,0.0015643872320652008,0.0016687047900632024,0.0017157475231215358
1761505952272793600,4.546793701171875,-0.0014236797578632832,0.00024844100698828697,-0.0007040005875751376
1761505952282829800,4.556829833984375,-0.0012450073845684528,-0.00015644659288227558,0.0011343426303938031
1761505952292865800,4.56686572265625,-0.00008520064875483513,0.00021027075126767159,-0.00016075256280601025
1761505952302902800,4.57690283203125,-0.0018527433276176453,0.0016383514739573002,-0.0005266994703561068
1761505952312938800,4.586938720703125,0.0018525123596191406,0.0018769707530736923,0.0007870378904044628
1761505952322974700,4.596974609375,-0.0006226599216461182,-0.0002064660657197237,0.0013719536364078522
1761505952333010700,4.6070107421875,0.00030918000265955925,-0.002938070334494114,0.0007527687703259289
1761505952343046700,4.617046630859375,0.0007170885801315308,-0.00005226442590355873,0.00022819603327661753
1761505952353083600,4.627083740234375,-0.00021475134417414665,-0.0017090172041207552,0.00036108773201704025
1761505952363119600,4.63711962890625,0.0013854983262717724,0.0016619578236714005,-0.0004834902938455343
1761505952373155600,4.647155517578125,0.0007814932614564896,0.00037405313923954964,0.000010259682312607765
1761505952383191600,4.657191650390625,-0.000023425091058015823,0.0008719440083950758,0.00009316299110651016
1761505952393227500,4.6672275390625,-0.000044197775423526764,-0.002326246351003647,-0.0006210968131199479
1761505952403264800,4.6772646484375,0.000253455713391304,-0.00040518399327993393,0.0004751209635287523
1761505952413300700,4.68730078125,0.0014082025736570358,0.00124278012663126,-0.00045884959399700165
1761505952423336700,4.697336669921875,0.0001926240511238575,-0.0016871883999556303,0.0017419712385162711
1761505952433372700,4.70737255859375,0.0009039542637765408,0.0011565349996089935,-0.0008921612752601504
1761505952443408600,4.71740869140625,0.0005410881713032722,0.0012733486946672201,-0.001869681873358786
1761505952453445600,4.727445556640625,-0.0008615991100668907,0.000049626221880316734,-0.0017016363563016057
1761505952463481600,4.737481689453125,-0.0008322377689182758,-0.003558126278221607,0.0017589868512004614
1761505952473517600,4.747517578125,0.0014860439114272594,-0.0032649124041199684,-0.0006011065561324358
1761505952483553500,4.757553466796875,-0.0012657810002565384,0.0023935073986649513,-0.0020315598230808973
1761505952493589800,4.76758984375,-0.001953143160790205,-0.0005620687734335661,-0.0019466050434857607
1761505952503626500,4.77762646484375,0.0014351112768054008,-0.00035689910873770714,-0.0003021096345037222
1761505952513662500,4.787662353515625,-0.0029673599638044834,0.0002188761718571186,0.000983930891379714
1761505952523698700,4.79769873046875,0.0005401191301643848,0.0005173289682716131,0.0007782724569551647
1761505952533734700,4.807734619140625,0.00022480078041553497,-0.0024747326970100403,-0.00017913396004587412
1761505952543770600,4.8177705078125,-0.001341596245765686,0.00176214799284935,0.00025817006826400757
1761505952553807600,4.8278076171875,-0.00082414411008358,-0.0011428282596170902,-0.00024516740813851357
1761505952563843800,4.83784375,0.002064621774479747,0.0035351342521607876,-0.00044720794539898634
1761505952573879800,4.8478798828125,0.00046486081555485725,-0.0015999728348106146,-0.0017921043327078223
1761505952583915800,4.857915771484375,-0.0031896750442683697,0.001171388546936214,0.00299127958714962
1761505952593951700,4.86795166015625,0.00043755024671554565,-0.0037658456712961197,0.0015734126791357994
1761505952603988700,4.87798876953125,-0.0012584556825459003,-0.0018134634010493755,0.002592991106212139
1761505952614024700,4.888024658203125,0.0008536973036825657,-0.00036230660043656826,-0.0008949511684477329
1761505952624060700,4.898060791015625,-0.0002291654236614704,0.00021878094412386417,0.0015415934612974524
1761505952634096600,4.9080966796875,-0.0002627209760248661,-0.0005825643893331289,0.0004259953275322914
1761505952644132600,4.918132568359375,0.0005746837705373764,-0.0035788188688457012,-0.0005560098215937614
1761505952654169600,4.928169677734375,0.0005264803767204285,0.0004990133456885815,0.0003912766696885228
1761505952664205600,4.93820556640625,-0.00003465358167886734,0.00038568279705941677,0.0016480139456689358
1761505952674241500,4.948241455078125,-0.00011321716010570526,0.0008045979775488377,0.0009790279436856508
1761505952684277500,4.958277587890625,-0.0008629965595901012,0.0003579910844564438,0.0006553246639668941
1761505952694313500,4.9683134765625,-0.0003471421077847481,0.00034174579195678234,0.0004846160300076008
1761505952704350700,4.978350830078125,0.0012091314420104027,-0.0010384137276560068,0.0005076662637293339
1761505952714386700,4.98838671875,0.0009129876270890236,-0.0006426679901778698,-0.0021642830688506365
1761505952724422700,4.998422607421875,-0.003823649138212204,0.00004355027340352535,-0.004059815313667059
1761505952734458600,5.008458740234375,0.0015362282283604145,0.0013096170732751489,-0.0006424469174817204
1761505952744494600,5.01849462890625,0.0019853375852108,-0.0002651470713317394,0.0009112993138842285
1761505952754531600,5.028531494140625,0.00018370943143963814,0.0009026490151882172,0.0010188911110162735
1761505952764567600,5.038567626953125,0.0001777978613972664,-0.0016605723649263382,-0.0016060397028923035
1761505952774603500,5.048603515625,-0.0008078380487859249,0.0015695757465437055,0.00088561384472996
1761505952784639500,5.058639404296875,-0.0015381346456706524,-0.00006470829248428345,0.0016480103367939591
1761505952794675700,5.06867578125,-0.0005450421012938023,-0.00094648078083992,0.0012836898677051067
1761505952804712400,5.07871240234375,-0.0007187039591372013,-0.0015874879900366068,0.001369619625620544
1761505952814748400,5.08874853515625,-0.00012215599417686462,0.000823737820610404,-0.0007055153837427497
1761505952824784600,5.09878466796875,0.000272517092525959,0.0012177464086562395,0.000655446550808847
1761505952834820900,5.10882080078125,-0.003079603426158428,-0.0009545942302793264,-0.0004998326767235994
1761505952844856800,5.11885693359375,0.001947058830410242,-0.00042622629553079605,0.00105863728094846
1761505952854893600,5.1288935546875,-0.0012503322213888168,0.0011026945430785418,-0.0009749525925144553
1761505952864929800,5.1389296875,-0.0003001755103468895,-0.000511151971295476,0.0012446988839656115
1761505952874965800,5.1489658203125,-0.0014221654273569584,0.0011354804737493396,-0.000004589906893670559
1761505952885001700,5.159001708984375,0.0014341427013278008,-0.000009777722880244255,0.0011123198783025146
1761505952895037700,5.16903759765625,-0.001532884780317545,0.000031767645850777626,-0.0021484545432031155
1761505952905073700,5.17907373046875,-0.0006678113713860512,-0.0009457161650061607,0.002168386010453105
1761505952915110700,5.189110595703125,0.00019478658214211464,0.00031875260174274445,0.0003390606725588441
1761505952925146600,5.199146728515625,-0.004210299346596003,-0.00031565362587571144,0.0019283185247331858
1761505952935182600,5.2091826171875,0.0019458639435470104,-0.001042163698002696,0.001120315515436232
1761505952945218600,5.219218505859375,-0.0015401220880448818,-0.0014204117469489574,0.0006016532424837351
1761505952955254500,5.229254638671875,-0.0017571700736880302,-0.0023871390148997307,-0.0012713479809463024
1761505952965291800,5.239291748046875,-0.00005203159525990486,-0.00003880471922457218,-0.0017015126068145037
1761505952975327700,5.24932763671875,-0.0009516477584838867,-0.0008769016712903976,0.0018897601403295994
1761505952985363700,5.25936376953125,-0.0008884291164577007,0.0002512314822524786,-0.00018662295769900084
1761505952995399700,5.269399658203125,-0.0001225038431584835,0.0008712154813110828,-0.0013360432349145412
1761505953005435600,5.279435546875,0.00042905518785119057,-0.0005142763257026672,-0.0001558964140713215
1761505953015472600,5.28947265625,-0.0011501996777951717,0.0013928133994340897,-0.001454453682526946
1761505953025508600,5.299508544921875,0.00033791130408644676,0.0019445206271484494,0.002171606756746769
1761505953035544600,5.309544677734375,-0.0017497404478490353,-0.00042942119762301445,0.0011308434186503291
1761505953045580500,5.31958056640625,-0.000374749768525362,0.00034228432923555374,-0.0001038500340655446
1761505953055616500,5.329616455078125,0.0007970412261784077,0.0023100939579308033,0.002027743961662054
1761505953065654000,5.339654052734375,0.002029712311923504,-0.0015466988552361727,-0.0006417172262445092
1761505953075690000,5.34968994140625,-0.00011892616748809814,0.00020938925445079803,0.0004331344971433282
1761505953085726200,5.359726318359375,0.00047943321987986565,-0.000022892840206623077,-0.0011903528356924653
1761505953095762200,5.36976220703125,-0.0004505421966314316,-0.00033741211518645287,-0.0006518616573885083
1761505953105798100,5.379798095703125,0.0005438909865915775,-0.00045656412839889526,0.0019397246651351452
1761505953115834000,5.389834228515625,0.000901553314179182,0.00009737350046634674,-0.001351143466308713
1761505953125871000,5.39987109375,-0.0008619744330644608,0.0010298918932676315,-0.00021806685253977776
1761505953135907000,5.409906982421875,0.001070681493729353,0.00004718545824289322,-0.00011393730528652668
1761505953145943000,5.419943115234375,-0.0005578594282269478,0.0008814691100269556,0.00046057149302214384
1761505953155979300,5.429979248046875,-0.00006996840238571167,0.0006276699714362621,-0.0008622206514701247
1761505953166015200,5.44001513671875,0.0004726559855043888,-0.00384526327252388,0.0017351165879517794
1761505953176052000,5.450052001953125,-0.0030515044927597046,-0.0006603891961276531,0.0015332489274442196
1761505953186088200,5.460088134765625,0.0007762485183775425,0.0001658888068050146,0.0019471036503091455
1761505953196124200,5.470124267578125,-0.0009082010947167873,-0.0012573045678436756,-0.0015727962600067258
1761505953206160100,5.48016015625,-0.002292333170771599,0.001427574548870325,0.0009714068728499115
1761505953216196000,5.490196044921875,0.00031916284933686256,-0.0024907344486564398,0.0008579561836086214
1761505953226233300,5.5002333984375,-0.001342318020761013,-0.002440819051116705,0.0005134936654940248
1761505953236269300,5.510269287109375,-0.001691458746790886,-0.00007619825191795826,0.0003853956004604697
1761505953246305300,5.52030517578125,0.0006686686538159847,-0.0007383520714938641,0.0009712306782603264
1761505953256341200,5.53034130859375,0.00010700803250074387,-0.00045499159023165703,-0.0000748590100556612
1761505953266377200,5.540377197265625,-0.0015725921839475632,-0.0021603815257549286,-0.0017917345976457
1761505953276414200,5.550414306640625,0.0032823504880070686,-0.0016381354071199894,-0.0006417814875021577
1761505953286450200,5.5604501953125,-0.00012393435463309288,0.001119018066674471,0.0009243905660696328
1761505953296486100,5.570486083984375,0.0010025827214121819,-0.0012735656928271055,-0.0019318496342748404
1761505953306522000,5.580522216796875,-0.0002355058677494526,0.0008063437417149544,0.0011680519673973322
1761505953316558000,5.59055810546875,0.0006039226427674294,0.0011996926041319966,-0.00037817948032170534
1761505953326594000,5.600593994140625,-0.0008585895411670208,0.00021759443916380405,-0.0009322204859927297
1761505953336631000,5.610631103515625,-0.0004228963516652584,0.004079977050423622,-0.0004970600130036473
1761505953346667000,5.6206669921875,-0.00043237069621682167,-0.0006596008315682411,0.00041381269693374634
1761505953356703000,5.630702880859375,-0.0009764544665813446,-0.0022463120985776186,0.0013155590277165174
1761505953366739000,5.640739013671875,0.0013523451052606106,-0.0012429782655090094,-0.0007117367349565029
1761505953376775000,5.65077490234375,-0.000643427949398756,0.0003160363994538784,0.00039134465623646975
1761505953386812200,5.660812255859375,-0.000032955314964056015,0.003404336515814066,-0.0011378928320482373
1761505953396848000,5.67084814453125,0.0009191245771944523,0.0012066959170624614,-0.0005013971822336316
1761505953406884000,5.680884033203125,-0.00008312659338116646,0.0010231812484562397,0.001787824323400855
1761505953416920000,5.690920166015625,0.0027747114654630423,0.00004233908839523792,0.0007409356767311692
1761505953426956300,5.700956298828125,0.0021216017194092274,0.0016472871648147702,0.0021173888817429543
1761505953436992300,5.7109921875,-0.0008819112554192543,-0.0004214562941342592,-0.00026507501024752855
1761505953447029000,5.721029052734375,-0.00014142272993922234,0.0030516295228153467,0.0008506683516316116
1761505953457065200,5.731065185546875,-0.0008444972336292267,0.00002414803020656109,0.000813117774669081
1761505953467101200,5.74110107421875,-0.0002645724453032017,0.0025069613475352526,-0.00020416337065398693
1761505953477137200,5.75113720703125,0.0002371668815612793,-0.0022379925940185785,0.00029864138923585415
1761505953487173000,5.761173095703125,0.0020136795938014984,-0.003915851004421711,0.00015349243767559528
1761505953497210000,5.771210205078125,0.00006584357470273972,0.0023833238519728184,-0.000566892558708787
1761505953507246300,5.781246337890625,0.0019815252162516117,-0.0023022103123366833,-0.0014182052109390497
1761505953517282300,5.7912822265625,-0.0013098753988742828,0.00010475446470081806,0.00007209985051304102
1761505953527318300,5.801318359375,0.0013966052792966366,-0.0012446879409253597,0.002415998838841915
1761505953537354200,5.811354248046875,-0.0028508706018328667,0.0010309831704944372,0.00009532028343528509
1761505953547390200,5.82139013671875,-0.00047236960381269455,0.00016541569493710995,0.0007258826517499983
1761505953557427200,5.83142724609375,0.0006722570396959782,0.0003044328186661005,0.0001445146044716239
1761505953567463200,5.841463134765625,-0.000795525498688221,-0.0015813859645277262,-0.0012482915772125125
1761505953577499100,5.8514990234375,0.0021848182659596205,0.0014040176756680012,-0.0006554719293490052
1761505953587535000,5.86153515625,0.00004266807809472084,-0.0010104561224579811,0.0005983378505334258
1761505953597571000,5.871571044921875,0.0003872811794281006,-0.00005917530506849289,-0.0020022389944642782
1761505953607608000,5.881608154296875,-0.001624440774321556,-0.0013175841886550188,0.0003319646930322051
1761505953617644000,5.89164404296875,0.0006592199206352234,-0.0009463399183005095,-0.0007578008808195591
1761505953627680000,5.901679931640625,0.00033416878432035446,0.0010883964132517576,-0.0000039852457121014595
1761505953637716000,5.911716064453125,-0.00028315186500549316,-0.0010096421465277672,-0.0018306475831195712
1761505953647752000,5.921751953125,0.0017462675459682941,0.0013624272542074323,-0.0008286467054858804
1761505953657788200,5.9317880859375,-0.00008545443415641785,-0.00012601353228092194,0.0010313049424439669
1761505953667825200,5.9418251953125,-0.001688830554485321,0.0012018143897876143,0.0007102695526555181
1761505953677861000,5.951861083984375,0.0011471700854599476,-0.0015556227881461382,0.00004048459231853485
1761505953687897000,5.96189697265625,0.0010979934595525265,-0.00217860983684659,-0.0001747525529935956
1761505953697933300,5.971933349609375,-0.000013609882444143295,-0.0016534342430531979,0.00013337517157196999
1761505953707969300,5.98196923828125,0.003031404223293066,0.0006248943973332644,0.0015979423187673092
1761505953718005200,5.992005126953125,-0.0003393590450286865,0.0009101191535592079,-0.0015720183728262782
1761505953728042200,6.002042236328125,0.0017967387102544308,0.0017711893888190389,-0.0020722346380352974
1761505953738078200,6.012078125,-0.0005660178139805794,0.0021301833912730217,0.0017182426527142525
1761505953748114200,6.0221142578125,-0.0012792274355888367,0.0004913234151899815,0.0010540446965023875
1761505953758150100,6.032150146484375,0.0016683591529726982,-0.0014216252602636814,0.0011813438031822443
1761505953768186000,6.04218603515625,0.00004984298720955849,0.0015085771447047591,0.0003363741561770439
1761505953778223000,6.05222314453125,0.0013960711658000946,-0.0010760205332189798,-0.001233559218235314
1761505953788259000,6.062259033203125,0.0009316825307905674,0.001381861511617899,-0.002726588398218155
1761505953798295300,6.07229541015625,0.0006182282231748104,-0.00003866874612867832,0.0006724043050780892
1761505953808331300,6.082331298828125,0.0007365853525698185,-0.0009969386737793684,-0.0011251074029132724
1761505953818367200,6.0923671875,-0.00012761075049638748,-0.000335942255333066,-0.001123775844462216
1761505953828403200,6.1024033203125,0.001958909910172224,0.0005711261183023453,-0.000461208401247859
1761505953838440200,6.112440185546875,-0.0015327604487538338,0.00022651301696896553,-0.0002878366503864527
1761505953848476200,6.12247607421875,0.0022188741713762283,-0.0038820209447294474,-0.0003103259950876236
1761505953858512100,6.13251220703125,-0.0015316554345190525,0.00012097624130547047,-0.0015787894371896982
1761505953868548000,6.142548095703125,0.001848707441240549,0.002759237540885806,-0.0008458043448626995
1761505953878584000,6.152583984375,0.000056399963796138763,0.002119812648743391,0.0021079075522720814
1761505953888621000,6.16262109375,-0.0007524266839027405,0.0005038890521973372,0.0004358328878879547
1761505953898657000,6.172656982421875,-0.00045974552631378174,-0.00037149200215935707,0.003298198338598013
1761505953908693000,6.18269287109375,-0.000013811979442834854,-0.001392505830153823,0.0000999510521069169
1761505953918729000,6.19272900390625,-0.0005365903489291668,-0.0025579051580280066,-0.0005863455589860678
1761505953928765200,6.20276513671875,-0.0006601051427423954,-0.00025435141287744045,0.002089899266138673
1761505953938801200,6.21280126953125,0.0013359342701733112,-0.0006018939893692732,-0.0015013733645901084
1761505953948838100,6.222838134765625,-0.0005419394001364708,-0.0007689420599490404,-0.0013154085027053952
1761505953958874000,6.2328740234375,-0.0006122468039393425,-0.000208346638828516,0.0013858358142897487
1761505953968910300,6.242910400390625,-0.0008907988667488098,0.0019727549515664577,0.0011962675489485264
1761505953978946300,6.2529462890625,-0.00004284875467419624,-0.0016677863895893097,0.002611737698316574
1761505953988982300,6.262982177734375,-0.00000793207436800003,0.00004759896546602249,-0.0002567546907812357
1761505953999018200,6.273018310546875,-0.0005147312767803669,-0.0017945095896720886,-0.000445306533947587
1761505954009055200,6.28305517578125,0.0005790060386061668,0.00019868439994752407,-0.00015240861102938652
1761505954019091200,6.29309130859375,0.0007158922962844372,0.000508676515892148,0.0006039290456101298
1761505954029127200,6.303127197265625,-0.0020692446269094944,0.0012149608228355646,0.00047546904534101486
1761505954039163100,6.3131630859375,-0.0001712096855044365,0.001108967000618577,0.0011146276956424117
1761505954049199000,6.32319921875,0.0014018267393112183,0.0023009723518043756,-0.0006685897242277861
1761505954059235000,6.333235107421875,-0.00007755914703011513,0.00024394667707383633,0.0012052103411406279
1761505954069272000,6.34327197265625,-0.0013158870860934258,0.0010814883280545473,0.002734069712460041
1761505954079308000,6.35330810546875,-0.0007742000743746758,-0.001484467415139079,-0.0007136584026739001
1761505954089344300,6.36334423828125,-0.00018565217033028603,-0.00008001178503036499,0.000776318833231926
1761505954099380200,6.373380126953125,0.0002769390121102333,-0.0011431456077843904,-0.0007581945974379778
1761505954109416200,6.383416259765625,-0.00023764558136463165,-0.0009245537221431732,0.001233534305356443
1761505954119452200,6.3934521484375,0.003244969993829727,0.001435539685189724,-0.0005228205118328333
1761505954129489200,6.4034892578125,-0.0013013607822358608,0.0005193103570491076,0.0011313327122479677
1761505954139525000,6.413525146484375,-0.0007197260856628418,0.0015475567197427154,-0.002601620042696595
1761505954149561000,6.42356103515625,-0.0008413749746978283,-0.0009702190291136503,0.0016895581502467394
1761505954159597000,6.43359716796875,-0.0015063663013279438,0.0008234200067818165,0.000834417121950537
1761505954169633000,6.443633056640625,0.0005636531859636307,-0.0033743695821613073,-0.00006195786409080029
1761505954179669200,6.453669189453125,-0.00010240310803055763,0.0014470170717686415,0.0004248679615557194
1761505954189706000,6.4637060546875,-0.00021615484729409218,-0.0003393804654479027,0.0009870438370853662
1761505954199742000,6.473741943359375,-0.0008854074403643608,0.0007834082935005426,-0.000640413723886013
1761505954209778200,6.483778076171875,0.0025036733131855726,0.0020922154653817415,0.0022032330743968487
1761505954219814100,6.493814208984375,-0.0011238185688853264,0.0009587742388248444,0.00017283926717936993
1761505954229850000,6.50385009765625,0.00006100023165345192,0.0005845683626830578,0.0015498560387641191
1761505954239886000,6.513885986328125,0.0031662459950894117,0.000677779084071517,-0.0007471202407032251
1761505954249923300,6.52392333984375,0.0009665107354521751,-0.0017827488481998444,-0.0018479209393262863
1761505954259959300,6.533959228515625,0.0002064448781311512,-0.0011140289716422558,-0.0018662966322153807
1761505954269995300,6.543995361328125,0.0007837018929421902,0.001292226486839354,-0.00041688629426062107
1761505954280031200,6.55403125,0.0019957064650952816,0.0016906354576349258,-0.002584699308499694
1761505954290067200,6.564067138671875,-0.00009347870945930481,0.0002760132774710655,0.0005065399454906583
1761505954300103200,6.574103271484375,0.0007989467121660709,0.0006070442032068968,-0.0017675332492217422
1761505954310140200,6.58414013671875,-0.00023881671950221062,0.0016917780740186572,0.0002929402980953455
1761505954320176000,6.594176025390625,-0.0015118075534701347,0.0012411711504682899,0.00035152980126440525
1761505954330212000,6.604212158203125,0.00038998713716864586,0.0012027116026729345,-0.00022201763931661844
1761505954340248000,6.614248046875,-0.002567452844232321,-0.0026753833517432213,0.0015117002185434103
1761505954350284000,6.624283935546875,0.00309544219635427,0.003338879207149148,0.0004108173307031393
1761505954360320000,6.634320068359375,-0.0019600368104875088,-0.0005959412083029747,-0.00032101920805871487
1761505954370357000,6.64435693359375,-0.0007317578420042992,-0.00032917410135269165,-0.00007031590212136507
1761505954380393000,6.65439306640625,0.0018211482092738152,0.0020359791815280914,0.0003840193385258317
1761505954390429200,6.66442919921875,0.001913575455546379,-0.0009914436377584934,0.0005050445906817913
1761505954400465200,6.674465087890625,0.0012853355146944523,0.0001981901004910469,-0.002116304822266102
1761505954410501000,6.684501220703125,0.00027924636378884315,-0.0014167947228997946,0.00048257014714181423
1761505954420537300,6.694537353515625,0.00022012414410710335,-0.001045549986883998,0.00016219192184507847
1761505954430574000,6.704573974609375,-0.0002531851641833782,0.0012650901917368174,-0.0004907912807539105
1761505954440610000,6.714610107421875,-0.00035145552828907967,0.0019103740341961384,-0.002281766850501299
1761505954450646300,6.724646240234375,0.0005106241442263126,-0.00006272178143262863,0.0008047059527598321
1761505954460682200,6.73468212890625,0.0013609714806079865,0.003096586326137185,0.0004070959985256195
1761505954470718200,6.74471826171875,-0.001078751403838396,-0.002454998204484582,-0.0004206034354865551
1761505954480754200,6.754754150390625,0.000500769354403019,-0.0015620405320078135,0.00020310888066887856
1761505954490791200,6.764791259765625,-0.0006993701681494713,-0.0021845654118806124,0.0014248446095734835
1761505954500827100,6.7748271484375,-0.001254372764378786,-0.002859676955267787,-0.00037491973489522934
1761505954510863000,6.784863037109375,0.0006501823663711548,0.002847786992788315,0.0008710582042112947
1761505954520899000,6.794899169921875,0.00037081679329276085,-0.0028532419819384813,0.0020372564904391766
1761505954530935000,6.80493505859375,0.0020859052892774343,-0.00009084353223443031,0.000922767270822078
1761505954540971000,6.814970947265625,0.0006717666983604431,-0.0025537346955388784,0.00043327827006578445
1761505954551008300,6.82500830078125,0.001962953247129917,-0.0003159581683576107,-0.0006938528968021274
1761505954561044200,6.835044189453125,0.0009653330780565739,0.0023160437121987343,-0.0003668168792501092
1761505954571080200,6.845080078125,0.0013394560664892197,-0.00015229033306241035,0.0004572540055960417
1761505954581116200,6.8551162109375,0.002072358038276434,0.00040963664650917053,-0.00030760595109313726
1761505954591152000,6.865152099609375,-0.0019632596522569656,0.002300894819200039,0.0007673123036511242
1761505954601188000,6.87518798828125,0.00008737482130527496,-0.001902905059978366,-0.0006484240293502808
1761505954611225000,6.88522509765625,-0.00005855504423379898,-0.0005173583049327135,0.00045234430581331253
1761505954621261000,6.895260986328125,-0.0007134261541068554,-0.001417240360751748,0.0019463776843622327
1761505954631297000,6.905297119140625,-0.0005619428120553493,-0.0005971982609480619,0.0006645572138950229
1761505954641333000,6.9153330078125,-0.0005566161125898361,0.000592169351875782,-0.0012425323948264122
1761505954651369200,6.925369140625,-0.0004932647570967674,0.00008392310701310635,0.0008841671515256166
1761505954661405200,6.9354052734375,0.00011872965842485428,0.0004695488605648279,0.00000665558036416769
1761505954671441200,6.945441162109375,0.0017180661670863628,-0.0011040826793760061,0.0016844830242916942
1761505954681478100,6.95547802734375,-0.0016811927780508995,0.0009268438443541527,0.0010844728676602244
1761505954691514400,6.965514404296875,0.0006483206525444984,0.0007881226483732462,0.0006211339496076107
1761505954701550300,6.97555029296875,-0.00004223734140396118,-0.0014888797886669636,0.0014970476040616632
1761505954711586300,6.98558642578125,0.00106780044734478,0.003363273339346051,-0.00042633223347365856
1761505954721622300,6.995622314453125,-0.0011751139536499977,0.0008071712218225002,-0.0028218457009643316
1761505954731658200,7.005658203125,0.0009451843798160553,-0.00030412408523261547,0.0020401165820658207
1761505954741695200,7.0156953125,-0.00011315569281578064,0.0002167902421206236,-0.0006936182035133243
1761505954751731200,7.025731201171875,0.002688175532966852,-0.00045027188025414944,0.002289323601871729
1761505954761767200,7.03576708984375,0.0002926620654761791,-0.00031418423168361187,-0.0013613376067951322
1761505954771803100,7.04580322265625,-0.0020333025604486465,0.00013740407302975655,-0.0011950288899242878
1761505954781839000,7.055839111328125,-0.0024673976004123688,-0.0007933706510812044,-0.00140408705919981
1761505954791875000,7.065875,0.0008265795186161995,0.00020920601673424244,-0.0008358254563063383
1761505954801912000,7.075912109375,-0.0005273716524243355,0.002365301363170147,-0.0013956220354884863
1761505954811948000,7.085947998046875,-0.0018884935416281223,-0.0017191751394420862,0.00016879243776202202
1761505954821984000,7.09598388671875,-0.00022295257076621056,-0.0038015011232346296,-0.0006983326748013496
1761505954832020000,7.10602001953125,0.00007207924500107765,-0.0013302660081535578,-0.000008610193617641926
1761505954842056000,7.116055908203125,0.0009759562090039253,-0.0006277239881455898,0.001749608782120049
1761505954852092000,7.126091796875,0.0018793647177517414,-0.00002145860344171524,0.000923500454518944
1761505954862128400,7.13612841796875,-0.001476750709116459,0.003165546339005232,0.001187952351756394
1761505954872165000,7.1461650390625,-0.0020600566640496254,-0.00160434958525002,0.0002532621147111058
1761505954882201000,7.156201171875,-0.0009564431384205818,-0.0006674495525658131,0.0016889722319319844
1761505954892237300,7.1662373046875,0.0000707041472196579,0.002235954161733389,-0.0007859633769840002
1761505954902273300,7.176273193359375,0.00045606354251503944,-0.000052766408771276474,0.0011022179387509823
1761505954912309200,7.186309326171875,-0.0008019250817596912,-0.0012231075670570135,0.0008943896391429007
1761505954922345200,7.19634521484375,0.0007847864180803299,-0.0026210008654743433,-0.00040549924597144127
1761505954932382200,7.20638232421875,-0.0011835508048534393,0.0012248520506545901,-0.0007170521421357989
1761505954942418200,7.216418212890625,0.0015901313163340092,-0.0014433690812438726,-0.0007796363206580281
1761505954952454100,7.2264541015625,0.0009569521062076092,-0.001199026359245181,0.0030537231359630823
1761505954962490000,7.236489990234375,-0.00041777174919843674,-0.0012088802177459002,0.00039828522130846977
1761505954972526000,7.246526123046875,0.00045917415991425514,-0.000761241652071476,-0.0018772673793137074
1761505954982562000,7.25656201171875,0.00008659809827804565,-0.0022030770778656006,0.0009355633519589901
1761505954992598000,7.266597900390625,0.000023854896426200867,-0.0028697506058961153,-0.00026197347324341536
1761505955002635300,7.27663525390625,-0.000346324872225523,0.0005649281665682793,0.002125017810612917
1761505955012671200,7.286671142578125,-0.0008218674920499325,-0.0006255665794014931,0.0021892667282372713
1761505955022707200,7.296707275390625,-0.00033184560015797615,0.0009795206133276224,-0.0016161240637302399
1761505955032743200,7.3067431640625,-0.0015220339410007,0.002305803820490837,-0.000004962668754160404
1761505955042779100,7.316779052734375,-0.0024552051909267902,-0.000479330075904727,-0.00040443683974444866
1761505955052815000,7.326815185546875,-0.00015280069783329964,0.002411157125607133,-0.0016280473209917545
1761505955062852400,7.336852294921875,-0.00024973973631858826,-0.00022643757984042168,-0.0005409449804574251
1761505955072888300,7.346888427734375,0.00023151980713009834,-0.001161858905106783,0.0020747696980834007
1761505955082924300,7.35692431640625,0.0010597631335258484,-0.0006603857036679983,0.00007420324254781008
1761505955092960300,7.366960205078125,-0.0012986664660274982,0.0004808360245078802,-0.0018736886559054255
1761505955102996200,7.376996337890625,0.0008198781870305538,-0.0011032118927687407,0.0007868091925047338
1761505955113032400,7.387032470703125,-0.0011534197255969048,-0.000543822767212987,-0.002533435821533203
1761505955123068400,7.397068359375,0.0008407551795244217,-0.000644756481051445,0.0007686177268624306
1761505955133105200,7.407105224609375,-0.00023630494251847267,0.0008175317198038101,0.000934464274905622
1761505955143141400,7.417141357421875,0.00021936185657978058,-0.00044507277198135853,-0.0016578567447140813
1761505955153177300,7.42717724609375,-0.0005135685205459595,-0.0003486087080091238,0.0021566622890532017
1761505955163213300,7.43721337890625,-0.000636606477200985,-0.0008463533595204353,0.0006604983936995268
1761505955173249300,7.447249267578125,0.0001949407160282135,-0.0004377830773591995,-0.0010581720853224397
1761505955183285200,7.45728515625,-0.0006636627949774265,0.0002490461338311434,0.002185557968914509
1761505955193322500,7.467322509765625,0.002061921637505293,0.0020118237007409334,-0.0026025804691016674
1761505955203358500,7.4773583984375,-0.0003178790211677551,0.0012871775543317199,-0.0007045457605272532
1761505955213394400,7.48739453125,-0.0021106149069964886,0.0011102557182312012,-0.00004715961404144764
1761505955223430400,7.497430419921875,-0.000854934100061655,0.00106524839065969,0.00040690938476473093
1761505955233466400,7.50746630859375,0.0013318508863449097,0.0015554262790828943,-0.0010821194155141711
1761505955243502300,7.51750244140625,0.0010860413312911987,0.0005061407573521137,-0.000019518076442182064
1761505955253538300,7.527538330078125,-0.0016944250091910362,0.0012889474164694548,0.0016779429279267788
1761505955263575300,7.5375751953125,0.00201376061886549,-0.0013214829377830029,0.002059840364381671
1761505955273611300,7.547611328125,-0.0002395985648036003,0.0014661410823464394,-0.00029032817110419273
1761505955283647200,7.557647216796875,-0.0005884729325771332,0.0015436389949172735,0.0009451122023165226
1761505955293683200,7.56768310546875,-0.00012616673484444618,0.001854855683632195,0.00009894953109323978
1761505955303719200,7.57771923828125,0.0012485571205615997,-0.0016208358574658632,-0.0007620505057275295
1761505955313755400,7.58775537109375,-0.001863398589193821,0.002579469932243228,0.00009996816515922546
1761505955323791400,7.597791259765625,0.0014916514046490192,0.000732301501557231,0.00023232726380228996
1761505955333828400,7.607828369140625,0.00038837408646941185,0.0001453971490263939,-0.0007080615032464266
1761505955343864300,7.6178642578125,-0.001538689248263836,0.0012929532676935196,0.00006212457083165646
1761505955353900500,7.627900634765625,0.00011459412053227425,-0.0003607235848903656,-0.00031117768958210945
1761505955363936500,7.6379365234375,0.0006578788161277771,0.0014395732432603836,-0.0010494058951735497
1761505955373972500,7.647972412109375,-0.00008291052654385567,0.0005405663978308439,-0.0003134391736239195
1761505955384008400,7.658008544921875,0.0014920830726623535,-0.0015683909878134727,-0.002352355280891061
1761505955394044400,7.66804443359375,0.0008485028520226479,0.002335856668651104,-0.00029523042030632496
1761505955404081400,7.678081298828125,0.0009489040821790695,0.0007097304333001375,0.0032443772070109844
1761505955414117400,7.688117431640625,0.002031722106039524,0.0012088404037058353,0.000023616827093064785
1761505955424153300,7.6981533203125,0.0006910865195095539,0.0012815446825698018,0.001154927653260529
1761505955434189300,7.708189208984375,-0.0022396459244191647,-0.00031827623024582863,-0.001865688944235444
1761505955444225300,7.718225341796875,0.0002781064249575138,0.0025084028020501137,0.0002123756567016244
1761505955454261200,7.72826123046875,-0.0010311324149370193,-0.0015618924517184496,-0.0012956809950992465
1761505955464297200,7.738297119140625,-0.002452195156365633,0.0013449478428810835,-0.00033587764482945204
1761505955474334200,7.748334228515625,-0.0007810737006366253,0.0009575218427926302,0.00037199188955128193
1761505955484370400,7.758370361328125,-0.00082368403673172,0.0011732378043234348,0.00009236007463186979
1761505955494406400,7.768406494140625,0.000146613921970129,-0.0014954586513340473,0.00026348140090703964
1761505955504442400,7.7784423828125,-0.0004723048768937588,-0.0013825404457747936,0.0012437909608706832
1761505955514478300,7.788478271484375,0.000771817285567522,-0.00041665229946374893,-0.001662235357798636
1761505955524514600,7.7985146484375,-0.0008614994585514069,0.0007604649290442467,0.0019990785513073206
1761505955534550500,7.808550537109375,-0.000757124274969101,0.003388490527868271,0.0001365921925753355
1761505955544587300,7.818587158203125,0.000620529055595398,0.0021959268487989902,-0.00008817855268716812
1761505955554623500,7.82862353515625,0.00024026352912187576,0.0010451029520481825,-0.0006001655710861087
1761505955564659500,7.838659423828125,-0.0008212723769247532,0.001683462643995881,-0.0010214777430519462
1761505955574695400,7.8486953125,-0.0008963118307292461,0.0010297270491719246,0.0006410115165635943
1761505955584731400,7.8587314453125,0.0003013117238879204,-0.0026369132101535797,0.0015824390575289726
1761505955594767400,7.868767333984375,0.0010027470998466015,-0.0016808153595775366,0.0010345373302698135
1761505955604803300,7.87880322265625,0.001703957561403513,-0.0016808153595775366,0.0016318842535838485
1761505955614840300,7.88884033203125,-0.0012473948299884796,0.0023453652393072844,0.0011715246364474297
1761505955624876300,7.898876220703125,0.0037018239963799715,0.000978897325694561,-0.0006500774761661887
1761505955634912300,7.908912353515625,0.00031576352193951607,-0.0007159828674048185,-0.0008540662238374352
1761505955644948200,7.9189482421875,-0.0001034177839756012,-0.00046271621249616146,-0.0016575419576838613
1761505955654984200,7.928984130859375,-0.0007970915175974369,0.0010418593883514404,0.0009810137562453747
1761505955665020400,7.9390205078125,-0.0003174562007188797,0.00027353735640645027,0.0018241704674437642
1761505955675056400,7.949056396484375,-0.00001947535201907158,-0.0008464506827294827,-0.0017246215138584375
1761505955685093400,7.95909326171875,0.00009690504521131516,0.0023575983941555023,0.0018091269303113222
1761505955695129300,7.96912939453125,0.0020628110505640507,-0.0005764036905020475,-0.000014011282473802567
1761505955705165300,7.979165283203125,-0.0009156684391200542,0.0017645148327574134,0.0004730807850137353
1761505955715201300,7.989201171875,0.00031426409259438515,0.002583600115031004,-0.0005691796541213989
1761505955725237200,7.9992373046875,0.0001773773692548275,-0.001435642596334219,0.001965617062523961
1761505955735273500,8.0092734375,-0.0026481258682906628,0.0013987988932058215,-0.0003019061405211687
1761505955745309400,8.019309326171875,0.0017940271645784378,0.0003228818532079458,-0.000006827991455793381
1761505955755346200,8.02934619140625,0.0009154872968792915,0.0013680969132110476,0.0021209092810750008
1761505955765382400,8.03938232421875,0.0003889803774654865,0.000949980691075325,0.0009722878457978368
1761505955775418400,8.04941845703125,0.00030811456963419914,0.00003055925481021404,-0.0013501790817826986
1761505955785454300,8.059454345703125,-0.0003225221298635006,0.000057989731431007385,0.0015601234044879675
1761505955795490300,8.069490234375,0.0003433283418416977,0.00017789960838854313,-0.0014611565275117755
1761505955805526300,8.0795263671875,-0.00023244740441441536,0.0024248086847364902,-0.0009050884982571006
1761505955815562200,8.089562255859375,0.0017071710899472237,0.00022318330593407154,-0.000024473760277032852
1761505955825599500,8.099599609375,-0.000492599792778492,0.0010692696087062359,5.599576979875565e-7
1761505955835635500,8.109635498046876,-0.0008857268840074539,-0.0012777720112353563,-0.00047080509830266237
1761505955845671400,8.11967138671875,-0.001090257428586483,-0.002396299736574292,-0.0006806623423472047
1761505955855707400,8.129707275390626,0.0017109825275838375,0.0014648130163550377,-0.0006298570660874248
1761505955865743400,8.139743408203126,-0.0007186192087829113,-0.0012167238164693117,-0.000026917317882180214
1761505955875779300,8.149779296875,-0.001795667689293623,-0.000970709603279829,0.00013024418149143457
1761505955885815300,8.159815185546876,0.0007476513274013996,0.00002850848250091076,0.0011688771191984415
1761505955895851300,8.169851318359376,-0.0009906785562634468,-0.0003700286615639925,-0.0008029614109545946
1761505955905888300,8.17988818359375,0.0018146955408155918,0.000023320317268371582,-0.0012530358508229256
1761505955915924200,8.18992431640625,0.0005499916151165962,-0.00009285076521337032,0.0001593095948919654
1761505955925960200,8.199960205078124,0.0029433746822178364,-0.0007368032820522785,0.0011979422997683287
1761505955935996400,8.209996337890624,-0.0004116501659154892,-0.0004142932593822479,0.0004402715712785721
1761505955946032400,8.220032470703124,-0.0013307072222232819,-0.00015303725376725197,0.0003720946842804551
1761505955956068400,8.230068359375,0.0011146971955895424,-0.0016108346171677113,0.0013740159338340163
1761505955966104300,8.240104248046874,0.0003319941461086273,-0.0036574737168848515,-0.0008204288315027952
1761505955976141600,8.2501416015625,0.0011074934154748917,0.0008946922607719898,0.002035444602370262
1761505955986177500,8.260177490234375,-0.0012422134168446064,-0.0002491353079676628,0.0008846927084960043
1761505955996213500,8.270213623046875,0.00019514979794621468,0.00015218323096632957,0.002060803584754467
1761505956006249500,8.28024951171875,-0.00045679230242967606,-0.0019170930609107018,-0.0006721322424709797
1761505956016285400,8.290285400390625,-0.00014464044943451881,-0.0005483999848365784,0.0003775140503421426
1761505956026321400,8.3003212890625,0.00013126293197274208,0.00010274304077029228,0.0001506126718595624
1761505956036357400,8.310357421875,0.0002464326098561287,-0.0000031043309718370438,0.0010877836029976606
1761505956046394400,8.320394287109375,0.0009588282555341721,-0.0003378635738044977,0.0011314594885334373
1761505956056430300,8.330430419921875,-0.0004978333599865437,-0.00019816309213638306,0.0002243837807327509
1761505956066466300,8.34046630859375,0.0021243151277303696,-0.0013305393513292074,-0.00006110710091888905
1761505956076502300,8.350502197265625,0.0010599936358630657,0.00011389958672225475,0.0010981515515595675
1761505956086538200,8.360538330078125,0.0006903470493853092,0.0034247415605932474,0.00032903056126087904
1761505956096574200,8.37057421875,-0.00018716184422373772,0.0018288983264937997,-0.0003657514462247491
1761505956106610200,8.380610107421875,-0.0018268702551722527,0.022910747677087784,0.007872737012803555
1761505956116647200,8.390647216796875,0.00015785638242959976,0.043914180248975754,0.010380297899246216
1761505956126683100,8.40068310546875,-0.006721887271851301,0.41330021619796753,0.09177476167678833
1761505956136719400,8.41071923828125,-0.004000809974968433,0.11189790070056915,0.01822110265493393
1761505956146755600,8.420755615234375,0.004587884992361069,-0.2615489363670349,-0.04789027199149132
1761505956156791600,8.43079150390625,-0.000885598361492157,0.13463082909584045,0.027645666152238846
1761505956166827500,8.44082763671875,0.00012160930782556534,-0.0371563658118248,-0.00662708654999733
1761505956176863500,8.450863525390625,0.001533546019345522,-0.13931050896644592,-0.030035577714443207
1761505956186899500,8.4608994140625,0.0018430054187774658,-0.09636250883340836,-0.023159829899668694
1761505956196936400,8.4709365234375,0.004089186433702707,-0.22028224170207977,-0.05185554921627045
1761505956206972400,8.480972412109375,-0.0012722895480692387,0.08306538313627243,0.015307772904634476
