time,seconds_elapsed,z,y,x
1761505429213465000,0.101465087890625,-0.0854763894945383,0.05501242377832532,0.22843144675046204
1761505429223501800,0.111501708984375,-0.0078080434024333945,0.02557568221800029,0.291207636398077
1761505429233537800,0.121537841796875,-0.014355857610702514,0.04722257361970841,0.2568435945034027
1761505429243574000,0.131573974609375,0.015060206487774848,0.11048493934907018,0.17742518987357617
1761505429253610000,0.14160986328125,-0.014762684845924377,0.15018405866138637,0.0830339647784829
1761505429263646700,0.151646728515625,0.07709551464021205,0.1758134438280016,0.03434416815042496
1761505429273683000,0.161682861328125,0.2777718162417412,0.17536489634290336,0.016713965044170616
1761505429283719000,0.171718994140625,0.3660954118609428,0.10367105808313935,0.06649097238704561
1761505429293756000,0.181755859375,0.32738077354133127,0.03820968447215855,0.10178571926057338
1761505429303791900,0.1917919921875,0.12172376091778278,0.047393911598622794,0.021039865419268607
1761505429313828000,0.201828125,0.046888592424988745,0.07455722833424806,-0.040957887201756235
1761505429323864000,0.211864013671875,0.0380500369310379,0.10330423406474291,-0.06750029556006193
1761505429333901000,0.221901123046875,0.11524316672682762,0.11740114847831427,-0.11892507010996341
1761505429343937000,0.23193701171875,0.18628654172122477,0.16708353634029627,-0.1502659647911787
1761505429353973000,0.241972900390625,0.14208382737934588,0.2806191319642588,-0.20307108778357505
1761505429364009000,0.252009033203125,0.15432956096827982,0.33045440883301197,-0.22835385146960616
1761505429374046000,0.2620458984375,0.12098492524921893,0.2914301200423389,-0.15131284349560736
1761505429384082000,0.27208203125,0.011073182678222656,0.232113057872653,-0.05062631764858961
1761505429394118000,0.282117919921875,-0.17233283517062664,0.2060946003232151,-0.03874094180464745
1761505429404153900,0.29215380859375,-0.3539671671718359,0.18641893592923878,-0.10259060590267181
1761505429414191000,0.302191162109375,-0.28526714043319223,0.19759630963429808,-0.15261720409244298
1761505429424227000,0.31222705078125,-0.13894669839739798,0.17306746958810834,-0.1585501012727618
1761505429434263000,0.322262939453125,0.04009995519816875,0.10437303234003484,-0.12212912684828042
1761505429444299000,0.332299072265625,0.10127835426032543,0.050892713499814266,-0.06489639667198062
1761505429454336300,0.342336181640625,0.09746493345201016,0.02292319494783878,-0.005894464866071939
1761505429464372200,0.352372314453125,-0.021216391029953954,-0.0040476679556071754,-0.005928367135673761
1761505429474408200,0.362408203125,-0.1482704070597887,-0.03000270488001406,-0.10731836507692932
1761505429484444200,0.372444091796875,-0.1857102031379938,-0.10091993274409324,-0.1508890651255846
1761505429494481200,0.382481201171875,-0.16043839923739434,-0.18662589321080594,-0.14824235000908373
1761505429504517000,0.39251708984375,0.001858195087313652,-0.23121209044493735,-0.09319967722296714
1761505429514553000,0.402552978515625,0.11437106006741524,-0.2590424927871674,-0.07624357398599385
1761505429524590000,0.412590087890625,0.14931553219854832,-0.2528822896569967,-0.05751023194342851
1761505429534626000,0.4226259765625,0.020316227319836615,-0.21305833838861435,-0.07567892584055662
1761505429544662000,0.432662109375,-0.20526772104501723,-0.16704656533077358,-0.10365151313245295
1761505429554698000,0.442697998046875,-0.34422260274887084,-0.1624573743769899,-0.03421571946516633
1761505429564735200,0.4527353515625,-0.45808805138170716,-0.1576035046050325,0.08264116606861352
1761505429574771200,0.462771240234375,-0.4566343454420566,-0.17334624999687073,0.1611895098656416
1761505429584807200,0.47280712890625,-0.4797983634084463,-0.17135690281055865,0.13866598175987602
1761505429594843100,0.482843017578125,-0.559624764317274,-0.1381697226755321,0.036275136213004586
1761505429604880100,0.492880126953125,-0.5913385839641094,-0.09459873036593199,-0.04837663902565836
1761505429614916000,0.502916015625,-0.5741062941342592,-0.06419431281723081,-0.06638268970698118
1761505429624952000,0.5129521484375,-0.43808921944797036,-0.07988317259736359,-0.028700609305500984
1761505429634988000,0.522988037109375,-0.2478068860888481,-0.12457228221669793,-0.005183247856795787
1761505429645025000,0.53302490234375,-0.045676878547668456,-0.13745993043836205,0.02084229702055454
1761505429655061000,0.54306103515625,0.08203063295483588,-0.1306377928007394,0.004557517173886299
1761505429665097000,0.553096923828125,0.2009340757548809,-0.08535188633203505,-0.048285307480394835
1761505429675133000,0.5631328125,0.2351058099478483,-0.09158369339369236,-0.08640738673433661
1761505429685170200,0.573170166015625,0.11393383769392966,-0.08576770059131085,-0.09627864627689123
1761505429695206100,0.5832060546875,-0.06062310326695442,-0.031983941825106735,-0.07989478996992111
1761505429705242000,0.5932421875,-0.26866087354719637,0.031814467009715734,-0.078842212177068
1761505429715278000,0.603278076171875,-0.35313130086958405,0.06515658197812736,-0.11662395356073975
1761505429725315000,0.613315185546875,-0.24979484503567218,0.064730867379345,-0.16143442453742027
1761505429735351000,0.62335107421875,-0.08488076168894768,0.04750763763878494,-0.17872341299057007
1761505429745387000,0.633386962890625,0.1892652652710676,-0.012628924220241606,-0.15824161984547971
1761505429755423000,0.643423095703125,0.39300329253077504,-0.05608206230383366,-0.10597294181734322
1761505429765460000,0.6534599609375,0.37703473902642726,-0.02241612220853567,-0.04725041147470474
1761505429775496000,0.663495849609375,0.27536358605623246,-0.03769435536116361,-0.03764233291298151
1761505429785532000,0.673531982421875,0.03339315103590488,-0.035830972642079,-0.06794073280394076
1761505429795569200,0.683569091796875,-0.20910160011947154,0.03386997476741671,-0.10931932963579892
1761505429805605000,0.693605224609375,-0.23352292467057703,0.0860204697759822,-0.11630889626219867
1761505429815641000,0.70364111328125,-0.1809866817474365,0.10389332253169267,-0.0801883660890162
1761505429825677000,0.713677001953125,-0.04781505962014198,0.07036196860149502,-0.05104015914648771
1761505429835714000,0.723714111328125,0.13390753518640994,0.04678736054021865,-0.050809126869589084
1761505429845750000,0.73375,0.1600029304295778,0.02479446871243417,-0.10292509855404496
1761505429855786000,0.743785888671875,0.07901157739460468,-0.022738376432843505,-0.06710223615318536
1761505429865822000,0.753822021484375,-0.16309037505090235,-0.009999489032104611,0.02488061262592673
1761505429875859000,0.76385888671875,-0.2888385691791773,-0.03146817432269454,0.04138780305162072
1761505429885895000,0.77389501953125,-0.40092940935492516,-0.0420121089624241,0.052286944337189195
1761505429895931000,0.783930908203125,-0.5188929409563541,-0.03135090461857617,0.023376345542818307
1761505429905967000,0.793967041015625,-0.5653028099536895,0.0000890299903228879,0.01699292811602354
1761505429916004000,0.804004150390625,-0.5838549502104521,0.0051546793494373555,0.04244038084447384
1761505429926040000,0.8140400390625,-0.5232324314653873,-0.029531653302162883,0.13925240334570407
1761505429936076300,0.824076171875,-0.41280572510957714,-0.06781221105344593,0.2158462520740926
1761505429946112300,0.8341123046875,-0.3670557813256979,-0.07343472711034119,0.1680012357071042
1761505429956149000,0.84414892578125,-0.2607195591539144,-0.08552388189807533,0.04292290366441011
1761505429966185200,0.854185302734375,-0.09256371740698814,-0.08206387763731181,-0.013258125501871108
1761505429976221200,0.86422119140625,-0.010996610310673713,-0.07343761318717151,-0.031136019758880137
1761505429986257200,0.874257080078125,-0.02404138532280922,-0.09544533725790678,-0.009100859691947698
1761505429996294100,0.884294189453125,-0.11987199557125568,-0.10926438457816838,0.002494447164237499
1761505430006330000,0.894330078125,-0.20459259826242923,-0.08450447572246193,-0.012043196754157543
1761505430016366000,0.904365966796875,-0.17298048542439937,-0.041374212917685504,-0.0373965414583683
1761505430026403000,0.914403076171875,-0.07092237896323203,-0.03700783440172672,-0.036417028901726003
1761505430036439300,0.924439208984375,0.029085224708914757,-0.08963343610875309,0.02110343217477202
1761505430046475300,0.934475341796875,0.12305296369493007,-0.12684373428002,0.035035365284979345
1761505430056511200,0.94451123046875,0.3144172470718622,-0.08654573575910181,-0.02452785366550088
1761505430066548200,0.95454833984375,0.34698037702441215,-0.04093969395793974,-0.06450783574581145
1761505430076584200,0.964584228515625,0.14688099852800368,0.000049099838733673096,-0.09421206913590431
1761505430086620200,0.9746201171875,-0.09877718509435653,-0.001000555344671011,-0.11740282897874713
1761505430096656100,0.98465625,-0.2390191839993,-0.0207103777365759,-0.0809492674589157
1761505430106693000,0.994693115234375,-0.21101766287386417,-0.0300299947457388,-0.019555179819464683
1761505430116729000,1.00472900390625,-0.2009948660314083,-0.018832856894284485,-0.0028889994397759437
1761505430126765000,1.01476513671875,-0.27232757936120033,0.012127587101981044,-0.047826165536046024
1761505430136801000,1.024801025390625,-0.39218788449466224,0.040640272619947786,-0.09173384245410561
1761505430146838300,1.03483837890625,-0.4406716371566057,0.07060944055654109,-0.1015279451072216
1761505430156874200,1.044874267578125,-0.43439504110515115,0.06404339657183736,-0.07780351677909493
1761505430166910200,1.05491015625,-0.3820172036141157,0.01891030604466796,-0.09780541745275259
1761505430176946200,1.0649462890625,-0.25914193457365037,0.012791165577247738,-0.1063804997049272
1761505430186983200,1.074983154296875,-0.19969430482685566,0.00487670265827328,-0.09501827095225453
1761505430197019100,1.08501904296875,-0.20095511854290962,0.0011779577381908894,-0.12396627914756536
1761505430207055000,1.09505517578125,-0.07637772175967693,-0.00832202080655843,-0.07670169301703572
1761505430217091000,1.105091064453125,0.04647533544898033,-0.05701685893591493,0.0021425649866461754
1761505430227128000,1.115128173828125,0.23990590370595455,-0.10072510429173707,0.04624488769397139
1761505430237164000,1.1251640625,0.2963695492058992,-0.09637929363977163,0.0550797899261117
1761505430247200000,1.135199951171875,0.09865443549752234,-0.07218943975698203,0.07382832953780889
1761505430257237200,1.1452373046875,-0.24999182891249655,0.0008192439610138536,0.05213000020980835
1761505430267273200,1.155273193359375,-0.48292380195260043,0.06816559106837958,-0.005253098222613334
1761505430277309200,1.16530908203125,-0.49753158849775786,0.06544540885686874,-0.023697686451673507
1761505430287345200,1.17534521484375,-0.3216583042412996,0.09202887987792491,-0.030256314314901826
1761505430297382100,1.185382080078125,0.007255670216679572,0.09180446000490337,0.006905103213340044
1761505430307418000,1.195418212890625,0.18593173693418502,0.019704379031807183,0.039004853437840936
1761505430317454000,1.2054541015625,0.12425590974390506,0.0017585706377401947,0.060788230700790875
1761505430327490000,1.215489990234375,-0.05764262615144253,0.001132036237232387,0.08401829964071511
1761505430337527000,1.225527099609375,-0.1983276926487684,-0.027096023653075098,0.11771934758201241
1761505430347563000,1.23556298828125,-0.18830314224064348,-0.037084772095456714,0.14233005722537637
1761505430357599000,1.245598876953125,-0.16377894183695316,-0.030032442431151864,0.11084200915843248
1761505430367635000,1.255635009765625,-0.09371639457345009,0.001014145478606224,0.0781152130767703
1761505430377672200,1.265672119140625,-0.017148703199625016,-0.008162081004492939,0.06055822133719921
1761505430387708200,1.275708251953125,-0.0563408959031105,-0.03769172501266002,0.010428893425315618
1761505430397744000,1.285744140625,-0.1349672733724117,-0.03755958653297275,-0.013214870882034302
1761505430407780000,1.295780029296875,-0.17582009276449678,-0.02296915298141539,-0.025658465130627153
1761505430417817600,1.305817626953125,-0.25510405735969544,-0.056344951023720204,-0.06953925404176116
1761505430427853600,1.315853515625,-0.32547289409339425,-0.023313545972295104,-0.12719663937091827
1761505430437889500,1.3258896484375,-0.372243997618556,-0.00729494278114289,-0.11493746177852153
1761505430447925500,1.335925537109375,-0.3303524828284979,-0.03633592648953199,-0.04237403760999441
1761505430457962800,1.345962646484375,-0.2471399466127157,-0.08792349038571119,0.012527180878818035
1761505430467998700,1.355998779296875,-0.24875614963769913,-0.04975863143596798,-0.006549860034883022
1761505430478034700,1.36603466796875,-0.22772855917811394,-0.01170786385256797,-0.041680210126936436
1761505430488071700,1.37607177734375,-0.22750994799137114,0.00175016813557595,-0.034543197853863235
1761505430498107600,1.386107666015625,-0.23030513166785238,-0.03182093328312039,-0.006324234585464
1761505430508143600,1.3961435546875,-0.23774843341112137,-0.027291363562084732,-0.030993104156851768
1761505430518179600,1.4061796875,-0.13934008162915706,-0.006546827827580272,-0.06303118732199073
1761505430528216600,1.416216552734375,-0.04657295060455799,-0.06212649356722831,-0.01808671470209956
1761505430538252500,1.42625244140625,-0.10410568664073944,-0.06971420874986797,-0.04098433681726456
1761505430548288500,1.43628857421875,-0.12867314166426658,-0.02342782000172883,-0.09318155704438685
1761505430558324500,1.446324462890625,-0.04503682707846164,-0.00022679449319839477,-0.04979600430428981
1761505430568361700,1.45636181640625,0.07554477806687354,-0.03408825716059655,-0.009073094902187585
1761505430578397700,1.466397705078125,0.15055238051712513,-0.06494852871801704,-0.01787351034283638
1761505430588433700,1.47643359375,0.12219254747331142,-0.03939334129877388,-0.07587064902037381
1761505430598469600,1.4864697265625,-0.03142798844277859,0.008293708027526736,-0.11982815642952918
1761505430608506600,1.496506591796875,-0.18017594988644123,0.06404325044136494,-0.10838424074277281
1761505430618542600,1.50654248046875,-0.28661680147647856,0.01957063311692327,-0.032521921159327026
1761505430628578600,1.51657861328125,-0.22945699040591716,-0.04860025518108159,0.01786649608016014
1761505430638614500,1.526614501953125,-0.12340659943819045,-0.06315324279908091,0.03362389105185866
1761505430648651500,1.536651611328125,-0.02281388935446739,-0.07384531720522791,0.05183744700402021
1761505430658687500,1.5466875,0.07913608055710793,-0.0661802990026772,0.05056728093773126
1761505430668723500,1.556723388671875,0.18905191478133201,-0.03651932023242116,-0.000041062662750482553
1761505430678759700,1.566759765625,0.21779811679422853,-0.027944676371663806,-0.04638561133891344
1761505430688796700,1.576796630859375,0.059034372770786284,-0.004532601928338409,-0.08595657422691583
1761505430698832600,1.58683251953125,-0.37034313243329525,0.08588588361088186,-0.1325549515336752
1761505430708868900,1.596868896484375,-0.685667557477951,0.16353263892568648,-0.20451105745881795
1761505430718904800,1.60690478515625,-0.7252005264431238,0.1797936725705862,-0.18616715312525628
1761505430728941600,1.616941650390625,-0.5904629701733589,0.13340378691535443,-0.13815320993214844
1761505430738977800,1.626977783203125,-0.3323427798628807,0.08219013436548411,-0.1278787764161825
1761505430749013800,1.637013671875,-0.1705745933264494,0.018154665371775625,-0.1602438995786011
1761505430759050500,1.647050537109375,-0.06732756934165954,-0.07694510985147207,-0.1223740415200591
1761505430769086700,1.657086669921875,-0.011495792004466055,-0.10990019826367496,-0.03178571583926677
1761505430779122700,1.667122802734375,0.01880290014743805,-0.08957903904039412,-0.01726736114323139
1761505430789158700,1.67715869140625,0.06904080300033093,-0.06884429404754192,-0.041780455631017684
1761505430799195600,1.687195556640625,0.06795593037307263,-0.040035913518629965,-0.062359279409796
1761505430809232000,1.69723193359375,-0.09272095379531382,0.005192052217759192,-0.1102737077511847
1761505430819267800,1.707267822265625,-0.3121598235338926,0.027918811278045175,-0.20564166892394423
1761505430829303800,1.7173037109375,-0.3935001361370086,0.03906407281178981,-0.1714421699412167
1761505430839340800,1.7273408203125,-0.3792535841196775,0.010561251100711523,-0.1138530275426805
1761505430849376800,1.737376708984375,-0.21355507239699362,-0.04061985088642686,-0.05231514751836657
1761505430859412700,1.747412841796875,0.00848667331635952,-0.10818177697323263,0.012291034035384655
1761505430869448700,1.75744873046875,0.2090770502001047,-0.1740811401426792,0.0671342387266457
1761505430879485700,1.767485595703125,0.31765725190639493,-0.19506251684036105,0.08733516910374164
1761505430889521700,1.777521728515625,0.35000703136920924,-0.16748375117164105,0.09872750073373317
1761505430899557600,1.7875576171875,0.26821839047670365,-0.11313337149862199,0.08596592657715081
1761505430909593600,1.797593505859375,0.06914660146236419,-0.02750307008400559,0.0665603843614459
1761505430919630800,1.807630859375,-0.1310860480248928,0.017745500048995017,0.05774433296024799
1761505430929666800,1.817666748046875,-0.36634266462028026,0.05925875611118972,0.0478894400306046
1761505430939702800,1.827702880859375,-0.55241468680799,0.10093173277974128,0.06785641552135348
1761505430949738800,1.83773876953125,-0.6100853700101375,0.0944186610912904,0.08743336878120898
1761505430959775700,1.847775634765625,-0.4416641553252935,0.01707603982221335,0.0966612158536911
1761505430969811700,1.857811767578125,-0.2827677248328924,-0.0681312869399786,0.11369053045734763
1761505430979847700,1.86784765625,-0.13401567173600196,-0.10054616752825676,0.08348667698204516
1761505430989883600,1.877883544921875,-0.07750526448488235,-0.08799933210089803,0.021520196282118556
1761505430999920600,1.887920654296875,-0.05762801310420036,-0.09893822087496519,-0.018750293177366255
1761505431009956600,1.89795654296875,-0.06386018549203873,-0.07806677082516253,-0.07822831806242465
1761505431019992600,1.90799267578125,-0.15618600248992442,-0.045330987719446415,-0.11800532491654157
1761505431030028500,1.918028564453125,-0.36814182299673553,0.00735394295938313,-0.12063187402784824
1761505431040065800,1.928065673828125,-0.5230015453189611,0.06374974738750606,-0.10845409110859036
1761505431050101800,1.938101806640625,-0.47079438821971414,0.07663502098899334,-0.08206365844160318
1761505431060137700,1.9481376953125,-0.3436649688661098,0.0493185960508883,-0.055160600077360865
1761505431070173700,1.958173583984375,-0.30461539950370786,0.06254574189260602,-0.08351707212030887
1761505431080210700,1.968210693359375,-0.18832710763812063,0.049547436370700595,-0.10242138681560754
1761505431090246700,1.97824658203125,-0.020805472141504286,-0.0033680881936103105,-0.06427636507749557
1761505431100282600,1.98828271484375,0.20765783105194568,-0.028612638761103152,-0.006953326269239187
1761505431110318600,1.998318603515625,0.37607670764923096,-0.056472778654471034,0.009560147766768931
1761505431120355600,2.00835546875,0.4620680609285831,-0.07701112429238856,0.01836260903403163
1761505431130391600,2.0183916015625,0.3992494934439659,-0.0858699188567698,0.021058716250211
1761505431140427500,2.028427490234375,0.31109540917277334,-0.04717749236896634,0.005040770646184682
1761505431150463500,2.03846337890625,0.1420312204092741,-0.01852364481464028,-0.017394202393293378
1761505431160500700,2.048500732421875,-0.22030863831043243,0.05203603831604123,-0.060007017195224756
1761505431170536700,2.05853662109375,-0.48572775345742697,0.1234238428339362,-0.05359130493402481
1761505431180572700,2.06857275390625,-0.6135474931627511,0.14555011525042355,0.003006196078658104
1761505431190608600,2.078608642578125,-0.5673521436989307,0.14738310283124445,-0.007047580423951149
1761505431200645600,2.088645751953125,-0.35932840194404125,0.11745083283893763,0.007504530411213636
1761505431210681600,2.098681640625,-0.21424714631438255,0.044931174746900795,0.07190086860656737
1761505431220717600,2.108717529296875,-0.0923871917963028,-0.07070464455932378,0.1000933822594583
1761505431230753500,2.11875341796875,0.0008230068206787109,-0.1682369441591203,0.13093378007262946
1761505431240790500,2.12879052734375,0.022428689429163932,-0.18948380339257417,0.1072790559798479
1761505431250826500,2.138826416015625,-0.09156009332239627,-0.17150171810872852,0.04944266082197427
1761505431260862500,2.148862548828125,-0.23829437685608862,-0.10772636135593056,0.022081629557162523
1761505431270898700,2.158898681640625,-0.3811106101632118,-0.061761459647119044,-0.0009912029944360256
1761505431280935700,2.168935791015625,-0.36245325596630573,-0.04318257751390338,-0.04656228308007121
1761505431290971600,2.1789716796875,-0.2897475007176399,-0.028224808487296103,-0.06699950643107294
1761505431301008000,2.1890078125,-0.1427016670167446,-0.047517976369708774,-0.0388331501327455
1761505431311043800,2.1990439453125,-0.0014765022933483122,-0.06357764222361147,0.0010481938786804676
1761505431321080600,2.20908056640625,0.03824000654518604,-0.06788578774631022,-0.005789104795455933
1761505431331116800,2.21911669921875,-0.04189852905273437,-0.04851414780020714,-0.04679126953035593
1761505431341152800,2.22915283203125,-0.07487199337184429,0.01568725234493613,-0.08204173887073993
1761505431351188700,2.239188720703125,-0.09557809679210186,0.038736630955711004,-0.06191942668780684
1761505431361225700,2.249225830078125,-0.1541173795223236,-0.025563041932135818,-0.01047697035074234
1761505431371261700,2.25926171875,-0.19754560236036775,-0.04337101275809109,0.022899667941778896
1761505431381297700,2.269297607421875,-0.22659400219023226,-0.026292525250464677,0.04377133718729019
1761505431391333600,2.279333740234375,-0.2660837165355682,-0.0593200578443706,0.004164864594489336
1761505431401371000,2.289370849609375,-0.1938631144553423,-0.07216960254535079,-0.06912585093528031
1761505431411405800,2.29940576171875,-0.06490589515268802,-0.08305997600257396,-0.08502338503003119
1761505431421442000,2.309442138671875,-0.0367997446089983,-0.07006576213389634,-0.05755991630405187
1761505431431478000,2.31947802734375,-0.038086861810088156,-0.07790098580420017,0.027362054178118704
1761505431441515000,2.329514892578125,-0.08481237262785435,-0.0672003627654165,0.12372063382342458
1761505431451551000,2.339551025390625,-0.05797580362856388,-0.10382365482896566,0.1921959118954837
1761505431461587000,2.3495869140625,-0.06838087778687477,-0.10841361296772956,0.18989874086901545
1761505431471623000,2.359622802734375,-0.1381488260179758,-0.0714878308262676,0.1179379587687552
1761505431481660000,2.369659912109375,-0.12508300821781157,-0.0612744067825377,0.038419016373902555
1761505431491695900,2.37969580078125,-0.11011690975427627,-0.0852725374855101,-0.015394114617258309
1761505431501731800,2.38973193359375,-0.130514970138669,-0.11944266424328089,-0.02956847818121314
1761505431511767800,2.399767822265625,-0.2006763016015291,-0.1290581954590976,-0.015440730237960814
1761505431521804800,2.4098046875,-0.28526597138941284,-0.13498919294327497,0.003719312784075737
1761505431531840800,2.4198408203125,-0.3032674920260906,-0.14806962379068137,0.022957974000275133
1761505431541877000,2.429876953125,-0.3020382424920797,-0.10470233735963702,0.03314166049286723
1761505431551913000,2.439912841796875,-0.24949556982815263,-0.07835910483524203,-0.005241700045764446
1761505431561950000,2.449949951171875,-0.19544190807938575,-0.07084617192186415,-0.07063391741067171
1761505431571986000,2.45998583984375,-0.16480477775335312,-0.032929332916438576,-0.12219196295142173
1761505431582022000,2.47002197265625,-0.18554419892132282,-0.013428659763187169,-0.11721651262640953
1761505431592057900,2.480057861328125,-0.15622048928141594,-0.0009409341119229793,-0.09189473210424184
1761505431602093800,2.49009375,-0.1493430047273636,0.013990093038231134,-0.10715835220962762
1761505431612130800,2.500130859375,-0.1800239741951227,0.00783785401880741,-0.10427183698788285
1761505431622166800,2.510166748046875,-0.22285306209623812,0.019019903898984194,-0.10701879760846494
1761505431632202800,2.52020263671875,-0.15690262632668017,0.04162036969847977,-0.11900953352302313
1761505431642239000,2.530239013671875,0.03238075912296772,0.044751288135349745,-0.1308382107436657
1761505431652276000,2.54027587890625,0.177763043525815,0.042189986279979344,-0.13878727005198596
1761505431662312000,2.55031201171875,0.18483166673779486,0.056028030561655756,-0.14625892110690475
1761505431672348000,2.560347900390625,0.06230827987492084,0.058862961726635694,-0.12836626767218112
1761505431682384100,2.570384033203125,-0.07488426833152771,0.09081395113021135,-0.10183686492592096
1761505431692420900,2.5804208984375,-0.2177308967769146,0.1295980744894594,-0.07678148025497794
1761505431702456800,2.590456787109375,-0.2638467512637377,0.1448585527896881,-0.06537994240522384
1761505431712493000,2.6004931640625,-0.20863398260772226,0.1379766112562269,-0.06246770822033286
1761505431722529000,2.610529052734375,-0.0857031839877367,0.08899280011765659,-0.02858253588378429
1761505431732565800,2.620565673828125,-0.031926001092791555,0.0409920817323029,-0.016520196037739514
1761505431742602000,2.63060205078125,-0.05035597627460956,0.031678383007273075,-0.0501037550792098
1761505431752638000,2.640637939453125,-0.10945230836570262,0.010889277478680013,-0.06862009337022901
1761505431762674000,2.650673828125,-0.19036650451123713,-0.015908640010654927,-0.054248745929449796
1761505431772711000,2.6607109375,-0.27599428517520425,-0.016571195572614668,-0.02225888582020998
1761505431782747100,2.6707470703125,-0.32694881186485286,-0.0012905512671917677,-0.005248568177968264
1761505431792783000,2.680783203125,-0.2684720729768276,-0.006639145753532648,-0.0059974868491292
1761505431802819000,2.690819091796875,-0.12588263416290282,-0.051636371473968025,-0.0012025076575577257
1761505431812855000,2.70085498046875,0.016205869391560553,-0.08861987515203654,0.013872896399348973
1761505431822892000,2.71089208984375,0.10132160888016223,-0.11906396712400018,0.012789631207287312
1761505431832928000,2.720927978515625,0.06256956115961075,-0.11283902819454669,0.006485270366072654
1761505431842964000,2.7309638671875,-0.1265069035410881,-0.08212671374045312,-0.007578326299786567
1761505431853000000,2.741,-0.28140520430803295,-0.06561046322546898,-0.012005202831327914
1761505431863037000,2.751036865234375,-0.334720030388236,-0.035727366137132045,0.019850217243283987
1761505431873073000,2.761072998046875,-0.3228454681992531,-0.048880058503150935,0.05073533098101616
1761505431883108900,2.77110888671875,-0.23489012137055396,-0.06367284622639417,-0.0014529752872884272
1761505431893144800,2.781144775390625,-0.1163198560476303,-0.020025135418772697,-0.08219473747536539
1761505431903182000,2.79118212890625,-0.03178103966414928,-0.007975508923828601,-0.13804784986153243
1761505431913218000,2.801218017578125,0.01942541595995426,-0.04675780565217137,-0.09451938151940703
1761505431923254000,2.81125390625,-0.0436795672506094,-0.08185849125832319,-0.08797069052830338
1761505431933290000,2.8212900390625,-0.1269336045205593,-0.07375657947584986,-0.06339052215367555
1761505431943327000,2.831326904296875,-0.18151333597004413,-0.073581953561306,0.051593847506493325
1761505431953363000,2.841363037109375,-0.20792904920876024,-0.07516841903515159,0.13530571154654025
1761505431963399000,2.85139892578125,-0.1953530607521534,-0.03951550637371838,0.1069726203791797
1761505431973435000,2.861434814453125,-0.17964403496682643,-0.010941080731153487,0.0387548241995275
1761505431983470800,2.871470947265625,-0.16141396627128124,0.01577514982409775,-0.0035068390771746632
1761505431993507800,2.8815078125,-0.16340543234944344,0.0026006840176880357,-0.010733721590787173
1761505432003543800,2.891543701171875,-0.17403087126016617,-0.03619008827805519,-0.028074440231174228
1761505432013579800,2.901579833984375,-0.2134258930593729,-0.020011472219601274,-0.052757630588859315
1761505432023615700,2.91161572265625,-0.18067688514590263,-0.040866263395547865,-0.023504063575714825
1761505432033653000,2.921653076171875,-0.046668227672576904,-0.10550459365323185,0.012647738518565892
1761505432043689000,2.93168896484375,0.11425415568947792,-0.12201697171069681,0.039593466980755325
1761505432053725000,2.941724853515625,0.19663550177812575,-0.11825089717544615,0.07081701889261603
1761505432063761000,2.951760986328125,0.05197860904037952,-0.10327427731789648,0.08472878599762916
1761505432073798000,2.9617978515625,-0.19923194801211355,-0.03874174552224576,0.06005743220821023
1761505432083833900,2.971833740234375,-0.3970183733910322,0.017093831207230688,0.0481399076603353
1761505432093869800,2.981869873046875,-0.48515316843986506,0.029470497699454427,0.06909691710174083
1761505432103905800,2.99190576171875,-0.4886199677675962,0.0007275105569511652,0.055581894229352474
1761505432113942000,3.00194189453125,-0.35442601685523983,-0.032694720442965626,0.0292684723213315
1761505432123978800,3.011978759765625,-0.18145955995619295,-0.0433569111675024,0.055403761183470485
1761505432134014700,3.0220146484375,-0.004922843354940414,-0.05676153246797621,0.08093246245458721
1761505432144051000,3.032051025390625,0.09600187516212463,-0.09797923964969814,0.052784810856729744
1761505432154087000,3.0420869140625,0.09248889860510826,-0.13929879977069795,-0.005705225904285908
1761505432164124000,3.0521240234375,-0.03179682175517082,-0.11747370225787163,-0.0831149210602045
1761505432174160100,3.06216015625,-0.1666734942346811,-0.0497709429282695,-0.14190686337724326
1761505432184196000,3.072196044921875,-0.23807810375690458,-0.029511706492677328,-0.14417057052552698
1761505432194232000,3.082232177734375,-0.22525193993151185,-0.011004647486656903,-0.13729250144958496
1761505432204269000,3.09226904296875,-0.17212299181222915,-0.005087678527832031,-0.12428674327358603
1761505432214305000,3.102304931640625,-0.15249474675655364,-0.020989888797700404,-0.09720555186346173
1761505432224341000,3.112341064453125,-0.11383154636323452,-0.0397404742360115,-0.025865239749103784
1761505432234377000,3.122376953125,-0.045070729348063464,-0.04979169345535338,0.031956396231055256
1761505432244413000,3.132412841796875,-0.018574352088570594,-0.04218801351860165,0.06715528151467443
1761505432254450000,3.142449951171875,-0.03618482758104801,-0.011311667609214782,0.06088862233534455
1761505432264486000,3.15248583984375,-0.11334756223857402,0.05086531403623521,0.011321896742284298
1761505432274521900,3.16252197265625,-0.28564883322715756,0.0726726566966623,-0.03852408418357372
1761505432284557800,3.172557861328125,-0.38295243863761425,0.0735400871809572,-0.05353329113647341
1761505432294595000,3.182594970703125,-0.36292087347805496,0.03541603516563773,-0.05483443686291575
1761505432304631000,3.192631103515625,-0.2061760680615902,-0.01673288894034922,-0.020893150424957273
1761505432314667000,3.2026669921875,-0.12606091333925723,-0.0437261828713119,0.006573825432360172
1761505432324703000,3.212702880859375,-0.09498129994273186,-0.05322459051348269,0.03326747882962227
1761505432334739000,3.222739013671875,-0.11614508400261402,-0.06820449830666184,0.03846694716885686
1761505432344776000,3.23277587890625,-0.036002456751465794,-0.051061128869280215,0.028419600407034156
1761505432354812000,3.24281201171875,0.025190555357933044,-0.05733684813790023,0.03343465209007263
1761505432364847900,3.252847900390625,0.07470248202383518,-0.008653992707282305,-0.001582739146798849
1761505432374883800,3.2628837890625,0.02305997307002544,0.05544087832346558,-0.009785919346660375
1761505432384920800,3.2729208984375,-0.11001637198925018,0.033716172445192934,0.010360504364222287
1761505432394956800,3.282956787109375,-0.19090075751841068,0.04245360565222799,0.022460984263569114
1761505432404992800,3.29299267578125,-0.2841834368497133,0.03893076528832316,0.0097597619920969
1761505432415029800,3.30302978515625,-0.2901572505623102,-0.016704028172045946,-0.01087824462801218
1761505432425065700,3.313065673828125,-0.285593888169527,-0.024848025530576703,0.021562574119120836
1761505432435103000,3.32310302734375,-0.2185229239374399,0.0054571694273501635,-0.014198182830959558
1761505432445139000,3.333138916015625,-0.08045826907157898,-0.005831847958639264,-0.03598579787760973
1761505432455175000,3.3431748046875,0.037570144459605215,-0.032930282764509315,-0.045241994261741636
1761505432465211000,3.3532109375,0.08961831160485743,-0.04051218926087022,-0.07632584544196724
1761505432475247900,3.363247802734375,-0.0037613983601331707,0.005055237562954426,-0.11491495768576859
1761505432485283800,3.373283935546875,-0.1544312677770853,0.008815393814072012,-0.12419058942273259
1761505432495319800,3.38331982421875,-0.3107429424732923,-0.004951923318952322,-0.11779577381908893
1761505432505355800,3.393355712890625,-0.3796142341256141,-0.024652649088948965,-0.11569324858188629
1761505432515391700,3.403391845703125,-0.34601766947209833,-0.031481910587102174,-0.10113836126774549
1761505432525428700,3.4134287109375,-0.25171266135573384,-0.05957469019256532,-0.09000102731212974
1761505432535464700,3.423464599609375,-0.06915478476881981,-0.09344437269903719,-0.05371829231455922
1761505432545500700,3.433500732421875,0.02974164279103279,-0.10405008399598299,-0.036960341998189684
1761505432555536600,3.44353662109375,0.015570494097471237,-0.0793425629146397,-0.01785831277370453
1761505432565574000,3.453573974609375,-0.028010873475670814,-0.0458074461247772,-0.008544540983438492
1761505432575609900,3.46360986328125,-0.09278232859373092,-0.02157294938266277,-0.02254500928521156
1761505432585645800,3.473645751953125,-0.16357260560989378,0.02535809394456446,-0.031189211250841616
1761505432595681800,3.483681884765625,-0.17801731054782866,0.040410628582537175,0.0051291795819997784
1761505432605718000,3.493718017578125,-0.17217735234797,0.017161051224544643,0.051949529076367615
1761505432615754800,3.503754638671875,-0.248694774839282,-0.004960471951588988,0.10598317095041275
1761505432625790700,3.513790771484375,-0.273922739598155,0.02581080614812672,0.1063771387040615
1761505432635827000,3.523826904296875,-0.24649404992461202,0.0345159445207566,0.10484130743891
1761505432645863000,3.53386279296875,-0.2751765390515327,0.009287760566174983,0.04250716247037053
1761505432655899000,3.54389892578125,-0.25063304942548276,0.032700054205209016,-0.018088906659185885
1761505432665936000,3.553935791015625,-0.15376257473528385,0.049766705144569275,-0.0511670003965497
1761505432675971800,3.563971923828125,-0.006101824006438255,0.05296199405454099,-0.05282207412719726
1761505432686007800,3.5740078125,0.036820787397027016,0.014175459542497992,-0.01997647397145629
1761505432696043800,3.584043701171875,-0.0295277077794075,0.008517506846040487,-0.0016432371623814105
1761505432706081000,3.5940810546875,-0.11036942321062088,0.09228248931281267,-0.03964417425468564
1761505432716117000,3.604116943359375,-0.12372925552129745,0.1531898894138634,-0.049129064828157425
1761505432726153000,3.614153076171875,-0.15669862818717956,0.12606624710150063,-0.008075316036492586
1761505432736189000,3.62418896484375,-0.17473989631235598,0.09983590036705135,-0.013274199853837489
1761505432746225000,3.634224853515625,-0.16817454644739627,0.1021368707858026,-0.013632073380798101
1761505432756262000,3.644261962890625,-0.10302958184182644,0.08481763332486152,0.017606091578304766
1761505432766297900,3.6542978515625,-0.03220774064362049,0.035571079596877095,0.04028057246208191
1761505432776333800,3.664333740234375,-0.005925882917642593,-0.005414207068458199,0.020740297950804232
1761505432786369800,3.674369873046875,-0.028614100065827368,-0.00835091810747981,-0.02004661659821868
1761505432796405800,3.68440576171875,-0.06343582260012626,-0.013164309738576411,-0.058372547861188645
1761505432806442800,3.69444287109375,-0.06815057616233826,-0.038506694657355546,-0.06815569072887301
1761505432816478700,3.704478759765625,-0.09253624487817287,-0.05596271024048328,-0.02036971107274294
1761505432826514700,3.7145146484375,-0.14267477900981904,-0.04414630797952413,0.03385667689442634
1761505432836551000,3.724551025390625,-0.24626374830007552,-0.026266733222082256,0.018444149837642906
1761505432846588000,3.734587890625,-0.32731939874291416,-0.057270797164365644,-0.019111673835664988
1761505432856623900,3.744623779296875,-0.40213878514468665,-0.044655864936858414,-0.06177972595617175
1761505432866659800,3.754659912109375,-0.3730360247790813,-0.030184929579123852,-0.09839140064716338
1761505432876695800,3.76469580078125,-0.2416325813680887,-0.07201799218021333,-0.08110854967385529
1761505432886731800,3.774731689453125,-0.062280807346105575,-0.09231719530001282,-0.054974429855495686
1761505432896768800,3.784768798828125,0.013709960922598838,-0.06460092085674404,-0.0761858524493873
1761505432906804700,3.7948046875,-0.03490297107696533,-0.06337729734592139,-0.07817308074384928
1761505432916840700,3.8048408203125,-0.11759119115769863,-0.09262275411784648,-0.046280835790187116
1761505432926876700,3.814876708984375,-0.13603344129920006,-0.10737309093885124,-0.011719517757743596
1761505432936913000,3.824912841796875,-0.14267477900981904,-0.10835501464828848,-0.038567338803410525
1761505432946949600,3.83494970703125,-0.15015022945702075,-0.07068981231637299,-0.06508695080801845
1761505432956985900,3.84498583984375,-0.13040566454529762,-0.045591026895120734,-0.10088146389722824
1761505432967021800,3.855021728515625,-0.15901742652356624,-0.05626812292784452,-0.1332787357635796
1761505432977058000,3.86505810546875,-0.19948621503412722,-0.06533413050211966,-0.08418547290116549
1761505432987094800,3.8750947265625,-0.26513679107427596,-0.060887453291565176,-0.0654106298044324
1761505432997130800,3.885130859375,-0.333300811240077,-0.0393820161871612,-0.10292261433601378
1761505433007167000,3.8951669921875,-0.27685119426548477,-0.014198913483321666,-0.12437953612357378
1761505433017203000,3.905202880859375,-0.1604793157696724,-0.01665193265862763,-0.10737243335172533
1761505433027239000,3.915239013671875,0.0023906945288181304,-0.06901669147238135,-0.08756912399008869
1761505433037276000,3.92527587890625,0.05272153636217117,-0.11752740520648658,-0.06042611939013004
1761505433047312000,3.935311767578125,-0.010644143611192702,-0.08882043922543525,-0.09902122298330068
1761505433057347800,3.945347900390625,-0.11359715308547019,-0.07115786821953952,-0.10879925128445028
1761505433067383800,3.9553837890625,-0.23960779754221437,-0.04393836431726813,-0.06019961715787649
1761505433077419800,3.965419677734375,-0.22578034771978853,-0.029249694555625316,-0.028453064285218713
1761505433087457000,3.97545703125,-0.16026012006103993,-0.026373189271241423,-0.005371610035747289
1761505433097493000,3.985492919921875,-0.13336509887278078,-0.0004560001391917467,0.00956350876763463
1761505433107529000,3.995529052734375,-0.05349252073466777,0.0017247049007564782,0.02370426232293248
1761505433117565000,4.00556494140625,-0.0021264906346797944,-0.02948255346342921,0.043780689537525175
1761505433127599900,4.015599853515625,0.017194295907020568,-0.0960218950368464,0.07998100694864987
1761505433137635800,4.0256357421875,-0.014788403809070587,-0.09016155163608491,0.06713394646570087
1761505433147672000,4.035672119140625,-0.1252571957409382,-0.06460705833658575,0.024906477719545364
1761505433157708000,4.0457080078125,-0.2802688937544823,-0.04856631637886166,0.019309534495323896
1761505433167744800,4.055744873046875,-0.41048751129508015,-0.04038461735844612,0.028047113832831382
1761505433177781000,4.065781005859375,-0.4300701636433601,-0.048146702727302905,0.023460516694933174
1761505433187817000,4.07581689453125,-0.3027455139786005,-0.0847087661229074,0.04361147045046091
1761505433197853000,4.08585302734375,-0.17636778977513312,-0.1103561253376305,0.062114218607544895
1761505433207889000,4.095888916015625,-0.14175883320868016,-0.11093363296464084,0.035627778220176695
1761505433217926000,4.10592578125,-0.17809446743726728,-0.08381926993727684,-0.014387275662273168
1761505433227961900,4.1159619140625,-0.1664566366136074,-0.05136844125278294,-0.072068480258435
1761505433237997800,4.125997802734375,-0.07331950323283672,-0.05910933770313859,-0.07553031115010381
1761505433248033800,4.13603369140625,0.0817681826263666,-0.057603463184833524,-0.040861879481375214
1761505433258071000,4.146071044921875,0.13660568822920321,-0.03808372000493109,-0.054650896989554165
1761505433268107000,4.15610693359375,0.09053601097166537,-0.041555268573015926,-0.05573386992067098
1761505433278143000,4.16614306640625,-0.07490531111955642,-0.029315818594396113,-0.10387889214754104
1761505433288179000,4.176178955078125,-0.20798165617883205,0.032665494348481296,-0.16254545451924204
1761505433298215000,4.18621484375,-0.2783516619563103,0.052934302330017086,-0.14114260100647807
1761505433308252000,4.196251953125,-0.23108254578113555,0.01752659660130739,-0.08433423372209072
1761505433318288000,4.206287841796875,-0.12810673995316027,-0.0008445610653609037,-0.026619126856327054
1761505433328323800,4.21632373046875,0.008696516674757003,0.019462094708532093,0.00775251382291317
1761505433338359800,4.22635986328125,0.10355623606443405,0.02178228128440678,0.05390840805917978
1761505433348395800,4.236395751953125,0.15032383245825767,-0.040570787580311296,0.1042040324486792
1761505433358432800,4.246432861328125,0.0900818374633789,-0.07158069674149155,0.039069589237123725
1761505433368468700,4.25646875,-0.01196925473511219,-0.05286949346549809,-0.0355501829393208
1761505433378504700,4.266504638671875,-0.11303133589625358,0.037308059457316994,-0.07329407653063535
1761505433388540700,4.276540771484375,-0.22152444384098052,0.06187091137096285,-0.11801979183331131
1761505433398576600,4.28657666015625,-0.22629940315783023,0.016769786884635686,-0.09114888217300177
1761505433408614000,4.29661376953125,-0.23330314444005487,0.021901596815139052,-0.04824029929488897
1761505433418648800,4.30664892578125,-0.2052946090519428,0.04991173963844776,-0.034159313102811575
1761505433428685000,4.31668505859375,-0.2754793213903904,0.04296564682759344,-0.015495967556536197
1761505433438721000,4.326720947265625,-0.3100070294141769,0.021932138083875178,0.01186184883788228
1761505433448757000,4.336757080078125,-0.3080202395111322,0.038580344415456054,0.01700812568515539
1761505433458793000,4.34679296875,-0.2430272505968809,0.050950873427838085,0.012331950567662715
1761505433468830000,4.356829833984375,-0.1345943484067917,-0.0026462767250835894,0.03621741467639804
1761505433478866000,4.366865966796875,-0.06846037276387214,-0.032955051879584786,0.045176089418679476
1761505433488902000,4.37690185546875,0.008799977049231529,-0.06737586546279489,0.023033523454517126
1761505433498937900,4.386937744140625,-0.008871873241662978,-0.1077461620349437,-0.02043649269863963
1761505433508973800,4.396973876953125,-0.21380524776577947,-0.06151427995301783,-0.11659268163964151
1761505433519011000,4.407010986328125,-0.32220541673004627,0.023707111867144703,-0.190583069871366
1761505433529047000,4.417047119140625,-0.37564942214787006,0.04520553470887243,-0.16446633957922457
1761505433539083000,4.4270830078125,-0.32923020080029963,0.0022159224838018414,-0.10016147905960679
1761505433549119000,4.437118896484375,-0.2066506998360157,-0.03863981951773166,-0.04592530035078525
1761505433559155000,4.447155029296875,-0.10736731878519058,-0.053324543756619096,-0.026166560783237217
1761505433569192000,4.45719189453125,-0.03198562232553959,-0.07622625752501189,-0.014520546653121708
1761505433579228000,4.467227783203125,-0.04009703258872032,-0.09531615792028605,-0.03464914244636893
1761505433589264000,4.477263916015625,-0.1350806706190109,-0.05994001637361943,-0.09510404953956604
1761505433599299800,4.4872998046875,-0.18500293165147302,-0.017389599283412098,-0.13925897921696304
1761505433609335800,4.497335693359375,-0.1487713423192501,-0.006595379677042365,-0.1192456803664565
1761505433619372800,4.507372802734375,-0.10410393307507038,0.0002703413739800453,-0.04247077598273754
1761505433629408800,4.51740869140625,-0.029206220740079877,0.06193520877882838,-0.013326076171547173
1761505433639444700,4.52744482421875,-0.04522328956127167,0.10914017367660998,-0.01431201846897602
1761505433649480700,4.537480712890625,-0.10436229175031185,0.10285700175389646,0.023792963519692418
1761505433659517000,4.547516845703125,-0.1834615474283695,0.05241349332630634,0.03317643954530358
1761505433669554000,4.557553955078125,-0.17309037553966045,-0.004056508849188685,0.040580870582908386
1761505433679590000,4.56758984375,-0.1436339794307947,-0.052077539370208974,0.05501783060580492
1761505433689625900,4.5776259765625,-0.1564531289935112,-0.08435688394531607,0.028925650233030318
1761505433699662800,4.587662841796875,-0.17311609450280666,-0.08287249060645699,-0.013260755850374699
1761505433709698800,4.59769873046875,-0.2615361362338066,-0.0814346398230642,-0.04584726667851209
1761505433719735800,4.60773583984375,-0.38496903915703296,-0.09006050241440534,-0.03669686875641346
1761505433729771800,4.617771728515625,-0.43162440734803675,-0.027771365631371735,-0.01230564708262682
1761505433739807700,4.627807861328125,-0.39481531038880346,0.020946195786446332,0.0052265024766325946
1761505433749843700,4.63784375,-0.20351649346351622,0.0224791044421494,0.05669043999314308
1761505433759880000,4.6478798828125,-0.030558219870924948,-0.014935337999090552,0.09107435563206673
1761505433769917000,4.6579169921875,0.07606324898302555,-0.05245528664141893,0.0607850158303976
1761505433779953000,4.667952880859375,0.011484101566672324,-0.036879385716468094,0.044266719488799566
1761505433789989000,4.677989013671875,-0.08370645721256732,-0.017998086570575833,0.011563742674142122
1761505433800025000,4.688025146484375,-0.17510346892774103,-0.017884104802086947,-0.028132600159198044
1761505433810061000,4.69806103515625,-0.2732692441254854,0.01085866314470768,-0.05509542588666081
1761505433820098000,4.70809814453125,-0.2680225756436586,0.04340893361568451,-0.066054772926867
1761505433830134000,4.718134033203125,-0.18716741620898245,0.0739019792959094,-0.06039367842525244
1761505433840170000,4.728169921875,-0.09994739791750908,0.07105806110687553,0.0015729484051465988
1761505433850206000,4.7382060546875,-0.03126549135744572,0.03248838421590626,0.049130233871936796
1761505433860242000,4.748241943359375,0.008047112855315208,0.016264833037182687,0.02760404624044895
1761505433870279000,4.75827880859375,0.017326397854089737,0.039018224376067515,0.02224456503391266
1761505433880315000,4.76831494140625,-0.00938157632946968,0.058014674334228036,0.025995003608614203
1761505433890350800,4.778350830078125,-0.0566156211912632,0.03671659637019038,0.01764189354404807
1761505433900386800,4.78838671875,-0.0745189421504736,0.007995821059495211,0.030463235063850878
1761505433910422800,4.7984228515625,-0.11187456707656383,0.015761925016343593,0.024570085372030735
1761505433920460000,4.8084599609375,-0.0969920552432537,0.026365882747620344,-0.015281740283966063
1761505433930496000,4.81849609375,-0.14968495003283022,0.009603548517078161,-0.021296178267896173
1761505433940532000,4.828531982421875,-0.21690321378111838,0.014920286560431121,-0.041886254093050954
1761505433950568000,4.83856787109375,-0.26299276478290556,0.04300809772983193,-0.12761778739243745
1761505433960604000,4.84860400390625,-0.2576116562664509,0.034505934583395716,-0.15300985667183994
1761505433970641000,4.858640869140625,-0.141843004360795,0.02601758076660335,-0.11699877822250127
1761505433980676900,4.8686767578125,-0.0768406630963087,-0.0038959845252335068,-0.068448536195606
1761505433990712800,4.878712890625,-0.05215981082618236,-0.06302409999407828,-0.023248335248976945
1761505434000748800,4.888748779296875,-0.08242927688360213,-0.10079692741893231,0.00968596610352397
1761505434010784800,4.89878466796875,-0.11151917776763438,-0.12783917505815626,-0.008976064268499612
1761505434020821800,4.90882177734375,-0.13540741835534573,-0.11723580184876918,-0.03370323989838361
1761505434030857700,4.918857666015625,-0.17627368175089358,-0.0826930423863232,-0.0997295173831284
1761505434040894000,4.92889404296875,-0.21502280686199665,-0.0368659417130053,-0.17497268215492368
1761505434050930000,4.938929931640625,-0.18435586591959,-0.004625248647853732,-0.1483420109912753
1761505434060966000,4.9489658203125,-0.18644962332844733,-0.02549932904615998,-0.09361030385047196
1761505434071002000,4.959002197265625,-0.21458207735717294,-0.03846636264696717,-0.11220526033565402
1761505434081038800,4.969038818359375,-0.19111644609570502,-0.013259806002303956,-0.09909180400148034
1761505434091074800,4.97907470703125,-0.21534897007644174,-0.03297448723241687,-0.03867532922253013
1761505434101111000,4.989111083984375,-0.1924286977380514,-0.08740385042577982,0.026225743624567983
1761505434111147000,4.99914697265625,-0.13978022661209105,-0.09948825597316026,0.06250818636119365
1761505434121184000,5.00918408203125,-0.11466624362170695,-0.07267835578508675,0.06118424428105354
1761505434131220000,5.019219970703125,-0.05689093100130558,-0.045335152437910434,0.040194063222408295
1761505434141256000,5.029255859375,-0.015595044016838073,-0.03513013089634478,0.01939005238562822
1761505434151292000,5.0392919921875,-0.03226853092014789,-0.01750526155233383,0.06380231782495975
1761505434161327900,5.049327880859375,-0.016209376522898673,0.04859985332228243,0.04046528137922287
1761505434171363800,5.05936376953125,-0.10070260019898414,0.05498188250958919,0.018202303905785082
1761505434181401000,5.069401123046875,-0.21060323685407636,0.02976122427433729,0.014140169033408164
1761505434191437000,5.07943701171875,-0.19884382547736168,0.029179917255043982,0.023888386718183753
1761505434201473000,5.08947314453125,-0.12765081287920474,0.013867343441396951,0.032621728271991016
1761505434211509000,5.099509033203125,-0.09049684800505638,-0.024239099851995707,0.054844373735040426
1761505434221545000,5.109544921875,-0.14029402135312558,-0.026653905908763407,0.034685821194946766
1761505434231582000,5.11958203125,-0.2371972292691469,0.0007103402264416217,0.03546162787303328
1761505434241618000,5.129617919921875,-0.3020323972731829,0.014372954875975846,0.05328253124579787
1761505434251654000,5.13965380859375,-0.2771189052909612,0.008211948028206824,0.01697436954602599
1761505434261689900,5.14968994140625,-0.27265783422887324,-0.015080153297260403,-0.023472937785089014
1761505434271725800,5.159725830078125,-0.22870354169011115,0.021490897122398017,-0.10864727559313177
1761505434281762800,5.1697626953125,-0.18852292247116564,0.04189107639864087,-0.13995704448372126
1761505434291798800,5.179798828125,-0.1551847164928913,0.03534165475517511,-0.17163842316567895
1761505434301834800,5.189834716796875,-0.11173369730114936,-0.033059315971657635,-0.15941183266863226
1761505434311870700,5.19987060546875,-0.016216975307464597,-0.07227496261596679,-0.10863266254588962
1761505434321906700,5.20990673828125,0.025067221239209174,-0.07728650716766715,-0.06309753055647015
1761505434331943000,5.21994287109375,0.03505377772450447,-0.08140095674917101,-0.027847791868448254
1761505434341980000,5.22997998046875,-0.0130319155305624,-0.049354544147104024,0.00024155367091298102
1761505434352016000,5.240015869140625,-0.08170505426228046,-0.0050723348282277585,-0.05028203425556421
1761505434362051800,5.2500517578125,-0.11776420963704586,0.04792874912768602,-0.12175342540368438
1761505434372088000,5.260088134765625,-0.1438783095806837,0.07984970871917903,-0.11733765478804707
1761505434382124000,5.2701240234375,-0.20697861661612987,0.02143777869567275,-0.055563627920299764
1761505434392160800,5.280160888671875,-0.23659867885410785,-0.01075578729212284,-0.010157821398973465
1761505434402197000,5.290197021484375,-0.2556453246295452,-0.02605944714695215,-0.01420008252710104
1761505434412233200,5.300233154296875,-0.16144728401899336,-0.05068184722810983,-0.00651508098244667
1761505434422269200,5.310269287109375,0.008129530441761016,-0.08484364454895257,0.010209843847155571
1761505434432305200,5.32030517578125,0.03340308790802955,-0.09684504798799752,0.033153643191605804
1761505434442342100,5.330342041015625,-0.09089432289004325,-0.07850932696089148,0.0564792814604938
1761505434452378000,5.340378173828125,-0.24738135415315626,-0.012020911857113242,0.05538505648300052
1761505434462414000,5.3504140625,-0.43213878661096095,0.028511954865604636,-0.007086304999142885
1761505434472450000,5.360449951171875,-0.42041210846006866,0.013229703124985098,-0.07290376203879713
1761505434482486000,5.370486083984375,-0.33181729468405247,0.02289813357181847,-0.09637114686593413
1761505434492523000,5.38052294921875,-0.24709260033965108,0.010456365954130888,-0.1396792504556477
1761505434502559000,5.39055908203125,-0.19129004909694194,-0.04512187501341104,-0.1585210213087499
1761505434512595000,5.400594970703125,-0.16570494146347045,-0.09080459877997636,-0.10980682089179754
1761505434522631000,5.410630859375,-0.12786825502216814,-0.120767994562909,-0.07299494745358824
1761505434532667100,5.420667236328125,0.04999941792190075,-0.09985606637224555,-0.031083412788808343
1761505434542703000,5.430703125,0.12598141836225984,-0.0502077269103378,-0.0005010813899338245
1761505434552740000,5.440739990234375,0.12906009515523909,-0.043191199211776256,-0.01725377100929618
1761505434562776000,5.450776123046875,0.0009592004209756851,0.005144084890186786,-0.10206482846289873
1761505434572812000,5.46081201171875,-0.17154431514143942,0.11986344693861901,-0.140118810916692
1761505434582848000,5.470847900390625,-0.30705285578370095,0.15482070548608898,-0.10810746962800621
1761505434592884000,5.480884033203125,-0.3930038770526647,0.1254728112529963,-0.03672580258995294
1761505434602921000,5.4909208984375,-0.33501521394252776,0.038668899481743575,0.007025660853087902
1761505434612957000,5.50095703125,-0.18684008395075796,0.018477613715827464,0.03737944419309497
1761505434622993000,5.510992919921875,-0.01023731637597084,0.03417662956379354,0.07123831304460763
1761505434633028900,5.52102880859375,0.06209142225384712,-0.013313728146627544,0.09491451831683516
1761505434643065000,5.531065185546875,0.12899579774737358,-0.05922777645103633,0.055463090155273675
1761505434653102000,5.54110205078125,0.15890753640830516,-0.03256839064955711,0.011138795260339975
1761505434663138000,5.551137939453125,0.07303776368200779,0.0037293227214366194,0.00897051131054759
1761505434673174000,5.561174072265625,-0.1387105515539646,0.008164236428961157,0.00793006234690547
1761505434683210200,5.571210205078125,-0.302468450602889,0.020976737055182455,-0.005496113198250532
1761505434693246200,5.58124609375,-0.3095598701685667,0.037090763444826,0.011735299848765134
1761505434703282200,5.5912822265625,-0.23347791648507116,0.003655234571918845,0.043779812754690645
1761505434713319200,5.601319091796875,-0.1379746384948492,-0.08093962284773587,0.09338803940191864
1761505434723355100,5.611355224609375,-0.13540741835534573,-0.12998466265425085,0.10984203833565115
1761505434733391000,5.62139111328125,-0.21381986081302165,-0.11493358932100235,0.05458601505979895
1761505434743427000,5.631427001953125,-0.22227146281599997,-0.10438121564649044,-0.01989493316784501
1761505434753463000,5.641463134765625,-0.15021569590866565,-0.12441994119919836,-0.03961509429067373
1761505434763499000,5.6514990234375,-0.07602759314775466,-0.12733707075491546,-0.0007277297526597976
1761505434773536000,5.661535888671875,-0.09795417827367782,-0.07880706779845058,-0.029916268705576655
1761505434783572000,5.671572021484375,-0.19686346531510351,-0.03426920321807265,-0.1311705114379525
1761505434793608000,5.68160791015625,-0.4067395569384098,-0.015416764840483665,-0.19352336110696194
1761505434803644000,5.691643798828125,-0.5833592756479978,-0.024253420638293027,-0.207334590446949
1761505434813679900,5.701679931640625,-0.5031085118472576,-0.09140943280532955,-0.27962007445693016
1761505434823717000,5.711717041015625,-0.2579366504371166,-0.11378193506784737,-0.20877149138227105
1761505434833753000,5.721753173828125,-0.022015432453155515,-0.09217208774089812,-0.06283128083571791
1761505434843789000,5.7317890625,0.18019699267446992,-0.09634162851050496,0.023522183754295108
1761505434853825000,5.741824951171875,0.22858196113705634,-0.12853168736696244,0.08970993541106581
1761505434863861000,5.751861083984375,0.14248305583000181,-0.13864223555810748,0.12422536847516893
1761505434873897000,5.76189697265625,-0.008804068702459335,-0.06440642119795084,0.08041428379938007
1761505434883934000,5.771933837890625,-0.1539648193091154,0.025867212510481474,0.043184477210044855
1761505434893970000,5.781969970703125,-0.24680209296047687,0.11301840334944427,-0.008945376869291066
1761505434904006000,5.792005859375,-0.3066565499424934,0.16893690912202,-0.07301292150169611
1761505434914042000,5.8020419921875,-0.22916648302674292,0.2016476308517158,-0.07254647303372622
1761505434924078000,5.812078125,-0.15224457138776779,0.1629819462403655,-0.049569648202508684
1761505434934114800,5.82211474609375,-0.0984428385734558,0.08302994619049131,-0.02401508183777332
1761505434944151000,5.832151123046875,-0.052908583366870876,0.005737666869163513,0.00254515443816781
1761505434954187300,5.842187255859375,-0.014512509477138518,-0.044225656826049085,-0.01699848107397556
1761505434964223200,5.85222314453125,0.010521978536248207,-0.049186128777638075,-0.04992942142561078
1761505434974259200,5.86225927734375,-0.03423077090382576,0.015468129701539874,-0.09146087073162197
1761505434984295200,5.872295166015625,-0.19910802937150002,0.06982493911534547,-0.18993381218239663
1761505434994332200,5.882332275390625,-0.3175374249190092,0.049067397768795484,-0.1981352388165891
1761505435004368100,5.8923681640625,-0.3853378724694252,0.06512567538321018,-0.1583433266542852
1761505435014404000,5.902404052734375,-0.2936556140720844,0.0924913097579032,-0.12447539771348237
1761505435024440000,5.912440185546875,-0.1373117906719446,0.05642557851187884,-0.08694456235095858
1761505435034476000,5.92247607421875,-0.008109072175621986,-0.029445728584378956,-0.036510406273603434
1761505435044513000,5.932512939453125,0.020862170764803886,-0.05421995822638273,-0.0005723930604755878
1761505435054549000,5.942549072265625,-0.021717910811305044,-0.035322219402343036,-0.01684665151312947
1761505435064585000,5.9525849609375,-0.07669336358010768,-0.030146862591058015,-0.01970744777172804
1761505435074621000,5.962620849609375,-0.1298439390093088,-0.011432371379435062,-0.02355243276208639
1761505435084657000,5.972656982421875,-0.16255495299994946,0.013692352200672029,-0.03831277952045202
1761505435094692900,5.98269287109375,-0.1848252369970083,0.011047902106493711,-0.06818827782422304
1761505435104730000,5.992730224609375,-0.19375673147141934,-0.002187207845970988,-0.0414234588868916
1761505435114766000,6.00276611328125,-0.18285013753175736,-0.02835610671676695,-0.013202742052823305
1761505435124802000,6.012802001953125,-0.1549403863430023,-0.04040514868982136,-0.023388766632974147
1761505435134838000,6.022838134765625,-0.20574527542889118,-0.03678871175833046,-0.044223026477545495
1761505435144874000,6.0328740234375,-0.21378829663097856,-0.047138256337121126,-0.03987549879252911
1761505435154910200,6.04291015625,-0.19223405194878576,-0.08754391648359597,0.019514263287186622
1761505435164947000,6.052947021484375,-0.15312018517851828,-0.07451061271354556,0.0395871833704412
1761505435174983000,6.06298291015625,-0.07194879940152168,-0.014925254996493458,0.009204173935949802
1761505435185019100,6.07301904296875,-0.020659926190972327,-0.009213234025239945,0.01918459294140339
1761505435195055000,6.08305517578125,-0.08216799559891223,-0.03864807588942349,0.0013009995959699153
1761505435205091000,6.093091064453125,-0.10701251399815082,-0.010168342792987823,-0.01737915095463395
1761505435215127000,6.103126953125,-0.10926467683911323,-0.015440876368433236,-0.022655630052834747
1761505435225164000,6.1131640625,-0.07307458856105804,-0.06757789084091782,-0.0013772797025740145
1761505435235200000,6.123199951171875,-0.0732242261648178,-0.04907835755422711,0.01570493413209915
1761505435245236200,6.133236328125,-0.09271510857641696,0.007740384993702173,-0.001445668763667345
1761505435255272200,6.143272216796875,-0.1793804155945778,0.014321882275864482,-0.02125496947467327
1761505435265308200,6.15330810546875,-0.29241701218783855,-0.03398198377452791,-0.03499824814498424
1761505435275345200,6.16334521484375,-0.279547593742609,-0.053799760052934284,-0.026546207750588652
1761505435285381000,6.173381103515625,-0.2556622757643461,-0.028038419069722292,0.0035335809536278244
1761505435295417000,6.1834169921875,-0.2341699904024601,-0.02611439220458269,0.003960135802626609
1761505435305453000,6.193453125,-0.1948550481021404,-0.040981779533997176,0.054856794825196266
1761505435315489000,6.203489013671875,-0.10056991373002529,0.0009214987590909004,0.06081935649141669
1761505435325525000,6.21352490234375,-0.039917584368586535,0.03881210734471679,0.022706045065820215
1761505435335562000,6.22356201171875,-0.0471650712788105,0.03604132745712995,-0.0037016309969127178
1761505435345598000,6.233597900390625,-0.11271803216338157,0.00906286576911807,-0.03690612759292126
1761505435355634000,6.243634033203125,-0.15777648655176163,0.04249737172871828,-0.09652882164567708
1761505435365670000,6.253669921875,-0.15779343768656254,0.04308160135746002,-0.12030877955332397
1761505435375705900,6.263705810546875,-0.13065233278274535,-0.002076294817402959,-0.09668445059880613
1761505435385741800,6.273741943359375,-0.11003916834294795,-0.024286080798879263,-0.011069675546884535
1761505435395779000,6.283779052734375,-0.051447863164544104,-0.014611878198385237,0.036950843517482276
1761505435405815000,6.29381494140625,-0.044350013858079906,-0.04497296806201338,0.048301235701888795
1761505435415851500,6.3038515625,-0.0652776510745287,-0.058007294745370745,0.05596197958812117
1761505435425887500,6.313887451171875,-0.13829144935905932,-0.010291165455058216,0.023295535391569137
1761505435435923500,6.32392333984375,-0.16126842032074928,0.024201544320583343,-0.020348376023769377
1761505435445959700,6.333959716796875,-0.11715046165287495,0.012309884866327047,0.015393968486785889
1761505435455996400,6.343996337890625,-0.116799748519063,-0.016664426814019678,0.0644236645936966
1761505435466032400,6.354032470703125,-0.14878712441027164,-0.04089263994581997,0.02306084985285997
1761505435476068600,6.364068603515625,-0.14107786520719529,-0.01107091765590012,-0.0318850845605135
1761505435486104600,6.3741044921875,-0.2047334680378437,0.00023695056103169917,-0.08484802846312522
1761505435496140500,6.384140625,-0.28340017751753327,-0.06389233419597148,-0.09550093990266323
1761505435506176500,6.394176513671875,-0.37138299687504767,-0.08947583439424633,-0.07197831775695085
1761505435516213800,6.4042138671875,-0.38367373864948745,-0.05637209475897252,0.05891966034993529
1761505435526249700,6.414249755859375,-0.35026422100067134,-0.06318111718669533,0.12517755463346839
1761505435536285700,6.42428564453125,-0.2496229956001043,-0.12694719465449453,0.07980097420662641
1761505435546321700,6.43432177734375,-0.12561024696230888,-0.16392010387331246,-0.0005156944371759891
1761505435556357600,6.444357666015625,-0.062009589189290996,-0.11581066441647708,-0.11239829868972301
1761505435566393600,6.4543935546875,0.006934183177351951,-0.06872954509407281,-0.19917671069353818
1761505435576430600,6.4644306640625,0.0017979893326759337,-0.08615721136555075,-0.1541708632752299
1761505435586466600,6.474466552734375,-0.023262802165746686,-0.06238470611199736,-0.08601794902533293
1761505435596502500,6.48450244140625,-0.028621114328503606,-0.03977291520088911,-0.022457184871286152
1761505435606538500,6.49453857421875,-0.1260018766283989,-0.028117402590066193,0.0035179449930787085
1761505435616574500,6.504574462890625,-0.19321137254834175,0.011112930166721343,-0.05357669188678264
1761505435626610400,6.5146103515625,-0.19556641124188898,0.055472004114091394,-0.10311974434331059
1761505435636647700,6.524647705078125,-0.2020534351736307,0.06840126298777759,-0.05162614234089851
1761505435646683600,6.53468359375,-0.13979250157177447,0.07352006730623543,-0.010280424865335225
1761505435656719600,6.5447197265625,-0.13349836986362934,0.09306129166558384,0.07146481527686119
1761505435666755600,6.554755615234375,-0.14336685292720794,0.07184723872318863,0.09740063604414463
1761505435676791600,6.56479150390625,-0.0917290201485157,0.019232085344940423,0.03649652387872338
1761505435686827800,6.574827880859375,-0.04975567229390144,-0.04969502814784646,-0.07950272191241384
1761505435696864500,6.584864501953125,0.002470189505815506,-0.07316577397584914,-0.1756634408980608
1761505435706900500,6.594900390625,-0.010815993046760558,-0.05708747648671269,-0.19596023286506534
1761505435716936700,6.604936767578125,-0.016623218020796776,-0.024051102999225256,-0.21114932642951606
1761505435726972700,6.61497265625,-0.042808045113086696,-0.007505407194048166,-0.11907236962616442
1761505435737008600,6.625008544921875,-0.1239665714085102,0.036146614462509746,-0.039113866770267486
1761505435747044600,6.635044677734375,-0.15971476113796232,0.05772716262973845,-0.0028134499855339526
1761505435757080600,6.64508056640625,-0.19126023848056792,0.05563464732989668,0.003477320721745491
1761505435767117600,6.65511767578125,-0.17949556640684602,0.048385699114948506,0.04456672534868121
1761505435777153500,6.665153564453125,-0.1667962438315153,0.024318448698520657,0.032063363736867904
1761505435787189500,6.675189453125,-0.10662205337584019,-0.02324431666098535,0.028236498925089833
1761505435797225500,6.6852255859375,-0.06492635341882705,-0.04821063480898738,0.039136370863020416
1761505435807261700,6.69526171875,-0.06771393831074238,-0.05199541404470801,0.05980506488233804
1761505435817297700,6.705297607421875,-0.19629998621344566,-0.044811566955223675,0.053942748720198865
1761505435827334700,6.715334716796875,-0.3179956900805235,-0.04411328249275684,0.03269640094339847
1761505435837370600,6.72537060546875,-0.3896078048735857,-0.030823958135023713,0.0030595337010920045
1761505435847406600,6.735406494140625,-0.323606515699625,-0.014995616818964481,-0.07021072356253862
1761505435857442600,6.745442626953125,-0.16834055066406725,-0.020816139665991065,-0.09189224788621067
1761505435867478500,6.755478515625,-0.005513210463523864,-0.0804571000277996,-0.08930690756812691
1761505435877514500,6.765514404296875,0.10328209529817103,-0.10870901571772992,-0.04434066150784492
1761505435887551500,6.775551513671875,0.08909867164492606,-0.09447619996480643,-0.058086570526659484
1761505435897587500,6.78558740234375,-0.010491583397984503,-0.08081482742428779,-0.10982874046266078
1761505435907623400,6.79562353515625,-0.1424742880016565,-0.048922874731570476,-0.15931187942549585
1761505435917659600,6.80565966796875,-0.2329711360067129,0.005896145366504788,-0.17311960163414478
1761505435927695600,6.815695556640625,-0.26741058122515676,0.027375717377290127,-0.15015753598064183
1761505435937731600,6.825731689453125,-0.2626642634809017,-0.0077398004718124865,-0.11195508496686815
1761505435947767600,6.835767578125,-0.23922902735769747,-0.020637495163455605,-0.06820785930752754
1761505435957804800,6.8458046875,-0.1772007334679365,0.01337985218539834,-0.09330635246783495
1761505435967840800,6.8558408203125,-0.12759294521212577,-0.011545403299853206,-0.10492708602622151
1761505435977876700,6.865876708984375,-0.056854106122255325,-0.04174947597086429,-0.08983765344396233
1761505435987912700,6.87591259765625,-0.019544073903560638,-0.07451886908523737,-0.0873085733577609
1761505435997948700,6.88594873046875,-0.044590836876630784,-0.07292327045686542,-0.04652297398298978
1761505436007984600,6.895984619140625,-0.09154080410003662,-0.04062997042164206,-0.10096870378926395
1761505436018021600,6.906021728515625,-0.17899463114738462,-0.03595912906639278,-0.08357815465778112
1761505436028057600,6.9160576171875,-0.30449557251632214,-0.0030828415114432573,-0.02715031112357974
1761505436038093600,6.926093505859375,-0.3067424746602774,0.04086290239468217,-0.06647431351318955
1761505436048129500,6.936129638671875,-0.2250193002194166,0.035425095254927874,-0.026542992880195376
1761505436058165500,6.94616552734375,-0.12481062101721763,0.03458060725480318,-0.04110182571709156
1761505436068201500,6.956201416015625,-0.031850597769021986,0.00611826368458569,-0.03152545746788382
1761505436078237400,6.966237548828125,-0.06760989341437816,0.00255311854891479,0.04904357850179076
1761505436088274400,6.9762744140625,-0.10564181016683578,-0.010068097288906574,0.050643561044335365
1761505436098310400,6.986310302734375,-0.12205693839490413,-0.0327701968319714,0.022056056724488734
1761505436108346600,6.9963466796875,-0.10002923098206519,0.028440643195062874,0.026309037993848323
1761505436118382600,7.006382568359375,-0.11147124697268009,0.049745735421776766,0.018509616289287805
1761505436128418600,7.01641845703125,-0.09959785382747649,0.00306267550624907,0.005086801744997501
1761505436138454800,7.026454833984375,-0.08260054179728031,-0.01884659315869212,0.02598769708499312
1761505436148491500,7.036491455078125,-0.11289046612083911,0.0055999388989061115,0.016355945386737583
1761505436158527500,7.046527587890625,-0.11287000785470008,0.0044812370672822,-0.0031971886061131953
1761505436168563700,7.056563720703125,-0.07114683536887169,0.007456891877204179,-0.032741701389849186
1761505436178599700,7.066599609375,-0.0941775823444128,-0.002184796693176031,-0.028858137954771518
1761505436188635600,7.0766357421875,-0.14555238027274608,-0.029252471034601327,-0.025571809760481116
1761505436198671600,7.086671630859375,-0.16103928773999213,-0.048089931038767096,0.0031533494643867016
1761505436208708600,7.09670849609375,-0.2512719318509102,-0.06266600727140903,0.06470175088271499
1761505436218744600,7.10674462890625,-0.2562929748833179,-0.04672368418686092,0.12300313320383428
1761505436228780500,7.116780517578125,-0.17818039215505121,-0.015348083518445492,0.13889306851401925
1761505436238816500,7.12681640625,-0.12309388022720813,-0.03966711673885584,0.135579413921386
1761505436248852500,7.1368525390625,-0.027252748584747313,-0.04962415486872196,0.07012056106105446
1761505436258888400,7.146888427734375,0.04393266522884369,-0.011449687840417026,0.01550415086299181
1761505436268924400,7.15692431640625,0.01198269873857498,0.022094489038735628,0.03428586209192872
1761505436278961700,7.166961669921875,-0.12476853544116019,0.014070099471881984,0.05662117414921522
1761505436288997600,7.17699755859375,-0.26923721213042734,-0.03517470069043338,0.07742533111646771
1761505436299033600,7.18703369140625,-0.35679157694280145,-0.03446414126828313,0.07135492516160011
1761505436309069600,7.197069580078125,-0.3977016794800758,-0.05984554302319884,0.004595511096715927
1761505436319105500,7.20710546875,-0.27099779206216335,-0.13234686174094676,-0.034247722038626666
1761505436329141500,7.2171416015625,-0.1516331614911556,-0.15139686851724982,-0.05672901843786239
1761505436339177700,7.227177734375,-0.10120236641466616,-0.15605945350080727,-0.08114917394518852
1761505436349214500,7.23721435546875,-0.07799217121899127,-0.16034275684319435,-0.09651654668599366
1761505436359250400,7.24725048828125,-0.20178572414815424,-0.11139335943087934,-0.055899289615452284
1761505436369286700,7.25728662109375,-0.2811865931212902,-0.054402694382146,-0.03880085529834032
1761505436379322600,7.267322509765625,-0.251356103003025,-0.01242204000391066,-0.10340104550272226
1761505436389358600,7.277358642578125,-0.15302140097916125,0.01545636619850993,-0.15742095111235976
1761505436399394600,7.28739453125,-0.1100631337404251,0.009990136681869625,-0.16670593519955873
1761505436409430500,7.297430419921875,-0.08188917865753173,-0.02235752388909459,-0.16662030274271963
1761505436419466800,7.307466796875,-0.0320721315652132,-0.04404620860591531,-0.15888254809752106
1761505436429502700,7.317502685546875,0.03305821999311447,-0.05677753375470638,-0.07980550425127148
1761505436439539000,7.3275390625,-0.017001403683423996,-0.06295797595530749,-0.041212592615187164
1761505436449575000,7.337574951171875,-0.14773206239938735,-0.010419541075080632,-0.09978840796351432
1761505436459611000,7.34761083984375,-0.22136603840887545,0.05648848768025636,-0.14015066735967993
1761505436469646800,7.357646728515625,-0.24630408031046389,0.10409816092140972,-0.16742928103804589
1761505436479682800,7.367682861328125,-0.23339257628917692,0.0915089476570487,-0.1573455477885902
1761505436489719800,7.3777197265625,-0.1799368804335594,0.08174575159884989,-0.10023702851384877
1761505436499755800,7.387755859375,-0.1416208860427141,0.06666296795308589,-0.05699146876633167
1761505436509791700,7.397791748046875,-0.09609481414258479,0.004886164606362581,-0.0024662439830601215
1761505436519828000,7.407827880859375,-0.04441021961271763,-0.06764993316382169,0.05775105496197939
1761505436529864000,7.417864013671875,0.03402034302353859,-0.0671498016219586,0.09041019263491033
1761505436539900000,7.42789990234375,0.03413081766068935,-0.03209273596182465,0.03927592546418309
1761505436549935900,7.437935791015625,-0.019490297889709473,-0.05453596537299454,-0.03197232445254922
1761505436559972900,7.447972900390625,-0.09925298591256142,-0.08537000651061534,-0.01969780316054821
1761505436570008800,7.4580087890625,-0.14991116000413893,0.00887026580646634,-0.04465206554457545
1761505436580044800,7.468044921875,-0.23485563457906244,0.08207790616266429,-0.04676043600067496
1761505436590080800,7.478080810546875,-0.25345687467455863,0.07518076706007122,0.021606997782737017
1761505436600116700,7.48811669921875,-0.2714391060888767,0.009080839817225933,0.10575827615335583
1761505436610152700,7.498152587890625,-0.24658991151452064,-0.01846665393039584,0.06605418840497732
1761505436620189000,7.50818896484375,-0.2511176180720329,-0.04604615025147796,0.007872779201716184
1761505436630226000,7.518225830078125,-0.219132580268383,-0.123607455772534,0.013244681498408318
1761505436640262000,7.528261962890625,-0.15226736774146557,-0.1487625744909048,-0.03542787173390388
1761505436650297900,7.5382978515625,-0.0656476534307003,-0.14348755669742821,-0.0746755940169096
1761505436660333800,7.548333740234375,-0.08509002052545547,-0.12678849696144462,-0.1016319900035858
1761505436670369800,7.558369873046875,-0.2188987715125084,-0.13008110876604914,-0.14152663188800216
1761505436680405800,7.56840576171875,-0.2741314139127731,-0.0643926849335432,-0.14388283962532877
1761505436690441700,7.578441650390625,-0.2867383820295334,-0.005844195983558893,-0.15439838842079043
1761505436700478700,7.588478759765625,-0.2697340557366609,-0.06545308070667087,-0.10858794662132859
1761505436710514700,7.5985146484375,-0.23888299039900301,-0.07309110130444169,-0.045964755578339095
1761505436720550700,7.608550537109375,-0.17444237467050552,-0.03933861543685198,-0.10511179494336247
1761505436730587000,7.6185869140625,-0.09905015681684017,-0.020231033254414797,-0.08516644676253199
1761505436740622800,7.628622802734375,0.03377309026420116,0.0032334289632737633,-0.058059974780678744
1761505436750658800,7.638658935546875,0.14878361727893352,0.007687485762685537,-0.030196693082153794
1761505436760694800,7.64869482421875,0.1410936472982168,0.0684613956771791,0.08053834857046603
1761505436770732000,7.65873193359375,-0.011755319723486899,0.1233886984553188,0.05728066097125411
1761505436780768000,7.66876806640625,-0.11748597721755503,0.0957742038860917,0.06308876272812486
1761505436790804000,7.678803955078125,-0.13333470373451708,0.10478913886025547,0.11716507470011711
1761505436800840000,7.68883984375,-0.12523206129968165,0.14702216056436299,0.11171703842729329
1761505436810876000,7.6988759765625,-0.13359364693164824,0.12083872171156107,0.04640519282221794
1761505436820911900,7.708911865234375,-0.14963117401897907,0.008435673781484365,0.05820800494924187
1761505436830947800,7.71894775390625,-0.1430289992749691,0.024133593650907278,0.12385419707521796
1761505436840984800,7.72898486328125,-0.20969839696884154,0.03471994266025722,0.08082885594964027
1761505436851020800,7.739020751953125,-0.2536363228946924,-0.02888677952736616,0.06459712146446109
1761505436861056800,7.749056884765625,-0.2172287924736738,-0.06360197294726967,0.025915947023034094
1761505436871092700,7.7590927734375,-0.062435705646872515,-0.08837642178498208,-0.03798778534978628
1761505436881128700,7.769128662109375,0.0392570746332407,-0.1254516953997314,-0.052641164602339266
1761505436891164700,7.77916455078125,-0.026913725888729093,-0.16780512861311433,-0.0493793863274157
1761505436901201000,7.789200927734375,-0.1570668769776821,-0.14599654384367167,-0.020057722514122724
1761505436911238000,7.79923779296875,-0.262829683175683,-0.08687493118084967,-0.06367810692340135
1761505436921273900,7.80927392578125,-0.3476572533726692,-0.030948607427999375,-0.15048253015130758
1761505436931309800,7.819309814453125,-0.36359307365119453,-0.020915216126292942,-0.15499416235685348
1761505436941346000,7.829345947265625,-0.33974282698631286,-0.0062567223072052,-0.16885887544974684
1761505436951382000,7.839382080078125,-0.24106325704753398,-0.027630422790721056,-0.16564020566418766
1761505436961418000,7.84941796875,-0.1389899530172348,-0.057041445387899875,-0.10150602553635835
1761505436971454000,7.859453857421875,-0.022810382223129273,-0.07416413736343383,-0.04993935829773545
1761505436981490000,7.869489990234375,0.07373159116506577,-0.06917962694913149,-0.04645940722748637
1761505436991527000,7.87952685546875,0.11155483360290527,-0.024298721084743735,-0.05756020856499672
1761505437001563000,7.88956298828125,0.03868716579079628,0.009128916742652654,-0.08155264017954468
1761505437011598800,7.899598876953125,-0.1144464633911848,0.01908785456866026,-0.105552816709131
1761505437021634800,7.909634765625,-0.22150515461862086,0.005416179829835891,-0.07675050059482455
1761505437031670800,7.9196708984375,-0.2980143938034773,0.02375577331446111,-0.07589826767966151
1761505437041706800,7.929706787109375,-0.3487199141681194,0.043846302119642494,-0.0008544248722493648
1761505437051742700,7.93974267578125,-0.3046452101200819,0.08055062353014945,0.047246758212894195
1761505437061779700,7.94977978515625,-0.23419278675615787,0.052620487140491605,0.07721797197610139
1761505437071815700,7.959815673828125,-0.08873743711709976,0.030910394309461114,0.09537848256677389
1761505437081851600,7.9698515625,0.05296645103394985,0.030258725467696784,0.11085267668291926
1761505437091887900,7.979887939453125,0.08058803293108939,0.01359656367599964,0.13432619898989795
1761505437101923800,7.989923828125,0.08928396508395671,0.019851386287063358,0.11145093483701347
1761505437111959800,7.999959716796875,-0.0796907918304205,0.04219685441218316,0.03954685136005282
1761505437121996000,8.00999609375,-0.2889163105905056,0.016805954176560042,0.01486775265559554
1761505437132030700,8.02003076171875,-0.37018589604496954,0.050478725871443746,0.08234510573148728
1761505437142068000,8.03006787109375,-0.3595779927909374,0.05953589255213737,0.04200593494996428
1761505437152104000,8.04010400390625,-0.2485486443668604,-0.03907200038991868,-0.0013549217402935027
1761505437162140000,8.050139892578125,-0.07981003429591656,-0.04271240271888673,0.003774988494068384
1761505437172176000,8.06017578125,-0.0395183559179306,-0.031863018859177826,-0.08300430029258131
1761505437182211800,8.0702119140625,-0.026097148808836935,-0.030858079600334164,-0.11628799960464238
1761505437192247800,8.080247802734375,-0.11906126371026038,-0.034242680537328124,-0.177141989018023
1761505437202283800,8.09028369140625,-0.19509411755502223,-0.06820091811008751,-0.19909619280323385
1761505437212320800,8.10032080078125,-0.21694529935717582,-0.08066299786344171,-0.19262129770070313
1761505437222356700,8.110356689453125,-0.20767185957729814,-0.08902575253918767,-0.12976648985892533
1761505437232392700,8.120392822265625,-0.19965455733835696,-0.08413535014912485,-0.10197817309275269
1761505437242428700,8.1304287109375,-0.23418343440592287,-0.07753734012357891,-0.11173588925823569
1761505437252465000,8.14046484375,-0.1359580379754305,-0.04474237417653203,-0.1145544538103044
1761505437262500900,8.1505009765625,0.025325579914450645,-0.012424889548122882,-0.05867664537429809
1761505437272536800,8.160536865234375,0.16054010604619978,-0.009461655828356742,0.005015782335400581
1761505437282572800,8.17057275390625,0.20942367168068884,-0.0515578994102776,0.05745470236390829
1761505437292610000,8.180610107421876,0.07783201222121715,-0.0905848185494542,0.018055881172418593
1761505437302646000,8.19064599609375,-0.04978431386649608,-0.048210196417570114,-0.0041119653634727
1761505437312682000,8.200681884765626,-0.20532325062453746,0.020196254201978445,-0.0573211391121149
1761505437322718000,8.210718017578126,-0.3278343625277281,0.054812517292052505,-0.09597980946078896
1761505437332754000,8.22075390625,-0.46411914823949335,0.026341478958725927,-0.10680383968353271
1761505437342790000,8.230789794921876,-0.43918812060058116,0.02093625891432166,-0.018544395341724158
1761505437352825900,8.240825927734376,-0.3206926740795374,-0.009116641782969236,0.048968613569438456
1761505437362861800,8.25086181640625,-0.21155893014371394,-0.12319164151325822,0.08396437749639153
1761505437372898800,8.26089892578125,-0.12795067260861395,-0.18920126012414692,0.14611235224306582
1761505437382934800,8.270934814453126,-0.06302373466789722,-0.0810721631862223,0.08203852400034665
1761505437392970800,8.280970703125,-0.08509469670057296,-0.02550166713371873,-0.015237608881294726
1761505437403006700,8.2910068359375,-0.09621814826130866,-0.051964653580263254,-0.02817921577990055
1761505437413042700,8.301042724609376,-0.0732376701682806,0.00998334161490202,-0.07589023050367832
1761505437423080000,8.311079833984374,-0.10271569358706474,0.05386895283162593,-0.0826531487673521
1761505437433116000,8.321115966796874,-0.15350070892870427,0.08096220000572502,-0.02026712748110294
1761505437443153000,8.33115283203125,-0.17395254532694815,0.06699899497441947,-0.0033022564157843587
1761505437453188900,8.34118896484375,-0.2164449486196041,0.005857128530368208,0.028931641582399605
1761505437463224800,8.351224853515625,-0.18611586132943628,-0.008034399504214525,0.05307940988913178
1761505437473260800,8.3612607421875,-0.07535480845272541,0.054638548964634534,0.038886780016124244
1761505437483296800,8.371296875,-0.008884732723236083,0.017237769722566007,-0.0007781447656452655
1761505437493332700,8.381332763671875,0.04551905763745308,-0.07225757308974862,-0.04907791916280985
1761505437503369000,8.391368896484375,0.04827917000055313,-0.002669073078781366,-0.10642799210846424
1761505437513405000,8.401405029296875,-0.05373918897211551,0.04622727897204459,-0.17818594511300323
1761505437523441000,8.41144091796875,-0.17967384558320043,0.06113887076936662,-0.1872933806762099
1761505437533478100,8.42147802734375,-0.251033446919918,0.06168883280232548,-0.1536529768809676
1761505437543514000,8.43151416015625,-0.3183428960829973,-0.03440408164411783,-0.12201514507979154
1761505437553550000,8.441550048828125,-0.24045126262903213,-0.029975524612143634,-0.009542027588188647
1761505437563586000,8.4515859375,-0.09651508538126945,0.03806494223922491,0.008086568082869052
1761505437573622000,8.4616220703125,-0.03188742264807224,-0.011300707823783158,-0.010066782114654779
1761505437583658000,8.471657958984375,-0.024265841728448867,-0.08296966737061738,-0.023471768741309643
1761505437593694000,8.48169384765625,0.01672375578582287,-0.05091171046122908,-0.016643676286935805
1761505437603731000,8.49173095703125,-0.10418225900828838,0.029513898449763654,-0.0395433442287147
1761505437613767000,8.501766845703125,-0.18689210639894008,-0.011367781710624695,-0.03222629921361804
1761505437623803000,8.511802978515625,-0.23646716142892837,-0.05306231262385845,-0.0023997546181082725
1761505437633838800,8.5218388671875,-0.22816695059537886,-0.03418737015351653,-0.053696518874168396
1761505437643874800,8.531874755859375,-0.16815175009369848,-0.07191204758770764,-0.15024126874133945
1761505437653910800,8.541910888671875,-0.14588848035931587,-0.13587554732374846,-0.11776640159413218
1761505437663946800,8.55194677734375,-0.15446458552479744,-0.07215528175905346,-0.25814210988134145
1761505437673983000,8.56198291015625,-0.15846622238159178,-0.01181216447725892,-0.42212051981315013
1761505437684019000,8.57201904296875,0.030220950740575788,-0.01771736993305385,-0.33305414300262925
1761505437694056000,8.582055908203126,-0.16488135012090205,0.4512154621984809,-0.06159340960383415
1761505437704093000,8.592093017578126,-1.2161942376047372,-0.009590689035505055,0.6123707044683396
1761505437714129000,8.60212890625,-0.9766133280694484,-0.5678967719696462,0.44430327165722844
1761505437724164900,8.612164794921876,0.031277181795239445,-0.2654457839582115,0.08521160107851028
1761505437734200800,8.622200927734376,0.4161310701400041,-0.030737375830113885,-0.2905192157424986
1761505437744237000,8.632237060546874,0.4872685531586408,-0.26009572816714643,-0.12948416578620672
1761505437754273000,8.64227294921875,0.46078795799016947,-0.39261516999602314,-0.08295914597660303
1761505437764309800,8.652309814453124,0.15492986494898794,-0.2545645436555147,-0.14576207750067113
