time,seconds_elapsed,z,y,x
1761505429198411000,0.086410888671875,0.062483884394168854,-0.08756020665168762,0.38882285356521606
1761505429208447000,0.096447021484375,0.0756007507443428,-0.06718888878822327,0.35853204131126404
1761505429218484000,0.10648388671875,0.08392472565174103,-0.049682069569826126,0.32172688841819763
1761505429228520000,0.11652001953125,0.0838291198015213,-0.021644309163093567,0.29640716314315796
1761505429238556000,0.126555908203125,0.07938376814126968,-0.0015840481501072645,0.2792840898036957
1761505429248592000,0.136591796875,0.08136889338493347,0.018213091418147087,0.26651957631111145
1761505429258628900,0.14662890625,0.07549555599689484,0.04892146959900856,0.23800936341285706
1761505429268664800,0.156664794921875,0.07262040674686432,0.07592619210481644,0.18223504722118378
1761505429278700800,0.16670068359375,0.08207995444536209,0.07784765958786011,0.11408928781747818
1761505429288736800,0.17673681640625,0.09561920166015625,0.0525476299226284,0.07218790799379349
1761505429298774000,0.18677392578125,0.10061608999967575,0.019760921597480774,0.06430335342884064
1761505429308810000,0.19681005859375,0.09151607006788254,-0.02286350354552269,0.07546093314886093
1761505429318846000,0.206845947265625,0.07268405705690384,-0.06942328065633774,0.08452820032835007
1761505429328882000,0.2168818359375,0.046547528356313705,-0.10828652232885361,0.06999479979276657
1761505429338919000,0.2269189453125,0.02124163880944252,-0.11659931391477585,0.04520263150334358
1761505429348955000,0.236954833984375,0.006937800906598568,-0.06198560819029808,0.020653879269957542
1761505429358990800,0.246990966796875,0.013285445049405098,-0.005140966270118952,-0.020796891301870346
1761505429369026800,0.25702685546875,0.04824955388903618,0.040226515382528305,-0.055578574538230896
1761505429379063800,0.267063720703125,0.09411850571632385,0.07491019368171692,-0.0534304678440094
1761505429389099800,0.277099853515625,0.12453420460224152,0.06770208477973938,-0.02346138283610344
1761505429399135700,0.2871357421875,0.12963096797466278,0.06550949811935425,0.03195101022720337
1761505429409173000,0.297173095703125,0.1155116856098175,0.0545218326151371,0.06829357147216797
1761505429419209000,0.307208984375,0.09958864003419876,0.04511554539203644,0.06938040256500244
1761505429429245000,0.317244873046875,0.09695877134799957,0.0429631806910038,0.05004532262682915
1761505429439281000,0.327281005859375,0.10568728297948837,0.03462402522563934,0.03248737007379532
1761505429449318100,0.337318115234375,0.1157044917345047,0.016757674515247345,0.023677365854382515
1761505429459354000,0.34735400390625,0.11402910202741623,-0.024283235892653465,0.024037692695856094
1761505429469390000,0.35739013671875,0.10243342816829681,-0.04025234654545784,0.03187484294176102
1761505429479426000,0.367426025390625,0.06325140595436096,-0.05095958709716797,0.02473757043480873
1761505429489463000,0.377463134765625,0.027286481112241745,-0.03809225931763649,-0.0026170883793383837
1761505429499499000,0.3874990234375,-0.005419266410171986,-0.0100198769941926,-0.04952041432261467
1761505429509535000,0.397534912109375,-0.02280278317630291,0.0016186692519113421,-0.09978864341974258
1761505429519571000,0.407571044921875,-0.028804749250411987,0.0032474587205797434,-0.1382545381784439
1761505429529608000,0.41760791015625,-0.0219724103808403,-0.014649782329797745,-0.14076563715934753
1761505429539644000,0.427643798828125,-0.016871390864253044,-0.017462879419326782,-0.11056459695100784
1761505429549679900,0.437679931640625,-0.014916365034878254,-0.021941252052783966,-0.067674919962883
1761505429559716000,0.447716064453125,-0.008912534452974796,-0.02967427298426628,-0.0378057025372982
1761505429569753000,0.457753173828125,0.0018370485631749034,-0.015280685387551785,-0.008959139697253704
1761505429579789000,0.4677890625,0.012078233994543552,-0.0030423952266573906,0.012690761126577854
1761505429589825300,0.4778251953125,0.015055914409458637,0.03446423262357712,0.04669453576207161
1761505429599861200,0.487861328125,0.019686352461576462,0.0691061019897461,0.08932748436927795
1761505429609898000,0.49789794921875,0.02678021416068077,0.10284329205751419,0.12190753221511841
1761505429619934200,0.507934326171875,0.0387633740901947,0.13192234933376312,0.1314496397972107
1761505429629970200,0.51797021484375,0.050631750375032425,0.14173662662506104,0.12694036960601807
1761505429640006100,0.528006103515625,0.04141881316900253,0.11288527399301529,0.09797157347202301
1761505429650043100,0.538043212890625,0.017253821715712547,0.07000571489334106,0.04495895281434059
1761505429660079000,0.5480791015625,-0.003257312346249819,0.08819643408060074,-0.0001917476038215682
1761505429670115000,0.558114990234375,-0.013424995355308056,0.09270596504211426,-0.03569700941443443
1761505429680152000,0.568152099609375,-0.011514442972838879,0.07737068831920624,-0.047209855169057846
1761505429690188300,0.578188232421875,-0.01224707905203104,0.04727670177817345,-0.021033646538853645
1761505429700224300,0.588224365234375,-0.009213471785187721,-0.005023254547268152,0.031974710524082184
1761505429710260200,0.59826025390625,-0.01359490491449833,-0.04050321877002716,0.08246584981679916
1761505429720297200,0.608297119140625,-0.03118002414703369,-0.07242120057344437,0.09914975613355637
1761505429730333200,0.618333251953125,-0.046252183616161346,-0.06667303293943405,0.07193304598331451
1761505429740369200,0.628369140625,-0.04975450783967972,-0.022604644298553467,0.006982275750488043
1761505429750405000,0.638405029296875,-0.049492184072732925,0.01564900018274784,-0.07035619020462036
1761505429760442000,0.648442138671875,-0.049126800149679184,0.048355281352996826,-0.1315537691116333
1761505429770478000,0.65847802734375,-0.04795767366886139,0.05023174360394478,-0.15909644961357117
1761505429780514000,0.66851416015625,-0.048348888754844666,0.015137674286961555,-0.14789065718650818
1761505429790550000,0.678550048828125,-0.05043254792690277,0.004985969979315996,-0.09689192473888397
1761505429800587300,0.688587158203125,-0.049368616193532944,-0.006272543221712112,-0.05837622284889221
1761505429810623200,0.698623291015625,-0.046422094106674194,-0.01732093282043934,-0.04048324376344681
1761505429820659200,0.7086591796875,-0.0398201160132885,-0.005216067191213369,-0.052745770663022995
1761505429830695200,0.718695068359375,-0.03202717378735542,-0.009592972695827484,-0.09151739627122879
1761505429840732200,0.728732177734375,-0.03229855000972748,0.021398233249783516,-0.12991884350776672
1761505429850768100,0.73876806640625,-0.04186142981052399,0.04593154042959213,-0.14970427751541138
1761505429860804000,0.74880419921875,-0.05242539197206497,0.059427108615636826,-0.15280473232269287
1761505429870840000,0.758840087890625,-0.058459315448999405,0.08034517616033554,-0.1465819776058197
1761505429880877000,0.768876953125,-0.05619722604751587,0.09271369129419327,-0.12812094390392303
1761505429890913000,0.7789130859375,-0.04591476172208786,0.11356411129236221,-0.09168784320354462
1761505429900949000,0.788948974609375,-0.03210840001702309,0.12420476973056793,-0.042873963713645935
1761505429910985000,0.79898486328125,-0.007754858583211899,0.12567110359668732,0.0080310283228755
1761505429921022200,0.809022216796875,0.021951904520392418,0.09523198008537292,0.04802851378917694
1761505429931058200,0.81905810546875,0.04481594264507294,0.04676617309451103,0.08020056039094925
1761505429941094100,0.82909423828125,0.053520482033491135,0.01871216855943203,0.10033512860536575
1761505429951131100,0.839131103515625,0.04551022872328758,0.051238421350717545,0.0999913141131401
1761505429961167000,0.8491669921875,0.02731977216899395,0.08517827838659286,0.07831904292106628
1761505429971203000,0.859203125,0.009581787511706352,0.09254644811153412,0.04478531330823898
1761505429981239000,0.869239013671875,0.007852064445614815,0.09404154121875763,0.027874508872628212
1761505429991276000,0.879276123046875,0.013512613251805305,0.09802696108818054,0.04019002988934517
1761505430001312000,0.88931201171875,0.018695922568440437,0.07445905357599258,0.0679984912276268
1761505430011348000,0.899347900390625,0.026644127443432808,0.038230475038290024,0.08947901427745819
1761505430021384000,0.909384033203125,0.03889493644237518,-0.0032357405871152878,0.10097375512123108
1761505430031421200,0.919421142578125,0.04963839426636696,-0.05578523501753807,0.08899512141942978
1761505430041457200,0.92945703125,0.042806319892406464,-0.07369579374790192,0.04000307619571686
1761505430051493000,0.9394931640625,0.031374167650938034,-0.06385727971792221,-0.03644775599241257
1761505430061529000,0.949529052734375,0.01695874333381653,-0.031074030324816704,-0.10475623607635498
1761505430071566000,0.959566162109375,-0.004930576309561729,0.008530104532837868,-0.12712866067886353
1761505430081602000,0.96960205078125,-0.02215110883116722,0.032652486115694046,-0.11675963550806046
1761505430091638000,0.979637939453125,-0.03653644025325775,0.01281806081533432,-0.10476662963628769
1761505430101674000,0.989674072265625,-0.03454892337322235,-0.0012780509423464537,-0.10323850065469742
1761505430111711000,0.9997109375,-0.015659919008612633,-0.021513814106583595,-0.08930671215057373
1761505430121747000,1.009746826171875,-0.0008815063047222793,-0.04598506912589073,-0.05133988708257675
1761505430131783000,1.019782958984375,0.006987069267779589,-0.07242359966039658,-0.00007350324449362233
1761505430141820200,1.029820068359375,0.0032977922819554806,-0.09988025575876236,0.05085518956184387
1761505430151856000,1.039856201171875,-0.00424374733120203,-0.10509392619132996,0.08368504047393799
1761505430161892000,1.04989208984375,-0.006851247977465391,-0.062194932252168655,0.10833393037319183
1761505430171928000,1.059927978515625,-0.01763225719332695,-0.009218798018991947,0.10903407633304596
1761505430181965000,1.069965087890625,-0.027349065989255905,0.016033295542001724,0.09799899905920029
1761505430192001000,1.0800009765625,-0.043604202568531036,0.0720110759139061,0.09410865604877472
1761505430202037000,1.090037109375,-0.051773980259895325,0.09808235615491867,0.0735652968287468
1761505430212073000,1.100072998046875,-0.04923918470740318,0.09109155833721161,0.03316967189311981
1761505430222110000,1.11010986328125,-0.04460528492927551,0.07709185779094696,-0.02424248866736889
1761505430232146000,1.12014599609375,-0.035410989075899124,0.03369031846523285,-0.07087230682373047
1761505430242182100,1.13018212890625,-0.028728850185871124,-0.027122164145112038,-0.06921635568141937
1761505430252218000,1.140218017578125,-0.021627796813845634,-0.08001387864351273,-0.025182584300637245
1761505430262255000,1.150255126953125,-0.02401665225625038,-0.09268892556428909,0.0362677276134491
1761505430272291000,1.160291015625,-0.026633474975824356,-0.07088722288608551,0.06946136802434921
1761505430282327300,1.170327392578125,-0.033604033291339874,-0.003120958572253585,0.04808337241411209
1761505430292363300,1.18036328125,-0.03170093894004822,0.09501386433839798,-0.0034698324743658304
1761505430302400000,1.19039990234375,-0.02491866610944271,0.15055222809314728,-0.05415324866771698
1761505430312436200,1.200436279296875,-0.01786821335554123,0.13759008049964905,-0.0729312002658844
1761505430322472200,1.21047216796875,-0.01612544059753418,0.07713260501623154,-0.0540911965072155
1761505430332508200,1.220508056640625,-0.00752103328704834,0.001448759576305747,-0.012378372251987457
1761505430342545200,1.230545166015625,0.007442203816026449,-0.04713102802634239,0.019834425300359726
1761505430352581000,1.2405810546875,0.022277342155575752,-0.07396876811981201,0.03842994570732117
1761505430362617000,1.2506171875,0.030477214604616165,-0.06819556653499603,0.030782679095864296
1761505430372654000,1.260654052734375,0.024234766140580177,-0.060802362859249115,0.013025520369410515
1761505430382690300,1.270690185546875,0.015137141570448875,-0.05366269499063492,-0.0008681904873810709
1761505430392726300,1.280726318359375,0.006800381932407618,-0.04626310244202614,-0.0018189389957115054
1761505430402762200,1.29076220703125,-0.00003009372085216455,-0.042271025478839874,-0.007677094545215368
1761505430412799500,1.300799560546875,-0.010824152268469334,-0.016153935343027115,-0.008932242169976234
1761505430422835700,1.310835693359375,-0.02521108090877533,0.0438004769384861,0.007026484236121178
1761505430432871700,1.32087158203125,-0.023933827877044678,0.08559852093458176,0.016596021130681038
1761505430442907600,1.33090771484375,-0.017741180956363678,0.0847788006067276,0.020865866914391518
1761505430452944600,1.340944580078125,0.003525492735207081,0.06368816643953323,0.011239871382713318
1761505430462980900,1.35098095703125,0.008223574608564377,0.06252356618642807,0.01565379463136196
1761505430473016800,1.361016845703125,0.0105314701795578,0.07235568761825562,0.033367276191711426
1761505430483052800,1.371052734375,0.006969226058572531,0.04460208863019943,0.04916621372103691
1761505430493089800,1.38108984375,0.005106344819068909,0.011446799151599407,0.06974738836288452
1761505430503125800,1.391125732421875,0.007383880205452442,0.011865448206663132,0.09144149720668793
1761505430513161700,1.40116162109375,0.011138937436044216,0.02478097938001156,0.09429161250591278
1761505430523197700,1.41119775390625,0.009407882578670979,0.012658537365496159,0.08409517258405685
1761505430533234700,1.421234619140625,0.004752411041408777,0.009347163140773773,0.08322910964488983
1761505430543270700,1.431270751953125,0.004093012306839228,0.014599715359508991,0.09315603971481323
1761505430553306600,1.441306640625,-0.0003323625132907182,0.0021933794487267733,0.0895698294043541
1761505430563342600,1.451342529296875,-0.01733424887061119,-0.03792447969317436,0.051408328115940094
1761505430573379800,1.4613798828125,-0.027875572443008423,-0.030658043920993805,-0.006638994440436363
1761505430583415800,1.471415771484375,-0.022661102935671806,0.0324799120426178,-0.04061240702867508
1761505430593451800,1.48145166015625,-0.02497272752225399,0.09042150527238846,-0.04517227038741112
1761505430603487700,1.49148779296875,-0.0314820259809494,0.08475430309772491,-0.03843873366713524
1761505430613524700,1.501524658203125,-0.028801821172237396,0.07015565037727356,-0.013279586099088192
1761505430623560700,1.511560791015625,-0.016598684713244438,0.0421019122004509,0.0031377363484352827
1761505430633596700,1.5215966796875,0.0015480954898521304,0.00698041170835495,0.0019441075855866075
1761505430643633700,1.531633544921875,0.013214338570833206,-0.01489612553268671,-0.011265704408288002
1761505430653669600,1.541669677734375,0.011247594840824604,-0.02165442891418934,-0.04812704771757126
1761505430663705600,1.55170556640625,0.005428054835647345,-0.018279138952493668,-0.1052103117108345
1761505430673741600,1.561741455078125,0.004733768757432699,-0.0028493159916251898,-0.15485961735248566
1761505430683778800,1.57177880859375,-0.0029814087320119143,-0.009999371133744717,-0.16416524350643158
1761505430693814800,1.581814697265625,-0.014278005808591843,-0.022548984736204147,-0.10675467550754547
1761505430703850800,1.591850830078125,-0.017719874158501625,0.004077832214534283,-0.016508135944604874
1761505430713886700,1.60188671875,-0.011774367652833462,0.03911704197525978,0.053888265043497086
1761505430723923700,1.611923828125,-0.01429425086826086,0.07433175295591354,0.08174945414066315
1761505430733959700,1.621959716796875,-0.012895558960735798,0.10301586240530014,0.07636960595846176
1761505430743995600,1.63199560546875,-0.01270114816725254,0.11437131464481354,0.07276661694049835
1761505430754031600,1.642031494140625,-0.012712333351373672,0.08472367376089096,0.06970477849245071
1761505430764068600,1.652068603515625,-0.012680375017225742,0.012369317933917046,0.06300479918718338
1761505430774104600,1.6621044921875,-0.017365140840411186,-0.0451512336730957,0.05228317901492119
1761505430784140500,1.672140625,-0.024533571675419807,-0.07345690578222275,0.02695731446146965
1761505430794176500,1.682176513671875,-0.028672125190496445,-0.09013708680868149,-0.001175252953544259
1761505430804213800,1.6922138671875,-0.040648359805345535,-0.0834277793765068,-0.004599545616656542
1761505430814249700,1.702249755859375,-0.05986732989549637,-0.030704649165272713,0.018277274444699287
1761505430824285700,1.71228564453125,-0.07288938760757446,0.026608441025018692,0.04880668595433235
1761505430834321700,1.72232177734375,-0.06630764901638031,0.07650835812091827,0.06877373903989792
1761505430844358700,1.732358642578125,-0.0574696846306324,0.10926390439271927,0.0702214315533638
1761505430854394600,1.74239453125,-0.044522725045681,0.09713000804185867,0.04875502362847328
1761505430864430600,1.7524306640625,-0.04054529592394829,0.055869657546281815,0.016682572662830353
1761505430874466600,1.762466552734375,-0.05036330595612526,-0.0038344194181263447,-0.032952625304460526
1761505430884503600,1.772503662109375,-0.06119731068611145,-0.04255465045571327,-0.07737654447555542
1761505430894539500,1.78253955078125,-0.06680459529161453,-0.06607169657945633,-0.10831662267446518
1761505430904575500,1.792575439453125,-0.06807093322277069,-0.05797035992145538,-0.11866939067840576
1761505430914611500,1.802611572265625,-0.05712560564279556,-0.04671024903655052,-0.10628489404916763
1761505430924648700,1.812648681640625,-0.04164997488260269,-0.026089390739798546,-0.06285965442657471
1761505430934684700,1.8226845703125,-0.023565514013171196,-0.014311827719211578,-0.0010703244479373097
1761505430944720600,1.832720703125,-0.0073476615361869335,0.0012215919559821486,0.05182351544499397
1761505430954757600,1.842757568359375,0.004027232062071562,0.0067963870242238045,0.07257300615310669
1761505430964793600,1.852793701171875,0.016271114349365234,0.009612413123250008,0.07056178152561188
1761505430974829600,1.86282958984375,0.02215137518942356,0.004882107023149729,0.04851533845067024
1761505430984865800,1.87286572265625,0.014012754894793034,-0.0013025520602241158,0.021103687584400177
1761505430994902500,1.882902587890625,0.006885603070259094,0.007245129905641079,-0.0023513049818575382
1761505431004938500,1.8929384765625,0.0019118833588436246,0.013885987922549248,-0.017828265205025673
1761505431014974700,1.902974609375,-0.007604922633618116,0.0022477079182863235,-0.016081498935818672
1761505431025010700,1.9130107421875,-0.013428190723061562,-0.0071037160232663155,0.025905899703502655
1761505431035047700,1.923047607421875,-0.0025619608350098133,0.00138031633105129,0.08474551141262054
1761505431045083600,1.933083740234375,0.0037116475868970156,0.007518370170146227,0.12196531891822815
1761505431055120000,1.943119873046875,0.00899482611566782,0.011683288030326366,0.13787157833576202
1761505431065155800,1.95315576171875,0.007095459848642349,0.04773236811161041,0.15493366122245789
1761505431075192600,1.963192626953125,0.005685849115252495,0.08027486503124237,0.15173093974590302
1761505431085228800,1.973228759765625,0.006894657853990793,0.09284099191427231,0.1256074607372284
1761505431095264800,1.9832646484375,0.007495466619729996,0.07829107344150543,0.06909757852554321
1761505431105300700,1.99330078125,0.011874236166477203,0.04434269666671753,0.0049092709086835384
1761505431115336700,2.003336669921875,0.01284362655133009,0.006836600601673126,-0.05756475776433945
1761505431125373700,2.013373779296875,0.00498224189504981,-0.03838866949081421,-0.09776384383440018
1761505431135409700,2.02340966796875,-0.003123621689155698,-0.06788211315870285,-0.12986105680465698
1761505431145445600,2.033445556640625,-0.010997257195413113,-0.12408199906349182,-0.1315889209508896
1761505431155483000,2.04348291015625,-0.021698903292417526,-0.14016057550907135,-0.0787786990404129
1761505431165518800,2.053518798828125,-0.027161845937371254,-0.12572117149829865,-0.011901666410267353
1761505431175554800,2.063554931640625,-0.01708231493830681,-0.0995902419090271,0.046607714146375656
1761505431185590800,2.0735908203125,-0.005301821045577526,-0.02418709546327591,0.08007433265447617
1761505431195627800,2.083627685546875,0.008296811953186989,0.044450823217630386,0.08231724053621292
1761505431205663700,2.093663818359375,0.02442358434200287,0.07108775526285172,0.06223088502883911
1761505431215699700,2.10369970703125,0.03422188758850098,0.06795002520084381,0.036672525107860565
1761505431225735700,2.113735595703125,0.03904939815402031,0.043171439319849014,0.0010420948965474963
1761505431235772700,2.123772705078125,0.0391620509326458,0.02436073310673237,-0.022180669009685516
1761505431245808600,2.13380859375,0.033361952751874924,0.005511678289622068,-0.02220623567700386
1761505431255844600,2.1438447265625,0.024337297305464745,-0.01600080356001854,0.008228635415434837
1761505431265880600,2.153880615234375,0.018754512071609497,-0.03412467986345291,0.046960052102804184
1761505431275917800,2.163917724609375,0.015864184126257896,-0.03970560058951378,0.0785861536860466
1761505431285953800,2.173953857421875,0.014986938796937466,-0.026086993515491486,0.08784649521112442
1761505431295989800,2.18398974609375,0.015219166874885559,0.012797820381820202,0.07671714574098587
1761505431306025700,2.194025634765625,0.01236079540103674,0.04327317327260971,0.047266047447919846
1761505431316062700,2.204062744140625,0.006352171767503023,0.0560092069208622,0.021987324580550194
1761505431326098700,2.2140986328125,-0.012602344155311584,0.041360754519701004,0.010074205696582794
1761505431336134700,2.224134765625,-0.01696300506591797,0.027411650866270065,0.0043838294222950935
1761505431346170600,2.234170654296875,-0.002040247665718198,0.0010607370641082525,0.004539624322205782
1761505431356206600,2.24420654296875,0.02552107162773609,-0.014653511345386505,0.013251623138785362
1761505431366243600,2.25424365234375,0.039566583931446075,-0.03014378808438778,0.02955522947013378
1761505431376279600,2.264279541015625,0.04435335099697113,-0.04873691126704216,0.045104894787073135
1761505431386315500,2.2743154296875,0.023148462176322937,-0.04499970003962517,0.06084976717829704
1761505431396351500,2.2843515625,-0.0020471718162298203,-0.001374723738990724,0.05225202068686485
1761505431406388700,2.294388671875,-0.018069015815854073,0.043597277253866196,0.04063398018479347
1761505431416424000,2.304423828125,-0.023017434403300285,0.06670606136322021,0.03413772955536842
1761505431426460000,2.3144599609375,-0.010386594571173191,0.04867779091000557,0.03826776146888733
1761505431436496100,2.32449609375,0.008648881688714027,0.0009776464430615306,0.042029473930597305
1761505431446532900,2.334532958984375,0.029865220189094543,-0.034387268126010895,0.04264146834611893
1761505431456568800,2.34456884765625,0.04230138286948204,-0.06233954057097435,0.03879346698522568
1761505431466605000,2.35460498046875,0.039803072810173035,-0.050459180027246475,0.03230148181319237
1761505431476641000,2.36464111328125,0.03182078152894974,-0.01703624054789543,0.015995478257536888
1761505431486677800,2.374677734375,0.022067485377192497,0.03256619721651077,-0.006327404174953699
1761505431496714000,2.3847138671875,0.010484332218766212,0.06736093014478683,-0.011937885545194149
1761505431506750000,2.39475,0.002089516259729862,0.05797195807099342,-0.00729493098333478
1761505431516786000,2.404785888671875,0.0031582426745444536,0.034212034195661545,0.011274492368102074
1761505431526823000,2.414822998046875,0.010393518954515457,0.0024714134633541107,0.03815723955631256
1761505431536859100,2.424859130859375,0.01702212728559971,-0.027040405198931694,0.055812932550907135
1761505431546895000,2.43489501953125,0.020354805514216423,-0.029157353565096855,0.06261411309242249
1761505431556931000,2.44493115234375,0.018731875345110893,-0.011460913345217705,0.05781829357147217
1761505431566968000,2.454968017578125,0.01149606704711914,0.018128937110304832,0.05114521086215973
1761505431577004000,2.465004150390625,0.0019718045368790627,0.03623203933238983,0.0439876988530159
1761505431587040000,2.4750400390625,-0.005484247580170631,0.0435115247964859,0.034618962556123734
1761505431597076000,2.485075927734375,-0.0022266688756644726,0.043468914926052094,0.03581418842077255
1761505431607113000,2.495113037109375,0.001802693703211844,0.03401815518736839,0.05145227164030075
1761505431617149000,2.50514892578125,0.0015566176734864712,0.013608220033347607,0.06751938909292221
1761505431627185000,2.515184814453125,-0.0020578245166689157,0.0033039175905287266,0.06324528157711029
1761505431637220900,2.525220947265625,-0.005379052832722664,0.01136690378189087,0.03268098086118698
1761505431647257900,2.5352578125,-0.0070762853138148785,0.02792803756892681,-0.006226204335689545
1761505431657294000,2.545294189453125,-0.013705425895750523,0.030287066474556923,-0.03160373121500015
1761505431667330000,2.555330078125,-0.02106533758342266,0.013456420041620731,-0.03358326107263565
1761505431677366000,2.565365966796875,-0.02900022640824318,-0.021159613505005836,-0.016694556921720505
1761505431687402000,2.575402099609375,-0.03151771053671837,-0.04066354036331177,0.014493455179035664
1761505431697439000,2.58543896484375,-0.026158632710576057,-0.022418489679694176,0.04048031568527222
1761505431707475000,2.595474853515625,-0.021825669333338737,-0.01137010008096695,0.044796500355005264
1761505431717511000,2.605510986328125,-0.02261529676616192,-0.011471566744148731,0.02738688327372074
1761505431727547000,2.615546875,-0.02845534309744835,-0.01091736275702715,0.0054182009771466255
1761505431737583900,2.625583984375,-0.03419605270028114,0.0035489285364747047,-0.009826531633734703
1761505431747619800,2.635619873046875,-0.03754311427474022,0.01302285771816969,-0.01835077814757824
1761505431757655800,2.64565576171875,-0.034514300525188446,0.02191169001162052,-0.010992463678121567
1761505431767691800,2.65569189453125,-0.027647607028484344,0.022595856338739395,0.012379171326756477
1761505431777729000,2.66572900390625,-0.022544723004102707,0.020924456417560577,0.036368392407894135
1761505431787765000,2.675764892578125,-0.01703011617064476,0.019401926547288895,0.04530036821961403
1761505431797801000,2.685801025390625,-0.012989834882318974,0.02249838411808014,0.02695678174495697
1761505431807837000,2.6958369140625,-0.01696247234940529,0.022313561290502548,-0.009003082290291786
1761505431817874000,2.7058740234375,-0.020384367555379868,0.021993448957800865,-0.04175117611885071
1761505431827910000,2.715909912109375,-0.022834209725260735,-0.0009318400407209992,-0.05910087004303932
1761505431837945900,2.72594580078125,-0.017721472308039665,-0.025245169177651405,-0.043821781873703
1761505431847981800,2.73598193359375,-0.0059630838222801685,-0.021682925522327423,-0.007515707053244114
1761505431858018800,2.746018798828125,0.004120176658034325,-0.027178624644875526,0.028298482298851013
1761505431868054800,2.7560546875,0.016581106930971146,-0.033245306462049484,0.045215681195259094
1761505431878090800,2.7660908203125,0.01690654456615448,-0.017972609028220177,0.04688787832856178
1761505431888127000,2.776126953125,0.0002537992550060153,-0.003982490859925747,0.025898175314068794
1761505431898163000,2.786162841796875,-0.020856013521552086,0.011079815216362476,-0.010253436863422394
1761505431908200000,2.796199951171875,-0.029625803232192993,0.021556690335273743,-0.04632728546857834
1761505431918236000,2.80623583984375,-0.037632863968610764,0.032879918813705444,-0.05854054167866707
1761505431928272100,2.816272216796875,-0.03179468214511871,0.027893682941794395,-0.052621666342020035
1761505431938308000,2.82630810546875,-0.02123870886862278,0.005196892656385899,-0.03786801919341087
1761505431948344800,2.8363447265625,-0.008724248968064785,-0.019329490140080452,-0.021927403286099434
1761505431958381000,2.846381103515625,-0.00016218650853261352,-0.02184511162340641,-0.005708219483494759
1761505431968417000,2.8564169921875,0.0022034994326531887,-0.0006554039428010583,-0.0020487697329372168
1761505431978453000,2.866452880859375,-0.003480218816548586,0.03201758861541748,-0.00700890738517046
1761505431988490000,2.876489990234375,-0.0011701929615810513,0.062494002282619476,-0.006480802316218615
1761505431998526000,2.88652587890625,-0.0003557983145583421,0.07640502601861954,0.002270611235871911
1761505432008562000,2.89656201171875,-0.009130647405982018,0.06507141143083572,0.02484223246574402
1761505432018598000,2.906597900390625,-0.01679549179971218,0.03086124360561371,0.031973112374544144
1761505432028635100,2.91663525390625,-0.024955151602625847,-0.00570023013278842,0.01974600739777088
1761505432038671000,2.926671142578125,-0.02732296660542488,-0.029588252305984497,-0.020423516631126404
1761505432048707000,2.93670703125,-0.02707742340862751,-0.03624029457569122,-0.06407672166824341
1761505432058743000,2.946742919921875,-0.01618802547454834,-0.01576351746916771,-0.07905992865562439
1761505432068779000,2.956779052734375,-0.008386560715734959,-0.0004423510399647057,-0.058405786752700806
1761505432078816000,2.96681591796875,-0.0010942928493022919,0.007995608262717724,-0.021852834150195122
1761505432088852000,2.97685205078125,0.008319182321429253,0.013997574336826801,0.018018148839473724
1761505432098888000,2.986887939453125,0.026027338579297066,0.02689100243151188,0.055085089057683945
1761505432108924000,2.996923828125,0.04608573764562607,0.03307459503412247,0.07123956084251404
1761505432118961000,3.0069609375,0.0593876913189888,0.024884311482310295,0.06400508433580399
1761505432128996900,3.016996826171875,0.05880739167332649,-0.0025840650778263807,0.03859160095453262
1761505432139032800,3.02703271484375,0.05317693576216698,-0.034207239747047424,0.010668623261153698
1761505432149068800,3.03706884765625,0.04390513896942139,-0.06211450323462486,-0.007267766632139683
1761505432159104800,3.047104736328125,0.024930384010076523,-0.0643603503704071,-0.0028365328907966614
1761505432169142000,3.05714208984375,0.0049510826356709,-0.04524950310587883,0.007043794728815556
1761505432179178000,3.067177978515625,-0.012592224404215813,-0.00812290795147419,0.013848437927663326
1761505432189214000,3.0772138671875,-0.022612102329730988,0.041845452040433884,0.005620601586997509
1761505432199250000,3.08725,-0.021809691563248634,0.07484787702560425,-0.0010905644157901406
1761505432209287000,3.097286865234375,-0.011611116118729115,0.07933343946933746,0.002368615474551916
1761505432219323000,3.107322998046875,0.0014596786350011826,0.04614965245127678,0.007440872024744749
1761505432229358800,3.11735888671875,0.0065713501535356045,-0.01673903316259384,0.007065366487950087
1761505432239394800,3.127394775390625,0.014275874942541122,-0.07316422462463379,-0.0028245486319065094
1761505432249431800,3.137431884765625,0.019768377766013145,-0.08504991233348846,-0.0019126823171973228
1761505432259467800,3.1474677734375,0.01894519478082657,-0.06506794691085815,0.004668254870921373
1761505432269503700,3.157503662109375,0.019869312644004822,-0.02352210320532322,0.02112419344484806
1761505432279539700,3.167539794921875,0.016343818977475166,0.020811006426811218,0.05008314177393913
1761505432289576000,3.177575927734375,0.020665064454078674,0.04668095335364342,0.05675089731812477
1761505432299613000,3.187613037109375,0.02369813807308674,0.05591200292110443,0.04728442430496216
1761505432309649000,3.19764892578125,0.03422961011528969,0.04595870152115822,0.04480821639299393
1761505432319684900,3.207684814453125,0.037105824798345566,0.00782809592783451,0.05115266516804695
1761505432329721000,3.21772119140625,0.030372019857168198,-0.04488518461585045,0.053037386387586594
1761505432339757800,3.2277578125,0.031154990196228027,-0.0715269148349762,0.03744670748710632
1761505432349793800,3.237793701171875,0.03311720862984657,-0.0817638412117958,0.014993330463767052
1761505432359830000,3.247830078125,0.034262366592884064,-0.049730271100997925,-0.00945102609694004
1761505432369866000,3.257865966796875,0.04060548171401024,-0.017667943611741066,-0.026322150602936745
1761505432379902000,3.26790185546875,0.05014679208397865,0.014705442823469639,-0.025785790756344795
1761505432389939000,3.27793896484375,0.06144365295767784,0.015734754502773285,-0.01852548122406006
1761505432399975000,3.287974853515625,0.06185777485370636,0.002924949862062931,0.007637413218617439
1761505432410011600,3.29801171875,0.06586876511573792,-0.014578144066035748,0.047623977065086365
1761505432420048000,3.3080478515625,0.07230908423662186,-0.04818510636687279,0.07223132252693176
1761505432430084900,3.3180849609375,0.06331133097410202,-0.0701492577791214,0.0797070786356926
1761505432440120800,3.328120849609375,0.055088020861148834,-0.08658362925052643,0.05434579774737358
1761505432450156800,3.33815673828125,0.05781110003590584,-0.07430645823478699,0.008008125238120556
1761505432460193000,3.348193115234375,0.05666434392333031,-0.048231445252895355,-0.040524788200855255
1761505432470229000,3.35822900390625,0.04574458673596382,-0.021194234490394592,-0.06593800336122513
1761505432480265700,3.368265625,0.028269721195101738,0.001784850494004786,-0.06788583844900131
1761505432490302000,3.378302001953125,0.01667671464383602,0.012524846941232681,-0.048240501433610916
1761505432500338000,3.388337890625,0.006618754006922245,0.030010629445314407,-0.01841682381927967
1761505432510374000,3.398373779296875,0.0004242415598127991,0.03455504775047302,0.011267567984759808
1761505432520411000,3.408410888671875,-0.009101086296141148,0.03122343309223652,0.022465893998742104
1761505432530446800,3.41844677734375,-0.007926366291940212,0.020728448405861855,0.014119813218712807
1761505432540482800,3.42848291015625,-0.005203816574066877,-0.00029534456552937627,-0.0025949841365218163
1761505432550518800,3.438518798828125,-0.012623117305338383,-0.02431545965373516,-0.010390589013695717
1761505432560554800,3.4485546875,-0.020863469690084457,-0.03858760744333267,-0.014091317541897297
1761505432570592000,3.458592041015625,-0.01938301883637905,-0.03749624267220497,-0.009998039342463017
1761505432580628000,3.4686279296875,-0.02268933318555355,-0.013756824657320976,-0.010755175724625587
1761505432590664000,3.478663818359375,-0.015093198977410793,0.0046634613536298275,-0.01515951193869114
1761505432600700000,3.488699951171875,-0.007241134997457266,0.010663030669093132,-0.01522822119295597
1761505432610737000,3.49873681640625,0.005912483669817448,0.0031933963764458895,-0.003762780223041773
1761505432620772900,3.50877294921875,0.015863118693232536,-0.00032197617110796273,0.009500560350716114
1761505432630808800,3.518808837890625,0.02442385070025921,-0.01606525294482708,0.01594780758023262
1761505432640844800,3.5288447265625,0.024812672287225723,-0.020722588524222374,0.024832645431160927
1761505432650880800,3.538880859375,0.020736970007419586,-0.006461095064878464,0.02918931096792221
1761505432660917800,3.548917724609375,0.012930979020893574,0.017048491165041924,0.020328707993030548
1761505432670953700,3.55895361328125,0.006234460044652224,0.025104820728302002,-0.0044077979400753975
1761505432680989700,3.56898974609375,0.0002364887041039765,0.01408465951681137,-0.026074476540088654
1761505432691025700,3.579025634765625,-0.004344680812209845,-0.0015683355741202831,-0.026435069739818573
1761505432701061600,3.5890615234375,-0.004217648413032293,-0.0028639633674174547,-0.012801814824342728
1761505432711099000,3.599098876953125,-0.0038453382439911366,-0.0031017838045954704,-0.003585680155083537
1761505432721134800,3.609134765625,0.006345780100673437,-0.0075995963998138905,0.002438922878354788
1761505432731170800,3.6191708984375,0.018940668553113937,0.005555886775255203,0.013002350926399231
1761505432741206800,3.629206787109375,0.02304619736969471,0.00917565543204546,0.010487262159585953
1761505432751243800,3.639243896484375,0.020373448729515076,0.009954895824193954,-0.0005893575726076961
1761505432761279700,3.64927978515625,0.028354410082101822,0.011928298510611057,-0.012359198182821274
1761505432771315700,3.659315673828125,0.022821160033345222,0.006669620517641306,-0.029023129492998123
1761505432781351700,3.6693515625,0.007518370170146227,0.0012620720081031322,-0.0367865115404129
1761505432791388000,3.679387939453125,-0.00532605592161417,0.002971288748085499,-0.047268446534872055
1761505432801424600,3.689424560546875,-0.004887166898697615,0.010146643966436386,-0.05013986676931381
1761505432811460600,3.699460693359375,0.0025276062078773975,0.005130846053361893,-0.05477403104305267
1761505432821496800,3.709496826171875,0.015836220234632492,-0.00908617302775383,-0.047988563776016235
1761505432831533000,3.719532958984375,0.02840900421142578,-0.025920813903212547,-0.025304291397333145
1761505432841569000,3.729569091796875,0.03299470245838165,-0.04170909523963928,0.0044195158407092094
1761505432851606000,3.73960595703125,0.027947211638092995,-0.036731913685798645,0.033424001187086105
1761505432861642000,3.74964208984375,0.013951235450804234,-0.021136976778507233,0.04422897845506668
1761505432871678000,3.759677978515625,0.005357214715331793,0.007270696107298136,0.024580709636211395
1761505432881714000,3.7697138671875,0.010189253836870193,0.04950710013508797,-0.011324560269713402
1761505432891751000,3.7797509765625,0.008342884480953217,0.06474490463733673,-0.036251746118068695
1761505432901787000,3.789786865234375,0.007713579572737217,0.04312802851200104,-0.04338182881474495
1761505432911822800,3.79982275390625,0.010539992712438107,0.008293882943689823,-0.034980885684490204
1761505432921858800,3.80985888671875,0.01666659489274025,-0.029881466180086136,-0.023130087181925774
1761505432931894800,3.819894775390625,0.013938185758888721,-0.06313156336545944,-0.017619207501411438
1761505432941931800,3.829931884765625,0.010337325744330883,-0.053396645933389664,-0.025140507146716118
1761505432951968000,3.839968017578125,0.010072873905301094,-0.0037414750549942255,-0.03051050566136837
1761505432962004000,3.85000390625,0.003629622282460332,0.030788006260991096,-0.024204138666391373
1761505432972040000,3.8600400390625,-0.003293531248345971,0.025657959282398224,-0.015608254820108414
1761505432982076000,3.870075927734375,-0.01002174150198698,-0.01326786819845438,0.004679706413298845
1761505432992113000,3.88011279296875,-0.00888084340840578,-0.03262745216488838,0.030157901346683502
1761505433002148900,3.89014892578125,-0.008535697124898434,-0.041192442178726196,0.03752953186631203
1761505433012184800,3.900184814453125,-0.010552509687840939,-0.037453364580869675,0.016205068677663803
1761505433022220800,3.910220703125,-0.01690787635743618,-0.0252198688685894,-0.02761005610227585
1761505433032256800,3.9202568359375,-0.024561801925301552,-0.00794474221765995,-0.06524159014225006
1761505433042293800,3.930293701171875,-0.0347081795334816,0.018218152225017548,-0.0678485557436943
1761505433052329700,3.940329833984375,-0.04133918508887291,0.026008963584899902,-0.048166196793317795
1761505433062365700,3.95036572265625,-0.04518798366189003,0.018400313332676888,-0.0180495735257864
1761505433072401700,3.960401611328125,-0.03989921137690544,0.01829005777835846,0.002201901515945792
1761505433082439000,3.97043896484375,-0.03268550708889961,0.006795055698603392,0.023254189640283585
1761505433092475000,3.980474853515625,-0.02965882606804371,-0.0024074974935501814,0.03748612105846405
1761505433102510800,3.9905107421875,-0.02587820217013359,-0.025945579633116722,0.03681180998682976
1761505433112546800,4.000546875,-0.016626646742224693,-0.04785860329866409,0.0231093131005764
1761505433122583000,4.0105830078125,-0.018217619508504868,-0.06860675662755966,-0.004355333745479584
1761505433132618000,4.020617919921875,-0.028744829818606377,-0.06708076596260071,-0.03548156097531319
1761505433142654000,4.030654052734375,-0.03386315703392029,-0.02887851931154728,-0.04301830753684044
1761505433152690000,4.04068994140625,-0.03413533419370651,0.011786351911723614,-0.026624687016010284
1761505433162727000,4.050726806640625,-0.027092337608337402,0.02473597228527069,0.0013909690314903855
1761505433172763000,4.060762939453125,-0.022004634141921997,0.02738555148243904,0.026077140122652054
1761505433182798800,4.070798828125,-0.011285144835710526,0.027904868125915527,0.02665557898581028
1761505433192834800,4.080834716796875,0.002299106912687421,0.0230517890304327,0.016285495832562447
1761505433202870800,4.090870849609375,0.00678227236494422,0.01444179005920887,0.020073575899004936
1761505433212907800,4.10090771484375,-0.001086037140339613,0.002782204421237111,0.029163211584091187
1761505433222943700,4.11094384765625,-0.012472381815314293,-0.013677729293704033,0.03846749663352966
1761505433232979700,4.120979736328125,-0.01950685679912567,-0.02304912731051445,0.02792058140039444
1761505433243015700,4.131015625,-0.021274661645293236,-0.01793665625154972,0.0007363640470430255
1761505433253051600,4.1410517578125,-0.026683010160923004,-0.013984259217977524,-0.029774939641356468
1761505433263089000,4.1510888671875,-0.02611815370619297,-0.016450878232717514,-0.05153216794133186
1761505433273124900,4.161124755859375,-0.03165806084871292,-0.01702079549431801,-0.04025980457663536
1761505433283160800,4.171160888671875,-0.03814765065908432,-0.019240006804466248,-0.012628709897398949
1761505433293196800,4.18119677734375,-0.05181659385561943,-0.024043284356594086,0.008237157016992569
1761505433303233000,4.19123291015625,-0.05275588855147362,-0.0269479937851429,0.015366439707577229
1761505433313269800,4.201269775390625,-0.049970224499702454,-0.01865171454846859,0.006435795221477747
1761505433323305700,4.2113056640625,-0.040591366589069366,-0.026207635179162025,-0.013324860483407974
1761505433333342000,4.221342041015625,-0.030058033764362335,-0.052678391337394714,-0.046061769127845764
1761505433343378000,4.2313779296875,-0.02611655555665493,-0.09925148636102676,-0.07489847391843796
1761505433353414000,4.241413818359375,-0.033296968787908554,-0.1454876959323883,-0.0838586837053299
1761505433363451000,4.251450927734375,-0.05066903680562973,-0.16377907991409302,-0.09339413046836853
1761505433373486800,4.26148681640625,-0.0751568004488945,-0.15267795324325562,-0.0837220624089241
1761505433383522800,4.271522705078125,-0.08560305088758469,-0.10157003253698349,-0.07883196324110031
1761505433393558800,4.281558837890625,-0.08400808274745941,-0.05692373588681221,-0.08249673992395401
1761505433403594800,4.2915947265625,-0.07754379510879517,-0.020553745329380035,-0.07586200535297394
1761505433413632000,4.301632080078125,-0.07574296742677689,-0.02883297950029373,-0.06667356938123703
1761505433423667000,4.3116669921875,-0.07233491539955139,-0.05241686850786209,-0.04356611892580986
1761505433433703000,4.321702880859375,-0.05844733119010925,-0.06511828303337097,-0.015776565298438072
1761505433443739000,4.33173876953125,-0.044864144176244736,-0.0750015377998352,0.0006745787104591727
1761505433453774800,4.34177490234375,-0.03009771555662155,-0.05700576305389404,0.0029672940727323294
1761505433463811800,4.351811767578125,-0.01768472045660019,-0.05531332269310951,-0.012312326580286026
1761505433473847800,4.361847900390625,-0.017606157809495926,-0.043043605983257294,-0.03273637592792511
1761505433483883800,4.3718837890625,-0.017775801941752434,-0.034436002373695374,-0.058040134608745575
1761505433493919700,4.381919677734375,-0.02490960992872715,-0.05315403267741203,-0.0696195587515831
1761505433503956000,4.3919560546875,-0.036552418023347855,-0.046815175563097,-0.04826074093580246
1761505433513993000,4.401992919921875,-0.05390983819961548,-0.04240897670388222,-0.012939766980707645
1761505433524029000,4.41202880859375,-0.05909474566578865,-0.048061802983284,0.015292136929929256
1761505433534065000,4.42206494140625,-0.060499828308820724,-0.03965207189321518,0.024092553183436394
1761505433544101000,4.43210107421875,-0.051831237971782684,-0.03575639799237251,0.012702212668955326
1761505433554137000,4.44213720703125,-0.04290139302611351,-0.03292785584926605,-0.008945558220148087
1761505433564173800,4.452173828125,-0.03827149048447609,-0.0273826215416193,-0.027333885431289673
1761505433574210000,4.4622099609375,-0.04397597908973694,-0.02822844125330448,-0.034388333559036255
1761505433584246000,4.47224609375,-0.057737067341804504,-0.036498356610536575,-0.02117985300719738
1761505433594282000,4.482281982421875,-0.06974073499441147,-0.04301378130912781,-0.0030682277865707874
1761505433604318000,4.49231787109375,-0.0766495019197464,-0.051681037992239,0.001440237509086728
1761505433614355000,4.50235498046875,-0.06959638744592667,-0.04633127897977829,-0.00774633651599288
1761505433624391000,4.512390869140625,-0.05504833906888962,-0.017716946080327034,-0.01811828278005123
1761505433634427000,4.522427001953125,-0.03987604379653931,-0.0016000272007659078,-0.02545635774731636
1761505433644462800,4.532462890625,-0.030372552573680878,-0.010325874201953411,-0.022012891247868538
1761505433654498800,4.542498779296875,-0.02629418857395649,-0.02857385389506817,-0.02143152244389057
1761505433664536000,4.5525361328125,-0.02624598518013954,-0.030609574168920517,-0.03117469698190689
1761505433674572000,4.562572021484375,-0.023606525734066963,-0.02611362561583519,-0.05049965903162956
1761505433684608000,4.57260791015625,-0.022655511274933815,-0.0023518374655395746,-0.06058584898710251
1761505433694644000,4.58264404296875,-0.03442055732011795,0.014243650250136852,-0.05819060280919075
1761505433704681000,4.592680908203125,-0.04862053319811821,-0.001580053474754095,-0.04350779578089714
1761505433714718000,4.602718017578125,-0.05504700541496277,-0.0247317124158144,-0.00407570181414485
1761505433724754000,4.61275390625,-0.05407575145363808,-0.050685815513134,0.04394508898258209
1761505433734790000,4.622789794921875,-0.0515872947871685,-0.049020539969205856,0.06958706676959991
1761505433744825900,4.632825927734375,-0.04717576876282692,-0.035772912204265594,0.05870805308222771
1761505433754861800,4.64286181640625,-0.030371487140655518,0.004583300091326237,0.03002048283815384
1761505433764899000,4.652899169921875,-0.02183552458882332,0.03529913350939751,-0.002186188939958811
1761505433774935000,4.66293505859375,-0.022647522389888763,0.05170660465955734,-0.02352503314614296
1761505433784971000,4.672970947265625,-0.03146018832921982,0.04915236681699753,-0.021105818450450897
1761505433795007000,4.683007080078125,-0.0401918925344944,0.034620027989149094,-0.0036077843979001045
1761505433805043000,4.69304296875,-0.043419912457466125,0.015367238782346249,0.01980086974799633
1761505433815080000,4.703079833984375,-0.04212907701730728,0.009299492463469505,0.04388809576630592
1761505433825116000,4.713115966796875,-0.03574814274907112,0.0013339773286134005,0.05799725651741028
1761505433835152000,4.72315185546875,-0.03170120343565941,-0.007366569712758064,0.05499560758471489
1761505433845187800,4.733187744140625,-0.025406822562217712,-0.020246949046850204,0.0386456623673439
1761505433855223800,4.743223876953125,-0.022837670519948006,-0.013519536703824997,0.019647737964987755
1761505433865260800,4.7532607421875,-0.028182635083794594,-0.0016170714516192675,0.0015132081462070346
1761505433875296800,4.763296875,-0.03374224901199341,0.0012977584265172482,-0.011626295745372772
1761505433885332700,4.773332763671875,-0.027050260454416275,0.02154390700161457,-0.024699486792087555
1761505433895368700,4.78336865234375,-0.004312190227210522,0.019660519436001778,-0.024755945429205894
1761505433905405000,4.793405029296875,0.011518438346683979,0.009642240591347218,-0.016155799850821495
1761505433915441200,4.803441162109375,0.017888719215989113,-0.02034388668835163,-0.012751747854053974
1761505433925478000,4.813477783203125,0.01732146553695202,-0.04416240006685257,0.000007456851108145202
1761505433935513900,4.823513916015625,0.0008793757879175246,-0.04477093368768692,0.014580274000763893
1761505433945550000,4.833550048828125,-0.013236443512141705,-0.02400946244597435,0.029026858508586884
1761505433955586000,4.8435859375,-0.02611495740711689,0.0118502676486969,0.026276078075170517
1761505433965622000,4.8536220703125,-0.028175178915262222,0.0391593873500824,0.01101296953856945
1761505433975659000,4.863658935546875,-0.01763172447681427,0.0534866601228714,-0.010729609988629818
1761505433985695000,4.873695068359375,-0.007184409536421299,0.038112763315439224,-0.026195917278528214
1761505433995731000,4.88373095703125,0.002959837205708027,0.007160973735153675,-0.029050827026367188
1761505434005767000,4.893766845703125,0.005854426883161068,-0.013514743186533451,-0.020486898720264435
1761505434015803000,4.903802978515625,0.002371811307966709,-0.02725718729197979,-0.013173325918614864
1761505434025839900,4.91383984375,-0.010498713701963425,-0.03139893710613251,-0.003971305675804615
1761505434035876000,4.9238759765625,-0.02791791781783104,-0.02695864625275135,0.007025951519608498
1761505434045912000,4.933912109375,-0.03966378793120384,-0.024044616147875786,-0.003287938656285405
1761505434055948000,4.943947998046875,-0.043583162128925323,-0.013543771579861641,-0.010432134382426739
1761505434065984000,4.95398388671875,-0.043356530368328094,0.02268560416996479,-0.012065984308719635
1761505434076021000,4.96402099609375,-0.04923945292830467,0.05079660192131996,-0.011100055649876595
1761505434086057000,4.974056884765625,-0.04881734028458595,0.053636062890291214,-0.010251039639115334
1761505434096093000,4.984093017578125,-0.03693857789039612,0.054545532912015915,0.002371012233197689
1761505434106129000,4.99412890625,-0.03711993619799614,0.03232438489794731,0.011176754720509052
1761505434116164900,5.004164794921875,-0.03454146534204483,0.005471996963024139,0.0172631423920393
1761505434126201900,5.014201904296875,-0.03287805616855621,-0.00583658367395401,0.01842321641743183
1761505434136237800,5.02423779296875,-0.025663284584879875,-0.022239524871110916,0.005315136630088091
1761505434146273800,5.034273681640625,-0.01543594803661108,-0.02316763624548912,-0.011926966719329357
1761505434156309800,5.044309814453125,-0.007392136380076408,-0.007925034500658512,-0.014769624918699265
1761505434166345700,5.054345703125,-0.00657534459605813,-0.018574217334389687,-0.008884038776159286
1761505434176383000,5.064383056640625,-0.004056260455399752,-0.022165490314364433,0.004068511072546244
1761505434186419000,5.0744189453125,-0.008768990635871887,-0.015566975809633732,0.003082342678681016
1761505434196455000,5.084454833984375,-0.008873119950294495,0.000006924218723725062,-0.022245384752750397
1761505434206491000,5.094490966796875,-0.002365952357649803,0.02388562448322773,-0.036976926028728485
1761505434216527000,5.104527099609375,0.005084240809082985,0.02767344005405903,-0.03327193483710289
1761505434226563000,5.11456298828125,0.012928315438330173,-0.00387383415363729,-0.009362342767417431
1761505434236599800,5.124599853515625,0.020140955224633217,-0.04252695292234421,0.0218949131667614
1761505434246636000,5.134635986328125,0.033312682062387466,-0.07501725107431412,0.04231789708137512
1761505434256672000,5.144672119140625,0.03893008828163147,-0.06808184832334518,0.05693252384662628
1761505434266708000,5.1547080078125,0.03177976608276367,-0.023983096703886986,0.05642785504460335
1761505434276744000,5.164743896484375,0.017962755635380745,0.031924378126859665,0.04722264036536217
1761505434286781000,5.174781005859375,0.002603239845484495,0.0671105906367302,0.03788506239652634
1761505434296817000,5.18481689453125,-0.01095597818493843,0.07144169509410858,0.020846426486968994
1761505434306852900,5.194852783203125,-0.013050021603703499,0.057442255318164825,0.004484497010707855
1761505434316888800,5.204888916015625,-0.011798602528870106,0.020539630204439163,-0.0034354778472334146
1761505434326925000,5.214925048828125,-0.01095677725970745,-0.0254566241055727,-0.010750914923846722
1761505434336962000,5.224962158203125,-0.015423697419464588,-0.06124471500515938,-0.007761250250041485
1761505434346998000,5.234998046875,-0.01786714792251587,-0.06197548657655716,-0.003988616168498993
1761505434357034000,5.245033935546875,-0.026455575600266457,-0.025380723178386688,0.001264735241420567
1761505434367070000,5.255070068359375,-0.0352083221077919,-0.008346080780029297,0.0005078648100607097
1761505434377106000,5.26510595703125,-0.030047647655010223,0.00621208967640996,0.004073038697242737
1761505434387143000,5.275142822265625,-0.019631491973996162,0.01744982972741127,0.01847807690501213
1761505434397179000,5.285178955078125,-0.0162974800914526,0.004150004126131535,0.02238813042640686
1761505434407214800,5.29521484375,-0.017004283145070076,0.010509099811315536,0.0011861718958243728
1761505434417251000,5.3052509765625,-0.011799667961895466,0.01618323102593422,-0.032885510474443436
1761505434427287000,5.315287109375,-0.013293168507516384,0.010609501041471958,-0.053592123091220856
1761505434437324000,5.325323974609375,-0.0140196792781353,-0.020542560145258904,-0.04961921647191048
1761505434447360000,5.335360107421875,-0.011153851635754108,-0.05066610500216484,-0.021411549299955368
1761505434457396000,5.34539599609375,-0.008714661933481693,-0.05253538116812706,0.02299240045249462
1761505434467432000,5.355431884765625,-0.0038272286765277386,-0.02732110396027565,0.05235881358385086
1761505434477468000,5.365468017578125,-0.0023089605383574963,0.005518868565559387,0.06337258219718933
1761505434487504100,5.375504150390625,-0.013289973139762878,0.03051023930311203,0.06931968778371811
1761505434497540900,5.385540771484375,-0.024033164605498314,0.03140293061733246,0.06768184155225754
1761505434507576800,5.395576904296875,-0.03199281916022301,-0.019777433946728706,0.0608348548412323
1761505434517613000,5.405613037109375,-0.037281326949596405,-0.04242468997836113,0.060017529875040054
1761505434527649300,5.415649169921875,-0.0387633740901947,-0.04825354740023613,0.0360000804066658
1761505434537685200,5.425685302734375,-0.042081672698259354,-0.03368073329329491,-0.009119195863604546
1761505434547722000,5.435721923828125,-0.0491584911942482,-0.0008753810543566942,-0.04602288454771042
1761505434557758200,5.44575830078125,-0.048052478581666946,0.022467758506536484,-0.06481361389160156
1761505434567794200,5.455794189453125,-0.04856647178530693,0.05187172070145607,-0.0487251952290535
1761505434577830100,5.465830078125,-0.0454508401453495,0.03713991120457649,-0.010640127584338188
1761505434587866000,5.4758662109375,-0.03389378637075424,0.007522897329181433,0.030484406277537346
1761505434597903000,5.485903076171875,-0.02347576431930065,-0.015125423669815063,0.054315436631441116
1761505434607939000,5.49593896484375,-0.01347799226641655,-0.012742427177727222,0.05885426327586174
1761505434617975000,5.50597509765625,-0.020840300247073174,-0.012937369756400585,0.04478931054472923
1761505434628011000,5.516010986328125,-0.030604515224695206,-0.0116135124117136,0.021330589428544044
1761505434638047000,5.526046875,-0.03247565031051636,-0.010878213681280613,-0.0161275714635849
1761505434648083000,5.5360830078125,-0.030182136222720146,0.005944175645709038,-0.045938462018966675
1761505434658120200,5.5461201171875,-0.03093847446143627,0.003990214318037033,-0.05892057344317436
1761505434668156200,5.55615625,-0.029396237805485725,0.003088201628997922,-0.04529211297631264
1761505434678192000,5.566192138671875,-0.015565377660095692,0.020185695961117744,-0.016165919601917267
1761505434688228000,5.57622802734375,-0.003436276689171791,0.029567213729023933,0.0065385932102799416
1761505434698264000,5.58626416015625,0.004384362138807774,0.018380071967840195,0.012350409291684628
1761505434708301000,5.596301025390625,0.00857164990156889,-0.01618988811969757,0.007666974328458309
1761505434718337000,5.6063369140625,0.006172141991555691,-0.05120166763663292,0.005103415343910456
1761505434728373000,5.616373046875,0.0023406522814184427,-0.07219935953617096,0.009653426706790924
1761505434738409000,5.626408935546875,-0.0009720537927933037,-0.06270599365234375,0.009219863452017307
1761505434748445000,5.63644482421875,0.0017773937433958054,-0.03971359133720398,-0.01005210168659687
1761505434758481200,5.646481201171875,-0.0011819108622148633,-0.04596163332462311,-0.039029691368341446
1761505434768518000,5.656517822265625,0.008442220278084278,-0.03731514886021614,-0.0436212457716465
1761505434778553900,5.666553955078125,0.010631605051457882,0.00039281626231968403,-0.02364514209330082
1761505434788590000,5.676590087890625,-0.011136806569993496,0.017361147329211235,0.01757446676492691
1761505434798626000,5.6866259765625,-0.042577020823955536,0.041193507611751556,0.061818625777959824
1761505434808662000,5.696662109375,-0.06626077741384506,0.09485594183206558,0.08546722680330276
1761505434818699000,5.706698974609375,-0.07539062947034836,0.13326404988765717,0.07556027173995972
1761505434828735200,5.7167353515625,-0.07526545971632004,0.13747690618038177,0.0370781272649765
1761505434838771200,5.726771240234375,-0.06383703649044037,0.11159151047468185,-0.007846738211810589
1761505434848807200,5.73680712890625,-0.046241797506809235,0.054529819637537,-0.03977244719862938
1761505434858843100,5.746843017578125,-0.025548236444592476,-0.008727977983653545,-0.044503018260002136
1761505434868879000,5.756879150390625,-0.018457837402820587,-0.07009812444448471,-0.028475049883127213
1761505434878916000,5.766916015625,-0.021570805460214615,-0.09050779789686203,-0.00036671728594228625
1761505434888952000,5.7769521484375,-0.01721520535647869,-0.0742473304271698,0.02341264858841896
1761505434898988000,5.786988037109375,-0.009123723953962326,-0.012959208339452744,0.03557796776294708
1761505434909024000,5.79702392578125,0.006670952308923006,0.05746542289853096,0.03185513615608215
1761505434919060000,5.80706005859375,0.012775183655321598,0.08961297571659088,0.020258134230971336
1761505434929096000,5.817095947265625,0.013653494417667389,0.07854381203651428,0.008854744024574757
1761505434939133000,5.8271328125,0.005791576579213142,0.04381326213479042,-0.011426825076341629
1761505434949169200,5.837169189453125,0.001785116852261126,0.01895824447274208,-0.025063540786504745
1761505434959205000,5.847205078125,-0.005095159634947777,-0.003870904678478837,-0.03929494321346283
1761505434969241000,5.857240966796875,-0.01787993125617504,-0.02900821529328823,-0.03503068909049034
1761505434979277000,5.867277099609375,-0.032053541392087936,-0.029810093343257904,-0.00989444274455309
1761505434989314000,5.87731396484375,-0.03882356360554695,-0.021372400224208832,0.0239559318870306
1761505434999350000,5.88735009765625,-0.04177327826619148,-0.005993976723402739,0.056052349507808685
1761505435009386000,5.897385986328125,-0.04488065466284752,0.012601811438798904,0.06132088229060173
1761505435019422000,5.907421875,-0.03870611637830734,0.01714649610221386,0.05221207067370415
1761505435029458000,5.9174580078125,-0.024464329704642296,0.007534881588071585,0.029567480087280273
1761505435039494100,5.927494140625,-0.025594042614102364,-0.015096927061676979,0.008646485395729542
1761505435049531000,5.93753076171875,-0.02532612904906273,-0.026256104931235313,-0.009014001116156578
1761505435059566800,5.94756689453125,-0.023737553507089615,-0.0002825613773893565,-0.0152588477358222
1761505435069603000,5.95760302734375,-0.01841895468533039,0.030460970476269722,-0.021745774894952774
1761505435079639000,5.96763916015625,-0.012054266408085823,0.041427601128816605,-0.017490576952695847
1761505435089675000,5.977675048828125,-0.01763997972011566,0.02863590605556965,-0.008973521180450916
1761505435099711000,5.9877109375,-0.017362745478749275,-0.004828044679015875,0.0034533210564404726
1761505435109748200,5.997748291015625,-0.010523214936256409,-0.027422836050391197,0.011662781238555908
1761505435119784200,6.0077841796875,-0.009586581028997898,-0.03609861433506012,0.020239224657416344
1761505435129820200,6.017820068359375,-0.018620822578668594,-0.0327233262360096,0.029266009107232094
1761505435139856100,6.027856201171875,-0.01913028582930565,-0.018214156851172447,0.030411701649427414
1761505435149892000,6.03789208984375,-0.01859259232878685,-0.000336090917699039,0.027602866291999817
1761505435159929000,6.04792919921875,-0.012130964547395706,0.02002803608775139,0.01642451249063015
1761505435169965000,6.057965087890625,-0.0010290454374626279,0.040820665657520294,0.000012783173588104546
1761505435180001000,6.0680009765625,0.0028072381392121315,0.040524788200855255,-0.003943342715501785
1761505435190037000,6.078037109375,0.00039015308720991015,0.0167962908744812,0.007738080807030201
1761505435200073000,6.088072998046875,-0.005844307132065296,-0.027242006734013557,0.028539499267935753
1761505435210109000,6.09810888671875,-0.0062584285624325275,-0.06838464736938477,0.040705084800720215
1761505435220146000,6.10814599609375,-0.007528756279498339,-0.08872348070144653,0.03322799503803253
1761505435230182000,6.118181884765625,0.002793389605358243,-0.07137031853199005,0.017177920788526535
1761505435240218000,6.128218017578125,0.008817726746201515,-0.03380217030644417,0.0009776464430615306
1761505435250254000,6.138254150390625,0.007597732357680798,-0.005122323986142874,-0.0024708807468414307
1761505435260290000,6.1482900390625,0.009190835058689117,0.012753079645335674,0.007020092569291592
1761505435270326000,6.158325927734375,0.008916796185076237,0.0023166837636381388,0.013146428391337395
1761505435280363000,6.168363037109375,0.0046823699958622456,-0.010453173890709877,0.026403378695249557
1761505435290399000,6.17839892578125,0.006902114488184452,-0.022434469312429428,0.03208762779831886
1761505435300435000,6.18843505859375,0.02238466776907444,-0.028904085978865623,0.033014941960573196
1761505435310471200,6.19847119140625,0.02973206341266632,-0.02310132421553135,0.023298930376768112
1761505435320507100,6.208507080078125,0.03586665540933609,-0.021891983225941658,0.005314870737493038
1761505435330543000,6.218543212890625,0.03116484358906746,-0.02407577447593212,-0.004043477587401867
1761505435340580000,6.228580078125,0.02250823751091957,-0.020865866914391518,-0.0009651295840740204
1761505435350616000,6.238615966796875,0.006469350773841143,-0.003011236200109124,0.005256813485175371
1761505435360652000,6.248652099609375,-0.0026786073576658964,0.015749135985970497,0.0010178601369261742
1761505435370688000,6.25868798828125,0.007215568795800209,0.03452575206756592,-0.004532699938863516
1761505435380724000,6.268723876953125,0.011623366735875607,0.034743331372737885,-0.0065740132704377174
1761505435390760000,6.278760009765625,0.009984989650547504,0.012738431803882122,-0.015389076434075832
1761505435400797200,6.288797119140625,0.007555387914180756,-0.006124471314251423,-0.01432168111205101
1761505435410833200,6.298833251953125,0.005282646510750055,-0.02947906218469143,-0.01254908088594675
1761505435420869600,6.30886962890625,-0.004978246986865997,-0.040217459201812744,-0.003067162586376071
1761505435430905600,6.318905517578125,-0.0009576727170497179,-0.03226020187139511,0.006449909880757332
1761505435440941600,6.328941650390625,0.008231830783188343,-0.02112685702741146,0.0008372978190891445
1761505435450977500,6.3389775390625,0.02406379021704197,-0.030432207509875298,-0.008096542209386826
1761505435461014500,6.3490146484375,0.036617666482925415,-0.03080185502767563,-0.014927816577255726
1761505435471050500,6.359050537109375,0.03188815712928772,-0.020769193768501282,-0.024341292679309845
1761505435481086500,6.36908642578125,0.02136441133916378,0.004591023549437523,-0.020608605816960335
1761505435491122400,6.379122314453125,0.012569587677717209,0.020081566646695137,-0.015777098014950752
1761505435501158400,6.389158447265625,0.022460302338004112,0.022776952013373375,0.011749067343771458
1761505435511194600,6.399194580078125,0.04668547958135605,0.009013202041387558,0.04488784447312355
1761505435521231600,6.409231689453125,0.06468258798122406,-0.03295928239822388,0.07036896795034409
1761505435531267600,6.419267578125,0.06805787980556488,-0.05708965286612511,0.07956299930810928
1761505435541303600,6.429303466796875,0.06283196061849594,-0.058400724083185196,0.07151439785957336
1761505435551339500,6.439339599609375,0.03822355344891548,-0.03633270785212517,0.046126749366521835
1761505435561375700,6.449375732421875,0.014650315046310425,0.004701544530689716,0.015399462543427944
1761505435571411700,6.45941162109375,0.00398728484287858,0.029794912785291672,-0.015302523970603943
1761505435581448400,6.469448486328125,0.009080846793949604,0.03917083889245987,-0.022040853276848793
1761505435591484700,6.479484619140625,0.01674063131213188,0.018730809912085533,-0.01846902258694172
1761505435601520600,6.489520751953125,0.02317429520189762,-0.027959994971752167,0.004034422803670168
1761505435611556600,6.499556640625,0.018496185541152954,-0.058882758021354675,0.036611009389162064
1761505435621592600,6.509592529296875,0.005122856702655554,-0.07607346028089523,0.05144454911351204
1761505435631628500,6.519628662109375,0.015399462543427944,-0.06090036779642105,0.05031963065266609
1761505435641665800,6.529665771484375,0.04490462318062782,-0.024887239560484886,0.043967992067337036
1761505435651701800,6.53970166015625,0.06762272119522095,-0.01818086765706539,0.036483973264694214
1761505435661737700,6.54973779296875,0.07760797441005707,-0.01623915694653988,0.029564017429947853
1761505435671773700,6.559773681640625,0.06922780722379684,-0.017402958124876022,0.019999274984002113
1761505435681809700,6.5698095703125,0.04590437561273575,0.00108257494866848,0.004768389742821455
1761505435691845600,6.579845703125,0.015221296809613705,0.024270452558994293,-0.005806223955005407
1761505435701882600,6.589882568359375,-0.015324894338846207,0.03794924542307854,-0.013893445022404194
1761505435711918600,6.599918701171875,-0.031558990478515625,0.04230564460158348,-0.020367056131362915
1761505435721954600,6.60995458984375,-0.027903536334633827,0.025432122871279716,-0.015328888781368732
1761505435731990500,6.619990478515625,-0.020351877436041832,0.010731207206845284,-0.0016439693281427026
1761505435742026500,6.630026611328125,-0.01480397954583168,-0.012139220722019672,0.01053067110478878
1761505435752062500,6.6400625,-0.00945102609694004,-0.02646542899310589,0.015896940603852272
1761505435762099500,6.650099365234375,-0.00848483107984066,-0.023148462176322937,0.01733691245317459
1761505435772135400,6.660135498046875,-0.007888282649219036,-0.005401955917477608,0.009130913764238358
1761505435782171400,6.67017138671875,-0.0035513252951204777,0.01648256927728653,-0.015379754826426506
1761505435792207400,6.680207275390625,0.0075910743325948715,0.037223003804683685,-0.03687812387943268
1761505435802243600,6.69024365234375,0.01840377412736416,0.023852335289120674,-0.048468999564647675
1761505435812279800,6.70027978515625,0.03074539639055729,0.0089953588321805,-0.02190982550382614
1761505435822315800,6.710315673828125,0.03713645040988922,-0.010218548588454723,0.009673666208982468
1761505435832352500,6.7203525390625,0.03381681814789772,-0.01588149555027485,0.04366598650813103
1761505435842388700,6.730388671875,0.03479260206222534,0.009811085648834705,0.055694419890642166
1761505435852424700,6.7404248046875,0.033239979296922684,0.030973894521594048,0.04198233783245087
1761505435862460700,6.750460693359375,0.033608295023441315,0.04246889799833298,0.014032728038728237
1761505435872496600,6.76049658203125,0.03146258369088173,0.022248314693570137,-0.01617790386080742
1761505435882532600,6.77053271484375,0.024150343611836433,-0.014679609797894955,-0.03321654349565506
1761505435892569600,6.780569580078125,0.00803022924810648,-0.04201562702655792,-0.027766650542616844
1761505435902605600,6.79060546875,-0.0017984326696023345,-0.04894037917256355,-0.015535017475485802
1761505435912641500,6.8006416015625,-0.005766542628407478,-0.034268759191036224,-0.0023305322974920273
1761505435922677500,6.810677490234375,-0.005933789070695639,-0.00720624765381217,0.006884004920721054
1761505435932713500,6.82071337890625,0.0065018413588404655,0.0065740132704377174,0.00574816670268774
1761505435942749400,6.83074951171875,0.01414537988603115,0.024356471374630928,0.004591555800288916
1761505435952786700,6.84078662109375,0.015244732610881329,0.023453127592802048,0.010735735297203064
1761505435962822700,6.85082275390625,0.010041715577244759,0.008621717803180218,0.007705057505518198
1761505435972858600,6.860858642578125,0.0052083441987633705,-0.0158854890614748,-0.003525226376950741
1761505435982894600,6.87089453125,-0.0059508332051336765,-0.03942224010825157,-0.015105183236300945
1761505435992930600,6.8809306640625,-0.01569826900959015,-0.04373230040073395,-0.025856897234916687
1761505436002966500,6.890966552734375,-0.013667874969542027,-0.02413942478597164,-0.027647074311971664
1761505436013002800,6.901002685546875,-0.006225405260920525,-0.01630706712603569,-0.014472948387265205
1761505436023039500,6.91103955078125,-0.006625145673751831,-0.019665313884615898,0.0070525831542909145
1761505436033075500,6.921075439453125,-0.005562544334679842,-0.009019060991704464,0.029757363721728325
1761505436043111700,6.931111572265625,-0.00185036426410079,-0.01624794490635395,0.03284876048564911
1761505436053147600,6.941147705078125,-0.003622697899118066,-0.012863067910075188,0.026696592569351196
1761505436063183600,6.95118359375,-0.005946838762611151,-0.01925012655556202,0.01720375381410122
1761505436073219600,6.961219482421875,-0.013360812328755856,-0.03477076441049576,0.00811784714460373
1761505436083256600,6.971256591796875,-0.01601145789027214,-0.0358557365834713,0.002183792181313038
1761505436093292500,6.98129248046875,-0.01110511552542448,-0.027957065030932426,0.001448759576305747
1761505436103328800,6.991328857421875,-0.01209714263677597,-0.012238290160894394,-0.003996073268353939
1761505436113364700,7.00136474609375,-0.01871749572455883,-0.005583050660789013,-0.009734386578202248
1761505436123400700,7.011400634765625,-0.0073292856104671955,0.0017531589837744832,-0.009253951720893383
1761505436133436700,7.021436767578125,-0.004220843780785799,-0.015622102655470371,-0.007669104728847742
1761505436143472600,7.03147265625,-0.01164254080504179,-0.045270275324583054,-0.00959803257137537
1761505436153509600,7.041509521484375,-0.017663415521383286,-0.05374765023589134,-0.013127253390848637
1761505436163545600,7.051545654296875,-0.02371305227279663,-0.03905472531914711,-0.030050311237573624
1761505436173581600,7.06158154296875,-0.04178233444690704,-0.01347799226641655,-0.03997031971812248
1761505436183617500,7.071617431640625,-0.049245841801166534,0.0235801599919796,-0.04613633453845978
1761505436193653500,7.081653564453125,-0.051652275025844574,0.04831080883741379,-0.03823127597570419
1761505436203689500,7.091689453125,-0.040522124618291855,0.04771852120757103,-0.016472715884447098
1761505436213726500,7.1017265625,-0.018161693587899208,0.03199388459324837,0.006972421891987324
1761505436223762400,7.111762451171875,-0.0006823018775321543,0.004224572330713272,0.018031731247901917
1761505436233798400,7.12179833984375,0.007370564620941877,-0.017787786200642586,0.019834958016872406
1761505436243834400,7.13183447265625,0.004167846869677305,-0.012958142906427383,-0.0007041397620923817
1761505436253870600,7.14187060546875,0.00026844663079828024,0.0013957626651972532,-0.02569497749209404
1761505436263906600,7.151906494140625,-0.0010149306617677212,0.0076331524178385735,-0.04192934185266495
1761505436273942500,7.161942626953125,0.0034903388004750013,0.004245345015078783,-0.03869013860821724
1761505436283979800,7.171979736328125,0.015634620562195778,0.001740642124786973,-0.02088743820786476
1761505436294015700,7.182015625,0.014064420014619827,0.005328186322003603,0.0017656758427619934
1761505436304051700,7.1920517578125,0.014182398095726967,0.010009224526584148,0.01792573742568493
1761505436314087700,7.202087646484375,0.008894159458577633,0.01926370896399021,0.012625513598322868
1761505436324123600,7.21212353515625,0.005408880300819874,0.006733536254614592,-0.0037851508241146803
1761505436334159600,7.22215966796875,0.006803844124078751,-0.004465588368475437,-0.011448662728071213
1761505436344196600,7.232196533203125,0.010509366169571877,-0.04171522334218025,-0.005648031830787659
1761505436354232600,7.242232666015625,0.00956527516245842,-0.07473016530275345,0.017532387748360634
1761505436364268500,7.2522685546875,0.005679191090166569,-0.07118123769760132,0.037279196083545685
1761505436374304500,7.262304443359375,0.010432134382426739,-0.02502652443945408,0.03915992006659508
1761505436384340500,7.272340576171875,0.012269982136785984,0.03427568078041077,0.035047732293605804
1761505436394376400,7.28237646484375,0.004866926930844784,0.059544820338487625,0.02245071344077587
1761505436404412400,7.292412353515625,0.002098038326948881,0.05308931693434715,0.018760904669761658
1761505436414447900,7.30244775390625,-0.0031590417493134737,0.022878950461745262,0.0057039582170546055
1761505436424484600,7.312484619140625,-0.00549276964738965,-0.013345366343855858,-0.007669104728847742
1761505436434520800,7.322520751953125,0.000603738590143621,-0.059468384832143784,-0.00812237523496151
1761505436444557000,7.33255712890625,-0.00301736150868237,-0.07517144829034805,0.007077350746840239
1761505436454593000,7.342593017578125,-0.00848749466240406,-0.0724712684750557,0.02208692580461502
1761505436464629000,7.35262890625,-0.03277259320020676,-0.04228939861059189,0.02834668569266796
1761505436474665000,7.3626650390625,-0.038968704640865326,0.0016982977977022529,0.027669444680213928
1761505436484702000,7.372701904296875,-0.041256360709667206,0.04175649955868721,0.020741764456033707
1761505436494738000,7.382738037109375,-0.042746398597955704,0.06662722676992416,0.01236159447580576
1761505436504774000,7.39277392578125,-0.033315081149339676,0.060018595308065414,0.0033659692853689194
1761505436514809900,7.402809814453125,-0.015196263790130615,0.03461310267448425,-0.008323709480464458
1761505436524845800,7.412845703125,-0.013508085161447525,-0.007583351340144873,-0.021212078630924225
1761505436534881800,7.4228818359375,-0.022719427943229675,-0.04168859124183655,-0.03026496060192585
1761505436544917800,7.432917724609375,-0.03237605094909668,-0.062299326062202454,-0.03825444355607033
1761505436554954800,7.442954833984375,-0.033800043165683746,-0.053471215069293976,-0.0453011691570282
1761505436564990700,7.45299072265625,-0.03092942014336586,-0.039257124066352844,-0.044083572924137115
1761505436575026700,7.463026611328125,-0.019241871312260628,-0.01258130557835102,-0.03305062651634216
1761505436585062700,7.473062744140625,0.008728510700166225,-0.015164305455982685,-0.023635555058717728
1761505436595098600,7.4830986328125,0.037344176322221756,-0.024565530940890312,-0.010215353220701218
1761505436605134800,7.493134765625,0.04681677371263504,-0.02749420888721943,0.01127928588539362
1761505436615171000,7.503171142578125,0.04277169704437256,-0.03729863464832306,0.028536835685372353
1761505436625207800,7.513207763671875,0.03364025056362152,-0.033137448132038116,0.029928604140877724
1761505436635243800,7.523243896484375,0.025729598477482796,-0.02496660314500332,0.01805596612393856
1761505436645280000,7.533280029296875,0.01155678741633892,-0.018255436792969704,-0.001755023142322898
1761505436655316000,7.54331591796875,-0.006786533165723085,-0.024152474477887154,-0.016868462786078453
1761505436665352000,7.55335205078125,-0.014936871826648712,-0.024219851940870285,-0.0015313175972551107
1761505436675388000,7.563387939453125,-0.02575649507343769,-0.016945160925388336,0.014573882333934307
1761505436685423900,7.573423828125,-0.04235784336924553,-0.011172492988407612,0.026128007099032402
1761505436695460900,7.5834609375,-0.04580051079392433,-0.001350488979369402,0.03548475727438927
1761505436705496800,7.593496826171875,-0.048716671764850616,0.02159424126148224,0.041069138795137405
1761505436715532800,7.60353271484375,-0.05740097537636757,0.04225477948784828,0.044728588312864304
1761505436725568800,7.61356884765625,-0.07432936131954193,0.05727500841021538,0.03706907108426094
1761505436735604700,7.623604736328125,-0.08280327171087265,0.05928755924105644,0.010987936519086361
1761505436745640700,7.633640625,-0.0762670710682869,0.058093927800655365,-0.017734788358211517
1761505436755676700,7.6436767578125,-0.07136392593383789,0.02664918825030327,-0.03478780761361122
1761505436765714000,7.6537138671875,-0.05619935691356659,0.001284975209273398,-0.028857747092843056
1761505436775750000,7.66375,-0.03524906560778618,-0.020686902105808258,-0.011973838321864605
1761505436785785900,7.673785888671875,-0.019343337044119835,-0.046246856451034546,-0.0038195056840777397
1761505436795821800,7.68382177734375,-0.013449762016534805,-0.04888365417718887,-0.002811765531077981
1761505436805857800,7.69385791015625,-0.016683105379343033,-0.03707892447710037,-0.005758020561188459
1761505436815894000,7.70389404296875,0.0018748653819784522,-0.011184210889041424,-0.009245430119335651
1761505436825930000,7.713929931640625,0.013144563883543015,0.0033159018494188786,-0.012704609893262386
1761505436835966700,7.723966796875,0.010953581891953945,0.009284045547246933,-0.004231230355799198
1761505436846003000,7.7340029296875,0.009514142759144306,0.009724532254040241,0.00490208063274622
1761505436856039000,7.744038818359375,0.006082660052925348,0.013434582389891148,-0.0028453213162720203
1761505436866075000,7.754074951171875,0.0018048242200165987,0.019657857716083527,-0.023239009082317352
1761505436876110800,7.76411083984375,-0.0038333539851009846,0.0014008227735757828,-0.047697216272354126
1761505436886146800,7.774146728515625,-0.013433516956865788,-0.02425207570195198,-0.050939079374074936
1761505436896182800,7.784182861328125,-0.017421867698431015,-0.04856487363576889,-0.045401036739349365
1761505436906219800,7.7942197265625,-0.025773806497454643,-0.04163612797856331,-0.023918116465210915
1761505436916256000,7.804256103515625,-0.029834594577550888,-0.014258830808103085,-0.0006250438746064901
1761505436926292000,7.8142919921875,-0.03367993235588074,0.014706241898238659,0.020555075258016586
1761505436936328000,7.824327880859375,-0.03098694421350956,0.028139492496848106,0.036618463695049286
1761505436946364000,7.834364013671875,-0.025956764817237854,0.030778951942920685,0.05016809701919556
1761505436956399900,7.84439990234375,-0.01812068000435829,0.005369465332478285,0.04627135768532753
1761505436966435800,7.854435791015625,-0.019172895699739456,-0.018264491111040115,0.02110981196165085
1761505436976471800,7.864471923828125,-0.012621252797544003,-0.02280784398317337,-0.01266679260879755
1761505436986508800,7.8745087890625,-0.01389743946492672,-0.009010539390146732,-0.04667669162154198
1761505436996544800,7.884544677734375,-0.024227574467658997,-0.0008048072922974825,-0.058043062686920166
1761505437006580700,7.894580810546875,-0.038599058985710144,-0.007760451175272465,-0.0486207976937294
1761505437016616700,7.90461669921875,-0.04929457977414131,-0.013184244744479656,-0.02412424422800541
1761505437026653000,7.91465283203125,-0.043524838984012604,-0.01395922526717186,0.0073567163199186325
1761505437036689000,7.92468896484375,-0.03672712296247482,-0.0032176312524825335,0.03855191916227341
1761505437046724900,7.934724853515625,-0.02935762144625187,-0.0031523837242275476,0.054356448352336884
1761505437056761900,7.944761962890625,-0.019302325323224068,-0.0016887104138731956,0.05107570067048073
1761505437066797800,7.9547978515625,-0.011470234952867031,-0.0057708038948476315,0.035111647099256516
1761505437076833800,7.964833740234375,-0.008530370891094208,-0.021743111312389374,-0.0008026767172850668
1761505437086870000,7.9748701171875,-0.008072840049862862,-0.019900737330317497,-0.042080607265233994
1761505437096906000,7.984906005859375,-0.0026756778825074434,-0.0004950816510245204,-0.07083369046449661
1761505437106942000,7.99494189453125,0.007020891644060612,0.009159942157566547,-0.07297700643539429
1761505437116978000,8.00497802734375,0.026622822508215904,0.011894742958247662,-0.03695349022746086
1761505437127012600,8.0150126953125,0.03032301738858223,0.002513757674023509,0.01188195962458849
1761505437137049900,8.0250498046875,0.029260417446494102,-0.01992443948984146,0.046112898737192154
1761505437147085800,8.0350859375,0.039754338562488556,-0.03305382281541824,0.054880291223526
1761505437157121800,8.045121826171876,0.03200560435652733,-0.05206559970974922,0.030420489609241486
1761505437167158000,8.055157958984376,0.018267687410116196,-0.04504843428730965,0.0029917950741946697
1761505437177194000,8.065194091796876,0.0030652983114123344,-0.026073945686221123,-0.02617727592587471
1761505437187230000,8.07522998046875,-0.001151018193922937,-0.0008375641773454845,-0.03838600590825081
1761505437197266000,8.085265869140626,-0.01194001641124487,0.017828265205025673,-0.029753101989626884
1761505437207302000,8.095302001953126,-0.02460627630352974,0.009517871774733067,-0.016950488090515137
1761505437217339000,8.1053388671875,-0.029526999220252037,0.0041342913173139095,-0.003465837799012661
1761505437227374800,8.115374755859374,-0.03171132504940033,0.001433845958672464,0.018669025972485542
1761505437237410800,8.125410888671874,-0.03574654459953308,0.0019294602097943425,0.04226250201463699
1761505437247446800,8.13544677734375,-0.03298031911253929,0.0027134947013109922,0.049202434718608856
1761505437257482800,8.145482666015624,-0.037706367671489716,-0.023958595469594002,0.03020903468132019
1761505437267518700,8.155518798828124,-0.027700070291757584,-0.05751309543848038,-0.0017180051654577255
1761505437277554700,8.1655546875,-0.013218866661190987,-0.0978621169924736,-0.032575786113739014
1761505437287592000,8.175592041015625,-0.003486876841634512,-0.11772503703832626,-0.045827675610780716
1761505437297628000,8.1856279296875,-0.01565565913915634,-0.10596957802772522,-0.05806303769350052
1761505437307664000,8.195663818359375,-0.03568902239203453,-0.05668245255947113,-0.061644721776247025
1761505437317699800,8.205699951171875,-0.04096554219722748,0.018006164580583572,-0.04814542457461357
1761505437327735800,8.21573583984375,-0.03647065907716751,0.07285423576831818,-0.020075174048542976
1761505437337771800,8.225771728515625,-0.03485918045043945,0.08032067120075226,0.0068091703578829765
1761505437347808000,8.23580810546875,-0.033846382051706314,0.03202397748827934,0.01684076525270939
1761505437357844000,8.245843994140625,-0.023372434079647064,-0.017914818599820137,0.012226838618516922
1761505437367880700,8.255880615234375,-0.01619068719446659,-0.04072212800383568,-0.0032754219137132168
1761505437377917000,8.2659169921875,-0.015904931351542473,-0.0322096012532711,-0.016702547669410706
1761505437387953000,8.275952880859375,-0.03142024204134941,0.00347409350797534,-0.0331459678709507
1761505437397988900,8.28598876953125,-0.04175090789794922,0.03966165706515312,-0.0504131056368351
1761505437408024800,8.29602490234375,-0.048953693360090256,0.065714031457901,-0.05847156420350075
1761505437418062000,8.30606201171875,-0.04268354922533035,0.06033711135387421,-0.0504424013197422
1761505437428098000,8.31609814453125,-0.022397184744477272,0.03917909413576126,-0.024508006870746613
1761505437438134000,8.326134033203125,-0.009193232282996178,-0.006563093978911638,0.004490888677537441
1761505437448171000,8.3361708984375,0.0012274509062990546,-0.058696337044239044,0.030766168609261513
1761505437458207000,8.34620703125,0.00023968449386302382,-0.07090160250663757,0.04196156561374664
1761505437468243000,8.356242919921876,-0.01667671464383602,-0.09267720580101013,0.024478711187839508
1761505437478279000,8.36627880859375,-0.009303220547735691,-0.06520617008209229,-0.0073263561353087425
1761505437488315000,8.37631494140625,-0.0026221484877169132,-0.021796641871333122,-0.04914544150233269
1761505437498350800,8.386350830078126,-0.01631612330675125,0.027164775878190994,-0.08674447983503342
1761505437508386800,8.39638671875,-0.020351078361272812,0.05387548357248306,-0.09012483060359955
1761505437518422800,8.4064228515625,-0.022103171795606613,0.04741731658577919,-0.0665433406829834
1761505437528460000,8.4164599609375,-0.03622724488377571,0.01577017456293106,-0.0352565236389637
1761505437538496000,8.42649609375,-0.03245621174573898,-0.021470937877893448,-0.0037297571543604136
1761505437548532000,8.436531982421876,-0.03397847339510918,-0.03490711748600006,0.008614793419837952
1761505437558568000,8.44656787109375,-0.04729481041431427,-0.024623321369290352,-0.005027515348047018
1761505437568604000,8.45660400390625,-0.05077289789915085,-0.023387081921100616,-0.038232073187828064
1761505437578640000,8.466639892578126,-0.04668388143181801,0.013697169721126556,-0.06610578298568726
1761505437588676000,8.476676025390624,-0.043289948254823685,0.04344814270734787,-0.08905530720949173
1761505437598712000,8.486712158203124,-0.0406038835644722,0.042873430997133255,-0.0845620185136795
1761505437608748800,8.496748779296874,-0.030905451625585556,0.023202259093523026,-0.06073152273893356
1761505437618785000,8.506784912109374,-0.020848557353019714,-0.011834288947284222,-0.04110269621014595
1761505437628821000,8.516821044921874,-0.026223614811897278,-0.013184244744479656,-0.03211212903261185
1761505437638857000,8.52685693359375,-0.04110908508300781,0.0020471718162298203,-0.05043787509202957
1761505437648893000,8.536892822265624,-0.05812189355492592,0.05248131603002548,-0.07822582870721817
1761505437658929000,8.546928955078124,-0.0910622626543045,0.11863770335912704,-0.10913447290658951
1761505437668964900,8.55696484375,-0.12288997322320938,0.2038189023733139,-0.16346561908721924
1761505437679000800,8.567000732421874,-0.06976470351219177,0.3006136119365692,-0.13606515526771545
1761505437689038000,8.5770380859375,-0.07987858355045319,0.09840220212936401,0.034152910113334656
1761505437699075000,8.587074951171875,-0.08531489968299866,-0.2786518633365631,0.14848853647708893
1761505437709111000,8.597111083984375,-0.014595987275242805,-0.24266617000102997,0.19838500022888184
1761505437719147000,8.60714697265625,-0.016112923622131348,-0.0766202062368393,0.11424960941076279
1761505437729183000,8.617182861328125,-0.08643689006567001,0.05926492065191269,-0.03747333958745003
1761505437739219000,8.627218994140625,-0.14524027705192566,0.2247745245695114,-0.1745273321866989
1761505437749255000,8.6372548828125,-0.19222857058048248,0.28890371322631836,-0.2907993495464325
1761505437759291000,8.647290771484375,-0.2359113246202469,0.3128095865249634,-0.2962777316570282
1761505437769327900,8.657327880859375,-0.23674410581588745,0.249238058924675,-0.15018230676651
