time,seconds_elapsed,z,y,x
1761479787196160000,0.085159912109375,-0.12716273710131645,-0.04225678617218509,-0.03172503516059369
1761479787206195200,0.0951953125,-0.1286591131389141,-0.007430131734441965,0.023976704322453586
1761479787216231200,0.105231201171875,-0.15185060363411904,0.02928900365270674,0.02306947155073285
1761479787226267100,0.11526708984375,-0.14466799865365026,-0.017333430383075027,-0.03221342146573588
1761479787236303000,0.12530322265625,-0.14467325935065745,-0.03472081944309175,0.0066865285592153665
1761479787246339000,0.135339111328125,-0.1382359197795391,-0.021781970757152883,0.03161304441979155
1761479787256375000,0.145375,-0.13225333823859692,0.03685675375955179,-0.01850574383176863
1761479787266411000,0.155410888671875,-0.12985855205655097,-0.019526026790216564,-0.030545707449223844
1761479787276446200,0.1654462890625,-0.14153320775926112,-0.03068447659909725,0.049730866646207864
1761479787286482200,0.175482177734375,-0.13585107046961784,-0.02540644486462697,0.009509312628675251
1761479787296518100,0.18551806640625,-0.14692776027917862,0.04334370462605729,-0.03973219959801063
1761479787306554000,0.19555419921875,-0.1286766487956047,-0.016121953967772423,-0.004605447968840598
1761479787316590000,0.205590087890625,-0.13571136973798273,-0.03736103175356984,0.043060704699903724
1761479787326626000,0.2156259765625,-0.1387070444226265,-0.011860223136376588,-0.020293540563993153
1761479787336662000,0.225662109375,-0.13466390651166438,0.02808611240265891,-0.03057226666258648
1761479787346697200,0.235697265625,-0.13421557822227478,-0.016229633859638125,0.03188660066416487
1761479787356733200,0.245733154296875,-0.1285322718888521,-0.029037312180269507,0.02194185576029122
1761479787366769200,0.25576904296875,-0.13406652514040468,-0.014937858749739824,-0.03133143273312598
1761479787376805000,0.26580517578125,-0.14034955093264578,0.02449707493474707,0.00337672815779224
1761479787386841000,0.275841064453125,-0.14693769715130328,-0.018634302114881575,0.020372396220173686
1761479787396877000,0.285876953125,-0.15337152959108352,-0.023557656926475466,-0.012884561215434224
1761479787406913000,0.2959130859375,-0.13825520900189875,-0.007431209446676075,-0.011935279400274158
1761479787416949000,0.305948974609375,-0.1394517253100872,0.02030840933956206,0.018962547688558696
1761479787426984200,0.315984130859375,-0.13750526741743088,-0.001601553445123136,0.0020459362117573616
1761479787437020200,0.326020263671875,-0.13885259037315845,-0.026573954274039715,-0.008874028666131198
1761479787447056100,0.33605615234375,-0.1500783332645893,-0.01204500511875376,0.02060364769278094
1761479787457092000,0.346092041015625,-0.13466507555544377,-0.005101250395458191,0.00810733687626198
1761479787467128000,0.356128173828125,-0.13660802631676197,-0.0006174377785995602,-0.02209810576792806
1761479787477164000,0.3661640625,-0.13047405360639094,-0.03909160013953224,0.009118468413874507
1761479787487200000,0.376199951171875,-0.12448971849977969,-0.011706165085826068,0.025499822236504405
1761479787497235000,0.38623486328125,-0.13227262746095655,0.011043737388029693,-0.02141684550549835
1761479787507271200,0.396271240234375,-0.14259937568604944,0.003273322582244873,-0.01083098968649283
1761479787517307100,0.40630712890625,-0.1336217039823532,-0.041615090735163535,0.026173483714368194
1761479787527343000,0.416343017578125,-0.138262223264575,-0.014747724738810211,0.006713928022794425
1761479787537379000,0.426379150390625,-0.12239888370037078,0.01815185236018151,-0.02150368353873491
1761479787547415000,0.4364150390625,-0.13496551980674265,-0.0031441980435512958,0.010868563484214246
1761479787557451000,0.446450927734375,-0.13451836056113242,-0.037228272219374775,0.021106902773492038
1761479787567486000,0.45648583984375,-0.12883271614015102,-0.01635368036441505,-0.015450046055577694
1761479787577522000,0.46652197265625,-0.1390069041520357,0.00434062302019447,-0.01242649698331952
1761479787587558100,0.47655810546875,-0.13092647354900835,-0.0043136802143417296,0.02453050228031352
1761479787597594000,0.486593994140625,-0.1352653795361519,-0.03505270001227036,0.0031826303577981887
1761479787607630000,0.496630126953125,-0.139006319630146,-0.01878183909310028,-0.010544025971274823
1761479787617666000,0.506666015625,-0.13122399519085884,0.0020248568911105393,0.010463252352643757
1761479787627702000,0.516701904296875,-0.13287468500733374,-0.00707750063817948,0.009772731071524321
1761479787637737000,0.526737060546875,-0.12793898217082023,-0.018592874125950037,-0.007766231821011752
1761479787647773000,0.53677294921875,-0.12269874342978,-0.01901272523952648,0.005981357698235661
1761479787657809000,0.546808837890625,-0.1439484522074461,0.002113832082506269,0.023818298890348522
1761479787667845000,0.55684521484375,-0.13302256904542445,-0.0029194859095849094,-0.006604768559895455
1761479787677881000,0.566881103515625,-0.12703706489503383,-0.025416308671515432,-0.00429755106344819
1761479787687917000,0.5769169921875,-0.13377543323934077,-0.016606193820759653,0.015391118942573665
1761479787697953000,0.586953125,-0.13497545667886734,-0.0027427959021180865,0.003916113997809589
1761479787707988000,0.596988037109375,-0.13093699494302272,-0.00429194330656901,-0.010317542005330324
1761479787718024000,0.60702392578125,-0.13093816398680208,-0.020635960793495178,0.006225048527307808
1761479787728060000,0.617059814453125,-0.12809446499347685,-0.009977094537205994,0.014527999307215213
1761479787738095900,0.627095947265625,-0.13722352786660194,0.0075628912686370306,-0.0006959281085990369
1761479787748132000,0.637132080078125,-0.12794833452105522,-0.009693491822853683,-0.006811342248972505
1761479787758168000,0.64716796875,-0.13049217378497122,-0.02340316048450768,0.015708130736183375
1761479787768204000,0.6572041015625,-0.1276449676603079,-0.019988694132212548,0.0026698585300706326
1761479787778240000,0.667239990234375,-0.12854454684853553,0.004788640782330185,-0.013185863983258604
1761479787788275000,0.67727490234375,-0.13063888877928256,-0.0010346585436724126,0.004404171509388834
1761479787798311000,0.687310791015625,-0.13198153555989264,-0.02062976851472631,0.010044332820829003
1761479787808347000,0.697346923828125,-0.13033902904987335,-0.014590945008210838,-0.01047373721404001
1761479787818383000,0.707383056640625,-0.13452946647703648,-0.01049675276344642,-0.006905523338448256
1761479787828419000,0.717419189453125,-0.14530688107907772,-0.010111863365396857,0.013688461476843803
1761479787838455000,0.727455078125,-0.1330424427896738,-0.020220694523490963,0.011688063173554837
1761479787848491000,0.737490966796875,-0.11822773549556731,-0.012678663379792123,-0.006955956617742776
1761479787858527000,0.74752685546875,-0.1260100599348545,0.001507682882901281,0.0136553629248403
1761479787868562000,0.75756201171875,-0.1352899294555187,0.004837375294882804,0.008212258555460721
1761479787878598000,0.767597900390625,-0.13663842145502567,-0.017583185626752675,-0.00146298522464931
1761479787888633900,0.7776337890625,-0.13858312578201293,-0.00872882977547124,0.011080379603989422
1761479787898670000,0.787670166015625,-0.14142857834100722,-0.004338102269545197,0.013086422196775674
1761479787908706000,0.7977060546875,-0.13349720081984995,-0.008361567365657538,-0.0014768676195293664
1761479787918742000,0.807741943359375,-0.13304478087723254,-0.011992160686664283,-0.0054951816164888435
1761479787928778000,0.817778076171875,-0.11882920852005481,-0.014642803059611468,0.0157204422284849
1761479787938814000,0.82781396484375,-0.13469137904047965,-0.00670214625345543,0.005105853505339473
1761479787948849000,0.837848876953125,-0.13364859198927878,-0.006670929131284356,-0.005440346156712621
1761479787958884900,0.847884765625,-0.1306587625235319,-0.018601989014167337,0.011871603046916425
1761479787968920800,0.8579208984375,-0.12796470113396644,-0.014285550587158649,0.005148267874959856
1761479787978957000,0.86795703125,-0.13095745320916174,-0.006072652710881084,-0.005454740008246153
1761479787988993000,0.877992919921875,-0.12766893305778504,0.0020794731551781295,-0.01088122203638777
1761479787999029000,0.888029052734375,-0.13096271390616893,-0.022873802848160266,0.007425747820269316
1761479788009065000,0.89806494140625,-0.12213351076245307,-0.013168748451676218,0.0014385631694458425
1761479788019100000,0.908099853515625,-0.12392273226678371,-0.0010999240659177302,-0.0033618045832961795
1761479788029136000,0.918135986328125,-0.13469663973748683,-0.012007577451504766,0.009194766786787658
1761479788039171800,0.928171875,-0.13036124088168144,-0.02422766514252871,0.014303963026683776
1761479788049207800,0.938207763671875,-0.13066110061109065,-0.01523439401090145,0.0023466179250739515
1761479788059244000,0.948244140625,-0.13589958578646183,0.0003452149747870862,0.0023921558335423467
1761479788069280000,0.958280029296875,-0.1233306115925312,0.006775339353829622,0.008422467240039259
1761479788079316000,0.96831591796875,-0.13141571837067603,-0.00976279419939965,0.0028579467143863436
1761479788089352000,0.97835205078125,-0.14263970769643783,-0.014874693853035569,-0.003795099700335413
1761479788099388000,0.988387939453125,-0.13096972816884517,-0.01976005474179983,0.009844006209447979
1761479788109422800,0.9984228515625,-0.1315694476276636,-0.0033694946994073686,0.005795187476370483
1761479788119458800,1.008458740234375,-0.13486089038848875,-0.008027951497118919,0.002935213201679289
1761479788129494800,1.018494873046875,-0.13037293131947517,-0.019309790223650633,0.01366656017228961
1761479788139531000,1.028531005859375,-0.1257359191685915,-0.004521222017798573,0.007357230895012616
1761479788149567000,1.03856689453125,-0.13636018903553485,-0.007591021384578198,-0.0034863442784175275
1761479788159603000,1.04860302734375,-0.13067279104888438,-0.010876765056978911,0.000781030842475593
1761479788169639000,1.058638916015625,-0.12857728007435798,-0.012980094011779873,0.01166574174389243
1761479788179673900,1.068673828125,-0.12304127325713633,-0.006126063398551196,-0.0005189641064964235
1761479788189709800,1.078709716796875,-0.1227425825715065,-0.006542060320917516,0.0005233114880509674
1761479788199745800,1.088745849609375,-0.13157237023711205,-0.019505531991459428,0.006628788756299763
1761479788209781800,1.09878173828125,-0.13321779935657976,-0.014273385225329548,0.01064662782922387
1761479788219818000,1.10881787109375,-0.13471242182850837,-0.010750270866788923,-0.003123885907884687
1761479788229854000,1.11885400390625,-0.1445885036766529,-0.002991710895579308,0.001995941323880106
1761479788239890000,1.128889892578125,-0.12244213832020759,-0.01008070104215294,0.009075469522364437
1761479788249926100,1.138926025390625,-0.1342629244953394,-0.017044420841243118,0.005230155738443136
1761479788259962000,1.148962158203125,-0.13456570683419702,0.0011559103031642734,0.0003782769941724837
1761479788269996800,1.158996826171875,-0.13247194942533969,-0.009004523178003728,0.007310450877528637
1761479788280032800,1.16903271484375,-0.13456804492175578,-0.018792689280677587,0.000997632735222578
1761479788290069000,1.179069091796875,-0.12768588419258595,-0.007908873428404331,-0.00009250058904290199
1761479788300105200,1.189105224609375,-0.1267892276138067,-0.0007166969019919634,0.008943659836240112
1761479788310141200,1.19914111328125,-0.13456921396553514,-0.00242417667331174,0.01134655625950545
1761479788320177200,1.20917724609375,-0.13711656036078929,-0.006510368274711072,0.000052935763634741304
1761479788330212400,1.21921240234375,-0.13472294322252273,-0.010381090494524688,0.0027595643738284707
1761479788340248300,1.229248291015625,-0.1311287181228399,-0.007598857631161808,0.006881119549553841
1761479788350283300,1.239283203125,-0.13113047168850897,-0.006226875158213079,0.006798738495726138
1761479788360319500,1.249319580078125,-0.13891338064968586,-0.011785879258532077,0.007960274822078645
1761479788370355500,1.25935546875,-0.12784370510280132,-0.01575529434615746,0.012849526434671132
1761479788380391400,1.269391357421875,-0.1411637899249792,-0.00034653014903888107,-0.0013812617579475044
1761479788390427400,1.279427490234375,-0.1360790340065956,-0.008714746451191604,-0.003083426033332944
1761479788400463400,1.28946337890625,-0.1413210263133049,-0.017661657690443096,0.011684464710671454
1761479788410499300,1.299499267578125,-0.1410246737152338,-0.019862455670349298,0.012365925902500748
1761479788420535300,1.309535400390625,-0.1401262635707855,-0.005877331068180501,0.0035956133391708135
1761479788430571300,1.3195712890625,-0.12486147442162036,-0.005423248891439288,0.006316489670425653
1761479788440606500,1.3296064453125,-0.1317401280194521,-0.010589015890471636,0.004377301768772304
1761479788450642400,1.339642333984375,-0.1429629483014345,-0.01675868096873164,0.010253646456263959
1761479788460678400,1.349678466796875,-0.13712415914535522,-0.00874179885489866,-0.0019744236118160187
1761479788470714400,1.35971435546875,-0.1332329969257116,-0.006746697781234979,0.005886391157470643
1761479788480750300,1.369750244140625,-0.13338205000758172,-0.015527860532142222,0.011510222388617694
1761479788490786300,1.379786376953125,-0.1288946754604578,-0.010594112190697341,0.0075581968272104855
1761479788500822300,1.389822265625,-0.13862170422673226,-0.0011436170771718024,0.007997282364219427
1761479788510858200,1.399858154296875,-0.13652560873031616,0.0009122194740921258,0.01128890778813511
1761479788520894200,1.409894287109375,-0.1420610310256481,-0.008569072636496275,0.0007944383133202791
1761479788530929400,1.419929443359375,-0.1269511401772499,-0.006644132455904036,-0.0027769904326647517
1761479788540965400,1.42996533203125,-0.12306699222028254,-0.019279084558133035,0.007487086086068302
1761479788551001300,1.44000146484375,-0.13354045543968676,-0.006252959447540342,0.008175232747010886
1761479788561037300,1.450037353515625,-0.127256845125556,-0.006962769951019436,0.007580025066528469
1761479788571073300,1.4600732421875,-0.12097498837709426,-0.013827522887662052,0.004271101447939872
1761479788581109200,1.470109130859375,-0.12471885108053683,-0.011644772021099925,0.009265877527929843
1761479788591145200,1.480145263671875,-0.13639409130513666,-0.0030525742373429237,-0.003631269174441695
1761479788601181200,1.49018115234375,-0.1359481011033058,-0.010963877084851264,0.009400080100540071
1761479788611216400,1.50021630859375,-0.13101181374490262,-0.007366912038810551,0.006330262467451393
1761479788621252400,1.51025244140625,-0.13176117080748082,-0.010644107078574596,0.002641454419493675
1761479788631288300,1.520288330078125,-0.14163608361184596,-0.009594378829933702,0.005567315270937979
1761479788641324300,1.53032421875,-0.13819792585670948,-0.015680621674749998,0.015584175562951713
1761479788651360300,1.5403603515625,-0.13370762870013714,-0.011035060891229659,0.011159545787423848
1761479788661396200,1.550396240234375,-0.13400690390765665,0.0002972476472146809,-0.002264876192063093
1761479788671432200,1.56043212890625,-0.13834580989480016,0.00023433847883716225,0.002848174239043146
1761479788681468200,1.57046826171875,-0.1329588561594486,-0.004829374651517719,0.011958897737879306
1761479788691503400,1.58050341796875,-0.13730068475604057,-0.003597038111276924,0.004258022770658136
1761479788701539300,1.590539306640625,-0.13385668178200721,-0.0056439059047959745,-0.00009858326995745301
1761479788711575300,1.6005751953125,-0.13579904802143572,-0.0052076333793811495,0.003199818954616785
1761479788721611300,1.610611328125,-0.14507541041076183,-0.005690101400390267,0.010823445700854062
1761479788731647200,1.620647216796875,-0.13998656283915042,-0.00409691392481327,0.003914579627849161
1761479788741683200,1.63068310546875,-0.14028408448100088,-0.0070168747584335505,0.011693470001034437
1761479788751719200,1.64071923828125,-0.13804068946838377,-0.00275463247038424,-0.001027059759106487
1761479788761755100,1.650755126953125,-0.13324994806051255,-0.009118212685547768,0.005843684526905417
1761479788771791000,1.660791015625,-0.13923603673279283,-0.011245945429243146,0.006516578819788992
1761479788781826300,1.670826416015625,-0.14656711027324199,-0.010702449669688939,0.008601349204592407
1761479788791862300,1.6808623046875,-0.13190437867045401,-0.006913085590396076,0.0037101430969312785
1761479788801898200,1.690898193359375,-0.13744389261901377,-0.012106471248716116,0.005590312554035335
1761479788811934200,1.700934326171875,-0.14163199195861814,-0.017151150885038078,0.007728913751617074
1761479788821970200,1.71097021484375,-0.13789397447407245,-0.017750340620893985,0.008788524073455482
1761479788832006100,1.721006103515625,-0.13834405632913113,-0.00603211977109313,0.009393193702027201
1761479788842042000,1.7310419921875,-0.14313245964944363,-0.00473155856654048,0.003597878361493349
1761479788852078000,1.741078125,-0.13924129742980002,-0.008316979305259884,0.0033989947885274883
1761479788862114300,1.7511142578125,-0.13430442554950714,-0.0037025077797472475,0.009589611323270946
1761479788872150300,1.761150390625,-0.12787293119728566,-0.014175605672970413,0.003164163119345903
1761479788882185200,1.771185302734375,-0.13670096529722212,-0.007249806731473654,0.0032263416353613137
1761479788892221200,1.78122119140625,-0.14642448693215845,-0.01097032509194687,0.008872932687588035
1761479788902257200,1.791257080078125,-0.13849427845478057,-0.0006951061246916651,0.002787584891915321
1761479788912293000,1.801293212890625,-0.1363970139145851,-0.007228709144517779,0.007708510284405201
1761479788922329000,1.8113291015625,-0.13310557115375996,-0.010532244201935827,0.005338657614216208
1761479788932365000,1.821364990234375,-0.13175941724181175,-0.0038021870282478627,0.008519388275872916
1761479788942401300,1.8314013671875,-0.13176000176370142,-0.01143492866270244,0.003619724867120385
1761479788952437200,1.841437255859375,-0.12966273722350596,-0.005743767816387116,0.0033527627603150904
1761479788962472200,1.85147216796875,-0.1342979958087206,-0.011900902206636964,0.0039331381978467105
1761479788972508200,1.861508056640625,-0.12786299432516096,-0.014206804528832434,0.0032086415818892416
1761479788982544100,1.871544189453125,-0.12846446734964848,-0.014892229509726166,0.011221358977258204
1761479788992580000,1.881580078125,-0.13280395785868168,-0.004757496725395322,0.003501651445403695
1761479789002616000,1.891615966796875,-0.13624737631082534,-0.0026486878778785466,0.003590608370490372
1761479789012652000,1.901652099609375,-0.13026128763854503,-0.008433189563453196,0.008556852475740015
1761479789022688300,1.911688232421875,-0.1360965696632862,0.0014866583611816166,0.005339132538251579
1761479789032724500,1.921724365234375,-0.13908873721659182,-0.007655811982788145,0.007855334876570851
1761479789042760400,1.931760498046875,-0.13205518531799315,-0.006837517869845032,0.002081939106900245
1761479789052795100,1.941795166015625,-0.13968787215352058,-0.009511687248852103,0.0016708192890509963
1761479789062831000,1.9518310546875,-0.13280395785868168,-0.006174889242649078,0.006366137498430908
1761479789072867000,1.9618671875,-0.12980769865214825,-0.014931246345862745,0.0035570531607605517
1761479789082903300,1.9719033203125,-0.13743921644389628,-0.006122793729230761,0.0034594562714919445
1761479789092939300,1.981939208984375,-0.13938508981466294,-0.014441106475051492,0.008368453764170407
1761479789102975500,1.9919755859375,-0.14656477218568323,-0.010509082522056996,0.00593848667088896
1761479789113011500,2.002011474609375,-0.13893033178448677,-0.00789793190928176,-0.0028116416209377345
1761479789123047400,2.01204736328125,-0.14491466689109803,-0.017463504769839346,0.0023535773888230323
1761479789133083400,2.02208349609375,-0.13548749785423278,-0.01144943211209029,0.004420154529809952
1761479789143118300,2.032118408203125,-0.14326806872785092,-0.012578107348456978,0.00491909876158461
1761479789153154300,2.042154296875,-0.13982815740704535,-0.01049317256687209,0.014024598096031694
1761479789163190300,2.052190185546875,-0.15150047502219677,-0.009672485567443071,0.008319755784235895
1761479789173226200,2.062226318359375,-0.13893150082826614,-0.015483783928398042,0.005479070731904357
1761479789183262500,2.072262451171875,-0.1395300512433052,-0.0033881263346411286,0.005950944293662905
1761479789193298400,2.08229833984375,-0.14581541512310503,-0.0021710421624593435,0.006419109794683754
1761479789203334400,2.09233447265625,-0.13144962064027785,-0.01400843241252005,0.011642945390194654
1761479789213370400,2.102370361328125,-0.13938158268332482,-0.00713980701835826,0.006349405559338629
1761479789223406300,2.11240625,-0.13653905273377895,-0.004877415044326335,0.0006755977066233754
1761479789233441300,2.122441162109375,-0.12517127102315426,-0.009736837774235755,0.002797667894512415
1761479789243477200,2.132477294921875,-0.14223638759255408,-0.009527195345237851,0.007845927727408707
1761479789253513200,2.14251318359375,-0.14029343683123588,-0.01472834418490529,0.011227167663536965
1761479789263549400,2.152549560546875,-0.1359580379754305,-0.000922083280980587,0.0006131999948993324
1761479789273585400,2.16258544921875,-0.1374520759254694,-0.004113006543088704,-0.003191873110178858
1761479789283621400,2.172621337890625,-0.13984569306373595,-0.002787657957151532,0.005775076270103454
1761479789293657300,2.1826572265625,-0.1352086809128523,-0.005283164567314088,0.00747201638109982
1761479789303693300,2.192693359375,-0.14358955576717852,-0.015773140530101953,0.00436316364556551
1761479789313729300,2.202729248046875,-0.14733575655817985,-0.007369597186241299,0.010151793516986071
1761479789323764200,2.21276416015625,-0.13611585888564587,-0.005629274591244757,0.004210311171412468
1761479789333801500,2.222801513671875,-0.14419745853245258,-0.005318710804730654,-0.0038180239181965585
1761479789343837400,2.23283740234375,-0.14703940396010876,-0.006520761804562062,-0.0004408025700598955
1761479789353873400,2.242873291015625,-0.13985855254530905,-0.010634078874904663,0.0060157166255638
1761479789363909400,2.252909423828125,-0.14270517414808273,-0.012179646082781255,0.007885401221271604
1761479789373945600,2.262945556640625,-0.14764438411593436,-0.005719090032856911,0.010745083235017956
1761479789383981800,2.27298193359375,-0.14330489360690116,-0.013531535615772009,-0.006155490422435105
1761479789394017800,2.283017822265625,-0.1421089618206024,-0.003427526763267815,-0.0004836918637156486
1761479789404052500,2.293052490234375,-0.13881401192843912,-0.00917520356979221,0.005850552659109234
1761479789414088400,2.30308837890625,-0.1290811379432678,-0.009580569500289857,0.00550217761285603
1761479789424124700,2.313124755859375,-0.1353647482573986,-0.006801679371483624,0.001883019001316279
1761479789434160600,2.32316064453125,-0.1434428407728672,0.0003062346712686121,0.00515592145845294
1761479789444196600,2.333196533203125,-0.14658523045182228,0.0003314604440703988,0.004670110702887177
1761479789454232600,2.343232666015625,-0.14554244340062142,-0.011246109826024621,0.0033136545926332472
1761479789464268800,2.353268798828125,-0.15197978297173975,-0.0038722200571559367,0.007918152713403105
1761479789474304800,2.3633046875,-0.14450199443697928,-0.012794252583477645,0.0007577412984333932
1761479789484340700,2.3733408203125,-0.13941373138725757,-0.013304101801756769,0.0063244903137907385
1761479789494375700,2.383375732421875,-0.13522329396009444,-0.009038388914987445,0.007131441048812121
1761479789504411600,2.39341162109375,-0.1364239019215107,-0.010984591079317032,0.008216076214052737
1761479789514447600,2.403447509765625,-0.15602701253592968,-0.009555398526415229,0.0075864365410059685
1761479789524483600,2.413483642578125,-0.1385194128960371,-0.009362140976637602,0.0049844556153751905
1761479789534519600,2.42351953125,-0.13537234704196452,-0.005265464513842016,0.010238448887132108
1761479789544555800,2.4335556640625,-0.1531757147580385,0.0010093414393253623,0.009756985513120889
1761479789554591700,2.443591796875,-0.14629413855075835,-0.005831720094475894,-0.0020393603404983878
1761479789564627700,2.453627685546875,-0.14165887996554374,-0.006978424177877605,0.004092493478022516
1761479789574663700,2.46366357421875,-0.13418109143078327,-0.006968304642662406,0.008908113598823547
1761479789584698600,2.47369873046875,-0.137773562964797,-0.005364668838307261,0.004062938589975237
1761479789594734600,2.483734619140625,-0.1374731187134981,0.0048691221400164065,0.001553001595661044
1761479789604770600,2.4937705078125,-0.14076456147432326,0.0023537235192954537,0.003560249764844775
1761479789614806500,2.503806640625,-0.12670096480846404,-0.0038970074385404584,-0.0023192367278039453
1761479789624842800,2.5138427734375,-0.14226736725270747,-0.009165906018484384,-0.00029255320578813553
1761479789634878700,2.523878662109375,-0.13374153096973895,-0.006293693316727876,0.01646130545735359
1761479789644914700,2.533914794921875,-0.1401741943657398,-0.0055814716604538255,0.011791724477428942
1761479789654950700,2.54395068359375,-0.14241700485646724,-0.005808905474469065,0.0041583069895394145
1761479789664986600,2.553986572265625,-0.14480945295095443,-0.0037756278148852285,0.007122106964886188
1761479789675021600,2.564021484375,-0.13522797013521193,-0.0016177008623257279,0.009217672738339752
1761479789685057500,2.5740576171875,-0.15033903002738952,-0.006731609809957444,0.005974434767104685
1761479789695093500,2.584093505859375,-0.14330197099745273,-0.0027527875731699165,0.002232161232549697
1761479789705129700,2.594129638671875,-0.14001461988985536,-0.0042689460234716535,-0.0011299904106184839
1761479789715165700,2.604165771484375,-0.14226093751192093,-0.007387790430057793,0.011054934635479003
1761479789725201700,2.61420166015625,-0.14285598079562187,-0.01552616176540032,0.013500519423000514
1761479789735237600,2.624237548828125,-0.13821896864473818,-0.014636793443933128,0.011347542640194296
1761479789745273600,2.634273681640625,-0.13613105645477772,0.0008094166867434978,0.007478482654504477
1761479789755309600,2.6443095703125,-0.14525836576223372,-0.008516812726296483,-0.0007412833539769053
1761479789765344500,2.654344482421875,-0.144513684874773,-0.009583382511883974,0.006492047166731208
1761479789775380700,2.664380615234375,-0.15020166738331317,-0.004028963255137205,0.013308065590821205
1761479789785416700,2.674416748046875,-0.14256956506967544,0.007138236115779727,0.004649323643185198
1761479789795452700,2.68445263671875,-0.1373340025037527,-0.0034903811327181753,-0.003915018019266426
1761479789805488600,2.694488525390625,-0.14825579401254654,-0.012204743991419673,0.0034986557707190513
1761479789815524600,2.704524658203125,-0.14436580083668232,0.0002533537065610289,0.012926409329473972
1761479789825560600,2.714560546875,-0.14017360984385013,-0.012844010009337216,-0.002380045270640403
1761479789835596500,2.724596435546875,-0.136579969266057,-0.011394815848022698,0.008624583949707448
1761479789845631500,2.734631591796875,-0.13912322400808333,-0.003647361792717129,0.010103826189413667
1761479789855667700,2.744667724609375,-0.1379267076998949,-0.01109217963963747,0.00873936943579465
1761479789865703700,2.75470361328125,-0.14272212528288364,-0.003284976487420499,-0.0010869184538722038
1761479789875739600,2.76473974609375,-0.14512100311815737,-0.008137238824181258,0.007021642265096307
1761479789885775600,2.774775634765625,-0.1422790576905012,-0.010074271301366388,0.005412307372316718
1761479789895811600,2.7848115234375,-0.14691314723193644,-0.01935547426259145,0.002041442699730396
1761479789905847600,2.79484765625,-0.14377017303109169,-0.004350632957555354,-0.0017610548557713626
1761479789915883500,2.804883544921875,-0.14286884027719496,0.00007268164372071623,0.008150116572063416
1761479789925919500,2.81491943359375,-0.12640344316661356,-0.0062424563198350365,0.006079027652740478
1761479789935954700,2.82495458984375,-0.13987141202688216,-0.011129972633067519,-0.0030630225661210713
1761479789945990700,2.83499072265625,-0.13987316559255122,-0.010258687957562506,0.006938055634871125
1761479789956026600,2.845026611328125,-0.14391454993784428,-0.013477650004066526,0.0019731997691094876
1761479789966062600,2.8550625,-0.13597966528534888,0.0001815671119838953,0.00623315876852721
1761479789976098600,2.8650986328125,-0.13822481386363505,-0.00881139349238947,0.0007397672503255307
1761479789986134500,2.875134521484375,-0.13941957660615442,-0.01564100205041468,0.0008545710027217865
1761479789996170500,2.88517041015625,-0.14480536129772661,-0.014644008636008947,0.008034618699923158
1761479790006206500,2.89520654296875,-0.13642039479017257,-0.0015528371988795698,0.005768774393480271
1761479790016242400,2.905242431640625,-0.13851765933036803,-0.009022771220747381,0.005675342222675681
1761479790026277600,2.915277587890625,-0.13433014451265335,-0.008134462345205247,0.001179528640769422
1761479790036313600,2.925313720703125,-0.12625088295340536,-0.006454016711283475,0.008257339806202798
1761479790046349600,2.935349609375,-0.14824936427175997,0.00029456249978393315,0.005022595668677241
1761479790056385500,2.945385498046875,-0.13418167595267294,-0.009176171684172004,0.007978431533277035
1761479790066421500,2.95542138671875,-0.14181144017875194,-0.009121427555941045,0.010244221040792763
1761479790076457500,2.96545751953125,-0.14734744699597357,-0.0038448571261949834,0.01811787702534348
1761479790086493400,2.975493408203125,-0.13222586570978165,-0.009207279208488761,0.00812779514240101
1761479790096529400,2.985529296875,-0.13731588232517242,-0.01051876366585493,0.012986578551493584
1761479790106564600,2.995564697265625,-0.1308814653635025,-0.01067132387906313,0.007311638187617063
1761479790116600600,3.0056005859375,-0.1491372530221939,-0.00033991774516180153,0.012384283543098716
1761479790126636500,3.015636474609375,-0.14554185887873172,-0.008532740947790444,0.007970796216093003
1761479790136672500,3.025672607421875,-0.13940963973402976,-0.004659954635053873,0.00959598626513034
1761479790146708500,3.03570849609375,-0.1418044259160757,-0.006400843485631048,0.005403101152554154
1761479790156744700,3.04574462890625,-0.1370148535519838,0.00102755294945091,-0.0003102349929511547
1761479790166780700,3.05578076171875,-0.13596446771621704,-0.013918233378417789,0.007640979739837348
1761479790176816600,3.065816650390625,-0.14239713111221788,-0.005970525776967406,0.009924779828079044
1761479790186852600,3.0758525390625,-0.14269465275406837,-0.01588672043979168,0.012880889687314628
1761479790196887600,3.085887451171875,-0.1431423965215683,-0.007674461884330958,0.0063994187135249375
1761479790206923500,3.095923583984375,-0.1432949567347765,-0.009873962956294417,0.007712638470251112
1761479790216959700,3.105959716796875,-0.1380564715594053,-0.01329971788758412,0.009596022797748446
1761479790226995700,3.11599560546875,-0.13386428056657312,-0.013522274597082285,0.008046784061752259
1761479790237031700,3.12603173828125,-0.14344517886042593,-0.010177640344295651,0.010012385046295822
1761479790247067600,3.136067626953125,-0.1497305427402258,-0.0048275480206124485,0.0017155717462301254
1761479790257103600,3.146103515625,-0.13686112429499625,-0.016659549709502605,0.007660762152541428
1761479790267139600,3.1561396484375,-0.13715864593684673,-0.0009324950771406293,0.007998853266797959
1761479790277174800,3.1661748046875,-0.14284429035782814,0.004823657296784222,0.00925128274699673
1761479790287210800,3.176210693359375,-0.13910627287328242,-0.004862765464466065,0.013706490323878823
1761479790297246700,3.186246826171875,-0.13431786955296993,-0.014482552730292081,0.0006853153830394149
1761479790307282700,3.19628271484375,-0.14045359582901001,-0.011829554003477096,0.012299180809222161
1761479790317318700,3.206318603515625,-0.1438917535841465,-0.007264712039660662,0.0006670308076776564
1761479790327354600,3.216354736328125,-0.14553601365983485,-0.007803896950278431,0.0031872882666066286
1761479790337390000,3.22639013671875,-0.13985036923885344,-0.010851868077740072,0.009697820938099176
1761479790347426300,3.23642626953125,-0.14299509700536728,-0.007657090624421835,0.007818162937648594
1761479790357462300,3.246462158203125,-0.14778525389134883,-0.015396196976490318,-0.0032094635657966136
1761479790367497200,3.256497314453125,-0.13700842381119727,-0.006248429402895272,0.006052687635086477
1761479790377533200,3.266533203125,-0.14104863911271096,-0.012680179483443499,0.0076942808296531435
1761479790387569200,3.276569091796875,-0.1431418119996786,-0.005747019219398498,0.009492233629710972
1761479790397605000,3.286605224609375,-0.12892448607683182,-0.008638886469695716,0.0045336979068815704
1761479790407641000,3.29664111328125,-0.13056874615252018,-0.013488354061171411,-0.0010516279447823763
1761479790417677000,3.306677001953125,-0.13910042765438557,-0.010990326700359583,0.006885594795271754
1761479790427713300,3.31671337890625,-0.13580723132789135,-0.02047888880195096,0.003615797610674053
1761479790437749200,3.326749267578125,-0.13625497509539128,-0.015041264325287192,0.006921433293633162
1761479790447784200,3.3367841796875,-0.13954524881243704,-0.011507537241186945,0.0023989509005099535
1761479790457820200,3.346820068359375,-0.13580372419655323,-0.009688084995374083,0.0026521036776714023
1761479790467856100,3.356856201171875,-0.13684709576964377,-0.004760419334843754,0.007386603119969367
1761479790477892000,3.36689208984375,-0.1413385619699955,-0.011019552794843911,0.008334478429332375
1761479790487928000,3.376927978515625,-0.1402963594406843,-0.010456183291040361,-0.0004999306124635041
1761479790497964000,3.386964111328125,-0.14538286892473698,-0.005135956382658333,0.00011173501247540115
1761479790508000300,3.397000244140625,-0.13864917675554753,-0.011223423070181161,-0.0007052621925249695
1761479790518036200,3.4070361328125,-0.13146774081885815,-0.011581515792850404,0.0006164513979107141
1761479790528071200,3.4170712890625,-0.1347550919264555,-0.01422161850547418,-0.0002812280941754579
1761479790538107100,3.427107177734375,-0.14103870224058626,-0.007954192141164093,0.014046462867967784
1761479790548143000,3.43714306640625,-0.1471720904290676,-0.009051759853214025,0.007846384385135024
1761479790558179000,3.447178955078125,-0.15076047030985354,-0.0055414867099374526,-0.00042516660951077935
1761479790568215000,3.457215087890625,-0.14208032024800776,-0.008799556924123316,0.00845130974203348
1761479790578251000,3.4672509765625,-0.14073358181416987,-0.0061671625939197835,0.0006176569743081927
1761479790588287200,3.477287353515625,-0.1320540162742138,-0.0019457089739851653,0.0050495750071480865
1761479790598323200,3.4873232421875,-0.1302583650290966,-0.011056688201148062,0.010434245453868061
1761479790608359200,3.497359130859375,-0.13699264172017572,-0.004986172648426145,0.009938150766305625
1761479790618394000,3.50739404296875,-0.13789455899596215,-0.010191997663211078,0.009351893577259034
1761479790628430000,3.51743017578125,-0.14926643235981463,-0.012505261307954787,0.006853172096703201
1761479790638466000,3.527466064453125,-0.14283201539814472,-0.00931676746495068,0.0039672596631571645
1761479790648502000,3.537501953125,-0.13489888431131838,-0.010412453747168184,0.011554664318542927
1761479790658538000,3.5475380859375,-0.14342764320373536,-0.0130396787119098,0.009362798563763498
1761479790668574200,3.55757421875,-0.14013736948668956,-0.0012949899802915752,0.0062436253636144095
1761479790678610200,3.567610107421875,-0.140737088945508,-0.007105667286738753,0.0020848799826577303
1761479790688646100,3.577646240234375,-0.13400339677631853,-0.01891147508844733,0.001919405488949269
1761479790698681000,3.58768115234375,-0.14043722921609877,-0.0032573943607509133,0.0038794352492317555
1761479790708717000,3.597717041015625,-0.14313129060566424,-0.005837894106935709,0.002325045414082706
1761479790718753000,3.6077529296875,-0.1349018069207668,-0.003266911107767373,-0.0005170826766639948
1761479790728789000,3.6177890625,-0.1404360601723194,-0.01094265163373202,0.0008785729328170418
1761479790738825000,3.627824951171875,-0.14672200857400894,-0.0026470804426819085,-0.0006006693068891764
1761479790748861200,3.637861083984375,-0.14672668474912642,-0.005810111050866544,0.0036947445983998477
1761479790758897200,3.647897216796875,-0.1525660584270954,-0.0030070180625654756,-0.00283854789417237
1761479790768933000,3.65793310546875,-0.13714870906472204,-0.007017915938049554,0.0034521497478708623
1761479790778968000,3.667968017578125,-0.1356529175490141,-0.01008042704751715,0.009232888573780655
1761479790789004000,3.678004150390625,-0.1350555361777544,-0.01090666700489819,0.005318491609022021
1761479790799040000,3.6880400390625,-0.1411895088881254,-0.005186152199935168,0.006866031578276306
1761479790809076000,3.698075927734375,-0.1359527772784233,-0.006419347256701439,0.005101195596531033
1761479790819112000,3.70811181640625,-0.13969488641619682,-0.014897398875188081,0.0015317761445417999
1761479790829148200,3.718148193359375,-0.12952011388242243,-0.020643778773769734,0.006999503498524427
1761479790839184100,3.72818408203125,-0.14089257176816464,-0.014879004701972006,0.003033011020347476
1761479790849220000,3.73822021484375,-0.1440384685784578,-0.011154741748142986,0.005904840129613876
1761479790859255000,3.748255126953125,-0.13640636626482008,-0.011710311537981032,-0.0013739917669445276
1761479790869291000,3.758291015625,-0.14493395611345766,-0.011742204513587057,0.005900182220805436
1761479790879327000,3.768326904296875,-0.14688041400611399,-0.011601590466499327,0.0070443107546307145
1761479790889363000,3.778363037109375,-0.130123340472579,-0.001394322168920189,0.006375179321411997
1761479790899399200,3.788399169921875,-0.13357085057795046,-0.004803381693735719,0.011316362050641328
1761479790909435100,3.79843505859375,-0.13911036452651024,-0.006122318805195391,0.010825290598068386
1761479790919471000,3.80847119140625,-0.14135843571424483,0.0027072313983924684,0.010257628511637449
1761479790929507000,3.818507080078125,-0.14075754721164702,-0.020277630608808248,-0.0002443301498889923
1761479790939542000,3.8285419921875,-0.14389818332493304,-0.00426467170715332,0.010119772677216678
1761479790949578000,3.838577880859375,-0.14374971476495266,-0.010052717056684195,0.012229257378168403
1761479790959614000,3.848614013671875,-0.1459960323870182,-0.008621515209786594,0.0003963789064437151
1761479790969650000,3.85864990234375,-0.1376174956202507,-0.0032666919120587406,0.000023015549406409262
1761479790979686100,3.86868603515625,-0.13836743720471859,-0.001425995948817581,0.003356306424271315
1761479790989722000,3.87872216796875,-0.13761632657647133,-0.0034082010082900523,0.003237611948046833
1761479790999758000,3.888758056640625,-0.14673895970880985,0.00032718612775206563,0.004906842068210244
1761479791009794000,3.8987939453125,-0.15451953058242798,-0.008611852332297712,-0.0011543576668947935
1761479791019829000,3.9088291015625,-0.13865619101822377,-0.00715425566881895,0.0010343114838004112
1761479791029865000,3.918864990234375,-0.13970306972265242,-0.009348477777466177,0.009476232342980801
1761479791039901000,3.92890087890625,-0.13686229333877561,-0.002604519942589104,-0.000015763824712485072
1761479791049937000,3.93893701171875,-0.13746201279759407,-0.007805979309510439,0.0035969285134226084
1761479791059973000,3.94897314453125,-0.14239654659032822,-0.0028333237297832963,0.0072722194926813245
1761479791070009000,3.959009033203125,-0.13850713793635366,-0.0030933994380757212,0.008200129726249724
1761479791080045000,3.969045166015625,-0.137909756565094,-0.0035383484602905806,0.009300437384657561
1761479791090081300,3.979081298828125,-0.14524492175877093,-0.005239142762497067,-0.005310965889692306
1761479791100117200,3.9891171875,-0.13731354423761366,-0.014692049028817563,0.004137903522327542
1761479791110152000,3.99915185546875,-0.14165361926853656,-0.0017807824695482849,0.0012733078714460134
1761479791120187100,4.009187255859375,-0.14315233339369296,0.0012164813839830458,0.0042234263813123105
1761479791130223000,4.01922314453125,-0.1334258891493082,-0.006536397765111178,0.011992105887737125
1761479791140259000,4.029259033203125,-0.1428536427080631,-0.0029867241932079193,0.005615940185636281
1761479791150295000,4.039294921875,-0.14838555787205696,-0.0008715038712136447,-0.0012281900880858302
1761479791160331000,4.0493310546875,-0.137312959715724,-0.004160535479243844,0.00959591319989413
1761479791170367000,4.059366943359375,-0.13476912045180797,0.002642586930654943,0.009510737400781363
1761479791180403000,4.06940283203125,-0.13925766404271125,0.0001854213031940162,0.011196918655745684
1761479791190438100,4.079438232421875,-0.13701660711765287,-0.010069814321957528,0.010092921202909201
1761479791200474000,4.08947412109375,-0.14748890129327774,0.003945358358602971,0.008983334259502589
1761479791210510000,4.099510009765625,-0.13401684077978132,-0.006660992259159683,0.006302972601726651
1761479791220546000,4.109546142578125,-0.14838029717504977,-0.009511285390052944,0.0005501081634312867
1761479791230582000,4.11958203125,-0.1480775148361921,-0.00839972568526864,0.0017788827734068035
1761479791240618000,4.129617919921875,-0.14239070137143134,-0.012807331260759383,0.008113657019194215
1761479791250654200,4.139654296875,-0.1341623867303133,-0.012154255913197994,0.0012386018842458725
1761479791260690200,4.149690185546875,-0.13505845878720282,0.005407412001490593,0.00021612696871161458
1761479791270725000,4.15972509765625,-0.13640578174293042,-0.002690243730973452,0.012841635389160364
1761479791280761000,4.169760986328125,-0.13670505695044993,-0.0070776467686519025,0.004362049400713295
1761479791290797000,4.179797119140625,-0.13281857090592383,-0.006331358445994556,0.002755874579399824
1761479791300833000,4.1898330078125,-0.14538929866552353,-0.01249326034290716,0.004031739734113216
1761479791310869200,4.199869140625,-0.13685644811987877,-0.0012913549847900867,0.0017790289038792251
1761479791320905200,4.2099052734375,-0.1398433549761772,-0.0031981019215658307,0.00876103327833116
1761479791330941200,4.219941162109375,-0.14807634579241274,-0.002402384966611862,0.001818392799887806
1761479791340977200,4.22997705078125,-0.15241992795467377,-0.01049602211108431,-0.0015498780568130313
1761479791351012000,4.24001220703125,-0.134916419968009,-0.004605703697167337,0.0035624417219310995
1761479791361048000,4.250048095703125,-0.12863222513198852,-0.0028678105212748047,0.007220891164243221
1761479791371084300,4.260084228515625,-0.14210019399225712,-0.0039990795735269785,0.005105013255123049
1761479791381120300,4.270120361328125,-0.1432955412566662,-0.0011627967016771435,0.00039250644892454146
1761479791391156200,4.28015625,-0.14239888467788694,0.001624276733584702,0.0016833499770611523
1761479791401192200,4.290192138671875,-0.1537730961292982,-0.014955467471666633,0.005947144901379943
1761479791411228200,4.300228271484375,-0.14554536601006984,-0.008678487827721983,0.006371873119473457
1761479791421264100,4.31026416015625,-0.14808978979587553,-0.003775426885485649,0.005110730609856545
1761479791431299300,4.32029931640625,-0.14539689745008944,-0.008458451868873089,0.002641162158548832
1761479791441335300,4.330335205078125,-0.14974106413424015,-0.0019035503326915203,-0.0065308265408501025
1761479791451371300,4.340371337890625,-0.1428583188831806,-0.004202109598647803,0.011956102992594241
1761479791461407200,4.3504072265625,-0.14689736514091492,-0.005698960560280829,0.003209317435324192
1761479791471443200,4.360443115234375,-0.1349251877963543,-0.011348894347064197,0.0026530352594330907
1761479791481479200,4.370479248046875,-0.13821370794773102,-0.011151764339767396,0.0031647659075446427
1761479791491515100,4.38051513671875,-0.14060498699843882,-0.006611928953044116,0.0011847162725403904
1761479791501551000,4.390551025390625,-0.14105156172215938,-0.009563965425360947,0.00865490602273494
1761479791511586300,4.40058642578125,-0.14389467619359492,-0.016351433608401567,-0.0002874203729443252
1761479791521622300,4.410622314453125,-0.1530202319353819,-0.007481679258588701,0.0052382477133534845
1761479791531658200,4.420658203125,-0.14014672183692453,-0.0010799407238140702,0.0068246218556538224
1761479791541694200,4.430694091796875,-0.14059855725765227,-0.008099774624314158,0.0033779520004987716
1761479791551730200,4.440730224609375,-0.14164426691830156,-0.008130845616012811,0.0030202246040105817
1761479791561766100,4.45076611328125,-0.1419429576039314,-0.0027192323634400964,0.01104722625305876
1761479791571802000,4.460802001953125,-0.14343991816341875,0.00032250995263457296,0.005039528537169099
1761479791581838000,4.470838134765625,-0.131766431504488,-0.006134703362733126,0.003786898127570748
1761479791591873300,4.480873291015625,-0.1365536657810211,-0.002374200051743537,0.010109251283202319
1761479791601909200,4.4909091796875,-0.1428366915732622,-0.007264072718843818,-0.003930946240760386
1761479791611945200,4.5009453125,-0.14478256494402886,-0.002290832617226988,0.0030897644425742325
1761479791621981200,4.510981201171875,-0.12726970460712908,0.0009081826197914779,0.0023276026973500846
1761479791632017200,4.52101708984375,-0.14133447031676769,-0.0023993710256181655,0.0025760610330849885
1761479791642053000,4.53105322265625,-0.14103870224058626,-0.0060043915139511225,0.0032234555585309863
1761479791652089000,4.541089111328125,-0.13115911326110363,-0.013168657120130956,0.006482640017569065
1761479791662125000,4.551125,-0.15316110171079636,-0.01109535797741264,0.010055730997677892
1761479791672160300,4.56116015625,-0.14523615393042563,-0.0074915065328590566,0.002424615064729005
1761479791682196200,4.5711962890625,-0.13611176723241805,-0.008348232960049062,0.007165069323778152
1761479791692233000,4.58123291015625,-0.14044716608822344,-0.010757559124100953,0.009223097832128406
1761479791702269200,4.591269287109375,-0.13580723132789135,-0.012948146237246692,0.0011492065677419303
1761479791712304000,4.60130419921875,-0.14523498488664627,-0.007166311432793736,-0.004142689295299351
1761479791722340000,4.611340087890625,-0.14553484461605548,-0.008109254838712512,0.005684749371837825
1761479791732376000,4.6213759765625,-0.14852584312558173,-0.006407291492726654,-0.00283321413192898
1761479791742412000,4.631412109375,-0.1444879659116268,-0.0005496515057049692,0.010419504542462528
1761479791752448000,4.641447998046875,-0.13431319337785244,0.001856149260699749,-0.005558583975210785
1761479791762484000,4.65148388671875,-0.1340133336484432,-0.004236651189066469,0.0004886237671598792
1761479791772520200,4.661520263671875,-0.13251871117651462,0.0006767667504027486,0.0047749775831587606
1761479791782556200,4.67155615234375,-0.14509236154556274,-0.0024060199621133505,0.008203399395570158
1761479791792591000,4.681591064453125,-0.1479395676702261,-0.003433116253837943,0.005229461618699133
1761479791802627000,4.691626953125,-0.13941139329969882,-0.005438026335462928,-0.00036591070294380185
1761479791812663000,4.7016630859375,-0.13836393007338046,-0.0017161380018107593,0.004882694007642567
1761479791822699000,4.711698974609375,-0.1428548117518425,-0.009303542657196521,0.0005790785295888781
1761479791832735000,4.72173486328125,-0.13776888678967952,-0.0012870076032355426,0.0052382659796625375
1761479791842771000,4.73177099609375,-0.12848843274712562,-0.0041579051307402545,0.006460957908723503
1761479791852807200,4.74180712890625,-0.13806290130019186,-0.0026591362066566942,-0.00010283931996673344
1761479791862843100,4.751843017578125,-0.13881342740654945,-0.0015381510864011943,0.0023150537430308756
1761479791872878000,4.761878173828125,-0.1394119778215885,-0.004412336549535393,-0.0022551037167198953
1761479791882914000,4.7719140625,-0.13671791643202305,-0.008418211190029978,-0.0003900404972024262
1761479791892950000,4.781949951171875,-0.12849077083468435,-0.008222761683166026,0.0050954599754884835
1761479791902986000,4.791986083984375,-0.13387714004814624,-0.0025379575124010443,0.003132014415413141
1761479791913022000,4.80202197265625,-0.14555004218518733,-0.0001581679700873792,0.011897541205771267
1761479791923058000,4.812057861328125,-0.14136369641125202,0.0024605266283266244,0.007200542495958507
1761479791933094100,4.82209423828125,-0.13373393218517302,-0.0090934435704723,0.000316920462064445
1761479791943130000,4.832130126953125,-0.1449590905547142,-0.01367419548947364,0.004408135298453271
1761479791953165000,4.8421650390625,-0.1316390057325363,-0.009671937578171492,0.0005643193518742918
1761479791963201000,4.852200927734375,-0.14316110122203826,-0.00975915920389816,0.0018447693501599132
1761479791973237000,4.862237060546875,-0.13942133017182348,-0.00490472317636013,-0.0010016330569051206
1761479791983273000,4.87227294921875,-0.14061784648001194,-0.012700016695074737,0.006442015746235847
1761479791993309000,4.882308837890625,-0.1388239488005638,-0.013781510055158286,0.007952602972276509
1761479792003345000,4.892344970703125,-0.1403220784038305,0.002146930634509772,0.009044416796974836
1761479792013381000,4.902381103515625,-0.15079846423268317,-0.005221497507952154,0.009044489862211048
1761479792023417000,4.9124169921875,-0.14181903896331785,-0.009266242854110896,0.00838474731184542
1761479792033453000,4.922453125,-0.1376268479704857,-0.006974770916067063,-0.005866955804638564
1761479792043488000,4.932488037109375,-0.13358604814708233,-0.008210121397301554,-0.000021225451119244097
1761479792053524000,4.94252392578125,-0.14121931950449942,-0.008250690869707613,0.003994147670082748
1761479792063560000,4.952559814453125,-0.14496552029550075,-0.013100121928565203,0.0018123466515913606
1761479792073596000,4.962595947265625,-0.14377134207487105,-0.013678780333045868,0.0002928454667329788
1761479792083631900,4.9726318359375,-0.1331470722079277,-0.00398039313936606,0.00466411935351789
1761479792093668000,4.982668212890625,-0.14736439813077448,-0.0031452392231673,0.009140314919501543
1761479792103704300,4.992704345703125,-0.14422376201748846,0.0009259922711178659,0.010538454747013747
1761479792113740300,5.002740234375,-0.13734043224453926,-0.005932111729029565,0.006565970919467508
1761479792123775000,5.01277490234375,-0.13389701379239557,0.00047907048752531407,0.005450630088709295
1761479792133811000,5.02281103515625,-0.130153151088953,-0.001188972322549671,0.008013027922622859
1761479792143847000,5.032846923828125,-0.1379343064844608,-0.014083835736289619,0.0005772153660655021
1761479792153883100,5.042883056640625,-0.14826047018766403,-0.0036125279413536187,0.0034792569505050774
1761479792163919000,5.052919189453125,-0.1328507196098566,-0.004822853579185903,0.005884126135148108
1761479792173955300,5.062955322265625,-0.1352466748356819,-0.004764182194508612,0.005948898467049002
1761479792183991300,5.0729912109375,-0.13659516683518885,-0.0007019377242773771,-0.0008645078748464583
1761479792194027300,5.08302734375,-0.13405074304938316,-0.006804401051532477,0.0032477862821891903
1761479792204063200,5.093063232421875,-0.13060907816290854,-0.006686985216941684,0.00570942715536803
1761479792214098200,5.10309814453125,-0.12282616920173167,-0.005382131429761648,0.004603310810681432
1761479792224134100,5.113134033203125,-0.13629355354011058,-0.00564131208891049,-0.003525726440735161
1761479792234170000,5.123170166015625,-0.13898586136400698,-0.0059627808619290585,0.0012257424026727675
1761479792244206000,5.1332060546875,-0.14078443521857262,0.0021873539764434096,0.0065284701869823035
1761479792254242300,5.1432421875,-0.14272913954555988,-0.007519015594292432,0.008731423591356724
1761479792264278300,5.1532783203125,-0.1339016899675131,-0.007778817307949066,0.003202120509557426
1761479792274314200,5.163314208984375,-0.13569617216885088,-0.013771719313506035,0.008371193710528314
1761479792284350200,5.17335009765625,-0.13494389249682426,0.001667969744838774,0.006649338353984058
1761479792294385200,5.18338525390625,-0.13688859682381152,0.0022538068087771534,0.007535510071367025
1761479792304421000,5.193421142578125,-0.14212532843351364,-0.003727130764350295,0.0073678984194993965
1761479792314457000,5.20345703125,-0.13913608348965645,-0.003824892050400376,0.002710756796039641
1761479792324493000,5.2134931640625,-0.13374971427619456,-0.008217537518776952,0.00322159239500761
1761479792334529300,5.223529296875,-0.13434709564745426,-0.008584598999191074,0.01115523493848741
1761479792344565500,5.2335654296875,-0.13718845655322073,-0.005686594269052147,0.002802051808685064
1761479792354601700,5.243601806640625,-0.13838614190518855,-0.007832976914290338,0.0018497925851494073
1761479792364637700,5.2536376953125,-0.13763736936450005,-0.006926821854803711,0.015262925985641777
1761479792374672400,5.26367236328125,-0.15050211163461208,-0.0004999854113906622,0.0036918219889514148
1761479792384708400,5.273708251953125,-0.14391981063485146,-0.0062738743714056905,0.0002467961016111076
1761479792394744600,5.28374462890625,-0.13793372196257114,-0.005086308554653078,0.00010238266224041581
1761479792404780500,5.293780517578125,-0.14676584771573542,0.002042374281492084,0.0004560732044279575
1761479792414816500,5.30381640625,-0.14676584771573542,-0.0031450748263858255,0.0072941755961626765
1761479792424852700,5.313852783203125,-0.12910685690641402,-0.009184281925391405,0.006360675872024149
1761479792434888700,5.323888671875,-0.13943185156583784,-0.006081384006608277,-0.0007623261420056223
1761479792444924700,5.333924560546875,-0.1422796422123909,-0.004020268492028117,0.010115516627207399
1761479792454960600,5.343960693359375,-0.14302724570930003,-0.005540189801994711,0.006525803305860609
1761479792464995600,5.35399560546875,-0.14153320775926112,-0.010691398552712053,0.00639835926759988
1761479792475031600,5.364031494140625,-0.14737024334967136,-0.003934014980681241,0.0008875599568709731
1761479792485067500,5.374067626953125,-0.13734452389776705,-0.006777129452116787,-0.008698343305662274
1761479792495103500,5.384103515625,-0.13974223268926142,0.0011675094094127415,0.004750957386754453
1761479792505139700,5.3941396484375,-0.1392956579655409,-0.002365998478978872,-0.0033943368797190484
1761479792515175700,5.40417578125,-0.14423428341150282,-0.002123348829522729,0.004606507414765656
1761479792525211600,5.414211669921875,-0.13839666329920292,-0.005124649537354708,0.0075326787934638555
1761479792535247600,5.42424755859375,-0.14483283382654188,-0.007532130804192274,0.0033068595256656405
1761479792545282600,5.434282470703125,-0.14004676859378815,-0.00641145621119067,0.006495791760087013
1761479792555318500,5.444318603515625,-0.13795067309737205,-0.009950900650024413,0.0005303440170362591
1761479792565354500,5.4543544921875,-0.12583411884605883,-0.00451702076671645,0.00040142040774226187
1761479792575390500,5.464390380859375,-0.13047230004072188,-0.003662248834595084,0.004601721641793847
1761479792585426700,5.4744267578125,-0.13211656011641024,-0.00800378517024219,0.0009146123605780303
1761479792595462700,5.484462646484375,-0.14498188690841196,-0.00552168603092432,0.010070837235264479
1761479792605498600,5.49449853515625,-0.13869535398483276,0.0030270927362143992,0.007395188285224139
1761479792615534600,5.50453466796875,-0.1421352653056383,-0.007602145566791296,0.005217551985196769
1761479792625569500,5.514569580078125,-0.14618015678226948,0.0009392353451810777,0.0018534641132690011
1761479792635605500,5.52460546875,-0.13645488158166408,0.002699760477989912,0.0005611410140991211
1761479792645641500,5.534641357421875,-0.13571020069420336,-0.0035980975572019814,0.0033323410267941654
1761479792655677400,5.544677490234375,-0.13181670038700102,-0.008381824702396989,0.012921988882683217
1761479792665713700,5.554713623046875,-0.1410948163419962,0.0009830562205985188,0.001481050604302436
1761479792675749600,5.56474951171875,-0.14678279885053633,-0.010016476699523626,0.009730535897612571
1761479792685785600,5.57478564453125,-0.13900222797691822,-0.006338098714035004,0.008354206043109297
1761479792695821600,5.584821533203125,-0.1406499951839447,-0.007226809448376298,0.0019972930307500065
1761479792705857500,5.594857421875,-0.14019815976321695,-0.007437821850553155,0.006399528311379254
1761479792715892500,5.604892578125,-0.1375040983736515,-0.0031525457467883825,0.008227474390901624
1761479792725928400,5.614928466796875,-0.13421324013471603,-0.01058808430870995,-0.0031330555950291454
1761479792735964400,5.62496435546875,-0.13750585193932055,-0.003062547642085701,0.00552884642407298
1761479792746000600,5.635000732421875,-0.13361644328534603,-0.0012226553964428603,0.009440065051056445
1761479792756036600,5.64503662109375,-0.1469330209761858,-0.006453998444974422,0.00023055735286325215
1761479792766072600,5.655072509765625,-0.14080138635337353,-0.003246489374246448,0.0043839141726493835
1761479792776108500,5.665108642578125,-0.14020458950400352,0.00016145590571686624,0.006309658070839941
1761479792786144500,5.67514453125,-0.14185060314536094,-0.005068718099035322,0.005873860469460487
1761479792796179500,5.685179443359375,-0.14424305123984812,-0.0032334289632737633,0.011569660958275198
1761479792806215400,5.69521533203125,-0.14469430213868617,-0.00452295731715858,0.010124430586025118
1761479792816251400,5.70525146484375,-0.13706278434693814,0.0029287834608927366,0.005670008460432291
1761479792826287600,5.71528759765625,-0.13332710494995118,-0.009194876384641974,-0.0003524484331719577
1761479792836323600,5.725323486328125,-0.14140928911864756,-0.011469853845611213,0.0014230916056782005
1761479792846359600,5.735359619140625,-0.14230419213175774,-0.00069021075386554,0.006812401694897562
1761479792856395500,5.7453955078125,-0.14065584040284157,0.004092036820296198,0.013251074706576764
1761479792866431500,5.755431396484375,-0.14589315653443335,-0.005017773363087326,0.012783932118862867
1761479792876467500,5.765467529296875,-0.14155425054728984,-0.0027774470903910694,0.006107267366535961
1761479792886502400,5.77550244140625,-0.15068272889852524,0.004517988881096243,0.00018810645062476396
1761479792896538600,5.78553857421875,-0.14335340892374515,-0.002842164623364806,0.00458182963123545
1761479792906574600,5.79557470703125,-0.14096446796059608,-0.007278521369304508,0.0025549451798200606
1761479792916610600,5.805610595703125,-0.1331850661307573,-0.005705024974886327,0.0024074995331466197
1761479792926646500,5.815646484375,-0.13602701155841349,-0.0058706090664491055,0.0035649259399622678
1761479792936682500,5.8256826171875,-0.14276011920571327,-0.003062364978995174,0.006099997375532984
1761479792946718500,5.835718505859375,-0.141264912211895,-0.0041795141743496056,0.006241451672837138
1761479792956753400,5.84575341796875,-0.13961889857053755,-0.001968213066738099,0.01627685226853937
1761479792966789400,5.855789306640625,-0.14111644365191459,-0.008718545843474566,0.0037490503352135417
1761479792976825600,5.86582568359375,-0.15099018741250037,0.004862016545794904,0.003054090340994298
1761479792986861600,5.875861572265625,-0.14245967495441436,-0.00037157325875014066,0.007939560827612876
1761479792996897500,5.8858974609375,-0.1420131002306938,-0.00212990643447265,0.010256331603694706
1761479793006933500,5.89593359375,-0.13917173932492732,-0.006038622577115893,0.012930409651156514
1761479793016969500,5.905969482421875,-0.13453355813026427,-0.0017960165712982415,0.003465082294680178
1761479793027005400,5.91600537109375,-0.13857435795366763,-0.0012244454947300254,0.0038239422023296356
1761479793037041400,5.92604150390625,-0.13723054212927818,-0.009515303978044539,0.0110606519902125
1761479793047076400,5.936076416015625,-0.13498480902910232,-0.012143277861457318,0.010323204561136662
1761479793057112600,5.946112548828125,-0.13857669604122638,-0.005554200061038136,0.011402505964133888
1761479793067148500,5.9561484375,-0.14875029953122137,-0.00549461536090821,0.007516330446861684
1761479793077184500,5.9661845703125,-0.1352823306709528,-0.0038771154279820617,0.005295293396525085
1761479793087220500,5.976220458984375,-0.1309422556400299,-0.008669555602595209,0.008554989312216639
1761479793097256400,5.98625634765625,-0.14710428588986396,-0.007609105030540376,0.007255414488352835
1761479793107292400,5.99629248046875,-0.14785715008378028,-0.008607833744306117,0.007009623033739626
1761479793117328400,6.006328369140625,-0.14232172778844832,-0.0033585897129029033,0.00031184242814779277
1761479793127363300,6.01636328125,-0.14366729717850685,-0.005955127278435975,0.001521035554818809
1761479793137399600,6.026399658203125,-0.13244330785274505,-0.004282718820497394,0.0006839088772423564
1761479793147435500,6.036435546875,-0.14336568388342857,-0.004169595568533986,0.0000611921353265643
1761479793157471500,6.046471435546875,-0.1414163033813238,-0.004778429915569722,0.0033175453164614736
1761479793167507500,6.056507568359375,-0.13752455663979052,-0.000021627309918403625,0.006123707044683397
1761479793177543400,6.06654345703125,-0.14410802668333053,0.0018098259009420871,0.00022765300972387193
1761479793187579600,6.07657958984375,-0.14500526778399944,-0.007746814734488725,0.006302315014600753
1761479793197615600,6.08661572265625,-0.13333411921262742,-0.011358995615970343,0.0002168210884556174
1761479793207650300,6.096650390625,-0.14066577727496624,-0.010435962486919016,0.010040241167601197
1761479793217686500,6.1066865234375,-0.12944471055865286,-0.006999485232215374,0.0053253232086077325
1761479793227722500,6.116722412109375,-0.1447071616202593,0.0009155439423397183,-0.006186744077224284
1761479793237758700,6.1267587890625,-0.14590192436277866,-0.0019004815927706658,-0.0021680282214656473
1761479793247794700,6.136794677734375,-0.14784721321165561,-0.008495477677322923,0.01191829173285514
1761479793257830700,6.14683056640625,-0.13422960674762724,-0.011079594152700155,0.007724456772208213
1761479793267866600,6.15686669921875,-0.13991408212482928,-0.007682206799369305,-0.0009800240132957696
1761479793277901300,6.1669013671875,-0.13961539143919943,0.0035980427582748232,0.0012094305886887014
1761479793287937300,6.176937255859375,-0.13333178112506866,-0.010536774246580899,0.0032943288376554845
1761479793297973800,6.186973876953125,-0.13752397211790085,-0.0010105835483409464,0.004031794533040374
1761479793308009700,6.197009765625,-0.1436608674377203,-0.005044149913359433,0.0014352569675073028
1761479793318045700,6.207045654296875,-0.15054711982011795,-0.009725786657258867,0.0062887796795926985
1761479793328081700,6.21708154296875,-0.12735504480302334,-0.014551800307910888,0.0038559082431718706
1761479793338117400,6.227117431640625,-0.13887772481441496,-0.00622917671315372,0.0029175679471343755
1761479793348153600,6.237153564453125,-0.13992518804073334,-0.0016177191286347804,0.008347447508759796
1761479793358188300,6.247188232421875,-0.13962474378943443,-0.007760952857695519,0.004828917993791401
1761479793368224300,6.257224365234375,-0.14037351633012293,-0.005092427768185735,0.0056442346983589225
1761479793378260500,6.267260498046875,-0.13139701367020606,-0.011510295453853904,0.0022784480596892533
1761479793388296400,6.27729638671875,-0.13498831616044044,-0.0008035349352285265,0.008018069423921406
1761479793398332400,6.28733251953125,-0.14112696504592895,0.0006497508793137967,0.004191971797123551
1761479793408368600,6.29736865234375,-0.14292787698805332,-0.005098565248027443,0.00047930794954299924
1761479793418404600,6.307404541015625,-0.139935124912858,-0.0005096300225704908,0.0022092918136157095
1761479793428440600,6.317440673828125,-0.13813947366774082,-0.007917458593659103,0.003478782026469707
1761479793438475300,6.327475341796875,-0.1459264742821455,-0.0010546601520851253,-0.00141748384879902
1761479793448511500,6.337511474609375,-0.1454822376459837,-0.007636139167938381,0.0064362983915023505
1761479793458547700,6.347547607421875,-0.14997779549956322,-0.00476578962970525,0.0111997316673398
1761479793468583700,6.357583740234375,-0.1466834301292896,-0.008151450012624264,-0.0015235015065409242
1761479793478619600,6.36761962890625,-0.14234218605458734,-0.009668521778378635,0.003074037150479853
1761479793488655600,6.377655517578125,-0.14084288740754128,-0.007725753680150956,0.004898074239864945
1761479793498691600,6.387691650390625,-0.1353045425027609,-0.0035377456720918415,0.01200118424333632
1761479793508727600,6.3977275390625,-0.1450327403128147,0.0005182517204433679,0.006542261250317097
1761479793518762500,6.407762451171875,-0.1478735166966915,0.0005859466617926955,0.006070643416885286
1761479793528798500,6.417798583984375,-0.1406932498037815,-0.0037740203796885904,0.002325228077173233
1761479793538834700,6.427834716796875,-0.14622808757722378,-0.010957246414665132,0.006584657353628427
1761479793548870700,6.43787060546875,-0.14218611871004103,-0.0054316513936035335,0.00228369049038738
1761479793558906600,6.44790673828125,-0.13410685715079307,-0.0068532816945575175,0.003771810156293213
1761479793568942600,6.457942626953125,-0.14143909973502158,-0.0028837022101506587,0.011308379673585296
1761479793578978600,6.467978515625,-0.13739771538972853,-0.010172562310378998,0.0026800328642129895
1761479793589014500,6.4780146484375,-0.1372469087421894,-0.013670377830881625,0.009418766534700989
1761479793599049500,6.488049560546875,-0.14652502469718456,-0.01396901371758431,0.0021160423059016463
1761479793609085400,6.49808544921875,-0.13934475780427455,-0.0007132263032719493,0.008726546486839652
1761479793619121700,6.50812158203125,-0.13126608076691626,0.001043006246909499,0.006330810456722975
1761479793629157600,6.51815771484375,-0.1460778654515743,0.0000028130115941166876,0.0015482523553073406
1761479793639193600,6.528193603515625,-0.14129180021882057,-0.010494944398850202,-0.003075827248767018
1761479793649229600,6.5382294921875,-0.1444312672883272,-0.005529887603688985,0.0075358571312390266
1761479793659265500,6.548265625,-0.1388940914273262,-0.00903519231090322,0.007264821637514979
1761479793669301500,6.558301513671875,-0.138741531214118,-0.009672229839116335,0.0005842661613598466
1761479793679336400,6.56833642578125,-0.13843699530959128,-0.010354768743179739,0.009253164176829158
1761479793689372400,6.578372314453125,-0.15354863972365856,-0.005388232376985252,0.0019728161766193806
1761479793699408600,6.58840869140625,-0.13529343658685683,-0.012815441501978784,0.006126593121513724
1761479793709444600,6.598444580078125,-0.137538585165143,-0.00488446583962068,0.004795143588352948
1761479793719480600,6.60848046875,-0.133498954385519,-0.003099847445171326,0.007840192106366157
1761479793729516500,6.6185166015625,-0.1337970605492592,-0.013432568753324449,0.006740012312121689
1761479793739552500,6.628552490234375,-0.145168349391222,-0.007541574485972523,0.0018488427370786666
1761479793749587500,6.63858740234375,-0.1363362236380577,-0.00423226727489382,-0.0022176760494709014
1761479793759623400,6.64862353515625,-0.1375298173367977,-0.009950151731353253,-0.0014956088526174426
1761479793769659400,6.658659423828125,-0.14665537307858467,-0.005024184837564826,0.004688541408721357
1761479793779695600,6.668695556640625,-0.13348434133827686,-0.005041099439747631,0.006506660213973373
1761479793789731600,6.678731689453125,-0.14111702817380428,-0.004340714351739734,0.0042179464885964985
1761479793799767600,6.688767578125,-0.13453531169593333,-0.006726659640204161,0.01075834457539022
1761479793809803500,6.698803466796875,-0.14292027820348738,-0.0075644439049065105,0.01322208607411012
1761479793819839500,6.708839599609375,-0.14007774825394154,-0.006833389683999121,-0.004830635026842355
1761479793829874400,6.71887451171875,-0.13738719399571417,0.0007439319687895477,0.006450235585309565
1761479793839910400,6.728910400390625,-0.13424655788242817,0.0014227993447333573,0.009435735935810954
1761479793849946600,6.738946533203125,-0.14487258131504058,-0.004414601571857929,0.005516644529625773
1761479793859982600,6.748982666015625,-0.14531915603876114,-0.0054857927336357535,0.007657163689658045
1761479793870018600,6.7590185546875,-0.1441179635554552,-0.009215115455072373,0.0044387678987346585
1761479793880054500,6.769054443359375,-0.14636018952429294,-0.005145582727529108,0.00820792944021523
1761479793890090500,6.779090576171875,-0.14936170942783356,-0.005516827192716301,0.007828136342391372
1761479793900125400,6.78912548828125,-0.14607260475456713,-0.00959746583616361,0.0055952079248614605
1761479793910161400,6.799161376953125,-0.14726561393141746,-0.012550945346895605,0.022405637347139417
1761479793920197400,6.809197265625,-0.145765146240592,-0.0007352372056804597,0.010545268080290406
1761479793930233600,6.819233642578125,-0.15055121147334574,-0.007018573525175452,0.008793729971535503
1761479793940269600,6.82926953125,-0.14246435112953185,-0.011246274222806095,0.0140570390609093
1761479793950305500,6.839305419921875,-0.1355780987471342,-0.005927983543183654,0.0072640179199166596
1761479793960341500,6.849341552734375,-0.1396171450048685,-0.007877236181125045,0.0017961992343887687
1761479793970377500,6.85937744140625,-0.14425415715575218,-0.008252974158339203,-0.0008913410828448831
1761479793980412400,6.869412353515625,-0.14245382973551748,-0.0035126477634534236,0.0005430573681369424
1761479793990448400,6.879448486328125,-0.14874328526854513,-0.009542630376387386,0.011897851733025162
1761479794000484400,6.889484375,-0.1456032336771488,0.00008165040146559477,0.01078380781020969
1761479794010520600,6.8995205078125,-0.14485796826779843,0.0011884243332780898,0.009535981439892201
1761479794020556500,6.909556640625,-0.14186580071449278,0.0002703413739800453,0.008995390023477375
1761479794030592500,6.919592529296875,-0.1312421153694391,0.001523629370704293,0.002066723271459341
1761479794040628500,6.92962841796875,-0.1471031168460846,-0.0026619126856327053,0.0024660978525876997
1761479794050664400,6.93966455078125,-0.13782792350053785,-0.005245006247702986,0.003382756039779633
1761479794060699400,6.949699462890625,-0.1514472835302353,-0.012544789600744843,0.0060051586989313364
1761479794070735400,6.9597353515625,-0.14292144724726677,-0.00875955370729789,0.0025573928652331233
1761479794080771300,6.969771240234375,-0.1322977619022131,-0.007419025818537921,0.011567213272862135
1761479794090807600,6.9798076171875,-0.14037994607090948,-0.003997947062365711,0.001812693711463362
1761479794100843500,6.989843505859375,-0.14098375718295572,-0.004182966506760567,-0.0002670899709686637
1761479794110879500,6.99987939453125,-0.13979074800610541,-0.0019138707973062991,0.0037900764653459188
1761479794120915500,7.00991552734375,-0.15071663116812706,0.0014758081736043094,0.013954035344161092
1761479794130950400,7.019950439453125,-0.14937047725617886,-0.006929159942362457,0.008060191532596945
1761479794140986400,7.029986328125,-0.14562719907462596,-0.007002882765699178,0.002630275438353419
1761479794151022300,7.040022216796875,-0.13694821805655955,-0.003905355141777545,0.005661971284449101
1761479794161058300,7.050058349609375,-0.13709902470409868,-0.007478446121886372,0.013633699082303791
1761479794171094500,7.060094482421875,-0.136501643332839,0.003923858912847936,0.008429170975461602
1761479794181130500,7.070130615234375,-0.1353039579808712,-0.0012072386316023765,0.00980917235808447
1761479794191166500,7.08016650390625,-0.1429331376850605,0.001651347403600812,0.009647643387131392
1761479794201202400,7.090202392578125,-0.13514905968010424,-0.0037693807371892035,0.00878642344791442
1761479794211237400,7.1002373046875,-0.13978840991854666,-0.007032638583146035,0.008778075744677335
1761479794221273300,7.1102734375,-0.12886018866896629,0.0012986797747202216,0.009910787835344671
1761479794231309300,7.120309326171875,-0.14217735088169575,-0.006918291488476097,0.007776844546571374
1761479794241345300,7.13034521484375,-0.14172843807041643,-0.0005491400490514934,0.003357694663759321
1761479794251381500,7.140381591796875,-0.1432207224547863,-0.007561484762839973,0.004790211684908717
1761479794261417500,7.15041748046875,-0.13379004628658295,-0.0010812924306839704,0.009948635627701877
1761479794271453400,7.160453369140625,-0.13408639888465404,-0.009224760066252202,0.012276329656597227
1761479794281488400,7.17048828125,-0.1367810447961092,0.002104954656306654,0.005018303086049855
1761479794291524400,7.1805244140625,-0.1520434958577156,-0.009359200100880115,0.005099990020133555
1761479794301560300,7.190560302734375,-0.1360311032116413,-0.0062479727451689535,0.003892093801405281
1761479794311596300,7.20059619140625,-0.13363982416093348,-0.012515307777933776,0.002650770237110555
1761479794321632500,7.210632568359375,-0.134241297185421,0.0009465053361840546,0.0019119893674738703
1761479794331668500,7.22066845703125,-0.1441173790335655,-0.005616908300016075,0.00981963895317167
1761479794341704000,7.230703857421875,-0.13857844960689544,-0.004848700406495481,0.005483089319895953
1761479794351739000,7.24073876953125,-0.143965403342247,-0.012618877750262616,0.007111530771944672
1761479794361774800,7.25077490234375,-0.14785715008378028,-0.0035263292289339004,0.004522372795268893
1761479794371810800,7.260810791015625,-0.13304302731156348,-0.006199987151287496,0.004633212758600711
1761479794381846800,7.2708466796875,-0.1312514677196741,0.005723236485011875,0.007282229430042207
1761479794391883000,7.280883056640625,-0.1599813031196594,-0.005413732144422829,0.01287374756047502
1761479794401919000,7.2909189453125,-0.14022855490148067,-0.007064348895661533,0.0046098318830132485
1761479794411955000,7.300954833984375,-0.14531740247309208,-0.0023624000160954893,0.0025266871997155246
1761479794421991000,7.310990966796875,-0.13454466404616833,0.0018600947834551333,0.009413798098638654
1761479794432025900,7.32102587890625,-0.1378390294164419,-0.0035242651360109446,0.010282635088730603
1761479794442061800,7.331061767578125,-0.1426274327367544,-0.008741652724426239,0.009367109412699937
1761479794452097800,7.341097900390625,-0.13350655317008495,-0.007499032252188772,0.003240662421658635
1761479794462133800,7.3511337890625,-0.14413082303702832,-0.004634436601307243,0.0051766537192277605
1761479794472170000,7.361169921875,-0.14113865548372267,-0.0017269151241518556,0.002891227929480374
1761479794482206000,7.3712060546875,-0.12647709292471407,-0.002251468721218407,0.003839176304079592
1761479794492242000,7.381241943359375,-0.13725275396108627,-0.0004449672885239124,0.008851707236468791
1761479794502276900,7.39127685546875,-0.1394996561050415,-0.01209509133817628,0.014510792444087563
1761479794512312800,7.401312744140625,-0.13396423380970954,-0.008377970511186867,0.007401727623865008
1761479794522348800,7.411348876953125,-0.13396364928781984,0.0016005305318161844,0.0032482612062245605
1761479794532384800,7.421384765625,-0.149228438436985,-0.005656144331861287,0.003279971518740058
1761479794542421000,7.4314208984375,-0.15012743310332297,-0.00940992564111948,0.01277956647099927
1761479794552457000,7.44145703125,-0.14234627770781516,-0.00574656256167218,0.008972027414198964
1761479794562493000,7.451492919921875,-0.13830840049386023,-0.0002221365843899548,0.005939491317886859
1761479794572527900,7.46152783203125,-0.13965396988391876,0.002658405554294586,0.0043230873635038735
1761479794582563800,7.471563720703125,-0.13830255527496338,0.0031206527711823582,0.012177527190931141
1761479794592599800,7.481599853515625,-0.13396248024404048,-0.005377802314516156,0.008395725363586097
1761479794602635800,7.4916357421875,-0.13501052799224852,0.0033145496417768296,0.008871106056682765
1761479794612671700,7.501671630859375,-0.1356090784072876,-0.0033052155578508972,0.0027821780644357204
1761479794622708000,7.5117080078125,-0.14533493812978268,-0.0002905256454832852,0.007834639148414134
1761479794632744000,7.521743896484375,-0.14757657957673073,-0.00290909237973392,0.010770856997091323
1761479794642779000,7.53177880859375,-0.13769757511913774,0.0009774301974102854,0.0023890140283852816
1761479794652814800,7.54181494140625,-0.1394955644518137,0.0013370207574218511,0.004988492469675839
1761479794662850800,7.551850830078125,-0.14338731119334697,-0.008010141845792532,0.005574146870523691
1761479794672886800,7.56188671875,-0.14338321954011915,-0.002992642477340996,0.006938347895815968
1761479794682922800,7.5719228515625,-0.13934125067293643,-0.006713124305196106,0.009056527359876781
1761479794692958700,7.581958740234375,-0.14517887078523636,-0.011005378139019011,0.010593892994988708
1761479794702995000,7.591994873046875,-0.14577508311271667,-0.0008889481963589787,0.0027643501468002795
1761479794713031000,7.602031005859375,-0.14173369876742362,-0.0033588819738477466,0.0026382578154094515
1761479794723065900,7.61206591796875,-0.14607202023267746,-0.008499660662095994,0.0038311391280964014
1761479794733101800,7.622101806640625,-0.13919570472240447,-0.009520911734923719,0.009247848680894821
1761479794743137800,7.6321376953125,-0.14952186842560766,-0.005370970714930445,0.005885879700817167
1761479794753173800,7.642173828125,-0.1541559579670429,0.0018468517093919216,0.004875551880802959
1761479794763209700,7.652209716796875,-0.14352876549065113,0.002141962198447436,0.004575600819848477
1761479794773245700,7.66224560546875,-0.14038754485547542,-0.007639993359148502,0.006042202773690223
1761479794783282000,7.672281982421875,-0.1378437055915594,-0.006389828901272267,0.0032745281586423515
1761479794793316900,7.68231689453125,-0.1364969671577215,-0.007139660887885839,0.0032773046376183626
1761479794803352800,7.692352783203125,-0.14398001638948915,-0.00355292497491464,0.001538717341981828
1761479794813388800,7.702388916015625,-0.1405447812438011,0.0022819003921002146,-0.00022431027516722679
1761479794823424800,7.7124248046875,-0.15102116707265376,-0.0057262869586236775,0.0036941052775830026
1761479794833460700,7.722460693359375,-0.14772797074615954,-0.005172342870291322,0.008472060269117355
1761479794843496700,7.73249658203125,-0.1432382581114769,-0.013656586767546832,0.010808522126358001
1761479794853532700,7.74253271484375,-0.14727905793488025,-0.007304422995541245,0.007296933808829635
1761479794863568000,7.75256787109375,-0.14099544762074948,-0.0037612156970426437,0.00336828912300989
1761479794873603800,7.762603759765625,-0.14294541264474392,0.00011938859596848487,0.01031867451649159
1761479794883639800,7.772639892578125,-0.15042904639840124,0.00017630641497671604,0.008382116963341832
1761479794893675800,7.78267578125,-0.13202537470161915,0.0007963014768436551,0.008751132938824593
1761479794903711700,7.792711669921875,-0.1345709675312042,-0.007799184242542833,0.006378412458114326
1761479794913747700,7.802747802734375,-0.14414660512804983,-0.014710826794523745,0.005434975861851126
1761479794923783700,7.81278369140625,-0.1429495042979717,-0.008658248757291584,0.0007598236576654017
1761479794933819000,7.82281884765625,-0.1450455997943878,-0.0038426469027996062,0.016789952889829873
1761479794943854800,7.832854736328125,-0.14878653988838195,-0.008102587635908275,0.00564489228548482
1761479794953890800,7.842890869140625,-0.1432505330711603,-0.0090563264304772,0.00649780105408281
1761479794963926800,7.8529267578125,-0.14489479314684867,-0.004094265310000628,0.0014397504795342683
1761479794973962800,7.862962646484375,-0.1375555362999439,-0.009058427056018262,0.0061804422006011
1761479794983998700,7.872998779296875,-0.14563830499053002,-0.0055442449226044115,0.005952515196241438
1761479794994034700,7.88303466796875,-0.1487842018008232,-0.001910272334422916,0.0007008052131161094
1761479795004070000,7.89306982421875,-0.14040800312161444,0.0004019318643957376,0.0011035042624920606
1761479795014105900,7.90310595703125,-0.14055939429104328,0.004054992745537311,-0.0030775442818179724
1761479795024141800,7.913141845703125,-0.1389116270840168,-0.01059086078768596,0.002978321691043675
1761479795034177800,7.923177734375,-0.13337678931057453,-0.0034713111060671507,0.0071780749358236785
1761479795044213800,7.9332138671875,-0.14190730176866054,-0.001443440273962915,0.006243387901596725
1761479795054249700,7.943249755859375,-0.1399614283978939,-0.006563048310019076,0.006536525629274547
1761479795064285700,7.95328564453125,-0.1453466285675764,-0.009313424730394036,0.00920490458831191
1761479795074321000,7.96332080078125,-0.14759294618964194,-0.010571571565326303,0.006668700641579926
1761479795084356900,7.97335693359375,-0.1419043791592121,0.003823467278294265,0.0016037819348275661
1761479795094392800,7.983392822265625,-0.13891221160590647,-0.0014621084418147802,0.0001816219109110534
1761479795104428800,7.9934287109375,-0.14460311672389506,-0.0032501061034388838,0.005616890033707023
1761479795114464800,8.00346484375,-0.13816753071844576,-0.012928053297288715,0.0056458056009374554
1761479795124499700,8.013499755859375,-0.14549977330267427,-0.00041000557299703357,0.008405972762964665
1761479795134535700,8.02353564453125,-0.14804478161036969,-0.007248327160440385,0.0063370210018008945
1761479795144572000,8.033572021484375,-0.14625146845281123,-0.005298453467991203,0.010490925810858606
1761479795154607900,8.04360791015625,-0.1411672970563173,-0.0021226912423968312,0.006884718012437224
1761479795164643800,8.053643798828125,-0.14280863452255724,-0.00544250158118084,0.004740088932868093
1761479795174679800,8.0636796875,-0.1279921736627817,-0.01477782761612907,0.005567114341538399
1761479795184714800,8.07371484375,-0.15118658676743507,-0.0035551169320009648,0.014417999594099819
1761479795194750700,8.083750732421874,-0.1365238551646471,-0.004590378263872117,0.0153980966726318
1761479795204786700,8.09378662109375,-0.1336778180837631,-0.00239312394792214,0.00707392044160515
1761479795214822700,8.10382275390625,-0.1363707104295492,-0.0016333733554929493,0.010909224288165568
1761479795224859000,8.11385888671875,-0.14564882638454438,-0.00623829160137102,0.00447131846146658
1761479795234894800,8.123894775390625,-0.14415595747828483,-0.0005097213541157544,0.005373254003562033
1761479795244930800,8.133930908203125,-0.13592822735905646,-0.0014797354300506412,0.0041944194825366135
1761479795254965800,8.1439658203125,-0.13413082254827022,-0.0037455249375663697,0.0020372779812663794
1761479795265001700,8.154001708984374,-0.14251345096826554,-0.00841998302200809,0.005206592199765146
1761479795275037700,8.16403759765625,-0.14250994383692742,0.0006587013707496226,0.010174827332701534
1761479795285073700,8.17407373046875,-0.14355448445379734,-0.0064704015905037516,0.007558014164119958
1761479795295109600,8.184109619140624,-0.14489946932196615,-0.00543028142042458,0.005844524777121842
1761479795305145900,8.194145751953124,-0.1447498317182064,0.005246595416590571,0.012359295232314617
1761479795315182000,8.20418212890625,-0.14130641326606272,0.005391757774632424,0.004339380911178887
1761479795325216800,8.214216796875,-0.14669862769842146,-0.005605272661149501,0.0034837869951501485
1761479795335252700,8.224252685546874,-0.14923954435288905,-0.013982622117828577,0.006329312619380653
1761479795345289200,8.234289306640624,-0.14474866267442701,-0.003979881682712585,0.008207308385707438
1761479795355325200,8.2443251953125,-0.14489654671251773,0.00048434945084154603,0.005595299256406724
1761479795365361200,8.254361083984374,-0.1422059924542904,0.0011231222784146666,0.008696808935701846
1761479795375397000,8.264397216796874,-0.13981412888169287,0.003601513356994837,0.009752418935857713
1761479795385433000,8.27443310546875,-0.14175883320868016,-0.010937610132433473,0.010661058213375508
1761479795395468300,8.28446826171875,-0.1371200674921274,-0.0034362215263769027,0.01513771043708548
1761479795405504300,8.294504150390624,-0.14445172555446623,0.001477086815237999,0.00404385029701516
1761479795415540200,8.304540283203124,-0.13771569529771804,-0.005278871984686702,0.0062052295819856225
1761479795425576200,8.314576171875,-0.1422059924542904,-0.0032019013138487934,0.011950257773697376
1761479795435612200,8.324612060546874,-0.13981412888169287,0.0011445303926244377,0.012082615449093281
1761479795445648100,8.334648193359374,-0.14370996727645396,-0.006875530058983713,0.009124240567535162
1761479795455684000,8.34468408203125,-0.13862053518295286,-0.00703618224710226,0.006044467796012759
1761479795465719300,8.35471923828125,-0.14116495896875858,-0.006404259285423904,0.011598667857050896
1761479795475755300,8.36475537109375,-0.1407148771136999,-0.00942464828621596,0.016025690519064665
1761479795485791200,8.374791259765624,-0.14535422735214232,-0.002776351111847907,0.006128620681818574
1761479795495827200,8.3848271484375,-0.14939678074121474,-0.001742898144572973,0.009548822655156254
1761479795505863200,8.39486328125,-0.1425152045339346,-0.0008154080361127853,0.014244341793935746
1761479795515899100,8.404899169921874,-0.13936989224553106,-0.0030590222444385287,0.0040767113870009775
1761479795525935000,8.41493505859375,-0.1380219847679138,0.0015672310504131017,0.006568235941790044
1761479795535970300,8.42497021484375,-0.14161387178003787,-0.0011275609915144741,0.009157083391211926
1761479795546006300,8.43500634765625,-0.13996785813868046,-0.005446355772390961,0.0032659977923147378
1761479795556042200,8.445042236328124,-0.13443360488712786,0.00012556260842829943,0.011599800368212163
1761479795566078200,8.455078125,-0.14041677094995975,-0.0037679376987740393,0.004431589239276945
1761479795576114200,8.4651142578125,-0.13068915766179562,-0.005527056325785816,0.007613762939348816
1761479795586150100,8.475150146484374,-0.12934241922795772,-0.0006051993515342474,0.0015228804520331322
1761479795596186000,8.48518603515625,-0.13906710990667343,-0.004831913668476045,0.0008605988847091794
1761479795606221300,8.49522119140625,-0.1435556534975767,-0.006616495530307293,0.004995287536643445
1761479795616257300,8.50525732421875,-0.13757190291285515,-0.007583550464175641,0.005163410645164549
1761479795626293200,8.515293212890626,-0.14041501738429069,0.0008902451043017208,0.0024821904708631336
1761479795636329200,8.5253291015625,-0.13667232372462748,0.0021422361930832265,0.006372859500162303
1761479795646365200,8.535365234375,-0.1410153213649988,-0.0032428543787449597,0.008326605650130658
1761479795656401200,8.545401123046876,-0.1327887602895498,-0.011614815274253487,0.009669745621085166
1761479795666437000,8.55543701171875,-0.14131927274763584,-0.004018752388376743,0.011563304282724857
1761479795676472000,8.56547216796875,-0.1441618026971817,-0.0011454985070042311,0.0050424876792356365
1761479795686508300,8.57550830078125,-0.15375439142882824,0.012692381377890706,0.00005050634453073144
1761479795696545000,8.585544921875,-0.29336627573668955,0.015223434225469826,0.0021311850761063394
1761479795706581000,8.5955810546875,-0.004572130221128463,-0.0428809642188251,0.04195953852497041
1761479795716617200,8.6056171875,-0.08641805425882339,0.010787223610002547,-0.0548388207770884
1761479795726653200,8.615653076171874,-0.14327157585918904,0.014980875907558948,0.010705043485574424
1761479795736689200,8.625689208984374,-0.1386287184894085,0.005668401025235653,0.08218635323951021
1761479795746724000,8.63572412109375,-0.12859890738427637,-0.051370304416306314,-0.01302340343054384
1761479795756760000,8.645760009765626,-0.1731926668703556,0.034023722290713335,-0.029043102600239217
