time,seconds_elapsed,z,y,x
1761479787179852000,0.06885205078125,-1.013702392578125,-0.02215576171875,-0.0153350830078125
1761479787189888000,0.078887939453125,-1.0136260986328125,-0.023345947265625,-0.020263671875
1761479787199923000,0.0889228515625,-1.0128021240234375,-0.0257720947265625,-0.018951416015625
1761479787209959000,0.098958984375,-1.0140838623046875,-0.0177459716796875,-0.0134429931640625
1761479787219995100,0.1089951171875,-1.014495849609375,-0.0210723876953125,-0.0190887451171875
1761479787230031000,0.119031005859375,-1.014923095703125,-0.02325439453125,-0.0199737548828125
1761479787240067000,0.129067138671875,-1.013946533203125,-0.02557373046875,-0.0146942138671875
1761479787250103000,0.13910302734375,-1.0134124755859375,-0.0188140869140625,-0.01629638671875
1761479787260139000,0.149138916015625,-1.0126953125,-0.0200042724609375,-0.021728515625
1761479787270174000,0.159174072265625,-1.013397216796875,-0.0238037109375,-0.016510009765625
1761479787280210000,0.1692099609375,-1.0140533447265625,-0.0251007080078125,-0.01300048828125
1761479787290246000,0.179245849609375,-1.0139923095703125,-0.0196685791015625,-0.0203857421875
1761479787300282000,0.1892822265625,-1.0137939453125,-0.0187225341796875,-0.021087646484375
1761479787310318000,0.199318115234375,-1.0126800537109375,-0.0248260498046875,-0.0147552490234375
1761479787320354000,0.20935400390625,-1.0140228271484375,-0.0242156982421875,-0.0155792236328125
1761479787330390000,0.21939013671875,-1.0134735107421875,-0.019805908203125,-0.0223846435546875
1761479787340426000,0.229426025390625,-1.0130462646484375,-0.01953125,-0.017059326171875
1761479787350461000,0.2394609375,-1.0133209228515625,-0.0242767333984375,-0.0143280029296875
1761479787360497000,0.249496826171875,-1.01287841796875,-0.023590087890625,-0.018585205078125
1761479787370532900,0.259532958984375,-1.0137176513671875,-0.020599365234375,-0.0203094482421875
1761479787380569000,0.269569091796875,-1.01422119140625,-0.019622802734375,-0.015350341796875
1761479787390605000,0.27960498046875,-1.015289306640625,-0.0243682861328125,-0.01763916015625
1761479787400641000,0.28964111328125,-1.014556884765625,-0.0225372314453125,-0.019775390625
1761479787410677000,0.299677001953125,-1.0133514404296875,-0.020538330078125,-0.01715087890625
1761479787420712000,0.3097119140625,-1.014068603515625,-0.0188751220703125,-0.0160980224609375
1761479787430748000,0.319747802734375,-1.0134124755859375,-0.023681640625,-0.0190887451171875
1761479787440784000,0.329783935546875,-1.014617919921875,-0.0228271484375,-0.017181396484375
1761479787450820000,0.339820068359375,-1.014373779296875,-0.0224761962890625,-0.01556396484375
1761479787460856000,0.34985595703125,-1.013153076171875,-0.0201873779296875,-0.019195556640625
1761479787470892000,0.35989208984375,-1.01348876953125,-0.02362060546875,-0.01885986328125
1761479787480928000,0.369927978515625,-1.0127410888671875,-0.024078369140625,-0.015228271484375
1761479787490963000,0.379962890625,-1.01275634765625,-0.02105712890625,-0.0176849365234375
1761479787500999000,0.3899990234375,-1.0134429931640625,-0.019287109375,-0.020477294921875
1761479787511035000,0.400034912109375,-1.01385498046875,-0.023101806640625,-0.0166015625
1761479787521070800,0.41007080078125,-1.0136566162109375,-0.024688720703125,-0.015380859375
1761479787531107000,0.420107177734375,-1.0127105712890625,-0.020355224609375,-0.01947021484375
1761479787541143000,0.43014306640625,-1.012664794921875,-0.0198211669921875,-0.018798828125
1761479787551179000,0.440178955078125,-1.013458251953125,-0.0233917236328125,-0.0153961181640625
1761479787561214000,0.4502138671875,-1.0129547119140625,-0.024444580078125,-0.017303466796875
1761479787571250000,0.46025,-1.0131988525390625,-0.021240234375,-0.0202484130859375
1761479787581286000,0.470285888671875,-1.01348876953125,-0.0203399658203125,-0.01702880859375
1761479787591321900,0.48032177734375,-1.01300048828125,-0.0233917236328125,-0.0157318115234375
1761479787601357800,0.49035791015625,-1.0139617919921875,-0.0243988037109375,-0.0189666748046875
1761479787611394000,0.50039404296875,-1.0133209228515625,-0.0212554931640625,-0.01806640625
1761479787621430000,0.510429931640625,-1.0130462646484375,-0.0211944580078125,-0.0164337158203125
1761479787631466000,0.520466064453125,-1.0130462646484375,-0.0219268798828125,-0.0174713134765625
1761479787641501000,0.5305009765625,-1.0120086669921875,-0.02386474609375,-0.018707275390625
1761479787651537000,0.540536865234375,-1.013397216796875,-0.0213470458984375,-0.015411376953125
1761479787661572900,0.55057275390625,-1.0140838623046875,-0.021087646484375,-0.01708984375
1761479787671608800,0.56060888671875,-1.0126953125,-0.022216796875,-0.01885986328125
1761479787681644800,0.570644775390625,-1.012908935546875,-0.0240020751953125,-0.01702880859375
1761479787691681000,0.580680908203125,-1.0134124755859375,-0.0216522216796875,-0.01629638671875
1761479787701717000,0.590717041015625,-1.0129852294921875,-0.0213623046875,-0.0189208984375
1761479787711752000,0.600751953125,-1.0131072998046875,-0.022064208984375,-0.01788330078125
1761479787721788000,0.610787841796875,-1.0128326416015625,-0.023345947265625,-0.016845703125
1761479787731823900,0.620823974609375,-1.0133209228515625,-0.020904541015625,-0.0166778564453125
1761479787741859800,0.63085986328125,-1.0129547119140625,-0.0208740234375,-0.019134521484375
1761479787751895800,0.640895751953125,-1.0128021240234375,-0.02288818359375,-0.0171661376953125
1761479787761931800,0.650931884765625,-1.0126495361328125,-0.0238189697265625,-0.0165863037109375
1761479787771968000,0.660968017578125,-1.012481689453125,-0.0216522216796875,-0.0186767578125
1761479787782004000,0.67100390625,-1.0132904052734375,-0.02020263671875,-0.0186920166015625
1761479787792039000,0.681038818359375,-1.01251220703125,-0.022491455078125,-0.0167694091796875
1761479787802075000,0.691074951171875,-1.013336181640625,-0.023101806640625,-0.017791748046875
1761479787812110800,0.70111083984375,-1.0124359130859375,-0.022430419921875,-0.019439697265625
1761479787822146800,0.711146728515625,-1.01416015625,-0.021759033203125,-0.01708984375
1761479787832182800,0.721182861328125,-1.014068603515625,-0.023101806640625,-0.016021728515625
1761479787842218800,0.73121875,-1.01220703125,-0.0226593017578125,-0.0179901123046875
1761479787852255000,0.7412548828125,-1.011962890625,-0.0218353271484375,-0.0177154541015625
1761479787862291000,0.751291015625,-1.0128936767578125,-0.0200042724609375,-0.016082763671875
1761479787872326000,0.761325927734375,-1.01336669921875,-0.022216796875,-0.0180206298828125
1761479787882361900,0.77136181640625,-1.013885498046875,-0.0226898193359375,-0.017242431640625
1761479787892397800,0.781397705078125,-1.01348876953125,-0.0218048095703125,-0.0166473388671875
1761479787902433800,0.791433837890625,-1.0138397216796875,-0.021728515625,-0.0170440673828125
1761479787912469800,0.8014697265625,-1.01324462890625,-0.0221710205078125,-0.018768310546875
1761479787922506000,0.811506103515625,-1.012359619140625,-0.0229339599609375,-0.0174560546875
1761479787932542200,0.821542236328125,-1.012176513671875,-0.0220489501953125,-0.01617431640625
1761479787942577000,0.831576904296875,-1.013946533203125,-0.0216064453125,-0.01861572265625
1761479787952612900,0.84161279296875,-1.012847900390625,-0.022430419921875,-0.01763916015625
1761479787962648800,0.85164892578125,-1.01300048828125,-0.023040771484375,-0.0169830322265625
1761479787972684800,0.861684814453125,-1.0125885009765625,-0.022186279296875,-0.017913818359375
1761479787982721000,0.871720947265625,-1.0128173828125,-0.0209808349609375,-0.01904296875
1761479787992757000,0.881757080078125,-1.0125885009765625,-0.022064208984375,-0.0182647705078125
1761479788002793000,0.89179296875,-1.012786865234375,-0.02325439453125,-0.0167999267578125
1761479788012829200,0.9018291015625,-1.011566162109375,-0.0217437744140625,-0.018585205078125
1761479788022864000,0.91186376953125,-1.0131988525390625,-0.021759033203125,-0.017730712890625
1761479788032900000,0.921900146484375,-1.0132598876953125,-0.02276611328125,-0.0163116455078125
1761479788042936000,0.93193603515625,-1.0125579833984375,-0.02337646484375,-0.017425537109375
1761479788052972000,0.941971923828125,-1.0133819580078125,-0.0214996337890625,-0.01776123046875
1761479788063008000,0.952008056640625,-1.0128326416015625,-0.0209197998046875,-0.017486572265625
1761479788073044000,0.9620439453125,-1.012451171875,-0.0209808349609375,-0.0173187255859375
1761479788083080000,0.972079833984375,-1.0137939453125,-0.02239990234375,-0.0181427001953125
1761479788093116200,0.9821162109375,-1.0137176513671875,-0.0230865478515625,-0.017669677734375
1761479788103151000,0.992151123046875,-1.012939453125,-0.0221405029296875,-0.016815185546875
1761479788113187000,1.00218701171875,-1.0133819580078125,-0.0214385986328125,-0.017852783203125
1761479788123223000,1.01222314453125,-1.0130462646484375,-0.0230560302734375,-0.01708984375
1761479788133259000,1.022259033203125,-1.012542724609375,-0.0220489501953125,-0.01666259765625
1761479788143295000,1.032294921875,-1.01312255859375,-0.0219879150390625,-0.0178375244140625
1761479788153331000,1.0423310546875,-1.01348876953125,-0.0216217041015625,-0.0181732177734375
1761479788163367000,1.052366943359375,-1.0126190185546875,-0.0225982666015625,-0.017059326171875
1761479788173403100,1.062403076171875,-1.0127410888671875,-0.022064208984375,-0.0175323486328125
1761479788183438000,1.07243798828125,-1.012054443359375,-0.0214691162109375,-0.0181121826171875
1761479788193474000,1.08247412109375,-1.01239013671875,-0.0228729248046875,-0.0174713134765625
1761479788203510000,1.092510009765625,-1.01324462890625,-0.023162841796875,-0.016845703125
1761479788213546000,1.1025458984375,-1.0130767822265625,-0.0221710205078125,-0.0175323486328125
1761479788223582000,1.11258203125,-1.0142974853515625,-0.0218658447265625,-0.0182037353515625
1761479788233618000,1.122617919921875,-1.01312255859375,-0.02166748046875,-0.0174102783203125
1761479788243654000,1.13265380859375,-1.012481689453125,-0.022918701171875,-0.0169677734375
1761479788253690000,1.142690185546875,-1.0139312744140625,-0.0219268798828125,-0.0177154541015625
1761479788263725000,1.15272509765625,-1.0131988525390625,-0.0212249755859375,-0.0177154541015625
1761479788273761000,1.162760986328125,-1.0133819580078125,-0.0225067138671875,-0.0169525146484375
1761479788283797000,1.172796875,-1.012786865234375,-0.022979736328125,-0.0181884765625
1761479788293833000,1.1828330078125,-1.0126953125,-0.0211639404296875,-0.0177764892578125
1761479788303869000,1.192868896484375,-1.0126953125,-0.021453857421875,-0.0167694091796875
1761479788313905000,1.20290478515625,-1.0135955810546875,-0.021392822265625,-0.017303466796875
1761479788323941000,1.212941162109375,-1.0135040283203125,-0.02239990234375,-0.0177459716796875
1761479788333976300,1.222976318359375,-1.013153076171875,-0.021881103515625,-0.01739501953125
1761479788344012300,1.23301220703125,-1.012847900390625,-0.0221099853515625,-0.0170745849609375
1761479788354047200,1.243047119140625,-1.0134124755859375,-0.0218963623046875,-0.0176239013671875
1761479788364083200,1.253083251953125,-1.0131988525390625,-0.0230560302734375,-0.016632080078125
1761479788374119200,1.263119140625,-1.01324462890625,-0.0217132568359375,-0.01727294921875
1761479788384155400,1.2731552734375,-1.0140228271484375,-0.0216217041015625,-0.0186920166015625
1761479788394191400,1.28319140625,-1.01348876953125,-0.022613525390625,-0.0176239013671875
1761479788404227300,1.293227294921875,-1.014251708984375,-0.02337646484375,-0.0165252685546875
1761479788414263300,1.30326318359375,-1.0143280029296875,-0.0227508544921875,-0.0174407958984375
1761479788424299300,1.31329931640625,-1.012908935546875,-0.021514892578125,-0.0175628662109375
1761479788434334200,1.323334228515625,-1.0125885009765625,-0.0218505859375,-0.01763916015625
1761479788444370200,1.3333701171875,-1.0136871337890625,-0.0229034423828125,-0.017364501953125
1761479788454406100,1.34340625,-1.013946533203125,-0.0225067138671875,-0.01776123046875
1761479788464442400,1.3534423828125,-1.013275146484375,-0.021942138671875,-0.017669677734375
1761479788474478300,1.363478271484375,-1.0132598876953125,-0.02239990234375,-0.0169219970703125
1761479788484514300,1.373514404296875,-1.0126800537109375,-0.022735595703125,-0.01708984375
1761479788494550300,1.38355029296875,-1.013519287109375,-0.021820068359375,-0.0174102783203125
1761479788504586200,1.393586181640625,-1.0134735107421875,-0.0207061767578125,-0.016937255859375
1761479788514622200,1.403622314453125,-1.01373291015625,-0.0220184326171875,-0.0173187255859375
1761479788524657200,1.4136572265625,-1.01373291015625,-0.0219879150390625,-0.018310546875
1761479788534693000,1.423693115234375,-1.011810302734375,-0.0226593017578125,-0.017974853515625
1761479788544729300,1.433729248046875,-1.012939453125,-0.0228271484375,-0.0172576904296875
1761479788554765300,1.443765380859375,-1.013092041015625,-0.0214691162109375,-0.0170135498046875
1761479788564801300,1.45380126953125,-1.0123443603515625,-0.02252197265625,-0.0174407958984375
1761479788574837200,1.463837158203125,-1.011749267578125,-0.0226593017578125,-0.0173187255859375
1761479788584873200,1.473873291015625,-1.0130462646484375,-0.0219879150390625,-0.0179290771484375
1761479788594909200,1.4839091796875,-1.0133819580078125,-0.0218353271484375,-0.0179290771484375
1761479788604944100,1.493944091796875,-1.01336669921875,-0.02239990234375,-0.0171356201171875
1761479788614980000,1.50397998046875,-1.0127716064453125,-0.0221099853515625,-0.0174407958984375
1761479788625016300,1.514016357421875,-1.0139007568359375,-0.022308349609375,-0.017578125
1761479788635052300,1.52405224609375,-1.014007568359375,-0.022735595703125,-0.0172119140625
1761479788645088300,1.534088134765625,-1.0131072998046875,-0.0223846435546875,-0.016204833984375
1761479788655124200,1.544124267578125,-1.0135650634765625,-0.022308349609375,-0.0179443359375
1761479788665160200,1.55416015625,-1.01361083984375,-0.021026611328125,-0.018218994140625
1761479788675196200,1.564196044921875,-1.0134735107421875,-0.021636962890625,-0.017364501953125
1761479788685232000,1.574232177734375,-1.0135498046875,-0.02191162109375,-0.01708984375
1761479788695267300,1.584267333984375,-1.0132598876953125,-0.0217437744140625,-0.0180816650390625
1761479788705303300,1.59430322265625,-1.013641357421875,-0.022125244140625,-0.01800537109375
1761479788715339300,1.60433935546875,-1.0139312744140625,-0.021759033203125,-0.01708984375
1761479788725375200,1.614375244140625,-1.014129638671875,-0.0221710205078125,-0.017486572265625
1761479788735411200,1.6244111328125,-1.0138397216796875,-0.0219573974609375,-0.0171661376953125
1761479788745447200,1.634447265625,-1.0138092041015625,-0.0218963623046875,-0.0174102783203125
1761479788755483100,1.644483154296875,-1.0131988525390625,-0.0218353271484375,-0.01824951171875
1761479788765519400,1.654519287109375,-1.013427734375,-0.0222015380859375,-0.017578125
1761479788775555300,1.664555419921875,-1.014251708984375,-0.0226593017578125,-0.01708984375
1761479788785590300,1.67459033203125,-1.0139007568359375,-0.0222015380859375,-0.0175018310546875
1761479788795626200,1.684626220703125,-1.0133209228515625,-0.022216796875,-0.017608642578125
1761479788805662200,1.694662109375,-1.0139312744140625,-0.022430419921875,-0.0175323486328125
1761479788815698400,1.704698486328125,-1.0138092041015625,-0.0233306884765625,-0.0171356201171875
1761479788825734400,1.714734375,-1.013458251953125,-0.0223388671875,-0.0170135498046875
1761479788835770400,1.724770263671875,-1.014190673828125,-0.021820068359375,-0.0174560546875
1761479788845806300,1.734806396484375,-1.014312744140625,-0.0217742919921875,-0.017913818359375
1761479788855842300,1.74484228515625,-1.013427734375,-0.02154541015625,-0.0173187255859375
1761479788865878300,1.754878173828125,-1.0130157470703125,-0.0225067138671875,-0.017547607421875
1761479788875913500,1.76491357421875,-1.012939453125,-0.022247314453125,-0.0175933837890625
1761479788885949400,1.774949462890625,-1.01446533203125,-0.022247314453125,-0.0172576904296875
1761479788895985400,1.7849853515625,-1.0140838623046875,-0.0218963623046875,-0.017547607421875
1761479788906021400,1.795021484375,-1.013580322265625,-0.0214385986328125,-0.0177459716796875
1761479788916057300,1.805057373046875,-1.0132598876953125,-0.0224456787109375,-0.0173797607421875
1761479788926093300,1.81509326171875,-1.0134735107421875,-0.0218963623046875,-0.01739501953125
1761479788936129300,1.82512939453125,-1.012939453125,-0.0221099853515625,-0.0171356201171875
1761479788946165200,1.835165283203125,-1.013092041015625,-0.0222015380859375,-0.0182647705078125
1761479788956201200,1.845201171875,-1.0127716064453125,-0.0221405029296875,-0.017578125
1761479788966236400,1.855236328125,-1.0131683349609375,-0.022552490234375,-0.017822265625
1761479788976272400,1.8652724609375,-1.0125579833984375,-0.0229644775390625,-0.017364501953125
1761479788986308400,1.875308349609375,-1.0129241943359375,-0.0222015380859375,-0.0169830322265625
1761479788996344300,1.88534423828125,-1.013580322265625,-0.0216217041015625,-0.0179290771484375
1761479789006380300,1.89538037109375,-1.0130157470703125,-0.022247314453125,-0.0171356201171875
1761479789016416300,1.905416259765625,-1.0128631591796875,-0.0211944580078125,-0.0176849365234375
1761479789026452200,1.9154521484375,-1.0142822265625,-0.021728515625,-0.0172882080078125
1761479789036488200,1.92548828125,-1.0131988525390625,-0.02215576171875,-0.0173797607421875
1761479789046523400,1.9355234375,-1.0140838623046875,-0.0221099853515625,-0.0178985595703125
1761479789056559400,1.945559326171875,-1.0131683349609375,-0.022125244140625,-0.01763916015625
1761479789066595300,1.95559521484375,-1.013702392578125,-0.02203369140625,-0.0173187255859375
1761479789076631300,1.96563134765625,-1.01263427734375,-0.0225372314453125,-0.0178985595703125
1761479789086667300,1.975667236328125,-1.0141143798828125,-0.022186279296875,-0.0171966552734375
1761479789096703200,1.985703125,-1.014373779296875,-0.0225982666015625,-0.0176239013671875
1761479789106739200,1.9957392578125,-1.0142669677734375,-0.0218353271484375,-0.0177154541015625
1761479789116775200,2.005775146484375,-1.0136260986328125,-0.0227203369140625,-0.0182342529296875
1761479789126811400,2.015811279296875,-1.0141448974609375,-0.023040771484375,-0.0173797607421875
1761479789136846300,2.025846435546875,-1.013580322265625,-0.0224151611328125,-0.0176239013671875
1761479789146882300,2.03588232421875,-1.013916015625,-0.0225067138671875,-0.017059326171875
1761479789156918300,2.045918212890625,-1.0146484375,-0.0222015380859375,-0.0169219970703125
1761479789166954200,2.055954345703125,-1.014617919921875,-0.0224761962890625,-0.0172576904296875
1761479789176990200,2.065990234375,-1.0136260986328125,-0.022613525390625,-0.0172576904296875
1761479789187026200,2.076026123046875,-1.01422119140625,-0.0210723876953125,-0.0176544189453125
1761479789197062100,2.086062255859375,-1.014007568359375,-0.02215576171875,-0.017120361328125
1761479789207098400,2.096098388671875,-1.0131683349609375,-0.0225830078125,-0.017059326171875
1761479789217134300,2.10613427734375,-1.0139312744140625,-0.0220794677734375,-0.0177459716796875
1761479789227169300,2.116169189453125,-1.0132293701171875,-0.021728515625,-0.0179595947265625
1761479789237205200,2.126205322265625,-1.0125732421875,-0.02252197265625,-0.0175933837890625
1761479789247241200,2.1362412109375,-1.01483154296875,-0.022552490234375,-0.016754150390625
1761479789257277200,2.146277099609375,-1.0130157470703125,-0.0220184326171875,-0.0175628662109375
1761479789267313200,2.156313232421875,-1.013641357421875,-0.0213623046875,-0.0187530517578125
1761479789277349000,2.16634912109375,-1.0137481689453125,-0.021728515625,-0.0178985595703125
1761479789287385300,2.17638525390625,-1.0138092041015625,-0.0215301513671875,-0.017364501953125
1761479789297421300,2.18642138671875,-1.0135040283203125,-0.02239990234375,-0.0174713134765625
1761479789307457300,2.196457275390625,-1.0150146484375,-0.0227813720703125,-0.017364501953125
1761479789317492200,2.2064921875,-1.013702392578125,-0.02178955078125,-0.0171966552734375
1761479789327528200,2.216528076171875,-1.0135345458984375,-0.0221099853515625,-0.017852783203125
1761479789337565700,2.226565673828125,-1.0147247314453125,-0.02166748046875,-0.0184326171875
1761479789347601700,2.2366015625,-1.0138702392578125,-0.022308349609375,-0.017822265625
1761479789357637600,2.2466376953125,-1.0137786865234375,-0.0221710205078125,-0.0175323486328125
1761479789367673600,2.256673583984375,-1.014434814453125,-0.0223541259765625,-0.01708984375
1761479789377709600,2.26670947265625,-1.0145721435546875,-0.022125244140625,-0.0178985595703125
1761479789387745500,2.27674560546875,-1.01348876953125,-0.022705078125,-0.0185394287109375
1761479789397781500,2.286781494140625,-1.014373779296875,-0.0216064453125,-0.0176239013671875
1761479789407816700,2.296816650390625,-1.013214111328125,-0.022552490234375,-0.0172882080078125
1761479789417852700,2.306852783203125,-1.0130767822265625,-0.02197265625,-0.0175933837890625
1761479789427888600,2.316888671875,-1.0137786865234375,-0.0220794677734375,-0.01824951171875
1761479789437924600,2.326924560546875,-1.0147857666015625,-0.02099609375,-0.017120361328125
1761479789447960600,2.336960693359375,-1.0140228271484375,-0.022308349609375,-0.01776123046875
1761479789457996500,2.34699658203125,-1.0149383544921875,-0.0219879150390625,-0.0171356201171875
1761479789468032500,2.357032470703125,-1.01458740234375,-0.022064208984375,-0.017608642578125
1761479789478068500,2.367068359375,-1.013946533203125,-0.022796630859375,-0.017852783203125
1761479789488104700,2.377104736328125,-1.01373291015625,-0.022308349609375,-0.0171356201171875
1761479789498139600,2.3871396484375,-1.0131683349609375,-0.022430419921875,-0.017333984375
1761479789508175600,2.397175537109375,-1.014678955078125,-0.022430419921875,-0.0171356201171875
1761479789518211600,2.407211669921875,-1.014984130859375,-0.0220947265625,-0.0177154541015625
1761479789528247600,2.41724755859375,-1.01318359375,-0.02215576171875,-0.01727294921875
1761479789538283500,2.427283447265625,-1.0143280029296875,-0.021453857421875,-0.016998291015625
1761479789548319500,2.437319580078125,-1.0153045654296875,-0.0213165283203125,-0.0177154541015625
1761479789558355500,2.44735546875,-1.0142059326171875,-0.0221405029296875,-0.0184326171875
1761479789568391700,2.4573916015625,-1.0133209228515625,-0.0222625732421875,-0.01739501953125
1761479789578426600,2.467426513671875,-1.01361083984375,-0.02197265625,-0.0171356201171875
1761479789588462600,2.477462646484375,-1.013763427734375,-0.021453857421875,-0.0177764892578125
1761479789598498600,2.48749853515625,-1.01422119140625,-0.0211334228515625,-0.017578125
1761479789608534500,2.497534423828125,-1.01263427734375,-0.0210418701171875,-0.01824951171875
1761479789618570500,2.507570556640625,-1.0135345458984375,-0.02264404296875,-0.0181732177734375
1761479789628606500,2.5176064453125,-1.013824462890625,-0.0218963623046875,-0.01739501953125
1761479789638642400,2.527642333984375,-1.013031005859375,-0.022247314453125,-0.016387939453125
1761479789648678700,2.5376787109375,-1.0139923095703125,-0.0218048095703125,-0.017425537109375
1761479789658714600,2.547714599609375,-1.0142974853515625,-0.0217742919921875,-0.017578125
1761479789668750600,2.55775048828125,-1.0140380859375,-0.0215606689453125,-0.0170745849609375
1761479789678785500,2.56778564453125,-1.014312744140625,-0.0216827392578125,-0.017364501953125
1761479789688821500,2.577821533203125,-1.014617919921875,-0.02203369140625,-0.01788330078125
1761479789698857500,2.587857421875,-1.013885498046875,-0.021484375,-0.0177459716796875
1761479789708893400,2.5978935546875,-1.0139312744140625,-0.0220184326171875,-0.017974853515625
1761479789718929400,2.607929443359375,-1.01416015625,-0.0224609375,-0.0162200927734375
1761479789728965600,2.617965576171875,-1.0140228271484375,-0.023284912109375,-0.017242431640625
1761479789739001600,2.628001708984375,-1.01336669921875,-0.0217437744140625,-0.017059326171875
1761479789749037600,2.63803759765625,-1.0140380859375,-0.02191162109375,-0.017974853515625
1761479789759072500,2.648072509765625,-1.0145111083984375,-0.022064208984375,-0.017669677734375
1761479789769108500,2.6581083984375,-1.0146942138671875,-0.0224151611328125,-0.01727294921875
1761479789779144400,2.66814453125,-1.01483154296875,-0.020721435546875,-0.0168304443359375
1761479789789180400,2.678180419921875,-1.013519287109375,-0.021148681640625,-0.018341064453125
1761479789799216400,2.68821630859375,-1.0142669677734375,-0.022369384765625,-0.0183563232421875
1761479789809252600,2.698252685546875,-1.0144805908203125,-0.0219573974609375,-0.016876220703125
1761479789819288600,2.70828857421875,-1.01397705078125,-0.0217742919921875,-0.0175628662109375
1761479789829324500,2.718324462890625,-1.0139007568359375,-0.0232696533203125,-0.0178375244140625
1761479789839360800,2.72836083984375,-1.0135040283203125,-0.021881103515625,-0.016876220703125
1761479789849395500,2.7383955078125,-1.013763427734375,-0.02227783203125,-0.0174713134765625
1761479789859431400,2.748431396484375,-1.0137939453125,-0.022216796875,-0.0172271728515625
1761479789869467400,2.75846728515625,-1.0142822265625,-0.02203369140625,-0.0181427001953125
1761479789879503600,2.768503662109375,-1.014251708984375,-0.022369384765625,-0.0171966552734375
1761479789889539800,2.778539794921875,-1.014404296875,-0.0229949951171875,-0.0175628662109375
1761479789899575800,2.788575927734375,-1.0145416259765625,-0.0224761962890625,-0.018707275390625
1761479789909611800,2.79861181640625,-1.01446533203125,-0.021636962890625,-0.0175323486328125
1761479789919647700,2.808647705078125,-1.013275146484375,-0.021636962890625,-0.0171051025390625
1761479789929682400,2.818682373046875,-1.0125885009765625,-0.0224151611328125,-0.018035888671875
1761479789939718400,2.828718505859375,-1.0139312744140625,-0.0224609375,-0.018096923828125
1761479789949754600,2.838754638671875,-1.01409912109375,-0.022857666015625,-0.0175933837890625
1761479789959790600,2.84879052734375,-1.0138397216796875,-0.0218505859375,-0.01751708984375
1761479789969826800,2.858826904296875,-1.0130157470703125,-0.021636962890625,-0.0176849365234375
1761479789979862800,2.86886279296875,-1.01422119140625,-0.0230255126953125,-0.0180511474609375
1761479789989898800,2.878898681640625,-1.0138397216796875,-0.022613525390625,-0.01763916015625
1761479789999934700,2.888934814453125,-1.014129638671875,-0.0220794677734375,-0.017486572265625
1761479790009970700,2.898970703125,-1.0136566162109375,-0.0214996337890625,-0.0174407958984375
1761479790020005600,2.909005615234375,-1.0137176513671875,-0.0225677490234375,-0.0176544189453125
1761479790030041600,2.91904150390625,-1.0124053955078125,-0.0221710205078125,-0.017578125
1761479790040077600,2.92907763671875,-1.0135955810546875,-0.021575927734375,-0.017333984375
1761479790050113800,2.93911376953125,-1.0143585205078125,-0.02178955078125,-0.017578125
1761479790060149800,2.949149658203125,-1.0131072998046875,-0.02227783203125,-0.0174102783203125
1761479790070185700,2.959185791015625,-1.014984130859375,-0.02203369140625,-0.016448974609375
1761479790080221700,2.9692216796875,-1.0139923095703125,-0.0217132568359375,-0.0170440673828125
1761479790090257700,2.979257568359375,-1.012969970703125,-0.022705078125,-0.01702880859375
1761479790100293600,2.989293701171875,-1.013336181640625,-0.0219879150390625,-0.017059326171875
1761479790110328600,2.99932861328125,-1.0138092041015625,-0.022216796875,-0.017059326171875
1761479790120364500,3.009364501953125,-1.0148162841796875,-0.02142333984375,-0.0170745849609375
1761479790130400800,3.01940087890625,-1.013916015625,-0.0222625732421875,-0.01727294921875
1761479790140436700,3.029436767578125,-1.0138397216796875,-0.021759033203125,-0.0171966552734375
1761479790150472700,3.03947265625,-1.0136566162109375,-0.0216522216796875,-0.017974853515625
1761479790160508700,3.0495087890625,-1.013671875,-0.0220489501953125,-0.017913818359375
1761479790170544600,3.059544677734375,-1.013671875,-0.0222015380859375,-0.017059326171875
1761479790180580600,3.06958056640625,-1.0142059326171875,-0.022491455078125,-0.0170440673828125
1761479790190615600,3.079615478515625,-1.0145263671875,-0.022705078125,-0.0169525146484375
1761479790200651500,3.089651611328125,-1.013946533203125,-0.021820068359375,-0.017578125
1761479790210687700,3.099687744140625,-1.014434814453125,-0.0228729248046875,-0.0172119140625
1761479790220723700,3.1097236328125,-1.01300048828125,-0.0225067138671875,-0.01727294921875
1761479790230759700,3.119759765625,-1.013763427734375,-0.022552490234375,-0.0170135498046875
1761479790240795600,3.129795654296875,-1.0144805908203125,-0.021820068359375,-0.01763916015625
1761479790250831600,3.13983154296875,-1.0147857666015625,-0.0225982666015625,-0.0178985595703125
1761479790260867600,3.14986767578125,-1.01287841796875,-0.0220947265625,-0.017120361328125
1761479790270903600,3.159903564453125,-1.014129638671875,-0.0211639404296875,-0.0172271728515625
1761479790280938800,3.169938720703125,-1.014251708984375,-0.021087646484375,-0.016845703125
1761479790290974700,3.179974609375,-1.013519287109375,-0.0223846435546875,-0.0175933837890625
1761479790301010700,3.1900107421875,-1.0135650634765625,-0.022857666015625,-0.0176544189453125
1761479790311046700,3.200046630859375,-1.013763427734375,-0.022003173828125,-0.01715087890625
1761479790321082600,3.21008251953125,-1.014678955078125,-0.022369384765625,-0.018341064453125
1761479790331118600,3.22011865234375,-1.0140380859375,-0.022552490234375,-0.01702880859375
1761479790341154000,3.230154052734375,-1.0136260986328125,-0.021881103515625,-0.017303466796875
1761479790351190000,3.24018994140625,-1.014617919921875,-0.0227813720703125,-0.0179595947265625
1761479790361225200,3.25022509765625,-1.014251708984375,-0.0224761962890625,-0.018280029296875
1761479790371261200,3.26026123046875,-1.0134429931640625,-0.021881103515625,-0.016754150390625
1761479790381297200,3.270297119140625,-1.0147552490234375,-0.022430419921875,-0.0177154541015625
1761479790391333000,3.2803330078125,-1.0133819580078125,-0.02197265625,-0.016937255859375
1761479790401369000,3.290369140625,-1.012237548828125,-0.022491455078125,-0.018310546875
1761479790411405000,3.300405029296875,-1.0136566162109375,-0.0223541259765625,-0.0177001953125
1761479790421441000,3.31044091796875,-1.013824462890625,-0.023284912109375,-0.01739501953125
1761479790431477000,3.32047705078125,-1.0131378173828125,-0.0228118896484375,-0.0174713134765625
1761479790441513000,3.330512939453125,-1.013824462890625,-0.022735595703125,-0.017822265625
1761479790451548200,3.340548095703125,-1.01397705078125,-0.022552490234375,-0.017913818359375
1761479790461584100,3.350584228515625,-1.01300048828125,-0.0219268798828125,-0.0174102783203125
1761479790471620000,3.3606201171875,-1.01416015625,-0.0219573974609375,-0.017120361328125
1761479790481656000,3.370656005859375,-1.013671875,-0.022491455078125,-0.0177154541015625
1761479790491692000,3.380692138671875,-1.014556884765625,-0.022186279296875,-0.017974853515625
1761479790501728000,3.39072802734375,-1.0138092041015625,-0.022186279296875,-0.01800537109375
1761479790511764000,3.400763916015625,-1.0132293701171875,-0.0225830078125,-0.017852783203125
1761479790521800000,3.410800048828125,-1.01300048828125,-0.022705078125,-0.01812744140625
1761479790531835100,3.420835205078125,-1.0138092041015625,-0.0225982666015625,-0.0174102783203125
1761479790541871000,3.43087109375,-1.01397705078125,-0.0222015380859375,-0.016876220703125
1761479790551907000,3.440906982421875,-1.01513671875,-0.0222320556640625,-0.017578125
1761479790561943000,3.450943115234375,-1.0146636962890625,-0.0218353271484375,-0.0176239013671875
1761479790571979000,3.46097900390625,-1.0137939453125,-0.022491455078125,-0.0174102783203125
1761479790582015000,3.471014892578125,-1.013458251953125,-0.0213775634765625,-0.0180206298828125
1761479790592051000,3.481051025390625,-1.013214111328125,-0.02215576171875,-0.017059326171875
1761479790602087000,3.4910869140625,-1.012939453125,-0.022125244140625,-0.0169525146484375
1761479790612122000,3.5011220703125,-1.014068603515625,-0.0221099853515625,-0.016937255859375
1761479790622158000,3.511157958984375,-1.013824462890625,-0.0222930908203125,-0.017333984375
1761479790632194000,3.521194091796875,-1.014862060546875,-0.022796630859375,-0.017364501953125
1761479790642230000,3.53122998046875,-1.0135040283203125,-0.0221710205078125,-0.0172119140625
1761479790652266000,3.541265869140625,-1.01397705078125,-0.022857666015625,-0.0166778564453125
1761479790662302000,3.551302001953125,-1.013641357421875,-0.0220489501953125,-0.01727294921875
1761479790672338000,3.561337890625,-1.0149383544921875,-0.021270751953125,-0.0177459716796875
1761479790682374000,3.571373779296875,-1.012725830078125,-0.0232086181640625,-0.01800537109375
1761479790692409000,3.5814091796875,-1.014068603515625,-0.0221710205078125,-0.0174713134765625
1761479790702445000,3.591445068359375,-1.0138397216796875,-0.02178955078125,-0.017822265625
1761479790712481000,3.60148095703125,-1.0142364501953125,-0.021820068359375,-0.01806640625
1761479790722517000,3.61151708984375,-1.0131378173828125,-0.0221099853515625,-0.017486572265625
1761479790732553000,3.621552978515625,-1.0145416259765625,-0.022003173828125,-0.01812744140625
1761479790742589000,3.6315888671875,-1.0142669677734375,-0.0215606689453125,-0.0175628662109375
1761479790752625000,3.641625,-1.0150909423828125,-0.0222320556640625,-0.018096923828125
1761479790762661000,3.6516611328125,-1.01409912109375,-0.0216064453125,-0.0182342529296875
1761479790772697000,3.661697021484375,-1.0135345458984375,-0.02227783203125,-0.01708984375
1761479790782732000,3.67173193359375,-1.013214111328125,-0.0224761962890625,-0.0175933837890625
1761479790792768000,3.68176806640625,-1.0138702392578125,-0.022003173828125,-0.017333984375
1761479790802804000,3.691803955078125,-1.013641357421875,-0.0219268798828125,-0.0172271728515625
1761479790812840000,3.70183984375,-1.013580322265625,-0.022308349609375,-0.017791748046875
1761479790822876200,3.711876220703125,-1.013397216796875,-0.0232696533203125,-0.017547607421875
1761479790832912100,3.721912109375,-1.01348876953125,-0.023345947265625,-0.0175933837890625
1761479790842948000,3.731947998046875,-1.0143890380859375,-0.022216796875,-0.0175323486328125
1761479790852984000,3.741984130859375,-1.0139617919921875,-0.0228271484375,-0.017822265625
1761479790863019000,3.75201904296875,-1.01409912109375,-0.0224456787109375,-0.0180511474609375
1761479790873055200,3.76205517578125,-1.014434814453125,-0.0223846435546875,-0.0171356201171875
1761479790883091200,3.77209130859375,-1.0137939453125,-0.022552490234375,-0.0172271728515625
1761479790893127200,3.782127197265625,-1.0127105712890625,-0.021148681640625,-0.0174102783203125
1761479790903163100,3.7921630859375,-1.0138092041015625,-0.0221710205078125,-0.0167694091796875
1761479790913199000,3.80219921875,-1.0138702392578125,-0.021453857421875,-0.0167694091796875
1761479790923235000,3.812235107421875,-1.013885498046875,-0.022064208984375,-0.017578125
1761479790933271300,3.822271240234375,-1.0139923095703125,-0.022918701171875,-0.01788330078125
1761479790943306200,3.83230615234375,-1.014404296875,-0.0217437744140625,-0.016510009765625
1761479790953342200,3.84234228515625,-1.0143280029296875,-0.022857666015625,-0.0173797607421875
1761479790963378200,3.852378173828125,-1.0147705078125,-0.021575927734375,-0.01806640625
1761479790973414100,3.8624140625,-1.0131683349609375,-0.02197265625,-0.017913818359375
1761479790983450000,3.8724501953125,-1.0136260986328125,-0.02191162109375,-0.0174713134765625
1761479790993486000,3.882486083984375,-1.014251708984375,-0.0213623046875,-0.0179290771484375
1761479791003522000,3.89252197265625,-1.0150604248046875,-0.0218505859375,-0.0175933837890625
1761479791013558300,3.902558349609375,-1.0147857666015625,-0.0222015380859375,-0.018280029296875
1761479791023593200,3.91259326171875,-1.0133514404296875,-0.02227783203125,-0.017059326171875
1761479791033629200,3.922629150390625,-1.013916015625,-0.022003173828125,-0.0172576904296875
1761479791043665200,3.9326650390625,-1.0135345458984375,-0.0219268798828125,-0.017822265625
1761479791053701000,3.942701171875,-1.013824462890625,-0.022125244140625,-0.0173797607421875
1761479791063737000,3.952737060546875,-1.0140533447265625,-0.02166748046875,-0.0174102783203125
1761479791073773000,3.96277294921875,-1.0135345458984375,-0.02203369140625,-0.0168609619140625
1761479791083809000,3.97280908203125,-1.0141754150390625,-0.021820068359375,-0.0178070068359375
1761479791093845200,3.98284521484375,-1.0136260986328125,-0.022430419921875,-0.0181884765625
1761479791103880200,3.992880126953125,-1.0142364501953125,-0.022552490234375,-0.0178070068359375
1761479791113916200,4.002916259765625,-1.0140533447265625,-0.0214691162109375,-0.01776123046875
1761479791123951000,4.012951171875,-1.0136566162109375,-0.021392822265625,-0.016876220703125
1761479791133987000,4.022987060546875,-1.0135498046875,-0.022430419921875,-0.0172119140625
1761479791144022000,4.03302197265625,-1.0145721435546875,-0.0211944580078125,-0.0177001953125
1761479791154058200,4.043058349609375,-1.0142364501953125,-0.0218048095703125,-0.0178375244140625
1761479791164094200,4.05309423828125,-1.013092041015625,-0.021514892578125,-0.01690673828125
1761479791174130200,4.063130126953125,-1.013763427734375,-0.0211029052734375,-0.01690673828125
1761479791184166100,4.073166259765625,-1.0133819580078125,-0.0222320556640625,-0.016632080078125
1761479791194202000,4.0832021484375,-1.0145416259765625,-0.0216217041015625,-0.0171051025390625
1761479791204238000,4.093238037109375,-1.01397705078125,-0.02166748046875,-0.0171661376953125
1761479791214274000,4.103274169921875,-1.013916015625,-0.0224151611328125,-0.01763916015625
1761479791224309200,4.113309326171875,-1.014892578125,-0.0220794677734375,-0.0179595947265625
1761479791234345200,4.12334521484375,-1.0142974853515625,-0.022308349609375,-0.0172882080078125
1761479791244381200,4.133381103515625,-1.013885498046875,-0.023284912109375,-0.017364501953125
1761479791254417200,4.143417236328125,-1.0132904052734375,-0.021636962890625,-0.0179443359375
1761479791264453000,4.153453125,-1.0133514404296875,-0.020965576171875,-0.0172271728515625
1761479791274489000,4.163489013671875,-1.0135498046875,-0.0223388671875,-0.016845703125
1761479791284525000,4.173525146484375,-1.013153076171875,-0.02191162109375,-0.0174407958984375
1761479791294561000,4.18356103515625,-1.014007568359375,-0.022430419921875,-0.0177154541015625
1761479791304597200,4.19359716796875,-1.0142364501953125,-0.0224761962890625,-0.0176849365234375
1761479791314632200,4.203632080078125,-1.01336669921875,-0.0214996337890625,-0.0173797607421875
1761479791324668200,4.213668212890625,-1.014251708984375,-0.0215911865234375,-0.017333984375
1761479791334704000,4.2237041015625,-1.0154266357421875,-0.02215576171875,-0.0179290771484375
1761479791344740000,4.233739990234375,-1.014129638671875,-0.0223388671875,-0.0180511474609375
1761479791354776000,4.243776123046875,-1.01275634765625,-0.0215606689453125,-0.0171966552734375
1761479791364812000,4.25381201171875,-1.013275146484375,-0.0221099853515625,-0.0171966552734375
1761479791374848000,4.263847900390625,-1.0143890380859375,-0.021270751953125,-0.01763916015625
1761479791384883200,4.27388330078125,-1.0141754150390625,-0.02178955078125,-0.0179595947265625
1761479791394919200,4.283919189453125,-1.014617919921875,-0.022064208984375,-0.0174407958984375
1761479791404955100,4.293955078125,-1.0152130126953125,-0.022796630859375,-0.017547607421875
1761479791414991000,4.3039912109375,-1.014434814453125,-0.0220794677734375,-0.0169525146484375
1761479791425027000,4.314027099609375,-1.01446533203125,-0.02215576171875,-0.0177001953125
1761479791435063000,4.32406298828125,-1.0150299072265625,-0.0218353271484375,-0.01800537109375
1761479791445099000,4.33409912109375,-1.0143280029296875,-0.0219268798828125,-0.01763916015625
1761479791455135200,4.34413525390625,-1.014739990234375,-0.0221405029296875,-0.016815185546875
1761479791465171200,4.354171142578125,-1.01373291015625,-0.0218505859375,-0.0179290771484375
1761479791475206100,4.3642060546875,-1.01324462890625,-0.0229949951171875,-0.0174713134765625
1761479791485242000,4.3742421875,-1.013671875,-0.0225830078125,-0.0178680419921875
1761479791495278000,4.384278076171875,-1.01409912109375,-0.0221405029296875,-0.0170745849609375
1761479791505314000,4.39431396484375,-1.0139312744140625,-0.0229644775390625,-0.017547607421875
1761479791515350000,4.40435009765625,-1.014862060546875,-0.0226593017578125,-0.0178375244140625
1761479791525386000,4.414385986328125,-1.0149688720703125,-0.02191162109375,-0.0170135498046875
1761479791535422200,4.424422119140625,-1.0135650634765625,-0.0219573974609375,-0.0174713134765625
1761479791545457200,4.43445703125,-1.0142822265625,-0.022125244140625,-0.0175323486328125
1761479791555493000,4.4444931640625,-1.013916015625,-0.0222625732421875,-0.017059326171875
1761479791565529000,4.454529052734375,-1.0146484375,-0.0212249755859375,-0.0169830322265625
1761479791575565000,4.46456494140625,-1.01318359375,-0.0217437744140625,-0.017364501953125
1761479791585601000,4.47460107421875,-1.013580322265625,-0.0218963623046875,-0.016937255859375
1761479791595637000,4.484636962890625,-1.0135040283203125,-0.02197265625,-0.0175933837890625
1761479791605673000,4.4946728515625,-1.014617919921875,-0.0220947265625,-0.01800537109375
1761479791615709200,4.504709228515625,-1.01324462890625,-0.021759033203125,-0.0175018310546875
1761479791625745200,4.5147451171875,-1.0130462646484375,-0.0210418701171875,-0.017364501953125
1761479791635780000,4.524780029296875,-1.0146331787109375,-0.0223388671875,-0.0179290771484375
1761479791645816000,4.534816162109375,-1.01312255859375,-0.022216796875,-0.0170745849609375
1761479791655852000,4.54485205078125,-1.0140533447265625,-0.022857666015625,-0.0172119140625
1761479791665888000,4.554887939453125,-1.0154571533203125,-0.0222625732421875,-0.01727294921875
1761479791675924000,4.564924072265625,-1.01348876953125,-0.022674560546875,-0.0177001953125
1761479791685960000,4.5749599609375,-1.013763427734375,-0.022369384765625,-0.0171356201171875
1761479791695997000,4.584996826171875,-1.0139617919921875,-0.02239990234375,-0.01702880859375
1761479791706032000,4.5950322265625,-1.013763427734375,-0.0223236083984375,-0.018096923828125
1761479791716068000,4.605068115234375,-1.0146026611328125,-0.0222015380859375,-0.017791748046875
1761479791726104000,4.61510400390625,-1.0144500732421875,-0.02215576171875,-0.01763916015625
1761479791736140000,4.62514013671875,-1.0148773193359375,-0.0216827392578125,-0.0174407958984375
1761479791746176000,4.635176025390625,-1.013519287109375,-0.0216522216796875,-0.01763916015625
1761479791756212000,4.6452119140625,-1.013580322265625,-0.0213623046875,-0.0185699462890625
1761479791766248000,4.655248046875,-1.0127410888671875,-0.02191162109375,-0.017364501953125
1761479791776284200,4.6652841796875,-1.013763427734375,-0.0213470458984375,-0.0173797607421875
1761479791786319000,4.675319091796875,-1.014678955078125,-0.02203369140625,-0.0170440673828125
1761479791796355000,4.68535498046875,-1.01446533203125,-0.0219879150390625,-0.017608642578125
1761479791806391000,4.69539111328125,-1.0135040283203125,-0.0220184326171875,-0.0175628662109375
1761479791816427000,4.705427001953125,-1.01373291015625,-0.0219573974609375,-0.0175933837890625
1761479791826463000,4.715462890625,-1.0143280029296875,-0.0224761962890625,-0.0177459716796875
1761479791836499200,4.725499267578125,-1.0128021240234375,-0.0215301513671875,-0.0170745849609375
1761479791846535200,4.73553515625,-1.0132293701171875,-0.02191162109375,-0.0173797607421875
1761479791856571100,4.745571044921875,-1.013519287109375,-0.0216522216796875,-0.0178070068359375
1761479791866607000,4.755607177734375,-1.0137939453125,-0.02191162109375,-0.017730712890625
1761479791876642000,4.76564208984375,-1.0137786865234375,-0.0221710205078125,-0.0182647705078125
1761479791886678300,4.77567822265625,-1.013336181640625,-0.0224761962890625,-0.0171661376953125
1761479791896714200,4.78571435546875,-1.0125274658203125,-0.0222930908203125,-0.017822265625
1761479791906750200,4.795750244140625,-1.013916015625,-0.021392822265625,-0.016815185546875
1761479791916786200,4.8057861328125,-1.014617919921875,-0.0214385986328125,-0.0166473388671875
1761479791926822100,4.815822265625,-1.013214111328125,-0.0219573974609375,-0.017608642578125
1761479791936858000,4.825858154296875,-1.01409912109375,-0.02276611328125,-0.0177001953125
1761479791946894000,4.83589404296875,-1.0139617919921875,-0.0229339599609375,-0.0175933837890625
1761479791956929300,4.84592919921875,-1.01336669921875,-0.022491455078125,-0.0177459716796875
1761479791966965200,4.85596533203125,-1.0141448974609375,-0.0224456787109375,-0.0178680419921875
1761479791977001200,4.866001220703125,-1.01361083984375,-0.0222625732421875,-0.01751708984375
1761479791987037200,4.876037109375,-1.0140533447265625,-0.0231781005859375,-0.0171661376953125
1761479791997073200,4.8860732421875,-1.0135498046875,-0.0220794677734375,-0.017059326171875
1761479792007109000,4.896109130859375,-1.0146484375,-0.021575927734375,-0.017181396484375
1761479792017145000,4.90614501953125,-1.014556884765625,-0.0223236083984375,-0.016845703125
1761479792027181000,4.91618115234375,-1.01397705078125,-0.022125244140625,-0.0176239013671875
1761479792037216300,4.92621630859375,-1.0132293701171875,-0.0223846435546875,-0.0186614990234375
1761479792047252200,4.936252197265625,-1.0136871337890625,-0.022735595703125,-0.017578125
1761479792057288200,4.9462880859375,-1.0145416259765625,-0.02264404296875,-0.017578125
1761479792067324200,4.95632421875,-1.0139312744140625,-0.023040771484375,-0.0179290771484375
1761479792077360000,4.966360107421875,-1.01361083984375,-0.0228118896484375,-0.0176849365234375
1761479792087396000,4.97639599609375,-1.0134735107421875,-0.021697998046875,-0.0171356201171875
1761479792097432000,4.98643212890625,-1.0150299072265625,-0.0220489501953125,-0.0170135498046875
1761479792107468000,4.996468017578125,-1.013580322265625,-0.021636962890625,-0.01708984375
1761479792117503200,5.006503173828125,-1.0135345458984375,-0.0221099853515625,-0.01739501953125
1761479792127539200,5.016539306640625,-1.0129852294921875,-0.02154541015625,-0.017059326171875
1761479792137575200,5.0265751953125,-1.013092041015625,-0.022552490234375,-0.0174713134765625
1761479792147611100,5.036611083984375,-1.01434326171875,-0.0222930908203125,-0.0176849365234375
1761479792157647000,5.046647216796875,-1.01397705078125,-0.0222930908203125,-0.01708984375
1761479792167683000,5.05668310546875,-1.013427734375,-0.0218963623046875,-0.017852783203125
1761479792177719000,5.066718994140625,-1.0136260986328125,-0.0221710205078125,-0.017242431640625
1761479792187755000,5.076755126953125,-1.0131683349609375,-0.0218048095703125,-0.0181121826171875
1761479792197791000,5.086791015625,-1.0131072998046875,-0.0225982666015625,-0.01727294921875
1761479792207826200,5.096826171875,-1.0128021240234375,-0.0218658447265625,-0.0171356201171875
1761479792217862100,5.106862060546875,-1.012298583984375,-0.02227783203125,-0.017822265625
1761479792227898000,5.116898193359375,-1.0140380859375,-0.02252197265625,-0.0181732177734375
1761479792237934000,5.12693408203125,-1.0135040283203125,-0.021453857421875,-0.017425537109375
1761479792247970000,5.136969970703125,-1.0145721435546875,-0.0217742919921875,-0.01727294921875
1761479792258006000,5.147006103515625,-1.0135650634765625,-0.0225677490234375,-0.0172576904296875
1761479792268042000,5.1570419921875,-1.013397216796875,-0.0228424072265625,-0.0176239013671875
1761479792278078000,5.167077880859375,-1.0133819580078125,-0.0224609375,-0.01690673828125
1761479792288114200,5.1771142578125,-1.013397216796875,-0.020965576171875,-0.0175628662109375
1761479792298149000,5.187149169921875,-1.0135040283203125,-0.0218505859375,-0.0169830322265625
1761479792308185000,5.19718505859375,-1.0142364501953125,-0.0220489501953125,-0.0175628662109375
1761479792318221000,5.207220947265625,-1.0133819580078125,-0.0220947265625,-0.01763916015625
1761479792328257000,5.217257080078125,-1.01312255859375,-0.02239990234375,-0.0175323486328125
1761479792338293500,5.22729345703125,-1.0130615234375,-0.0223541259765625,-0.0167388916015625
1761479792348329500,5.23732958984375,-1.01397705078125,-0.021759033203125,-0.0181884765625
1761479792358365400,5.247365478515625,-1.0135040283203125,-0.0228729248046875,-0.0166015625
1761479792368401400,5.2574013671875,-1.0142822265625,-0.0218963623046875,-0.0167999267578125
1761479792378436600,5.2674365234375,-1.014434814453125,-0.0216064453125,-0.0180511474609375
1761479792388472600,5.27747265625,-1.0141448974609375,-0.0223846435546875,-0.0175018310546875
1761479792398508500,5.287508544921875,-1.0136260986328125,-0.0214080810546875,-0.018218994140625
1761479792408544500,5.29754443359375,-1.0150604248046875,-0.02166748046875,-0.0172882080078125
1761479792418580500,5.30758056640625,-1.0130157470703125,-0.02227783203125,-0.0172882080078125
1761479792428616400,5.317616455078125,-1.01373291015625,-0.022430419921875,-0.017730712890625
1761479792438652400,5.32765234375,-1.013916015625,-0.022186279296875,-0.0175323486328125
1761479792448688400,5.3376884765625,-1.014404296875,-0.0217132568359375,-0.0169677734375
1761479792458723600,5.3477236328125,-1.0135955810546875,-0.0225677490234375,-0.017486572265625
1761479792468759600,5.357759521484375,-1.0144500732421875,-0.0223388671875,-0.0173187255859375
1761479792478795500,5.36779541015625,-1.0142974853515625,-0.0218353271484375,-0.0183868408203125
1761479792488831500,5.37783154296875,-1.0135650634765625,-0.022247314453125,-0.0183868408203125
1761479792498867500,5.387867431640625,-1.01385498046875,-0.021240234375,-0.0177001953125
1761479792508903400,5.3979033203125,-1.0142669677734375,-0.022216796875,-0.0181732177734375
1761479792518939400,5.407939453125,-1.01422119140625,-0.021759033203125,-0.0171966552734375
1761479792528975400,5.417975341796875,-1.0139923095703125,-0.0226593017578125,-0.017578125
1761479792539011600,5.428011474609375,-1.0141143798828125,-0.0222930908203125,-0.0175018310546875
1761479792549046500,5.438046630859375,-1.013702392578125,-0.022430419921875,-0.017425537109375
1761479792559082500,5.44808251953125,-1.0133056640625,-0.022369384765625,-0.0180206298828125
1761479792569118500,5.458118408203125,-1.01263427734375,-0.0221099853515625,-0.0174407958984375
1761479792579154400,5.468154541015625,-1.0128936767578125,-0.0221710205078125,-0.017913818359375
1761479792589190400,5.4781904296875,-1.01409912109375,-0.0227813720703125,-0.0172119140625
1761479792599226400,5.488226318359375,-1.01397705078125,-0.0215606689453125,-0.017181396484375
1761479792609262600,5.4982626953125,-1.0137176513671875,-0.021820068359375,-0.0173797607421875
1761479792619298600,5.508298583984375,-1.014312744140625,-0.022216796875,-0.0173492431640625
1761479792629333500,5.51833349609375,-1.0139923095703125,-0.0211639404296875,-0.017822265625
1761479792639369500,5.528369384765625,-1.0138702392578125,-0.0215911865234375,-0.0178680419921875
1761479792649405400,5.538405517578125,-1.0131683349609375,-0.022613525390625,-0.016937255859375
1761479792659441400,5.54844140625,-1.0137481689453125,-0.021759033203125,-0.0171051025390625
1761479792669477400,5.558477294921875,-1.0143890380859375,-0.02203369140625,-0.017669677734375
1761479792679513300,5.568513427734375,-1.0140228271484375,-0.022796630859375,-0.016510009765625
1761479792689549600,5.578549560546875,-1.0142059326171875,-0.0223236083984375,-0.0175628662109375
1761479792699585500,5.58858544921875,-1.013397216796875,-0.022491455078125,-0.01763916015625
1761479792709620500,5.598620361328125,-1.014434814453125,-0.022369384765625,-0.017181396484375
1761479792719656400,5.608656494140625,-1.0131378173828125,-0.022216796875,-0.0177459716796875
1761479792729692400,5.6186923828125,-1.0138092041015625,-0.022613525390625,-0.01824951171875
1761479792739728400,5.628728271484375,-1.0130615234375,-0.0217437744140625,-0.0169525146484375
1761479792749764400,5.638764404296875,-1.013916015625,-0.02197265625,-0.017364501953125
1761479792759800300,5.64880029296875,-1.01434326171875,-0.0223846435546875,-0.0178070068359375
1761479792769836500,5.65883642578125,-1.014068603515625,-0.02166748046875,-0.0175018310546875
1761479792779872500,5.66887255859375,-1.0138092041015625,-0.0219268798828125,-0.01751708984375
1761479792789908500,5.678908447265625,-1.0142059326171875,-0.022216796875,-0.0168914794921875
1761479792799943400,5.688943359375,-1.0142364501953125,-0.0220794677734375,-0.0170135498046875
1761479792809979400,5.6989794921875,-1.0140533447265625,-0.02142333984375,-0.01690673828125
1761479792820015400,5.709015380859375,-1.0131072998046875,-0.02215576171875,-0.017852783203125
1761479792830051300,5.71905126953125,-1.0137176513671875,-0.0229339599609375,-0.017913818359375
1761479792840087300,5.72908740234375,-1.0141448974609375,-0.022216796875,-0.017547607421875
1761479792850123500,5.73912353515625,-1.0137786865234375,-0.0216217041015625,-0.0168914794921875
1761479792860159700,5.74915966796875,-1.01458740234375,-0.02142333984375,-0.0163726806640625
1761479792870195700,5.75919580078125,-1.0136871337890625,-0.0227813720703125,-0.0171356201171875
1761479792880230400,5.76923046875,-1.0150299072265625,-0.0213623046875,-0.0177459716796875
1761479792890266400,5.779266357421875,-1.0146026611328125,-0.021759033203125,-0.0177459716796875
1761479792900302300,5.78930224609375,-1.0142364501953125,-0.021881103515625,-0.0175628662109375
1761479792910338300,5.79933837890625,-1.013580322265625,-0.0222930908203125,-0.0178680419921875
1761479792920374500,5.80937451171875,-1.013092041015625,-0.022125244140625,-0.017669677734375
1761479792930410500,5.819410400390625,-1.0141754150390625,-0.022125244140625,-0.017547607421875
1761479792940446700,5.82944677734375,-1.013916015625,-0.0222320556640625,-0.017730712890625
1761479792950482700,5.839482666015625,-1.01397705078125,-0.0216827392578125,-0.0167236328125
1761479792960517400,5.849517333984375,-1.0138092041015625,-0.0225677490234375,-0.01708984375
1761479792970553600,5.8595537109375,-1.01409912109375,-0.0218658447265625,-0.01776123046875
1761479792980589600,5.869589599609375,-1.0149688720703125,-0.021728515625,-0.0175933837890625
1761479792990625500,5.87962548828125,-1.013916015625,-0.0218048095703125,-0.0169525146484375
1761479793000661500,5.88966162109375,-1.013763427734375,-0.02215576171875,-0.0169525146484375
1761479793010697700,5.89969775390625,-1.0139312744140625,-0.0221405029296875,-0.016998291015625
1761479793020733700,5.909733642578125,-1.01312255859375,-0.0216827392578125,-0.0179901123046875
1761479793030769700,5.919769775390625,-1.0139312744140625,-0.021881103515625,-0.017242431640625
1761479793040804600,5.9298046875,-1.0134124755859375,-0.0230255126953125,-0.016998291015625
1761479793050840600,5.939840576171875,-1.012908935546875,-0.02264404296875,-0.0168914794921875
1761479793060876500,5.94987646484375,-1.0146026611328125,-0.022308349609375,-0.01690673828125
1761479793070912500,5.95991259765625,-1.01422119140625,-0.0223541259765625,-0.0178680419921875
1761479793080948500,5.969948486328125,-1.01300048828125,-0.0220184326171875,-0.01715087890625
1761479793090984700,5.979984619140625,-1.013702392578125,-0.022552490234375,-0.017578125
1761479793101020700,5.990020751953125,-1.014801025390625,-0.022857666015625,-0.0169525146484375
1761479793111056600,6.000056640625,-1.0144195556640625,-0.0219268798828125,-0.0175018310546875
1761479793121091600,6.010091552734375,-1.0140380859375,-0.0224151611328125,-0.018218994140625
1761479793131127600,6.02012744140625,-1.0136566162109375,-0.022216796875,-0.017791748046875
1761479793141163500,6.03016357421875,-1.0133819580078125,-0.022003173828125,-0.0180511474609375
1761479793151199500,6.040199462890625,-1.0144805908203125,-0.02239990234375,-0.017791748046875
1761479793161235500,6.0502353515625,-1.01336669921875,-0.0215606689453125,-0.0174713134765625
1761479793171271700,6.060271728515625,-1.014007568359375,-0.0219879150390625,-0.017730712890625
1761479793181307600,6.0703076171875,-1.01446533203125,-0.021636962890625,-0.017669677734375
1761479793191343600,6.080343505859375,-1.0136566162109375,-0.022857666015625,-0.0177764892578125
1761479793201378600,6.090378662109375,-1.013275146484375,-0.0228271484375,-0.0174560546875
1761479793211414500,6.10041455078125,-1.01385498046875,-0.0222625732421875,-0.0169830322265625
1761479793221450500,6.110450439453125,-1.0131072998046875,-0.022186279296875,-0.0183868408203125
1761479793231486500,6.120486572265625,-1.0144805908203125,-0.0213623046875,-0.0186767578125
1761479793241522400,6.1305224609375,-1.01495361328125,-0.02215576171875,-0.0172576904296875
1761479793251558700,6.14055859375,-1.0140533447265625,-0.023040771484375,-0.016815185546875
1761479793261594600,6.1505947265625,-1.0131988525390625,-0.0223846435546875,-0.017822265625
1761479793271630600,6.160630615234375,-1.0143585205078125,-0.02191162109375,-0.017913818359375
1761479793281665500,6.17066552734375,-1.0133209228515625,-0.0218353271484375,-0.017669677734375
1761479793291701500,6.180701416015625,-1.013336181640625,-0.022613525390625,-0.017547607421875
1761479793301737500,6.190737548828125,-1.013763427734375,-0.0214691162109375,-0.01763916015625
1761479793311773400,6.2007734375,-1.0147857666015625,-0.022491455078125,-0.017608642578125
1761479793321809400,6.210809326171875,-1.0137786865234375,-0.022857666015625,-0.0172882080078125
1761479793331845600,6.220845703125,-1.0129852294921875,-0.02294921875,-0.017852783203125
1761479793341881600,6.230881591796875,-1.0139617919921875,-0.02203369140625,-0.0177154541015625
1761479793351917600,6.24091748046875,-1.01361083984375,-0.0218963623046875,-0.0172119140625
1761479793361952500,6.250952392578125,-1.0137176513671875,-0.022705078125,-0.017364501953125
1761479793371988500,6.260988525390625,-1.0135040283203125,-0.0222320556640625,-0.0176239013671875
1761479793382024400,6.2710244140625,-1.013031005859375,-0.022369384765625,-0.0178070068359375
1761479793392060400,6.281060302734375,-1.014007568359375,-0.021636962890625,-0.016937255859375
1761479793402096400,6.291096435546875,-1.014129638671875,-0.022064208984375,-0.018035888671875
1761479793412132600,6.301132568359375,-1.0140380859375,-0.0217437744140625,-0.0178070068359375
1761479793422168600,6.31116845703125,-1.0138397216796875,-0.0223388671875,-0.017547607421875
1761479793432204500,6.32120458984375,-1.014068603515625,-0.0220794677734375,-0.01806640625
1761479793442239500,6.331239501953125,-1.0142364501953125,-0.02197265625,-0.0179901123046875
1761479793452275500,6.341275390625,-1.014739990234375,-0.0225982666015625,-0.016876220703125
1761479793462311400,6.3513115234375,-1.0148468017578125,-0.022308349609375,-0.0178375244140625
1761479793472347400,6.361347412109375,-1.0139923095703125,-0.0226898193359375,-0.0181427001953125
1761479793482383600,6.371383544921875,-1.01434326171875,-0.0225982666015625,-0.0177459716796875
1761479793492419600,6.381419677734375,-1.013275146484375,-0.02264404296875,-0.0174407958984375
1761479793502455600,6.39145556640625,-1.0137481689453125,-0.02197265625,-0.017181396484375
1761479793512491500,6.401491455078125,-1.0147857666015625,-0.0214691162109375,-0.017669677734375
1761479793522526500,6.4115263671875,-1.01397705078125,-0.022247314453125,-0.0176544189453125
1761479793532562400,6.4215625,-1.0143585205078125,-0.0222320556640625,-0.0176544189453125
1761479793542598400,6.431598388671875,-1.0143585205078125,-0.0229339599609375,-0.017303466796875
1761479793552634400,6.44163427734375,-1.0137481689453125,-0.0222015380859375,-0.018341064453125
1761479793562670600,6.451670654296875,-1.01361083984375,-0.0222320556640625,-0.016876220703125
1761479793572706600,6.46170654296875,-1.0140533447265625,-0.02239990234375,-0.017547607421875
1761479793582742500,6.471742431640625,-1.0135650634765625,-0.02313232421875,-0.0175323486328125
1761479793592778500,6.481778564453125,-1.0140380859375,-0.02288818359375,-0.01751708984375
1761479793602813400,6.4918134765625,-1.014434814453125,-0.022979736328125,-0.017425537109375
1761479793612849400,6.501849365234375,-1.013153076171875,-0.021392822265625,-0.0175933837890625
1761479793622885400,6.511885498046875,-1.0135650634765625,-0.0214080810546875,-0.017425537109375
1761479793632921300,6.52192138671875,-1.01446533203125,-0.0222930908203125,-0.0185699462890625
1761479793642957600,6.53195751953125,-1.01397705078125,-0.02264404296875,-0.01788330078125
1761479793652993500,6.54199365234375,-1.014404296875,-0.0222930908203125,-0.0171661376953125
1761479793663029500,6.552029541015625,-1.013580322265625,-0.0226593017578125,-0.01800537109375
1761479793673064400,6.562064453125,-1.013580322265625,-0.022735595703125,-0.0172882080078125
1761479793683100400,6.572100341796875,-1.014678955078125,-0.0221710205078125,-0.0177459716796875
1761479793693136400,6.582136474609375,-1.0144500732421875,-0.0225830078125,-0.0175323486328125
1761479793703172400,6.59217236328125,-1.0135040283203125,-0.0230712890625,-0.0177764892578125
1761479793713208300,6.602208251953125,-1.013580322265625,-0.0214385986328125,-0.0171051025390625
1761479793723244500,6.61224462890625,-1.013031005859375,-0.02288818359375,-0.0174560546875
1761479793733280500,6.622280517578125,-1.0139007568359375,-0.022705078125,-0.0176239013671875
1761479793743316500,6.63231640625,-1.0145263671875,-0.022247314453125,-0.018157958984375
1761479793753351400,6.642351318359375,-1.01300048828125,-0.0222625732421875,-0.0188140869140625
1761479793763387400,6.652387451171875,-1.014892578125,-0.0224609375,-0.0177001953125
1761479793773423400,6.66242333984375,-1.01361083984375,-0.022247314453125,-0.0175933837890625
1761479793783459300,6.672459228515625,-1.01397705078125,-0.0217742919921875,-0.0174713134765625
1761479793793495300,6.682495361328125,-1.0133209228515625,-0.022369384765625,-0.017669677734375
1761479793803531500,6.692531494140625,-1.013397216796875,-0.0224151611328125,-0.0166473388671875
1761479793813567500,6.7025673828125,-1.0141448974609375,-0.02252197265625,-0.0178985595703125
1761479793823602400,6.7126025390625,-1.0138702392578125,-0.0219268798828125,-0.01824951171875
1761479793833638400,6.722638427734375,-1.013397216796875,-0.0214996337890625,-0.0172271728515625
1761479793843674400,6.73267431640625,-1.0139923095703125,-0.02154541015625,-0.0174713134765625
1761479793853710300,6.74271044921875,-1.014190673828125,-0.0221405029296875,-0.017608642578125
1761479793863746300,6.752746337890625,-1.0146636962890625,-0.022674560546875,-0.0175323486328125
1761479793873782300,6.7627822265625,-1.014190673828125,-0.022613525390625,-0.017486572265625
1761479793883818500,6.772818603515625,-1.0149383544921875,-0.022186279296875,-0.017120361328125
1761479793893854500,6.7828544921875,-1.0143585205078125,-0.02227783203125,-0.0179901123046875
1761479793903889400,6.792889404296875,-1.0146942138671875,-0.0229949951171875,-0.016632080078125
1761479793913925400,6.80292529296875,-1.0142364501953125,-0.022216796875,-0.0162811279296875
1761479793923961300,6.81296142578125,-1.0147705078125,-0.021942138671875,-0.0173797607421875
1761479793933997300,6.822997314453125,-1.0145263671875,-0.0226593017578125,-0.017120361328125
1761479793944033300,6.833033203125,-1.0138397216796875,-0.0224456787109375,-0.0168609619140625
1761479793954069200,6.8430693359375,-1.013427734375,-0.0222625732421875,-0.017852783203125
1761479793964105500,6.85310546875,-1.014190673828125,-0.022552490234375,-0.0178985595703125
1761479793974141400,6.863141357421875,-1.014007568359375,-0.0220489501953125,-0.0185699462890625
1761479793984176400,6.87317626953125,-1.014617919921875,-0.0220947265625,-0.017181396484375
1761479793994212400,6.88321240234375,-1.0146026611328125,-0.022491455078125,-0.01702880859375
1761479794004248300,6.893248291015625,-1.01416015625,-0.0209808349609375,-0.01708984375
1761479794014284300,6.9032841796875,-1.0144805908203125,-0.0217742919921875,-0.0172119140625
1761479794024320300,6.9133203125,-1.01324462890625,-0.021392822265625,-0.0174407958984375
1761479794034356500,6.9233564453125,-1.013763427734375,-0.0214691162109375,-0.0181427001953125
1761479794044392700,6.933392822265625,-1.0144805908203125,-0.0219879150390625,-0.0176849365234375
1761479794054427400,6.943427490234375,-1.013641357421875,-0.0225830078125,-0.0175933837890625
1761479794064463400,6.95346337890625,-1.0152587890625,-0.022705078125,-0.017730712890625
1761479794074499300,6.963499267578125,-1.013458251953125,-0.022735595703125,-0.0170745849609375
1761479794084535300,6.973535400390625,-1.0132598876953125,-0.022186279296875,-0.0175628662109375
1761479794094571500,6.983571533203125,-1.014251708984375,-0.022003173828125,-0.018341064453125
1761479794104607500,6.993607421875,-1.0138397216796875,-0.0218963623046875,-0.01800537109375
1761479794114643500,7.0036435546875,-1.0143280029296875,-0.0215911865234375,-0.0171966552734375
1761479794124679700,7.0136796875,-1.0155029296875,-0.02178955078125,-0.01690673828125
1761479794134714400,7.02371435546875,-1.014129638671875,-0.022613525390625,-0.0178070068359375
1761479794144750600,7.03375048828125,-1.0140838623046875,-0.02197265625,-0.017913818359375
1761479794154786600,7.04378662109375,-1.0134429931640625,-0.0224456787109375,-0.01739501953125
1761479794164822500,7.053822509765625,-1.0133209228515625,-0.0216064453125,-0.0171051025390625
1761479794174858500,7.0638583984375,-1.0136260986328125,-0.021575927734375,-0.0171356201171875
1761479794184894500,7.07389453125,-1.0137176513671875,-0.021453857421875,-0.0172576904296875
1761479794194930400,7.083930419921875,-1.01373291015625,-0.0217742919921875,-0.017059326171875
1761479794204965600,7.093965576171875,-1.0136260986328125,-0.02227783203125,-0.017364501953125
1761479794215001600,7.104001708984375,-1.013427734375,-0.0218963623046875,-0.01715087890625
1761479794225037600,7.11403759765625,-1.01312255859375,-0.022003173828125,-0.0172882080078125
1761479794235073500,7.124073486328125,-1.0142364501953125,-0.022125244140625,-0.017852783203125
1761479794245109500,7.134109619140625,-1.0140380859375,-0.0220184326171875,-0.017730712890625
1761479794255145500,7.1441455078125,-1.0139007568359375,-0.022064208984375,-0.01763916015625
1761479794265181400,7.154181396484375,-1.0133819580078125,-0.022003173828125,-0.0166015625
1761479794275217400,7.164217529296875,-1.0128936767578125,-0.0220184326171875,-0.0175323486328125
1761479794285252600,7.174252685546875,-1.0146942138671875,-0.0218048095703125,-0.01751708984375
1761479794295288600,7.18428857421875,-1.0143585205078125,-0.022430419921875,-0.0174407958984375
1761479794305324500,7.194324462890625,-1.0128936767578125,-0.0225982666015625,-0.0177459716796875
1761479794315360500,7.204360595703125,-1.0133056640625,-0.022003173828125,-0.0181732177734375
1761479794325396500,7.214396484375,-1.0138702392578125,-0.0217132568359375,-0.01751708984375
1761479794335432400,7.224432373046875,-1.014129638671875,-0.021881103515625,-0.0173492431640625
1761479794345468000,7.234468017578125,-1.01409912109375,-0.0228729248046875,-0.0174713134765625
1761479794355502800,7.2445029296875,-1.014251708984375,-0.022705078125,-0.017608642578125
1761479794365538800,7.254538818359375,-1.0138702392578125,-0.0220794677734375,-0.01788330078125
1761479794375574800,7.26457470703125,-1.0125885009765625,-0.0215911865234375,-0.0176544189453125
1761479794385610800,7.27461083984375,-1.014739990234375,-0.021514892578125,-0.0171966552734375
1761479794395646700,7.284646728515625,-1.014862060546875,-0.0222625732421875,-0.0173187255859375
1761479794405682700,7.2946826171875,-1.0142059326171875,-0.0219573974609375,-0.017852783203125
1761479794415719000,7.304718994140625,-1.0139923095703125,-0.0216827392578125,-0.017822265625
1761479794425753900,7.31475390625,-1.013519287109375,-0.0216522216796875,-0.0172119140625
1761479794435789800,7.324789794921875,-1.0139923095703125,-0.022369384765625,-0.0170440673828125
1761479794445825800,7.33482568359375,-1.013641357421875,-0.022613525390625,-0.0175323486328125
1761479794455861800,7.34486181640625,-1.0135040283203125,-0.022308349609375,-0.017791748046875
1761479794465897700,7.354897705078125,-1.01470947265625,-0.021881103515625,-0.017608642578125
1761479794475933700,7.36493359375,-1.0130462646484375,-0.022247314453125,-0.0180511474609375
1761479794485969700,7.3749697265625,-1.0126953125,-0.0214996337890625,-0.01751708984375
1761479794496006000,7.385005859375,-1.013946533203125,-0.022430419921875,-0.0170135498046875
1761479794506040800,7.395040771484375,-1.0135650634765625,-0.02264404296875,-0.0169219970703125
1761479794516076800,7.405076904296875,-1.012847900390625,-0.02215576171875,-0.0179290771484375
1761479794526112800,7.41511279296875,-1.0142059326171875,-0.0217742919921875,-0.0182342529296875
1761479794536148700,7.425148681640625,-1.0152130126953125,-0.022430419921875,-0.0171661376953125
1761479794546184700,7.435184814453125,-1.0145111083984375,-0.0223388671875,-0.0170135498046875
1761479794556220700,7.445220703125,-1.014007568359375,-0.02203369140625,-0.017303466796875
1761479794566256600,7.455256591796875,-1.013519287109375,-0.0218048095703125,-0.017974853515625
1761479794576291800,7.465291748046875,-1.013885498046875,-0.0214080810546875,-0.0174560546875
1761479794586327800,7.475327880859375,-1.013458251953125,-0.0216217041015625,-0.0169525146484375
1761479794596363800,7.48536376953125,-1.0134429931640625,-0.021881103515625,-0.0175323486328125
1761479794606399700,7.495399658203125,-1.01318359375,-0.02166748046875,-0.0174713134765625
1761479794616435700,7.505435791015625,-1.013916015625,-0.02142333984375,-0.0177459716796875
1761479794626471700,7.5154716796875,-1.0148468017578125,-0.022247314453125,-0.0172119140625
1761479794636507600,7.525507568359375,-1.0140228271484375,-0.021575927734375,-0.017242431640625
1761479794646542800,7.53554296875,-1.0137939453125,-0.021392822265625,-0.0181884765625
1761479794656578800,7.545578857421875,-1.014068603515625,-0.0220184326171875,-0.01739501953125
1761479794666614800,7.55561474609375,-1.014312744140625,-0.0222320556640625,-0.017608642578125
1761479794676650800,7.565650634765625,-1.014068603515625,-0.0218048095703125,-0.017669677734375
1761479794686686700,7.575686767578125,-1.014312744140625,-0.0228424072265625,-0.0167694091796875
1761479794696722700,7.58572265625,-1.013824462890625,-0.0220947265625,-0.0176544189453125
1761479794706758700,7.595758544921875,-1.0147552490234375,-0.0218048095703125,-0.018096923828125
1761479794716793900,7.6057939453125,-1.0142669677734375,-0.022186279296875,-0.017974853515625
1761479794726829800,7.615829833984375,-1.01434326171875,-0.0226287841796875,-0.0176239013671875
1761479794736865800,7.62586572265625,-1.0142669677734375,-0.0223541259765625,-0.0175018310546875
1761479794746901800,7.63590185546875,-1.0155181884765625,-0.022003173828125,-0.0174102783203125
1761479794756937700,7.645937744140625,-1.0144805908203125,-0.021270751953125,-0.017913818359375
1761479794766973700,7.6559736328125,-1.014373779296875,-0.0218658447265625,-0.0175628662109375
1761479794777010000,7.666010009765625,-1.0134429931640625,-0.0222625732421875,-0.0179443359375
1761479794787044900,7.676044921875,-1.0139007568359375,-0.0225677490234375,-0.0178680419921875
1761479794797080800,7.686080810546875,-1.0138702392578125,-0.0220947265625,-0.0177459716796875
1761479794807116800,7.69611669921875,-1.0141143798828125,-0.0218963623046875,-0.0181121826171875
1761479794817152800,7.70615283203125,-1.0146331787109375,-0.021514892578125,-0.018280029296875
1761479794827189000,7.71618896484375,-1.0147857666015625,-0.02227783203125,-0.0174102783203125
1761479794837225000,7.726224853515625,-1.0146331787109375,-0.0225677490234375,-0.017303466796875
1761479794847261000,7.736260986328125,-1.0143890380859375,-0.0225830078125,-0.01708984375
1761479794857297000,7.746296875,-1.0140228271484375,-0.022125244140625,-0.0179901123046875
1761479794867331800,7.756331787109375,-1.0140838623046875,-0.021575927734375,-0.017333984375
1761479794877367800,7.766367919921875,-1.014556884765625,-0.021820068359375,-0.0175323486328125
1761479794887404000,7.776404052734375,-1.0141448974609375,-0.021392822265625,-0.0171661376953125
1761479794897440000,7.78643994140625,-1.0127716064453125,-0.02203369140625,-0.0176544189453125
1761479794907476000,7.79647607421875,-1.0139007568359375,-0.023162841796875,-0.017791748046875
1761479794917512000,7.806511962890625,-1.0141754150390625,-0.0227203369140625,-0.0179443359375
1761479794927548000,7.8165478515625,-1.0144500732421875,-0.0223541259765625,-0.017547607421875
1761479794937582800,7.826582763671875,-1.014312744140625,-0.022369384765625,-0.0169830322265625
1761479794947619000,7.836619140625,-1.0145416259765625,-0.0225067138671875,-0.0178375244140625
1761479794957655000,7.846655029296875,-1.01434326171875,-0.0224609375,-0.017913818359375
1761479794967691000,7.85669091796875,-1.0135955810546875,-0.022003173828125,-0.0178375244140625
1761479794977727000,7.86672705078125,-1.0140228271484375,-0.0227203369140625,-0.0172576904296875
1761479794987763000,7.876762939453125,-1.0151214599609375,-0.0219573974609375,-0.0181121826171875
1761479794997799000,7.886798828125,-1.013946533203125,-0.0217437744140625,-0.018310546875
1761479795007833900,7.896833740234375,-1.013916015625,-0.021514892578125,-0.0179595947265625
1761479795017869800,7.906869873046875,-1.0139923095703125,-0.0218658447265625,-0.0185546875
1761479795027906000,7.916906005859375,-1.0132598876953125,-0.0225982666015625,-0.017547607421875
1761479795037942000,7.92694189453125,-1.013580322265625,-0.021636962890625,-0.0175628662109375
1761479795047978000,7.93697802734375,-1.0141754150390625,-0.0224456787109375,-0.0179901123046875
1761479795058014000,7.947013916015625,-1.014373779296875,-0.0223846435546875,-0.0174407958984375
1761479795068050000,7.9570498046875,-1.0143280029296875,-0.0228729248046875,-0.017364501953125
1761479795078084900,7.9670849609375,-1.014404296875,-0.0220947265625,-0.017913818359375
1761479795088120800,7.977120849609375,-1.0135498046875,-0.021392822265625,-0.018402099609375
1761479795098157000,7.987156982421875,-1.014129638671875,-0.021697998046875,-0.017852783203125
1761479795108193000,7.997193115234375,-1.01409912109375,-0.0228118896484375,-0.0178375244140625
1761479795118228000,8.00722802734375,-1.0140533447265625,-0.0223541259765625,-0.0174560546875
1761479795128264000,8.017263916015626,-1.0143280029296875,-0.021942138671875,-0.0171966552734375
1761479795138300000,8.0272998046875,-1.014678955078125,-0.0225982666015625,-0.01751708984375
1761479795148334800,8.0373349609375,-1.014251708984375,-0.022064208984375,-0.01715087890625
1761479795158370800,8.047370849609376,-1.01409912109375,-0.0219573974609375,-0.0179443359375
1761479795168407000,8.057406982421876,-1.0131378173828125,-0.022796630859375,-0.017974853515625
1761479795178443000,8.067443115234376,-1.0138702392578125,-0.022552490234375,-0.0174713134765625
1761479795188479000,8.07747900390625,-1.0141143798828125,-0.0220489501953125,-0.016448974609375
1761479795198515000,8.087514892578126,-1.01324462890625,-0.0218963623046875,-0.0171661376953125
1761479795208551000,8.097551025390626,-1.0133514404296875,-0.0218048095703125,-0.017333984375
1761479795218585900,8.1075859375,-1.014068603515625,-0.02203369140625,-0.017425537109375
1761479795228622000,8.1176220703125,-1.0146026611328125,-0.02215576171875,-0.0179443359375
1761479795238658000,8.127657958984376,-1.0138702392578125,-0.021575927734375,-0.0179443359375
1761479795248694000,8.137694091796876,-1.0132598876953125,-0.022247314453125,-0.0179443359375
1761479795258730000,8.14772998046875,-1.013671875,-0.02239990234375,-0.017974853515625
1761479795268766000,8.157765869140626,-1.0143890380859375,-0.022247314453125,-0.017852783203125
1761479795278802000,8.167802001953126,-1.0139617919921875,-0.021484375,-0.0167388916015625
1761479795288836900,8.1778369140625,-1.014129638671875,-0.022796630859375,-0.018157958984375
1761479795298872800,8.187872802734375,-1.014434814453125,-0.0213165283203125,-0.0170745849609375
1761479795308909000,8.197908935546875,-1.014251708984375,-0.0211944580078125,-0.01739501953125
1761479795318945000,8.207945068359376,-1.013580322265625,-0.0215606689453125,-0.0179901123046875
1761479795328981000,8.21798095703125,-1.0153045654296875,-0.0229949951171875,-0.017791748046875
1761479795339017000,8.228016845703126,-1.014251708984375,-0.0226593017578125,-0.017425537109375
1761479795349053200,8.23805322265625,-1.01434326171875,-0.02166748046875,-0.01776123046875
1761479795359088000,8.248088134765625,-1.014068603515625,-0.02178955078125,-0.0177154541015625
1761479795369124000,8.2581240234375,-1.014251708984375,-0.02130126953125,-0.017333984375
1761479795379160000,8.26816015625,-1.0136871337890625,-0.02203369140625,-0.0172271728515625
1761479795389196000,8.278196044921875,-1.0138397216796875,-0.0226898193359375,-0.016754150390625
1761479795399232300,8.288232177734375,-1.013916015625,-0.0216064453125,-0.017181396484375
1761479795409268200,8.298268310546876,-1.0142059326171875,-0.0220489501953125,-0.0180206298828125
1761479795419304200,8.30830419921875,-1.013885498046875,-0.0220794677734375,-0.0172882080078125
1761479795429339100,8.318339111328125,-1.013763427734375,-0.0218353271484375,-0.0170745849609375
1761479795439375000,8.328375,-1.0142669677734375,-0.0218963623046875,-0.0173187255859375
1761479795449411000,8.3384111328125,-1.0139617919921875,-0.0227203369140625,-0.017333984375
1761479795459447000,8.348447021484375,-1.0137481689453125,-0.0219879150390625,-0.0175933837890625
1761479795469483300,8.358483154296875,-1.0139007568359375,-0.0226593017578125,-0.0166778564453125
1761479795479519200,8.368519287109375,-1.014373779296875,-0.02197265625,-0.0171966552734375
1761479795489555200,8.37855517578125,-1.0151519775390625,-0.02197265625,-0.01763916015625
1761479795499590100,8.388590087890625,-1.01446533203125,-0.022247314453125,-0.0170135498046875
1761479795509626000,8.398626220703125,-1.013946533203125,-0.021697998046875,-0.017242431640625
1761479795519662000,8.408662109375,-1.01397705078125,-0.0219573974609375,-0.01812744140625
1761479795529698000,8.418697998046875,-1.0135650634765625,-0.021514892578125,-0.0171356201171875
1761479795539734000,8.428734130859375,-1.0142669677734375,-0.022369384765625,-0.017852783203125
1761479795549770200,8.438770263671875,-1.0134124755859375,-0.0217742919921875,-0.017578125
1761479795559806200,8.44880615234375,-1.01373291015625,-0.0218048095703125,-0.0173492431640625
1761479795569841200,8.458841064453125,-1.01348876953125,-0.0223846435546875,-0.017791748046875
1761479795579877000,8.468877197265625,-1.012725830078125,-0.0220794677734375,-0.0175628662109375
1761479795589913000,8.4789130859375,-1.013275146484375,-0.0215911865234375,-0.0180206298828125
1761479795599949000,8.488948974609375,-1.01416015625,-0.02227783203125,-0.018035888671875
1761479795609985000,8.498985107421875,-1.01422119140625,-0.022430419921875,-0.0173492431640625
1761479795620021000,8.50902099609375,-1.0137481689453125,-0.022186279296875,-0.0178985595703125
1761479795630057200,8.51905712890625,-1.0137481689453125,-0.021575927734375,-0.017791748046875
1761479795640092200,8.529092041015625,-1.0134429931640625,-0.0218658447265625,-0.017303466796875
1761479795650128100,8.539128173828125,-1.0138397216796875,-0.022705078125,-0.017486572265625
1761479795660164000,8.5491640625,-1.0131378173828125,-0.02252197265625,-0.0169830322265625
1761479795670200000,8.559199951171875,-1.01434326171875,-0.02197265625,-0.0172271728515625
1761479795680236000,8.569236083984375,-1.0140228271484375,-0.021881103515625,-0.0177459716796875
1761479795690273000,8.57927294921875,-1.02740478515625,-0.01788330078125,-0.0195465087890625
1761479795700309000,8.58930908203125,-0.98553466796875,-0.0289459228515625,-0.012054443359375
1761479795710345000,8.599344970703125,-1.0257110595703125,-0.0204620361328125,-0.019989013671875
1761479795720381200,8.609381103515625,-1.011749267578125,-0.021728515625,-0.0230255126953125
1761479795730417200,8.619417236328125,-1.0113372802734375,-0.0190277099609375,-0.010406494140625
1761479795740452000,8.6294521484375,-1.012054443359375,-0.026458740234375,-0.01409912109375
1761479795750488000,8.639488037109375,-1.0145111083984375,-0.0223541259765625,-0.0218963623046875
1761479795760524000,8.64952392578125,-1.015594482421875,-0.0190277099609375,-0.0177459716796875
