time,seconds_elapsed,z,y,x
1761479787184870000,0.073869873046875,-0.005391037091612816,-0.002019741339609027,-0.0012892362428829074
1761479787194906000,0.083906005859375,-0.004860268905758858,-0.0012343751732259989,-0.0011025486746802926
1761479787204941000,0.093941162109375,-0.005827795248478651,-0.004689826630055904,0.0005688511882908642
1761479787214977000,0.10397705078125,-0.009754359722137451,-0.001853560097515583,-0.0034674357157200575
1761479787225013000,0.114012939453125,-0.004905542824417353,-0.0032895365729928017,0.00025486451340839267
1761479787235049000,0.124049072265625,-0.00640836451202631,-0.004459196701645851,-0.0006807039608247578
1761479787245085000,0.1340849609375,-0.005287972744554281,-0.0039036613889038563,-0.00293400464579463
1761479787255121000,0.144120849609375,-0.007547132205218077,-0.0030711572617292404,-0.001966744428500533
1761479787265156900,0.154156982421875,-0.005839246790856123,-0.0024016385432332754,0.00041784998029470444
1761479787275192000,0.164192138671875,-0.005565207917243242,-0.005949235521256924,-0.0008841694798320532
1761479787285228000,0.17422802734375,-0.0049468218348920345,-0.004396612755954266,-0.0012713931500911713
1761479787295264000,0.184263916015625,-0.007540207821875811,-0.0043745082803070545,-0.00017443705291952938
1761479787305300000,0.194300048828125,-0.005873601883649826,-0.0008937568636611104,-0.00018322547839488834
1761479787315336000,0.2043359375,-0.006895989179611206,-0.0007448861724697053,-0.002805640222504735
1761479787325372200,0.2143720703125,-0.006835535634309053,-0.0035776905715465546,-0.0009568737586960196
1761479787335407900,0.224407958984375,-0.004829376470297575,-0.0012207929976284504,-0.003177683800458908
1761479787345443000,0.234443115234375,-0.006936469115316868,-0.004592621233314276,-0.002267415402457118
1761479787355479000,0.24447900390625,-0.006038983818143606,-0.004333229269832373,-0.00236302288249135
1761479787365515000,0.254514892578125,-0.006031260825693607,-0.0010687265312299132,-0.0024202808272093534
1761479787375551000,0.264551025390625,-0.008041947148740292,-0.0029941920656710863,-0.0008849684381857514
1761479787385587000,0.2745869140625,-0.005480785388499498,-0.003736414946615696,0.0002657834847923368
1761479787395623000,0.284622802734375,-0.00612234091386199,-0.002660231664776802,-0.0015704660909250379
1761479787405659000,0.294658935546875,-0.005570267792791128,-0.004459463059902191,-0.003629089565947652
1761479787415694800,0.30469482421875,-0.008596151135861874,0.0004649879119824618,-0.0011294466676190495
1761479787425730000,0.31472998046875,-0.003862116253003478,-0.0028519791085273027,-0.001133707701228559
1761479787435766000,0.32476611328125,-0.004852812271565199,-0.00583764910697937,0.0003664509567897767
1761479787445802000,0.334802001953125,-0.006854976527392864,-0.0031403994653373957,-0.0017907095607370138
1761479787455838000,0.344837890625,-0.006460295990109444,-0.0036738307680934668,-0.002347310073673725
1761479787465874000,0.3548740234375,-0.004704207647591829,-0.0018668759148567915,-0.00008495483780279756
1761479787475910000,0.364909912109375,-0.0059785302728414536,-0.0014173343079164624,-0.002567287301644683
1761479787485945900,0.37494580078125,-0.00612154183909297,-0.0028389296494424343,-0.004144411068409681
1761479787495981000,0.38498095703125,-0.004522580187767744,-0.0013752563390880823,-0.003192331176251173
1761479787506017000,0.39501708984375,-0.007053914945572615,-0.00643765926361084,-0.0007448861724697053
1761479787516053000,0.405052978515625,-0.005994775798171759,-0.0021606225054711103,-0.0019108180422335863
1761479787526089000,0.4150888671875,-0.005811283830553293,-0.003090598387643695,-0.00005965480886516161
1761479787536125000,0.425125,-0.003915645647794008,-0.0006788397440686822,-0.00210629403591156
1761479787546161000,0.435160888671875,-0.006134325172752142,-0.0014804512029513717,-0.0017547567840665579
1761479787556196900,0.44519677734375,-0.0037894118577241898,-0.003753725439310074,-0.0005747101386077702
1761479787566232000,0.455232177734375,-0.0032410670537501574,0.0026346652302891016,-0.002350239548832178
1761479787576268000,0.46526806640625,-0.006436061579734087,-0.0017654094845056534,-0.0024825986474752426
1761479787586304000,0.475303955078125,-0.005943642929196358,-0.0014482269762083888,-0.0020029633305966854
1761479787596340000,0.485340087890625,-0.007655256427824497,-0.004163319710642099,-0.0035686357878148556
1761479787606376000,0.4953759765625,-0.005583050660789013,-0.002457564929500222,-0.00014221279707271606
1761479787616412000,0.505411865234375,-0.006457366514950991,-0.0025997778866440058,-0.0015006912872195244
1761479787626448000,0.51544775390625,-0.005323392804712057,-0.0021049624774605036,0.00022796659322921187
1761479787636483000,0.525483154296875,-0.005889580585062504,-0.00287461606785655,-0.0007251787465065718
1761479787646519000,0.53551904296875,-0.004019775427877903,-0.0029169602785259485,-0.0014271880500018597
1761479787656555000,0.545554931640625,-0.0052267201244831085,-0.00101120222825557,-0.0008474178612232208
1761479787666591000,0.555591064453125,-0.005547630600631237,-0.001955559244379401,-0.001586178783327341
1761479787676627000,0.565626953125,-0.008946357294917107,-0.00285011506639421,-0.0009246495319530368
1761479787686663000,0.575662841796875,-0.006167082116007805,-0.0031252196058630943,-0.0013401026371866465
1761479787696699000,0.585698974609375,-0.003751861397176981,-0.002103364560753107,-0.0011720572365447879
1761479787706733800,0.59573388671875,-0.005613943561911583,-0.0011528824688866735,0.00013182646944187582
1761479787716770000,0.60577001953125,-0.006441920530050993,-0.0027153589762747288,-0.0011435613268986344
1761479787726806000,0.615805908203125,-0.00415319949388504,-0.0017164073651656508,-0.0008751147543080151
1761479787736842000,0.625842041015625,-0.005288239102810621,-0.0006412891671061516,-0.00021198761533014476
1761479787746878000,0.6358779296875,-0.005052815657109022,-0.003065032185986638,-0.0016860472969710827
1761479787756914000,0.645913818359375,-0.0070246197283267975,-0.002148105762898922,0.0002641855680849403
1761479787766950000,0.655949951171875,-0.003961452282965183,-0.0012359730899333954,-0.002454369328916073
1761479787776985900,0.66598583984375,-0.008285893127322197,-0.004798217210918665,-0.001657285145483911
1761479787787020800,0.676020751953125,-0.006962568499147892,-0.002360093407332897,0.00003009372085216455
1761479787797057000,0.68605712890625,-0.006669886875897646,-0.0036786242853850126,-0.0031558459158986807
1761479787807093000,0.696093017578125,-0.006427805405110121,-0.0026437200140208006,0.00013022858183830976
1761479787817129000,0.70612890625,-0.004984638653695583,-0.000675111310556531,-0.0024743429385125637
1761479787827165000,0.7161650390625,-0.004231763072311878,-0.007455253042280674,-0.000010120012120751198
1761479787837201000,0.726200927734375,-0.005861084908246994,-0.005656288005411625,-0.001341434195637703
1761479787847236900,0.73623681640625,-0.006262955721467733,-0.004084223881363869,0.0009302421822212636
1761479787857272800,0.74627294921875,-0.007095193490386009,-0.004033357370644808,-0.00304692261852324
1761479787867307800,0.756307861328125,-0.007092530373483896,-0.0027534421533346176,-0.0021760689560323954
1761479787877344000,0.766343994140625,-0.008706672117114067,-0.002064482541754842,-0.002566754585132003
1761479787887380000,0.7763798828125,-0.006232063286006451,-0.004628041293472052,-0.001948634977452457
1761479787897416000,0.786416015625,-0.006945257540792227,-0.003564641112461686,0.0015387744642794132
1761479787907452000,0.796451904296875,-0.00606375141069293,-0.002258626976981759,-0.001278849900700152
1761479787917487900,0.80648779296875,-0.005477056838572025,-0.0026285399217158556,-0.0033872744534164667
1761479787927524000,0.816524169921875,-0.0035055188927799463,-0.00436039362102747,-0.0016346483025699854
1761479787937560000,0.82656005859375,-0.005369998048990965,-0.003912183456122875,-0.0006711165769957006
1761479787947595000,0.836594970703125,-0.005647765472531319,-0.002921754028648138,-0.000355532014509663
1761479787957631000,0.846630859375,-0.00555162550881505,-0.0019520970527082682,-0.0005640574963763356
1761479787967667000,0.8566669921875,-0.006113552488386631,-0.002201369032263756,0.0011800467036664486
1761479787977703200,0.866703125,-0.005544967483729124,-0.0023185480386018753,-0.0033984598703682423
1761479787987739100,0.8767392578125,-0.007850199937820435,-0.004625910893082619,-0.00030839405371807516
1761479787997775000,0.886775146484375,-0.005847236607223749,-0.0031822111923247576,-0.003567836945876479
1761479788007811000,0.89681103515625,-0.005872802808880806,-0.0020594224333763123,-0.0033811493776738644
1761479788017845800,0.906845703125,-0.007458182517439127,0.0003810983616858721,-0.002977680414915085
1761479788027882000,0.916882080078125,-0.004640025552362204,-0.0035457327030599117,-0.0018969696247950196
1761479788037918200,0.926918212890625,-0.006833671126514673,-0.003307912265881896,-0.0023307986557483673
1761479788047954200,0.9369541015625,-0.00806218758225441,-0.0012056130217388272,-0.0023587618488818407
1761479788057990100,0.946990234375,-0.004008856136351824,-0.0029941920656710863,-0.0030160299502313137
1761479788068026000,0.957026123046875,-0.006328735966235399,-0.003114566905423999,-0.0019022959750145674
1761479788078062000,0.96706201171875,-0.005891445092856884,-0.0019182749092578888,-0.00022956448083277792
1761479788088098000,0.97709814453125,-0.0032642364967614412,-0.004500209353864193,-0.001484445994719863
1761479788098134000,0.987134033203125,-0.006385195069015026,-0.0017744642682373524,-0.001868473831564188
1761479788108169000,0.9971689453125,-0.004760933108627796,-0.002609098795801401,-0.00002370213405811228
1761479788118205200,1.007205078125,-0.005657352972775698,-0.003561445279046893,-0.0014801849611103535
1761479788128241200,1.0172412109375,-0.006402505561709404,-0.0018399780383333564,0.0020096213556826115
1761479788138277000,1.027277099609375,-0.0069503178820014,-0.0028221518732607365,-0.0017654094845056534
1761479788148313000,1.03731298828125,-0.0068118334747850895,-0.0006639260682277381,-0.0007624630234204233
1761479788158349000,1.04734912109375,-0.005613410845398903,-0.0013659353135153651,-0.0021430456545203924
1761479788168385000,1.057385009765625,-0.0067628310061991215,-0.0056802560575306416,-0.002915895078331232
1761479788178420000,1.067419921875,-0.004021905828267336,-0.003424558788537979,-0.0009510148083791137
1761479788188456000,1.0774560546875,-0.006134857889264822,-0.0034471957478672266,0.00020586235041264445
1761479788198492200,1.0874921875,-0.004830974154174328,-0.003019491909071803,-0.002139583695679903
1761479788208528100,1.097528076171875,-0.006966030225157738,-0.004540956113487482,-0.00038003307417966425
1761479788218564000,1.107564208984375,-0.007012369576841593,-0.0036189695820212364,-0.001710814656689763
1761479788228600000,1.11760009765625,-0.004191549029201269,-0.004023769870400429,-0.0029561088886111975
1761479788238636000,1.127635986328125,-0.005024585872888565,-0.004399542231112719,-0.0015960324089974165
1761479788248672000,1.137672119140625,-0.00800413079559803,-0.0025896579027175903,0.0009411611245013773
1761479788258708000,1.1477080078125,-0.005951632279902697,-0.006206230726093054,-0.0009566074586473405
1761479788268743000,1.157742919921875,-0.0051931641064584255,-0.006331665441393852,-0.00170788518153131
1761479788278779100,1.167779052734375,-0.007931426167488098,-0.003026416292414069,-0.0012064119800925255
1761479788288815000,1.177815185546875,-0.007411843631416559,-0.0036786242853850126,-0.0011020160745829344
1761479788298851000,1.18785107421875,-0.007144728675484657,-0.0026442527305334806,-0.0013606089632958174
1761479788308887000,1.197886962890625,-0.0043958136811852455,-0.0025619608350098133,-0.0004921521758660674
1761479788318923000,1.207923095703125,-0.004907939583063126,-0.004720719531178474,0.00021172130072955042
1761479788328959000,1.217958984375,-0.008387093432247639,-0.003227218519896269,-0.004428304266184568
1761479788338994200,1.227994140625,-0.007919708266854286,-0.0037201696541160345,-0.0017454357584938407
1761479788349029400,1.238029296875,-0.006943926215171814,-0.005643238313496113,-0.0020509003661572933
1761479788359065300,1.2480654296875,-0.007238738238811493,-0.004683434963226318,-0.0025712819769978523
1761479788369101300,1.258101318359375,-0.003998203668743372,-0.005695702508091927,-0.0013049489352852106
1761479788379137300,1.26813720703125,-0.006070409435778856,-0.0023276028223335743,-0.0011547466274350882
1761479788389173200,1.27817333984375,-0.004378769546747208,-0.00430260319262743,-0.0011502192355692387
1761479788399209200,1.288209228515625,-0.005642705596983433,-0.005958290304988623,-0.00022610237647313625
1761479788409245200,1.2982451171875,-0.006506368983536959,-0.0022325278259813786,-0.001975799212232232
1761479788419281200,1.30828125,-0.005083974450826645,-0.0020333235152065754,-0.002112419344484806
1761479788429317000,1.318317138671875,-0.005763879511505365,-0.0020636834669858217,-0.0020631509833037853
1761479788439352300,1.328352294921875,-0.006897054612636566,-0.0026581010315567255,-0.0034903388004750013
1761479788449388300,1.33838818359375,-0.0065258098766207695,-0.0017467673169448972,-0.002073803450912237
1761479788459424300,1.34842431640625,-0.006275206338614225,-0.0007099987124092877,-0.0025534387677907944
1761479788469460200,1.358460205078125,-0.009272594004869461,-0.0035806200467050076,-0.0034519892651587725
1761479788479496200,1.36849609375,-0.004792091902345419,-0.0017531589837744832,0.00005406216951087117
1761479788489532200,1.3785322265625,-0.00694871973246336,-0.0026754115242511034,-0.0002657834847923368
1761479788499568000,1.388568115234375,-0.005653890781104565,-0.0029148298781365156,-0.00261841993778944
1761479788509604000,1.39860400390625,-0.004285026341676712,-0.005947371479123831,-0.0005893575726076961
1761479788519640300,1.408640380859375,-0.006088252644985914,-0.0017118799732998013,-0.0010639328975230455
1761479788529675300,1.41867529296875,-0.0054429685696959496,-0.0006942860782146454,0.00012756542128045112
1761479788539711200,1.428711181640625,-0.005788912996649742,-0.002183525823056698,-0.003594202222302556
1761479788549747200,1.438747314453125,-0.007545001804828644,-0.003677292726933956,-0.0018125474452972412
1761479788559783200,1.448783203125,-0.006144977640360594,-0.004550543148070574,-0.001582982949912548
1761479788569819100,1.458819091796875,-0.004535363521426916,-0.00401604687795043,-0.0013065468519926071
1761479788579855000,1.468855224609375,-0.0060059609822928905,-0.003575559938326478,0.00011265171633567661
1761479788589891000,1.47889111328125,-0.006736732088029385,-0.0051659997552633286,-0.0005275722360238433
1761479788599927300,1.48892724609375,-0.004914331249892712,-0.0035308189690113068,-0.0024493092205375433
1761479788609962200,1.498962158203125,-0.0032477248460054398,-0.003186738584190607,-0.0012175972806289792
1761479788619998200,1.508998291015625,-0.008776447735726833,-0.002567287301644683,-0.0018138790037482977
1761479788630034200,1.5190341796875,-0.007894141599535942,-0.002445314545184374,-0.0010615360224619508
1761479788640070100,1.529070068359375,-0.005132444202899933,-0.002808303339406848,-0.0022069616243243217
1761479788650106000,1.539106201171875,-0.006589991971850395,-0.002035187790170312,-0.00007430219557136297
1761479788660142000,1.54914208984375,-0.004854409955441952,-0.0037023264449089766,-0.0015454323729500175
1761479788670178000,1.559177978515625,-0.007865379564464092,-0.0008655273704789579,-0.0024378576781600714
1761479788680214300,1.56921435546875,-0.005709550809115171,-0.003242931328713894,0.0007107976707629859
1761479788690249200,1.579249267578125,-0.007334611844271421,-0.003611779073253274,-0.0012892362428829074
1761479788700285200,1.58928515625,-0.005603823345154524,-0.000815193576272577,-0.0005803027888759971
1761479788710321200,1.599321044921875,-0.005095692351460457,-0.001110005541704595,-0.0032711606472730637
1761479788720357000,1.609357177734375,-0.005875199567526579,-0.004789695143699646,-0.003215500619262457
1761479788730393000,1.61939306640625,-0.006543120369315147,-0.0022828616201877594,-0.0019478360190987587
1761479788740429000,1.629428955078125,-0.005338040180504322,-0.004002997186034918,-0.00392896169796586
1761479788750465300,1.63946533203125,-0.004979312419891357,-0.00407596817240119,-0.002258626976981759
1761479788760501500,1.64950146484375,-0.006806773599237204,-0.0020703414920717478,-0.003335342975333333
1761479788770537500,1.659537353515625,-0.004014182835817337,-0.003769438248127699,-0.0013733921805396676
1761479788780572200,1.669572265625,-0.006502906791865826,-0.0029284118209034204,-0.0008231831016018987
1761479788790608100,1.679608154296875,-0.005864280741661787,-0.00350445369258523,-0.00224930583499372
1761479788800644000,1.68964404296875,-0.004178766161203384,-0.0016189356101676822,-0.0004564658156596124
1761479788810680000,1.69968017578125,-0.007522364612668753,-0.00006125270738266408,-0.0022114890161901712
1761479788820716300,1.70971630859375,-0.002552639925852418,-0.004501008428633213,-0.00247567449696362
1761479788830752300,1.719752197265625,-0.006419549696147442,-0.0015614113071933389,-0.0016194682102650404
1761479788840788500,1.72978857421875,-0.005391569808125496,0.0013382384786382318,-0.001588575541973114
1761479788850824400,1.739824462890625,-0.0062331282533705235,-0.0023156185634434223,-0.0020703414920717478
1761479788860860400,1.7498603515625,-0.007733553647994995,-0.003385144053027034,0.0015960324089974165
1761479788870896400,1.759896484375,-0.004561728797852993,-0.002302835462614894,-0.0004540689697023481
1761479788880931300,1.769931396484375,-0.004739094991236925,-0.002584864152595401,0.00036938043194822967
1761479788890967300,1.77996728515625,-0.004777178168296814,-0.0009816411184147,-0.002508697798475623
1761479788901003300,1.790003173828125,-0.007553257513791323,-0.002606435678899288,0.00006870955257909372
1761479788911039200,1.800039306640625,-0.00791677925735712,0.00025353292585350573,-0.001592037733644247
1761479788921075500,1.810075439453125,-0.005289570428431034,-0.0018943065078929067,-0.0012389025650918484
1761479788931111400,1.820111328125,-0.0051598744466900826,-0.0015550197567790747,-0.0016138756182044744
1761479788941147400,1.8301474609375,-0.006514891050755978,-0.000222373942960985,-0.0013520868960767984
1761479788951183400,1.840183349609375,-0.0037851508241146803,-0.00424241553992033,-0.0046964846551418304
1761479788961218300,1.85021826171875,-0.006687996443361044,-0.0020841897930949926,-0.00418489146977663
1761479788971254300,1.860254150390625,-0.0070488546043634415,-0.003564907470718026,-0.0025419872254133224
1761479788981290200,1.870290283203125,-0.006852313410490751,-0.003347327234223485,-0.0011776498286053538
1761479788991326200,1.880326171875,-0.005902630276978016,-0.004024568945169449,-0.000483363721286878
1761479789001362400,1.890362548828125,-0.006040315609425306,-0.0010343717876821756,-0.0020695424173027277
1761479789011398400,1.9003984375,-0.006431800313293934,-0.0021931130904704332,-0.0016684704460203648
1761479789021434400,1.910434326171875,-0.0068214209750294685,-0.0013496900210157037,-0.0013622068800032139
1761479789031470300,1.92047021484375,-0.007859786972403526,-0.0029174929950386286,-0.0005547364708036184
1761479789041506300,1.93050634765625,-0.006065881811082363,-0.0006439523422159255,-0.0016847157385200262
1761479789051541200,1.940541259765625,-0.0030133668333292007,-0.0009976201690733433,-0.0005605954211205244
1761479789061577200,1.9505771484375,-0.00700970645993948,-0.002124936319887638,-0.0019374496769160032
1761479789071613200,1.96061328125,-0.005301821045577526,-0.0006375607335940003,-0.0034972631838172674
1761479789081649400,1.9706494140625,-0.007172425277531147,-0.0030956584960222244,-0.0018154769204556942
1761479789091685400,1.980685302734375,-0.005632852204144001,0.0023582291323691607,-0.0028636970091611147
1761479789101721300,1.990721435546875,-0.0056712012737989426,-0.00250470289029181,-0.0010514160385355353
1761479789111757300,2.00075732421875,-0.0070190271362662315,-0.0025268071331083775,-0.0032570459879934788
1761479789121793300,2.010793212890625,-0.004145210143178701,-0.004644286818802357,-0.0013110742438584566
1761479789131829200,2.020829345703125,-0.006341519299894571,-0.0012506204657256603,-0.0006559365428984165
1761479789141864200,2.0308642578125,-0.005365470424294472,-0.002207760466262698,-0.0019768644124269485
1761479789151900400,2.040900390625,-0.005666940473020077,-0.005309011787176132,-0.0011227887589484453
1761479789161936400,2.050936279296875,-0.005321261938661337,-0.0019403791520744562,0.000180029688635841
1761479789171972400,2.060972412109375,-0.006736199837177992,-0.006085056811571121,-0.0008578042034059763
1761479789182008300,2.07100830078125,-0.006117014680057764,-0.0031638352666050196,-0.0005888249143026769
1761479789192044300,2.081044189453125,-0.00580728892236948,-0.0015385081060230732,-0.002356897573918104
1761479789202080300,2.091080322265625,-0.006588127929717302,-0.001073786523193121,-0.0026383937802165747
1761479789212116200,2.1011162109375,-0.005633118096739054,-0.00318966805934906,-0.002207494108006358
1761479789222152200,2.111152099609375,-0.006773483939468861,-0.0014716627774760127,-0.00019094864546786994
1761479789232187400,2.1211875,-0.0049526807852089405,-0.0018402442801743746,-0.0013994910987094045
1761479789242223400,2.131223388671875,-0.005032841581851244,-0.004677043296396732,-0.002010420197620988
1761479789252259300,2.14125927734375,-0.00523710623383522,-0.004192081745713949,-0.000657534459605813
1761479789262295300,2.15129541015625,-0.00646828580647707,-0.004944424610584974,-0.001916410750709474
1761479789272331300,2.161331298828125,-0.0046578687615692616,-0.00187992537394166,-0.0018437063554301858
1761479789282367200,2.1713671875,-0.00586614478379488,-0.004481567535549402,-0.0009038768475875258
1761479789292403200,2.1814033203125,-0.007465106900781393,-0.00333134806714952,0.0004625910660251975
1761479789302439200,2.191439208984375,-0.006491987966001034,-0.0007597998483106494,-0.002347310073673725
1761479789312475100,2.20147509765625,-0.007593204732984304,-0.0016106797847896814,-0.0024205471854656935
1761479789322510300,2.21151025390625,-0.00458702864125371,-0.002429868094623089,0.0005073322099633515
1761479789332547600,2.221547607421875,-0.005317001137882471,-0.0034559841733425856,-0.0023579627741128206
1761479789342583600,2.23158349609375,-0.005422462243586779,-0.0014381069922819734,-0.0026160231791436672
1761479789352619500,2.24161962890625,-0.006573746912181377,-0.003379551460966468,-0.0017164073651656508
1761479789362655700,2.25165576171875,-0.005495166406035423,-0.005489307455718517,-0.0008988168556243181
1761479789372691700,2.261691650390625,-0.0062768044881522655,-0.0009086705395020545,-0.0013054815353825688
1761479789382727700,2.271727783203125,-0.006825681775808334,-0.002252768026664853,-0.00233266269788146
1761479789392763600,2.281763671875,-0.006295179948210716,0.0016620787791907787,-0.0021345235873013735
1761479789402798600,2.291798583984375,-0.005313805304467678,-0.002825880190357566,-0.002487126039341092
1761479789412834600,2.30183447265625,-0.006572148762643337,-0.0006271744496189058,-0.0026253440883010626
1761479789422870500,2.31187060546875,-0.0065258098766207695,-0.001184574095532298,-0.003226952161639929
1761479789432906800,2.32190673828125,-0.003893541404977441,-0.0020413128659129143,-0.0020426444243639708
1761479789442942700,2.331942626953125,-0.006356698926538229,-0.004554005339741707,0.0008325041271746159
1761479789452978700,2.341978759765625,-0.007423028815537691,-0.002673813607543707,-0.0008881642133928835
1761479789463014700,2.3520146484375,-0.006435528863221407,-0.0026642263401299715,-0.001484179636463523
1761479789473050600,2.362050537109375,-0.005579322576522827,-0.0037177728954702616,-0.0011827098205685616
1761479789483086600,2.372086669921875,-0.004265851341187954,-0.006931409239768982,-0.0023606258910149336
1761479789493121500,2.38212158203125,-0.006225937977433205,-0.0029403960797935724,0.00046152580762282014
1761479789503157500,2.392157470703125,-0.006388124544173479,-0.0034136399626731873,-0.002269545802846551
1761479789513193700,2.40219384765625,-0.006146575789898634,-0.0006332996999844909,-0.0016626114957034588
1761479789523229700,2.412229736328125,-0.007407848723232746,-0.002438922878354788,0.0006958839949220419
1761479789533265700,2.422265625,-0.0051622712053358555,-0.0014618091518059373,-0.0023377228062599897
1761479789543301600,2.432301513671875,-0.0037729002069681883,-0.004895955324172974,-0.0033960631117224693
1761479789553337600,2.442337646484375,-0.006192648317664862,-0.0020061591640114784,-0.0006242449744604528
1761479789563373600,2.45237353515625,-0.004947354551404715,-0.006084524095058441,0.00047936898772604764
1761479789573409500,2.462409423828125,-0.006481601390987635,-0.0044317664578557014,-0.0003683151735458523
1761479789583444500,2.472444580078125,-0.003829359309747815,-0.0022184131667017937,-0.002439721953123808
1761479789593480700,2.482480712890625,-0.0054357778280973434,0.00040320257539860904,-0.002285258611664176
1761479789603516700,2.4925166015625,-0.004959338344633579,-0.0017797905020415783,-0.000627707049716264
1761479789613552600,2.502552734375,-0.004637628793716431,-0.004462126176804304,-0.0012591425329446793
1761479789623588600,2.512588623046875,-0.005771336145699024,-0.004803543444722891,-0.0026181535795331
1761479789633624600,2.52262451171875,-0.005071723833680153,-0.0037465349305421114,-0.0007869640830904245
1761479789643660500,2.53266064453125,-0.00512791657820344,0.00018242653459310532,0.0006149238906800747
1761479789653696500,2.542696533203125,-0.005195028148591518,-0.002573412610217929,-0.0031553131993860006
1761479789663732500,2.552732421875,-0.005206213798373938,0.00040666470886208117,-0.002267415402457118
1761479789673767700,2.562767578125,-0.008029164746403694,-0.001972603378817439,-0.0026905916165560484
1761479789683803600,2.5728037109375,-0.005352953914552927,0.00041571943438611925,-0.0017262609908357263
1761479789693839600,2.582839599609375,-0.007766576483845711,-0.0029909962322562933,-0.004415254574269056
1761479789703875600,2.59287548828125,-0.004706870764493942,-0.003111637430265546,-0.00014620754518546164
1761479789713911600,2.60291162109375,-0.006249640136957169,-0.0040975394658744335,-0.0029606360476464033
1761479789723947500,2.612947509765625,-0.007266967557370663,-0.0005819007055833936,-0.0014002900570631027
1761479789733983500,2.6229833984375,-0.0062584285624325275,-0.004942027851939201,-0.0008474178612232208
1761479789744019500,2.63301953125,-0.00797057431191206,-0.001127316034398973,0.002659432590007782
1761479789754055400,2.643055419921875,-0.004998486954718828,-0.0005784385721199214,-0.0010048106778413057
1761479789764090600,2.653090576171875,-0.006205964367836714,-0.005261607468128204,-0.002091913018375635
1761479789774126600,2.663126708984375,-0.008083226159214973,-0.005289304070174694,-0.0017986990278586745
1761479789784162600,2.67316259765625,-0.005684250965714455,-0.003890878288075328,-0.0002644518972374499
1761479789794198500,2.683198486328125,-0.004926049150526524,-0.0027025758754462004,0.0004146541759837419
1761479789804234500,2.693234375,-0.004591023549437523,-0.0027182884514331818,-0.0020333235152065754
1761479789814270500,2.7032705078125,-0.005830458365380764,-0.0025622271932661533,-0.0007014766451902688
1761479789824306400,2.713306396484375,-0.004382497631013393,-0.0022559636272490025,-0.0046243127435445786
1761479789834342700,2.7233427734375,-0.006485063582658768,-0.00307648372836411,-0.001478587044402957
1761479789844377600,2.733377685546875,-0.005048288032412529,-0.0034416031558066607,-0.002770220162346959
1761479789854413600,2.74341357421875,-0.005398493725806475,-0.004573978949338198,-0.001041562296450138
1761479789864449500,2.753449462890625,-0.0070280819199979305,-0.0060296631418168545,-0.0023411849979311228
1761479789874485500,2.763485595703125,-0.004991828929632902,-0.003153715282678604,-0.0003206445835530758
1761479789884521500,2.773521484375,-0.005800630897283554,-0.0035183019936084747,-0.0032349417451769114
1761479789894557700,2.7835576171875,-0.005347627215087414,-0.001886317040771246,-0.001856755930930376
1761479789904593700,2.79359375,-0.004959871061146259,-0.001567802974022925,0.00002103897168126423
1761479789914629600,2.803629638671875,-0.005530586466193199,-0.002299106912687421,-0.0030868700705468655
1761479789924665600,2.81366552734375,-0.006160157732665539,-0.0028280108235776424,-0.002585130510851741
1761479789934700500,2.823700439453125,-0.005341768264770508,-0.003573429537937045,-0.0004950816510245204
1761479789944736800,2.83373681640625,-0.006632070057094097,-0.0018927085911855102,-0.0024527714122086763
1761479789954772700,2.843772705078125,-0.00717615382745862,-0.0021134845446795225,-0.0008210525847971439
1761479789964808700,2.85380859375,-0.005031243897974491,-0.002825880190357566,-0.0019185412675142288
1761479789974844700,2.8638447265625,-0.007983091287314892,-0.005879194475710392,-0.0031971249263733625
1761479789984880600,2.873880615234375,-0.005819273181259632,-0.003424292430281639,-0.003479952458292246
1761479789994916600,2.88391650390625,-0.006530603393912315,-0.006428604479879141,-0.0005070658517070115
1761479790004952600,2.89395263671875,-0.005781456362456083,-0.004235225263983011,-0.0035635759122669697
1761479790014988500,2.903988525390625,-0.006365753710269928,-0.0016980315558612347,-0.00005352953667170368
1761479790025023700,2.914023681640625,-0.005375057924538851,-0.004712196998298168,-0.0022184131667017937
1761479790035059700,2.924059814453125,-0.00555242458358407,-0.002942793071269989,-0.001317998394370079
1761479790045095700,2.934095703125,-0.005656820256263018,-0.0037404096219688654,-0.0018735338235273957
1761479790055131600,2.944131591796875,-0.007081078831106424,-0.00333241350017488,-0.0016817862633615732
1761479790065167600,2.954167724609375,-0.0057737333700060844,-0.00418435875326395,-0.002226136391982436
1761479790075203600,2.96420361328125,-0.003991013392806053,-0.005441104527562857,-0.004481833893805742
1761479790085239600,2.974239501953125,-0.007715976797044277,-0.002377670258283615,-0.0006255765329115093
1761479790095275500,2.984275634765625,-0.0028538433834910393,-0.00284958234988153,-0.0031260184478014708
1761479790105310700,2.994310791015625,-0.006837399676442146,0.0005219795857556164,-0.001062334980815649
1761479790115346700,3.0043466796875,-0.005143629387021065,-0.0032471923623234034,-0.003364637726917863
1761479790125382700,3.014382568359375,-0.00430020596832037,-0.0034269557800143957,0.0005552690709009767
1761479790135418600,3.024418701171875,-0.0059508332051336765,-0.003946804907172918,-0.0022972426377236843
1761479790145454600,3.03445458984375,-0.0046331011690199375,-0.004363323096185923,-0.0013195963110774755
1761479790155490600,3.044490478515625,-0.005929261911660433,-0.0022005699574947357,-0.0025031049735844135
1761479790165526500,3.054526611328125,-0.0041673146188259125,-0.0013203952694311738,-0.0005576659459620714
1761479790175562500,3.0645625,-0.007969243451952934,-0.004746019374579191,-0.0029555761720985174
1761479790185598700,3.0745986328125,-0.006453372072428465,-0.003450924064964056,-0.002624545246362686
1761479790195633700,3.084633544921875,-0.006707170978188515,-0.0036394759081304073,0.0005241101025603712
1761479790205669600,3.094669677734375,-0.007245129905641079,-0.003590740030631423,0.0001382180635118857
1761479790215705600,3.10470556640625,-0.004584631882607937,-0.0041153826750814915,-0.0017275925492867827
1761479790225741600,3.114741455078125,-0.007266701199114323,-0.001505484920926392,-0.0017608820926398039
1761479790235777500,3.124777587890625,-0.006873618811368942,-0.006742857396602631,-0.0026493126060813665
1761479790245813500,3.1348134765625,-0.0073071811348199844,-0.002283926820382476,0.0004974784678779542
1761479790255849500,3.144849365234375,-0.006804110016673803,-0.0012066783383488655,-0.0012610068079084158
1761479790265885700,3.1548857421875,-0.006640592124313116,-0.0020000338554382324,-0.003418966196477413
1761479790275920600,3.164920654296875,-0.00301682879216969,-0.0034208304714411497,-0.0006900250446051359
1761479790285956600,3.17495654296875,-0.004139351192861795,-0.0029550434555858374,-0.0027771443128585815
1761479790295992600,3.18499267578125,-0.004281564150005579,-0.0023276028223335743,-0.002936135046184063
1761479790306028500,3.195028564453125,-0.0064866612665355206,-0.00413509039208293,-0.002234924817457795
1761479790316064500,3.205064453125,-0.008948487229645252,-0.0031406658235937357,-0.0007659250986762345
1761479790326100500,3.2151005859375,-0.005434712860733271,-0.001939846551977098,-0.0025156219489872456
1761479790336136200,3.22513623046875,-0.006974818650633097,0.000041545314161339775,-0.0009941579774022102
1761479790346172200,3.235172119140625,-0.005717007908970118,-0.0023166837636381388,-0.0002849582233466208
1761479790356208000,3.2452080078125,-0.006649646908044815,-0.0009864348685368896,-0.0005062668933533132
1761479790366243000,3.2552431640625,-0.006485596299171448,-0.0007001450285315514,-0.0002324939559912309
1761479790376279000,3.265279052734375,-0.004525776021182537,-0.0013156015193089843,0.00012543488992378116
1761479790386315000,3.27531494140625,-0.004320180043578148,-0.0034732946660369635,-0.0018671422731131315
1761479790396351000,3.28535107421875,-0.00780625781044364,-0.004692223388701677,-0.0034850125666707754
1761479790406387200,3.29538720703125,-0.008386294357478619,-0.0014612764352932572,-0.0035353463608771563
1761479790416423200,3.305423095703125,-0.007934622466564178,-0.003319630166515708,-0.00045833003241568804
1761479790426459100,3.315459228515625,-0.004850415047258139,-0.003245860803872347,-0.0013728595804423094
1761479790436495000,3.3254951171875,-0.0062421830371022224,-0.004880775231868029,-0.0027110979426652193
1761479790446530000,3.335530029296875,-0.007921040058135986,-0.0032495891209691763,-0.00043276368523947895
1761479790456566000,3.34556591796875,-0.007645935285836458,-0.0018239989876747131,-0.0018197379540652037
1761479790466602000,3.35560205078125,-0.006023005116730928,-0.0007592672482132912,0.00017017599020618945
1761479790476638000,3.365637939453125,-0.00683233980089426,-0.002245843643322587,0.0004463458026293665
1761479790486674200,3.375674072265625,-0.003962250892072916,-0.005387574899941683,-0.0004500742070376873
1761479790496710100,3.385710205078125,-0.005310875829309225,-0.002026133006438613,0.00029108350281603634
1761479790506746000,3.39574609375,-0.005386243108659983,-0.0019947076216340065,-0.0012399677652865648
1761479790516782000,3.405781982421875,-0.005511678289622068,-0.0006378270918503404,-0.001544100814498961
1761479790526817000,3.415817138671875,-0.005559614859521389,-0.002715625334531069,-0.0023907197173684835
1761479790536853000,3.42585302734375,-0.007182545494288206,-0.0018101505702361465,0.00032437301706522703
1761479790546889000,3.435888916015625,-0.004923652391880751,-0.00478543434292078,-0.003251453395932913
1761479790556925200,3.44592529296875,-0.004286357667297125,-0.002368349116295576,-0.0017984326696023345
1761479790566961200,3.455961181640625,-0.008489091880619526,-0.005075718741863966,-0.001865011639893055
1761479790576997000,3.4659970703125,-0.0059867859818041325,-0.005261873826384544,-0.0007115966291166842
1761479790587033000,3.476033203125,-0.007358846720308065,-0.003772634081542492,-0.0013235911028459668
1761479790597069000,3.486069091796875,-0.005198223982006311,-0.0035888757556676865,-0.0008080030675046146
1761479790607105000,3.49610498046875,-0.006461894139647484,-0.00138084904756397,-0.0033968619536608458
1761479790617140000,3.506139892578125,-0.003614442190155387,-0.005642172880470753,-0.004454669542610645
1761479790627176000,3.516176025390625,-0.006904244888573885,-0.005232844967395067,-0.0016375777777284384
1761479790637212200,3.526212158203125,-0.006052566226571798,-0.0024708807468414307,-0.0036360137164592743
1761479790647248100,3.536248046875,-0.005391835700720549,-0.00618093041703105,-0.0023033679462969303
1761479790657284000,3.5462841796875,-0.004034689161926508,-0.0010956244077533484,-0.00009400958515470847
1761479790667320000,3.556320068359375,-0.0068448567762970924,-0.004351338837295771,-0.001404284848831594
1761479790677356000,3.56635595703125,-0.00802943017333746,-0.0010327738709747791,-0.0015550197567790747
1761479790687392000,3.57639208984375,-0.007249390706419945,-0.004729241598397493,-0.0034589136485010386
1761479790697427000,3.586427001953125,-0.007012369576841593,-0.004826446995139122,-0.0014362427173182368
1761479790707463000,3.596462890625,-0.005824865773320198,-0.0037670412566512823,-0.0013435647124424577
1761479790717499100,3.6064990234375,-0.006141782272607088,-0.0029558425303548574,-0.0015989618841558695
1761479790727535000,3.61653515625,-0.00404507527127862,-0.0038088529836386442,-0.003367567202076316
1761479790737571000,3.626571044921875,-0.006630738265812397,-0.0035025894176214933,-0.001847701147198677
1761479790747607000,3.63660693359375,-0.006657636258751154,-0.004291950259357691,0.0012772521004080772
1761479790757643000,3.64664306640625,-0.005079447291791439,-0.0006301039247773588,-0.001395230065099895
1761479790767679200,3.65667919921875,-0.0056893108412623405,-0.0006482133758254349,-0.0004689826746471226
1761479790777714000,3.6667138671875,-0.005751096177846193,-0.00012010856153210625,-0.002537193475291133
1761479790787750000,3.67675,-0.006716225761920214,-0.002941727638244629,-0.0009555422002449632
1761479790797786000,3.6867861328125,-0.008726646192371845,0.0005147890187799931,-0.0013579458463937044
1761479790807822000,3.696822021484375,-0.005338306538760662,-0.0028903286438435316,-0.0020823257509618998
1761479790817858300,3.7068583984375,-0.004819788970053196,-0.004824582487344742,0.0003736414946615696
1761479790827894300,3.716894287109375,-0.004113518632948399,-0.003973436541855335,-0.0012314456980675459
1761479790837930200,3.72693017578125,-0.006885603070259094,-0.004265584982931614,-0.0014644722687080503
1761479790847966200,3.73696630859375,-0.006028864067047834,-0.004311391618102789,-0.0010902981739491224
1761479790858001000,3.7470009765625,-0.006615558639168739,-0.00029055087361484766,-0.0012780509423464537
1761479790868036900,3.757036865234375,-0.006107693538069725,-0.003058374160900712,-0.002172074280679226
1761479790878073000,3.767072998046875,-0.007492803502827883,-0.005835518706589937,-0.001258343574590981
1761479790888109300,3.777109375,-0.005175587255507708,-0.003719104453921318,-0.0024525050539523363
1761479790898145300,3.787145263671875,-0.004960137419402599,-0.005558017175644636,-0.0032501218374818563
1761479790908181200,3.79718115234375,-0.008807606063783169,-0.0017161410069093108,-0.0007480819476768374
1761479790918217200,3.80721728515625,-0.0062797339633107185,-0.0015313175972551107,-0.0025808694772422314
1761479790928253200,3.817253173828125,-0.006968959700316191,-0.0017787253018468618,-0.00155288923997432
1761479790938288000,3.8272880859375,-0.006867759861052036,-0.0018738001817837358,-0.0012458267156034708
1761479790948324000,3.837323974609375,-0.006910636555403471,-0.0001536643976578489,0.00031638352083973587
1761479790958360300,3.8473603515625,-0.007476824801415205,-0.003448260948061943,-0.0015811186749488115
1761479790968396300,3.857396240234375,-0.0049129994586110115,-0.0036823528353124857,-0.0009499495499767363
1761479790978432300,3.867432373046875,-0.006178533658385277,-0.0006079996819607913,-0.0002854908525478095
1761479790988468200,3.87746826171875,-0.00782489962875843,-0.0006745787104591727,-0.0029731530230492353
1761479790998504200,3.887504150390625,-0.006715160794556141,0.000428502622526139,-0.002868490759283304
1761479791008540200,3.8975400390625,-0.006169478874653578,-0.0007411577389575541,-0.0015190670965239406
1761479791018575000,3.9075751953125,-0.0073053170926868916,0.0001579254458192736,0.0005811017472296953
1761479791028611000,3.917611083984375,-0.0073298183269798756,-0.0006889597862027586,0.00019893812714144588
1761479791038647300,3.927647216796875,-0.0041529336012899876,-0.004693022463470697,0.0006191849242895842
1761479791048683300,3.937683349609375,-0.006061088293790817,-0.001784850494004786,0.00046312372433021665
1761479791058719200,3.94771923828125,-0.006933007389307022,0.00043542683124542236,-0.003019491909071803
1761479791068755200,3.957755126953125,-0.007237406447529793,-0.0033633061684668064,-0.002959570847451687
1761479791078791200,3.967791259765625,-0.004944957327097654,-0.005280782002955675,0.00040506679215468466
1761479791088827100,3.9778271484375,-0.0051902346312999725,-0.004568919073790312,-0.0011528824688866735
1761479791098863000,3.987863037109375,-0.005203017964959145,-0.004674912896007299,-0.0016961672808974981
1761479791108898000,3.99789794921875,-0.005853894166648388,-0.0028671592008322477,-0.0021654162555933
1761479791118933200,4.007933349609375,-0.005509813781827688,-0.004278368316590786,-0.004156395327299833
1761479791128969200,4.01796923828125,-0.005346562247723341,-0.001755289500579238,0.0002556634717620909
1761479791139005200,4.028005126953125,-0.005205947440117598,-0.00373055599629879,-0.0025507756508886814
1761479791149039900,4.038039794921875,-0.006815827917307615,-0.0033007217571139336,-0.003069559345021844
1761479791159076000,4.048076171875,-0.00806032307446003,-0.0014285196084529161,-0.0005193164106458426
1761479791169112300,4.0581123046875,-0.005832322873175144,0.0002532666258048266,-0.002198439557105303
1761479791179148300,4.068148193359375,-0.006353769451379776,-0.004512992687523365,-0.0016136092599481344
1761479791189184300,4.078184326171875,-0.006375873927026987,-0.004787564743310213,-0.0013611416798084974
1761479791199220200,4.08822021484375,-0.006105296779423952,-0.001728391507640481,-0.0018050905782729387
1761479791209256200,4.098256103515625,-0.007748999632894993,-0.0032288164366036654,-0.0015132081462070346
1761479791219292200,4.108292236328125,-0.0075817531906068325,-0.0019390475936233997,-0.0023060310631990433
1761479791229327000,4.1183271484375,-0.006190784275531769,-0.00004926848123432137,-0.003579821204766631
1761479791239363000,4.128363037109375,-0.005535912699997425,-0.003575826296582818,-0.00407490273937583
1761479791249399300,4.1383994140625,-0.006657103542238474,-0.001136104459874332,-0.003489273600280285
1761479791259435300,4.148435302734375,-0.0023007048293948174,-0.005538043566048145,-0.002591521944850683
1761479791269471200,4.15847119140625,-0.007763380650430918,-0.0029023129027336836,-0.0020130835473537445
1761479791279507200,4.168507080078125,-0.005185707006603479,-0.003234142903238535,-0.0005494101205840707
1761479791289543200,4.178543212890625,-0.006042712368071079,-0.001356347929686308,-0.0025473134592175484
1761479791299579100,4.1885791015625,-0.0036602485924959183,-0.001231711939908564,0.0004551342281047255
1761479791309614000,4.198614013671875,-0.005138036794960499,-0.00044581317342817783,-0.001341966912150383
1761479791319650000,4.208650146484375,-0.007397995330393314,-0.00210682675242424,-0.0004290352517273277
1761479791329686300,4.218686279296875,-0.0067961206659674644,0.00047404266661033034,0.0005464806454256177
1761479791339722200,4.22872216796875,-0.007834487594664097,-0.0022421153262257576,-0.0012727247085422277
1761479791349758200,4.23875830078125,-0.005839779507368803,-0.005951632279902697,-0.0017622136510908604
1761479791359794200,4.248794189453125,-0.007838215678930283,-0.0032003207597881556,-0.0006237123161554337
1761479791369830100,4.258830078125,-0.0037020600866526365,-0.004175303969532251,-0.0043739755637943745
1761479791379866000,4.2688662109375,-0.0057617491111159325,-0.0006133259739726782,-0.0028844696935266256
1761479791389901000,4.278901123046875,-0.007822236977517605,-0.0025534387677907944,-0.001252750982530415
1761479791399937300,4.288937255859375,-0.005950567312538624,-0.006136455573141575,-0.0006271744496189058
1761479791409973200,4.29897314453125,-0.00811864621937275,-0.003436543047428131,-0.0023212111555039883
1761479791420009200,4.30900927734375,-0.0054304515942931175,-0.0031944618094712496,-0.0010580739472061396
1761479791430045200,4.319045166015625,-0.004571582190692425,-0.00253532943315804,-0.0017366473330184817
1761479791440081200,4.3290810546875,-0.005298891570419073,-0.0019121496006846428,-0.001752360025420785
1761479791450117000,4.3391171875,-0.005961219780147076,-0.003777960315346718,0.0007648598402738571
1761479791460153000,4.349153076171875,-0.005823001731187105,-0.002654106356203556,-0.0008202536264434457
1761479791470188000,4.35918798828125,-0.00589597225189209,-0.0017648768844082952,-0.0008588694618083537
1761479791480224300,4.369224365234375,-0.006313555873930454,-0.0054727960377931595,-0.0010894992155954242
1761479791490260200,4.37926025390625,-0.004709533881396055,-0.0032538501545786858,-0.003706587478518486
1761479791500296200,4.389296142578125,-0.005998503882437944,-0.0008841694798320532,-0.0017920411191880703
1761479791510332200,4.399332275390625,-0.005379319190979004,0.00045566685730591416,0.00007909588020993397
1761479791520368000,4.4093681640625,-0.0062917182222008705,0.00046578687033616006,-0.002089249901473522
1761479791530404000,4.419404052734375,-0.004704740364104509,-0.00392736354842782,-0.0024503744207322598
1761479791540440000,4.429440185546875,-0.005732720717787743,-0.00472631212323904,-0.0014969628537073731
1761479791550475000,4.43947509765625,-0.003906324505805969,-0.00043302998528815806,-0.0021664814557880163
1761479791560511200,4.44951123046875,-0.004545749630779028,-0.0014391721924766898,-0.0023489079903811216
1761479791570547200,4.459547119140625,-0.005630987696349621,-0.0028474517166614532,-0.0011438276851549745
1761479791580583200,4.469583251953125,-0.004989698529243469,-0.0024085629265755415,-0.001458080718293786
1761479791590619100,4.479619140625,-0.00501047121360898,-0.0025419872254133224,-0.0011715245200321078
1761479791600655000,4.489655029296875,-0.007138869725167751,-0.0032226911280304193,-0.0019014970166608691
1761479791610691000,4.499691162109375,-0.007779626175761223,-0.0028754149097949266,-0.002600310370326042
1761479791620727000,4.50972705078125,-0.00384453940205276,-0.0011142665753141046,0.00005352953667170368
1761479791630762000,4.519761962890625,-0.004432565066963434,-0.0035894084721803665,-0.0013795174891129136
1761479791640798200,4.529798095703125,-0.005282380152493715,-0.004211523104459047,-0.00044128578156232834
1761479791650834200,4.539834228515625,-0.005595034919679165,-0.003561445279046893,-0.0019204054260626435
1761479791660870100,4.5498701171875,-0.005885319784283638,-0.004482632502913475,-0.0019406455103307962
1761479791670906000,4.559906005859375,-0.005395564250648022,-0.0032690302468836308,0.0011656655697152019
1761479791680942000,4.569942138671875,-0.007580687757581472,0.00017257283616345376,-0.0014058827655389905
1761479791690979000,4.57997900390625,-0.008616657927632332,-0.0007062703371047974,-0.0024138891603797674
1761479791701015000,4.59001513671875,-0.006558566819876432,0.00034115093876607716,-0.0006016080733388662
1761479791711050000,4.600050048828125,-0.007865912280976772,-0.0024562333710491657,-0.0021872541401535273
1761479791721086000,4.6100859375,-0.004789695143699646,-0.003397927153855562,-0.001657018787227571
1761479791731122000,4.620121826171875,-0.00523790530860424,-0.0046823699958622456,-0.0026085663121193647
1761479791741158000,4.630157958984375,-0.007005977910012007,-0.004808071069419384,-0.002360359765589237
1761479791751194000,4.640194091796875,-0.0057071540504693985,-0.0028218855150043964,-0.0025334651581943035
1761479791761230000,4.65022998046875,-0.005540173966437578,-0.0031140341889113188,0.00101120222825557
1761479791771266000,4.66026611328125,-0.0075841499492526054,-0.0027020431589335203,-0.0002561961009632796
1761479791781302300,4.67030224609375,-0.007425691932439804,-0.0046416232362389565,-0.0006833671359345317
1761479791791337000,4.6803369140625,-0.007440872024744749,-0.0011182613670825958,-0.0013672668719664216
1761479791801373000,4.690373046875,-0.0031127026304602623,-0.004598746541887522,-0.000290018244413659
1761479791811409000,4.700408935546875,-0.004975317511707544,-0.0027595674619078636,-0.0008194546680897474
1761479791821444900,4.71044482421875,-0.007026217877864838,-0.003687146585434675,-0.0017321199411526322
1761479791831481300,4.7204814453125,-0.006375074852257967,-0.004057059530168772,-0.00072597770486027
1761479791841517300,4.730517333984375,-0.007477091159671545,-0.0031726236920803785,-0.0028695559594780207
1761479791851553300,4.74055322265625,-0.0032740901224315166,0.000014114753867033869,-0.002144909929484129
1761479791861589200,4.75058935546875,-0.0059660132974386215,-0.0032674323301762342,-0.0021172130946069956
1761479791871624000,4.7606240234375,-0.005176652688533068,-0.0033478597179055214,-0.0019499665359035134
1761479791881660000,4.770659912109375,-0.004428037907928228,-0.0054735951125621796,-0.0011377023765817285
1761479791891696000,4.780696044921875,-0.005315669346600771,-0.0014676681021228433,-0.000627707049716264
1761479791901732000,4.790732177734375,-0.004782504867762327,-0.0008282430935651064,-0.0035507925786077976
1761479791911768300,4.800768310546875,-0.007837949320673943,-0.0026881948579102755,0.0002897519152611494
1761479791921804300,4.81080419921875,-0.0049529471434652805,-0.0034823494497686625,-0.00010439591278554872
1761479791931840300,4.82084033203125,-0.004668787587434053,-0.003863980295136571,-0.0009837717516347766
1761479791941876200,4.830876220703125,-0.005148156546056271,-0.0025899240281432867,-0.00007936220208648592
1761479791951911200,4.8409111328125,-0.004918325692415237,0.002255164785310626,-0.0018008295446634293
1761479791961947100,4.850947021484375,-0.0070160976611077785,-0.0034256239887326956,-0.0020817930344492197
1761479791971983000,4.860983154296875,-0.004047472029924393,-0.0036450685001909733,-0.0007342335302382708
1761479791982019000,4.87101904296875,-0.007838482037186623,-0.002151035238057375,-0.002725212834775448
1761479791992055300,4.88105517578125,-0.005399026442319155,-0.001967010786756873,0.002119077369570732
1761479792002091300,4.89109130859375,-0.00680118054151535,-0.002100435085594654,-0.0035020567011088133
1761479792012127200,4.901127197265625,-0.005656021647155285,-0.0025481125339865685,-0.0007635282818228006
1761479792022163200,4.9111630859375,-0.0070858728140592575,-0.00310604483820498,-0.0030024477746337652
1761479792032199200,4.92119921875,-0.004711132030934095,-0.002235191175714135,-0.001564873498864472
1761479792042234000,4.931234130859375,-0.005563343409448862,-0.003070891136303544,-0.0015683355741202831
1761479792052270000,4.94127001953125,-0.0062757390551269054,-0.0052024852484464645,-0.0025859293527901173
1761479792062306000,4.95130615234375,-0.0049068741500377655,-0.0026466494891792536,-0.0030722226947546005
1761479792072342300,4.96134228515625,-0.00580915343016386,-0.004542287439107895,0.00038535939529538155
1761479792082378200,4.971378173828125,-0.00301736150868237,-0.0015576828736811876,0.00029774141148664057
1761479792092414200,4.981414306640625,-0.0062456452287733555,-0.002927879337221384,-0.000999750685878098
1761479792102450200,4.9914501953125,-0.0068235513754189014,-0.0009933591354638338,-0.0025361282750964165
1761479792112486100,5.001486083984375,-0.004506068304181099,-0.002746784361079335,-0.0001496696495451033
1761479792122521000,5.01152099609375,-0.0037790255155414343,-0.002656236756592989,-0.002091646660119295
1761479792132557000,5.02155712890625,-0.0068235513754189014,-0.002560629276558757,-0.0008186557097360492
1761479792142593000,5.031593017578125,-0.006385461427271366,-0.0017124125733971596,-0.0020096213556826115
1761479792152629200,5.041629150390625,-0.005399292800575495,-0.00503949960693717,-0.0015275891637429595
1761479792162665200,5.051665283203125,-0.003933755215257406,-0.003290868131443858,0.001163002452813089
1761479792172701200,5.061701171875,-0.0049345712177455425,-0.003742806613445282,-0.0018482337472960353
1761479792182737200,5.071737060546875,-0.0059993029572069645,-0.0017875137273222208,-0.0013273194199427962
1761479792192773000,5.081773193359375,-0.001966211711987853,-0.00526586826890707,-0.00007403588097076863
1761479792202809000,5.09180908203125,-0.006913299672305584,-0.0003203782835043967,-0.0017299894243478775
1761479792212844000,5.101843994140625,-0.006105296779423952,-0.00250470289029181,-0.0013246563030406833
1761479792222880000,5.1118798828125,-0.0040948763489723206,-0.005520200356841087,0.00016671388584654778
1761479792232916200,5.121916259765625,-0.005684250965714455,-0.0034056503791362047,-0.0014684670604765415
1761479792242952200,5.1319521484375,-0.006803577765822411,-0.0009233179152943194,0.0001382180635118857
1761479792252988200,5.14198828125,-0.006486129015684128,-0.0012037487467750907,-0.0022980417124927044
1761479792263024000,5.152024169921875,-0.005524194799363613,-0.000003462109361862531,-0.00005193164179218002
1761479792273060000,5.16206005859375,-0.005515672732144594,-0.001725728390738368,-0.0014237258583307266
1761479792283096000,5.172095947265625,-0.007455519400537014,-0.003602990647777915,-0.0015614113071933389
1761479792293131000,5.182131103515625,-0.00526773277670145,-0.0017568873008713126,-0.0021283982787281275
1761479792303167200,5.192167236328125,-0.008859803900122643,-0.0002713761059567332,-0.0011685950448736548
1761479792313203200,5.202203125,-0.007405984681099653,-0.001249821507371962,-0.0014759238110855222
1761479792323239200,5.2122392578125,-0.005065598525106907,-0.001335575245320797,-0.0023076289799064398
1761479792333275100,5.222275146484375,-0.007096525281667709,-0.0035420041531324387,-0.0018663433147594333
1761479792343311600,5.2323115234375,-0.006922887172549963,-0.0028839372098445892,-0.004196343012154102
1761479792353347600,5.24234765625,-0.005017129238694906,-0.004572114907205105,-0.002201369032263756
1761479792363383600,5.252383544921875,-0.005397961009293795,-0.002561694709584117,0.00018349179299548268
1761479792373418500,5.26241845703125,-0.0062421830371022224,-0.004458131734281778,-0.0017928400775417686
1761479792383454500,5.272454345703125,-0.006905310321599245,-0.00333161442540586,-0.0009243832319043577
1761479792393490400,5.282490478515625,-0.008806274272501469,-0.003638144349679351,-0.0024466461036354303
1761479792403526700,5.292526611328125,-0.0044983453117311,-0.0020911141764372587,-0.00030866035376675427
1761479792413562600,5.302562744140625,-0.008668323047459126,-0.004096474498510361,-0.003150785807520151
1761479792423598600,5.3125986328125,-0.0060262009501457214,-0.003291400847956538,-0.0025561018846929073
1761479792433634600,5.322634521484375,-0.005654157139360905,-0.0021166803780943155,-0.001924932817928493
1761479792443670500,5.33267041015625,-0.0049337721429765224,-0.0034408040810376406,-0.0022980417124927044
1761479792453706500,5.34270654296875,-0.006901581771671772,-0.002513757674023509,-0.001752093667164445
1761479792463741400,5.352741455078125,-0.004968126770108938,-0.0024650217965245247,-0.0023723437916487455
1761479792473777400,5.36277734375,-0.006872287020087242,-0.0028394623659551144,-0.0009933591354638338
1761479792483813600,5.372813720703125,-0.006947921123355627,-0.001175519311800599,0.00037736992817372084
1761479792493849600,5.382849609375,-0.005033640656620264,-0.0036333505995571613,0.0011233213590458035
1761479792503885600,5.392885498046875,-0.006632869131863117,-0.004476507660001516,-0.004277835600078106
1761479792513921500,5.402921630859375,-0.006400375161319971,-0.002892459277063608,-0.0015355786308646202
1761479792523957500,5.41295751953125,-0.008057660423219204,-0.0015385081060230732,-0.0014434333425015211
1761479792533993500,5.422993408203125,-0.006087453570216894,-0.003515905234962702,-0.0022980417124927044
1761479792544028400,5.4330283203125,-0.003840810852125287,-0.00039601203752681613,0.0015488944482058287
1761479792554064600,5.443064697265625,-0.004539091605693102,0.0015219965716823936,-0.0018005631864070892
1761479792564100600,5.4531005859375,-0.005194495897740126,-0.004269579891115427,0.0014117417158558965
1761479792574136600,5.463136474609375,-0.0062365904450416565,-0.0030069751664996147,-0.000985103310085833
1761479792584172500,5.473172607421875,-0.004968925844877958,-0.0028810077346861362,-0.0025561018846929073
1761479792594208500,5.48320849609375,-0.006594253238290548,-0.0037955371662974358,-0.000027963191314483993
1761479792604244500,5.493244384765625,-0.005653624422848225,-0.0017009610310196877,-0.0015488944482058287
1761479792614280400,5.503280517578125,-0.005524461157619953,-0.0008005462004803121,-0.00282002124004066
1761479792624315400,5.5133154296875,-0.00637960247695446,-0.002229332225397229,0.0002162486780434847
1761479792634351600,5.5233515625,-0.006031793542206287,-0.0016772588714957237,-0.0012681973166763783
1761479792644387600,5.5333876953125,-0.005197957623749971,-0.005992378573864698,-0.0009704558760859072
1761479792654423600,5.543423583984375,-0.0038136467337608337,-0.0020751350093632936,0.00018136126163881272
1761479792664459500,5.55345947265625,-0.007184409536421299,-0.0035081820096820593,-0.0019028285751119256
1761479792674495500,5.56349560546875,-0.004128965083509684,-0.004194744862616062,-0.001954760169610381
1761479792684531500,5.573531494140625,-0.007783088367432356,-0.003939347807317972,-0.0010298443958163261
1761479792694567400,5.5835673828125,-0.006880809087306261,-0.0018194715958088636,-0.0015539544401690364
1761479792704603400,5.593603271484375,-0.006286657880991697,-0.00010146643762709573,-0.002319879597052932
1761479792714638600,5.603638671875,-0.005520733073353767,-0.00096113485051319,-0.002026399364694953
1761479792724674600,5.613674560546875,-0.0027236149180680513,-0.003287405939772725,0.0005390237784013152
1761479792734710500,5.62371044921875,-0.005831523798406124,-0.0031350732315331697,-0.0010492854053154588
1761479792744746500,5.63374658203125,-0.006521814968436956,-0.0035899411886930466,-0.0013454289874061942
1761479792754782500,5.643782470703125,-0.007315437309443951,-0.004472779110074043,-0.0035380094777792692
1761479792764818400,5.653818359375,-0.0068155620247125626,-0.0017891116440296173,-0.0022921827621757984
1761479792774854400,5.6638544921875,-0.007212106604129076,-0.005274923052638769,-0.0033563817851245403
1761479792784890400,5.673890380859375,-0.004630704410374165,-0.002944657113403082,0.000026897927455138415
1761479792794925600,5.683925537109375,-0.006987335626035929,-0.0007084008539095521,-0.0013651363551616669
1761479792804961500,5.69396142578125,-0.0072986590676009655,-0.0027835359796881676,-0.001916410750709474
1761479792814997500,5.70399755859375,-0.006614759564399719,-0.0015480954898521304,0.0015904398169368505
1761479792825033500,5.714033447265625,-0.007497064769268036,-0.004471447318792343,-0.0015464976895600557
1761479792835069400,5.7240693359375,-0.005101551301777363,-0.002921487670391798,-0.0024868599139153957
1761479792845105400,5.73410546875,-0.007763647008687258,-0.0021766014397144318,-0.0009888317435979843
1761479792855141400,5.744141357421875,-0.005104480776935816,-0.0035143073182553053,-0.0023995081428438425
1761479792865177600,5.754177490234375,-0.006653375457972288,-0.003379018744453788,-0.005570001434534788
1761479792875213600,5.764213623046875,-0.006698382552713156,-0.0011805793037638068,-0.000690291344653815
1761479792885248500,5.77424853515625,-0.006657636258751154,-0.002157160546630621,-0.0019824570044875145
1761479792895284500,5.784284423828125,-0.0075796227902174,-0.0031017838045954704,0.0013946974650025368
1761479792905320400,5.794320556640625,-0.005788114387542009,-0.0030455910600721836,-0.0014833806781098247
1761479792915356700,5.804356689453125,-0.0065226140432059765,-0.0021853898651897907,-0.0009949569357559085
1761479792925392600,5.814392578125,-0.0027454528026282787,-0.0008631304954178631,-0.0011198592837899923
1761479792935428600,5.8244287109375,-0.006895456463098526,-0.005876797717064619,-0.0011379687348380685
1761479792945464600,5.834464599609375,-0.007619037292897701,-0.0027744811959564686,-0.0008383630774915218
1761479792955499500,5.84449951171875,-0.005969741847366095,-0.00004367584188003093,-0.0022426480427384377
1761479792965535500,5.854535400390625,-0.007934888824820518,-0.0030658310279250145,-0.003916711080819368
1761479792975571700,5.86457177734375,-0.00680197961628437,-0.0025896579027175903,-0.0013129384024068713
1761479792985607700,5.874607666015625,-0.005184908397495747,-0.00015819176041986793,-0.0007273092633113265
1761479792995643600,5.8846435546875,-0.006203567609190941,-0.0064373929053545,0.0013701963471248746
1761479793005679600,5.8946796875,-0.007150587625801563,-0.004537227563560009,-0.000559530162718147
1761479793015715600,5.904715576171875,-0.00726483715698123,-0.002028263406828046,-0.0017441042000427842
1761479793025751600,5.91475146484375,-0.007316235918551683,-0.002180063631385565,-0.0010543455136939883
1761479793035787500,5.92478759765625,-0.005149754695594311,-0.00038775624125264585,-0.002898584585636854
1761479793045822700,5.93482275390625,-0.005107942968606949,-0.0034581145737320185,-0.0018370485631749034
1761479793055858700,5.944858642578125,-0.007075752597302198,-0.003641606541350484,-0.003236273303627968
1761479793065894700,5.954894775390625,-0.005339371506124735,-0.0025662221014499664,-0.0012799152173101902
1761479793075930600,5.9649306640625,-0.007006510626524687,-0.0026098978705704212,-0.0010865697404369712
1761479793085966600,5.974966552734375,-0.005307413637638092,-0.004573978949338198,-0.0036104475148022175
1761479793096002600,5.98500244140625,-0.0037859496660530567,-0.005651227664202452,-0.003233876544982195
1761479793106038500,5.99503857421875,-0.006380667444318533,-0.0019952403381466866,-0.002591255819424987
1761479793116074500,6.005074462890625,-0.005227252375334501,-0.0017584852175787091,-0.003299390198662877
1761479793126109700,6.015109619140625,-0.005341236013919115,-0.0016072177095338702,-0.002394714392721653
1761479793136145700,6.025145751953125,-0.0054696002043783665,0.0004990763845853508,-0.0015124091878533363
1761479793146181600,6.035181640625,-0.005066131241619587,-0.0029089709278196096,-0.0015582155901938677
1761479793156217600,6.045217529296875,-0.0065138256177306175,-0.0014202637830749154,-0.0035747610963881016
1761479793166253600,6.055253662109375,-0.007815845310688019,-0.0020935109350830317,-0.0015313175972551107
1761479793176289500,6.06528955078125,-0.004042944870889187,-0.000592020689509809,-0.0009379653492942452
1761479793186325500,6.075325439453125,-0.006844057701528072,-0.0031403994653373957,0.0014556838432326913
1761479793196361500,6.085361572265625,-0.007998271845281124,-0.0016010924009606242,-0.002581934677436948
1761479793206396700,6.095396728515625,-0.007672833278775215,-0.0006631271098740399,-0.0019835224375128746
1761479793216432600,6.1054326171875,-0.00860440731048584,-0.0035888757556676865,-0.0019944412633776665
1761479793226468600,6.115468505859375,-0.005231780000030994,-0.0016998957144096494,-0.0008631304954178631
1761479793236504600,6.125504638671875,-0.006139917764812708,-0.00367170013487339,-0.001612011343240738
1761479793246540500,6.13554052734375,-0.0049620019271969795,-0.0019736685790121555,-0.0044320328161120415
1761479793256576500,6.145576416015625,-0.007928497157990932,-0.0043984767980873585,-0.0025505092926323414
1761479793266612500,6.155612548828125,-0.005637379363179207,-0.00033635724685154855,-0.0020530307665467262
1761479793276647700,6.165647705078125,-0.003946272190660238,-0.0005912217311561108,-0.0001901497016660869
1761479793286683600,6.17568359375,-0.004252535756677389,-0.0028426581993699074,-0.0015001586871221662
1761479793296719600,6.1857197265625,-0.006997189484536648,-0.0030479878187179565,-0.0015345134306699038
1761479793306755600,6.195755615234375,-0.00558012118563056,-0.003513242118060589,-0.00310497940517962
1761479793316791600,6.20579150390625,-0.004038949962705374,-0.0021638183388859034,-0.00004900216299574822
1761479793326827500,6.21582763671875,-0.004811000544577837,-0.001680987305007875,-0.0002889529860112816
1761479793336863500,6.225863525390625,-0.006313289515674114,-0.0035198999103158712,-0.00253479671664536
1761479793346899500,6.2358994140625,-0.005183043889701366,-0.0034767568577080965,-0.0007629956235177815
1761479793356934700,6.2459345703125,-0.006690126843750477,-0.0010671286145225167,-0.0028610338922590017
1761479793366970600,6.255970703125,-0.005312473513185978,-0.0013134710025042295,-0.00042024682625196874
1761479793377006600,6.266006591796875,-0.0062677497044205666,-0.0013243899447843432,-0.0036421390250325203
1761479793387042600,6.27604248046875,-0.005572930909693241,-0.00583818182349205,0.0014833806781098247
1761479793397078500,6.28607861328125,-0.005899967160075903,-0.0035862126387655735,-0.0005155879771336913
1761479793407114500,6.296114501953125,-0.004731638357043266,-0.004731638357043266,-0.0022272015921771526
1761479793417150500,6.306150390625,-0.004923652391880751,-0.004723382648080587,-0.0005813680472783744
1761479793427186400,6.3161865234375,-0.004613926634192467,-0.005392901133745909,-0.0004791026876773685
1761479793437221600,6.3262216796875,-0.005654157139360905,-0.00452843913808465,0.000371777277905494
1761479793447257600,6.336257568359375,-0.0020181434229016304,-0.003379817819222808,-0.0012841762509196997
1761479793457293600,6.34629345703125,-0.005209409166127443,-0.003019758267328143,-0.0010460896883159876
1761479793467329500,6.35632958984375,-0.007422229740768671,-0.0031068436801433563,-0.0008476841612718999
1761479793477365500,6.366365478515625,-0.005964415613561869,-0.0035449336282908916,-0.0028610338922590017
1761479793487401500,6.3764013671875,-0.007541006896644831,-0.005886384751647711,-0.0022303974255919456
1761479793497437400,6.3864375,-0.006965763866901398,-0.0023148194886744022,-0.0012447615154087543
1761479793507473400,6.396473388671875,-0.006873086094856262,0.0011046791914850473,-0.0009012137306854129
1761479793517508600,6.406508544921875,-0.006974286399781704,-0.0013097425689920783,-0.002469282830134034
1761479793527544600,6.416544677734375,-0.0070946612395346165,-0.0044112601317465305,-0.0013065468519926071
1761479793537580500,6.42658056640625,-0.003153715282678604,-0.00166633992921561,-0.003652791725471616
1761479793547616500,6.436616455078125,-0.00634897593408823,-0.0017576862592250109,-0.002837864449247718
1761479793557652500,6.446652587890625,-0.008020109497010708,-0.001755289500579238,0.00039175100391730666
1761479793567688400,6.4566884765625,-0.006667223758995533,-0.0034109766129404306,-0.0015121428295969963
1761479793577724400,6.466724365234375,-0.00672368286177516,-0.003460511565208435,-0.0031939290929585695
1761479793587760400,6.476760498046875,-0.0030040456913411617,-0.002272208919748664,-0.003052515210583806
1761479793597795600,6.486795654296875,-0.007187871728092432,-0.0035625104792416096,0.00016245282313320786
1761479793607831600,6.49683154296875,-0.005154015496373177,-0.0018136126454919577,-0.00077631144085899
1761479793617867500,6.506867431640625,-0.005961486138403416,-0.0035950010642409325,-0.0008918926469050348
1761479793627903500,6.516903564453125,-0.006566289812326431,-0.002630404196679592,0.00011664645717246458
1761479793637939500,6.526939453125,-0.004129497334361076,-0.004217914305627346,-0.0015217302134260535
1761479793647975400,6.536975341796875,-0.006217948626726866,-0.003948136232793331,-0.0008146609761752188
1761479793658011400,6.547011474609375,-0.003774764481931925,-0.00378994457423687,-0.004137753508985043
1761479793668047400,6.55704736328125,-0.005854959599673748,-0.001062334980815649,-0.002980876248329878
1761479793678082600,6.56708251953125,-0.0051739891059696674,-0.005664543714374304,0.00009400958515470847
1761479793688118500,6.577118408203125,-0.007922105491161346,-0.004228034522384405,-0.0025659557431936264
1761479793698154500,6.587154541015625,-0.00646695401519537,-0.0009922938188537955,-0.001988049829378724
1761479793708190500,6.5971904296875,-0.00902891531586647,-0.0013970943400636315,-0.004007524810731411
1761479793718226400,6.607226318359375,-0.005373726598918438,-0.0041705104522407055,-0.0005358280031941831
1761479793728262400,6.617262451171875,-0.006887200754135847,-0.0017808558186516166,-0.0012658004416152835
1761479793738298400,6.62729833984375,-0.007380684372037649,-0.0026296053547412157,-0.0016591493040323257
1761479793748333600,6.63733349609375,-0.005390770733356476,-0.004114317707717419,-0.002260491019114852
1761479793758369500,6.64736962890625,-0.00640942994505167,-0.004352137912064791,-0.0007526093395426869
1761479793768405500,6.657405517578125,-0.004066380672156811,-0.0009600695921108127,-0.0005179848521947861
1761479793778441500,6.66744140625,-0.005656553898006678,0.00038748994120396674,-0.002447711303830147
1761479793788477400,6.6774775390625,-0.004047472029924393,-0.004777977243065834,-0.0005201153689995408
1761479793798513400,6.687513427734375,-0.004966262727975845,-0.005812082905322313,0.00020879182557109743
1761479793808549400,6.69754931640625,-0.005665076430886984,-0.004727909807115793,0.000025566347176209092
1761479793818585300,6.70758544921875,-0.006926349364221096,-0.0037063213530927896,-0.0012040151050314307
1761479793828620500,6.71762060546875,-0.0070765516720712185,-0.002260757377371192,-0.0006655239267274737
1761479793838656500,6.727656494140625,-0.006690393202006817,-0.00031904669594950974,-0.00008362325752386823
1761479793848692500,6.7376923828125,-0.00529542937874794,-0.0018405106384307146,-0.002174471039324999
1761479793858728400,6.747728515625,-0.004147873260080814,-0.00481366366147995,-0.0015640745405107737
1761479793868764400,6.757764404296875,-0.0073378076776862144,-0.0020221380982548,-0.001900964416563511
1761479793878800400,6.76780029296875,-0.005105812568217516,-0.002547047333791852,-0.003564641112461686
1761479793888836400,6.77783642578125,-0.007225155830383301,-0.004342550411820412,0.00003728425508597866
1761479793898871300,6.787871337890625,-0.006478139199316502,-0.0006157228490337729,-0.0023550332989543676
1761479793908907500,6.797907470703125,-0.004346811678260565,-0.0017302557826042175,-0.0026136261876672506
1761479793918943500,6.807943603515625,-0.006656837183982134,-0.0059926449321210384,-0.0019289276096969843
1761479793928979500,6.8179794921875,-0.004849882796406746,-0.003777960315346718,-0.0025015072897076607
1761479793939015400,6.828015380859375,-0.00782623142004013,-0.0015502260066568851,-0.002787797013297677
1761479793949051400,6.838051513671875,-0.0027888622134923935,-0.0016769925132393837,-0.0008974852971732616
1761479793959087400,6.84808740234375,-0.007861651480197906,-0.00373135507106781,-0.0025933862198144197
1761479793969123300,6.858123291015625,-0.006931675598025322,-0.0014415690675377846,-0.003326021833345294
1761479793979158500,6.868158447265625,-0.004253867082297802,-0.001110005541704595,-0.003626426449045539
1761479793989194500,6.878194580078125,-0.0065202172845602036,-0.0008245146600529552,-0.0006226470577530563
1761479793999230500,6.88823046875,-0.006232063286006451,-0.00592473428696394,0.00024288028362207115
1761479794009266400,6.898266357421875,-0.004778776317834854,-0.003492203075438738,-0.0018642127979546785
1761479794019302400,6.908302490234375,-0.007949269376695156,-0.003132676472887397,-0.0024439829867333174
1761479794029338400,6.91833837890625,-0.0060267336666584015,-0.002880475018173456,-0.00014753911818843335
1761479794039374600,6.92837451171875,-0.005826996639370918,-0.004652009811252356,0.0005060005933046341
1761479794049410600,6.93841064453125,-0.00561048137024045,-0.00361817074008286,-0.0023039006628096104
1761479794059445500,6.948445556640625,-0.007595335599035025,-0.005137770436704159,-0.003427488263696432
1761479794069481500,6.9584814453125,-0.006330866366624832,-0.0044408212415874004,-0.0011805793037638068
1761479794079517400,6.968517333984375,-0.005209675524383783,-0.005913282744586468,-0.0012420982820913196
1761479794089553700,6.9785537109375,-0.005345496814697981,-0.004451207350939512,-0.0012932310346513987
1761479794099589600,6.988589599609375,-0.0056986319832503796,-0.004570517223328352,-0.0007379619055427611
1761479794109625600,6.99862548828125,-0.004492752719670534,-0.0019473034190014005,0.0012538161827251315
1761479794119661600,7.00866162109375,-0.007287207525223494,-0.003263970138505101,-0.0013928331900388002
1761479794129696300,7.0186962890625,-0.005528988782316446,-0.003703658003360033,-0.0028570392169058323
1761479794139732500,7.028732421875,-0.007719172164797783,0.00037390782381407917,-0.0020996362436562777
1761479794149768700,7.038768798828125,-0.004890096373856068,-0.0034906051587313414,-0.0031971249263733625
1761479794159804700,7.0488046875,-0.00836552120745182,-0.005429120268672705,-0.001252484624274075
1761479794169840600,7.058840576171875,-0.0053553506731987,-0.0017904432024806738,-0.0008588694618083537
1761479794179876600,7.068876708984375,-0.006551642436534166,-0.0034490597900003195,-0.002065015025436878
1761479794189912600,7.07891259765625,-0.005147091578692198,-0.0010913633741438389,-0.0020245350897312164
1761479794199948500,7.088948486328125,-0.005594768561422825,-0.005512743256986141,-0.0028628981672227383
1761479794209983500,7.0989833984375,-0.004856008104979992,-0.003650128608569503,-0.0034061830956488848
1761479794220019500,7.10901953125,-0.005709284916520119,-0.0005339637864381075,-0.0011779161868616939
1761479794230055700,7.1190556640625,-0.0073226275853812695,-0.005131645128130913,-0.0031321437563747168
1761479794240091600,7.129091552734375,-0.006931409239768982,-0.004013916477560997,-0.002329467097297311
1761479794250127600,7.139127685546875,-0.005420598201453686,-0.002972354181110859,-0.0033515882678329945
1761479794260163600,7.14916357421875,-0.006804642733186483,-0.0024610271211713552,0.00042796999332495034
1761479794270199600,7.159199462890625,-0.005575860384851694,-0.002139583695679903,-0.0011020160745829344
1761479794280234500,7.169234375,-0.005774531979113817,-0.0023465112317353487,0.00014807176194153726
1761479794290270500,7.1792705078125,-0.005811283830553293,-0.003579288488253951,-0.0005576659459620714
1761479794300306400,7.189306396484375,-0.006206230726093054,-0.003114833263680339,0.0007022755453363061
1761479794310342700,7.1993427734375,-0.006570551078766584,-0.004248807206749916,0.0001816275907913223
1761479794320378600,7.209378662109375,-0.0062855929136276245,-0.003625893732532859,-0.0027454528026282787
1761479794330414600,7.21941455078125,-0.006107959896326065,-0.0010892328573390841,-0.0016261261189356446
1761479794340449800,7.22944970703125,-0.005666141398251057,-0.0034258903469890356,-0.0018112158868461847
1761479794350484700,7.239484619140625,-0.0065263425931334496,0.00008948221511673182,-0.0031193606555461884
1761479794360521000,7.24952099609375,-0.0057561565190553665,-0.0026370619889348745,-0.001145159243606031
1761479794370557000,7.259556884765625,-0.005331648513674736,-0.0018002968281507492,-0.001216531964018941
1761479794380593000,7.269593017578125,-0.0043838294222950935,-0.005124454386532307,-0.0025212145410478115
1761479794390628900,7.27962890625,-0.006188387516885996,0.0003842941368930042,-0.0025928535033017397
1761479794400664800,7.289664794921875,-0.0075969332829117775,-0.004577174782752991,-0.0024628913961350918
1761479794410700800,7.29970068359375,-0.005858954507857561,-0.0043473439291119576,0.00022849922243040055
1761479794420736800,7.30973681640625,-0.007808920927345753,-0.004751611966639757,-0.0034085798542946577
1761479794430771700,7.319771728515625,-0.006730606779456139,-0.0008913599886000156,-0.0010727213229984045
1761479794440808000,7.329807861328125,-0.007158044259995222,-0.001817873795516789,0.0003070624661631882
1761479794450844000,7.339843994140625,-0.005787581671029329,-0.006975884083658457,-0.0007592672482132912
1761479794460880000,7.3498798828125,-0.006912766955792904,0.00047351003740914166,0.0005262406193651259
1761479794470915800,7.359915771484375,-0.005361475981771946,-0.0036221654154360294,-0.001520398654974997
1761479794480951800,7.369951904296875,-0.00520674604922533,-0.0007363640470430255,-0.0003438140847720206
1761479794490987800,7.37998779296875,-0.00646828580647707,-0.005007541738450527,-0.001088700257241726
1761479794501022700,7.390022705078125,-0.005005677696317434,-0.0032346753869205713,-0.0020727382507175207
1761479794511058700,7.40005859375,-0.006584932096302509,-0.002615756820887327,-0.0023310647811740637
1761479794521095000,7.410094970703125,-0.004546282347291708,-0.003481284249573946,-0.0032487902790308
1761479794531131000,7.420130859375,-0.00723634148016572,-0.005014998838305473,-0.002907639369368553
1761479794541166800,7.430166748046875,-0.004002731293439865,0.0003296993381809443,-0.0037145770620554686
1761479794551202800,7.440202880859375,-0.004744421225041151,-0.0038048583082854748,-0.0021116205025464296
1761479794561238800,7.45023876953125,-0.004628840368241072,-0.004485561978071928,-0.0012913667596876621
1761479794571273700,7.460273681640625,-0.006232329644262791,-0.0027145601343363523,-0.0007246461464092135
1761479794581309700,7.470309814453125,-0.0034349451307207346,-0.0014809839194640517,-0.0019600866362452507
1761479794591345700,7.480345703125,-0.005337241105735302,-0.001701759872958064,-0.0035989959724247456
1761479794601382000,7.4903818359375,-0.005154281854629517,-0.002625077962875366,-0.0025033713318407536
1761479794611417900,7.50041796875,-0.0043864925391972065,-0.004084223881363869,0.0003779025573749095
1761479794621453800,7.510453857421875,-0.006700779777020216,-0.0031009847298264503,-0.002424009144306183
1761479794631489800,7.52048974609375,-0.004434429574757814,-0.00281948852352798,-0.0021382521372288465
1761479794641524700,7.530524658203125,-0.003930825740098953,-0.0027031085919588804,-0.0022280006669461727
1761479794651560700,7.540560791015625,-0.002915362361818552,-0.005763879511505365,-0.001793905277736485
1761479794661596700,7.5505966796875,-0.005405950825661421,-0.0035947347059845924,-0.00221947836689651
1761479794671632600,7.560632568359375,-0.007164169568568468,-0.002692455891519785,-0.0027744811959564686
1761479794681668900,7.5706689453125,-0.005620601586997509,-0.0013946974650025368,-0.0017925737192854285
1761479794691704800,7.580704833984375,-0.006587062496691942,-0.00341603672131896,-5.326322138898831e-7
1761479794701740800,7.59074072265625,-0.00640676636248827,-0.003165699541568756,-0.0029230855870991945
1761479794711776800,7.60077685546875,-0.006209160201251507,-0.003721234854310751,-0.001529453438706696
1761479794721811700,7.610811767578125,-0.00782463327050209,-0.004223507363349199,-0.003466370515525341
1761479794731847700,7.62084765625,-0.0062523032538592815,-0.0025150892324745655,-0.0020546286832541227
1761479794741883600,7.630883544921875,-0.007409979589283466,-0.0046149916015565395,-0.0028778119012713432
1761479794751919900,7.640919921875,-0.006195045076310635,-0.003683684393763542,-0.006746852304786444
1761479794761955800,7.650955810546875,-0.00800120085477829,-0.0015992282424122095,-0.002433596644550562
1761479794771992000,7.660991943359375,-0.006007025949656963,-0.003029345767572522,-0.001383245806209743
1761479794782028000,7.671028076171875,-0.006172941066324711,-0.0019742012955248356,-0.0033752904273569584
1761479794792062700,7.681062744140625,-0.001969673903658986,-0.0009113337146118283,-0.004042412154376507
1761479794802098700,7.6910986328125,-0.006427006796002388,-0.0007294398383237422,-0.0024314660113304853
1761479794812134700,7.701134765625,-0.005964681971818209,-0.002939597237855196,-0.0014623417519032955
1761479794822170600,7.711170654296875,-0.0056951697915792465,-0.004201402887701988,-0.0008572715451009572
1761479794832206800,7.721206787109375,-0.005714078433811665,-0.004204332362860441,-0.002835201332345605
1761479794842243000,7.7312431640625,-0.006743390113115311,-0.0022208099253475666,-0.0022447784431278706
1761479794852279000,7.741279052734375,-0.008193215355277061,-0.0014956312952563167,-0.0005909554311074317
1761479794862313700,7.751313720703125,-0.005303685087710619,-0.0029643645975738764,-0.0005864280392415822
1761479794872349700,7.761349609375,-0.006416620220988989,-0.0024258734192699194,-0.00048389637959189713
1761479794882386000,7.771385986328125,-0.005872536450624466,-0.0040794298984110355,-0.001540904981084168
1761479794892422000,7.781421875,-0.00547386147081852,-0.002525209216400981,0.0003510046226438135
1761479794902457900,7.791457763671875,-0.006056561134755611,0.0005163869354873896,-0.0009544769418425858
1761479794912493800,7.801493896484375,-0.004959338344633579,-0.0051596080884337425,-0.0013907026732340455
1761479794922530000,7.811530029296875,-0.004246943164616823,-0.0043923514895141125,-0.0027981833554804325
1761479794932564700,7.821564697265625,-0.007864580489695072,-0.0029414615128189325,-0.0017515610670670867
1761479794942601000,7.83160107421875,-0.006866428069770336,-0.0036551884841173887,-0.002695651724934578
1761479794952637000,7.841636962890625,-0.0038602519780397415,-0.005328985396772623,-0.000895621080417186
1761479794962673000,7.8516728515625,-0.005253085400909185,-0.0006202502408996224,-0.0022746059112250805
1761479794972708900,7.861708984375,-0.00504029868170619,-0.0006559365428984165,-0.0034091125708073378
1761479794982744800,7.871744873046875,-0.006098106037825346,0.0002612560929264873,-0.0003147856332361698
1761479794992780800,7.88178076171875,-0.007749798707664013,-0.0028674255590885878,-0.0028599686920642853
1761479795002816000,7.89181591796875,-0.0065380604937672615,-0.0035782232880592346,-0.0017427726415917277
1761479795012852000,7.90185205078125,-0.005474660079926252,-0.0009454221581108868,-0.00021758026559837162
1761479795022888000,7.911887939453125,-0.005167065188288689,-0.005917544011026621,-0.0019417107105255127
1761479795032924000,7.921923828125,-0.007621966768056154,-0.002627208363264799,-0.00047697214176878333
1761479795042960000,7.9319599609375,-0.006376939360052347,-0.002014681464061141,-0.002040247665718198
1761479795052995800,7.941995849609375,-0.004942294210195541,-0.00267807487398386,-0.0005102616851218045
1761479795063031800,7.95203173828125,-0.0046967510133981705,-0.004168912302702665,-0.000024234765078290366
1761479795073067000,7.96206689453125,-0.005485845264047384,-0.004369981121271849,-0.002005360322073102
1761479795083103000,7.97210302734375,-0.008039018139243126,-0.0015763250412419438,0.0006969492533244193
1761479795093139000,7.982138916015625,-0.00509995361790061,-0.002115615177899599,-0.0007483482477255166
1761479795103175000,7.9921748046875,-0.006256564520299435,-0.001970472978428006,-0.0000399474156438373
1761479795113211000,8.0022109375,-0.004792624618858099,0.00011638013529591262,-0.0010913633741438389
1761479795123246000,8.01224609375,-0.008747951127588749,-0.0048890309408307076,-0.0011377023765817285
1761479795133282000,8.022281982421875,-0.007636880502104759,-0.0059686764143407345,-0.002394980750977993
1761479795143318000,8.032318115234375,-0.004634432960301638,-0.0030157635919749737,-0.0015046859625726938
1761479795153352700,8.042352783203125,-0.004613127559423447,-0.0036064526066184044,-0.00003728425508597866
1761479795163389000,8.052388916015625,-0.005638711154460907,-0.0013265205780044198,0.0004170510219410062
1761479795173425000,8.0624248046875,-0.00800359807908535,-0.00021731393644586205,-0.0005243764026090503
1761479795183460900,8.0724609375,-0.0034144388046115637,-0.002710032742470503,-0.003147856332361698
1761479795193496800,8.082496826171875,-0.006341252941638231,-0.007641674485057592,-0.003534813644364476
1761479795203533000,8.092532958984375,-0.006644320674240589,-0.000494016392622143,-0.00027510453946888447
1761479795213567700,8.102567626953125,-0.005923402961343527,-0.0021915151737630367,-0.0024804682470858097
1761479795223604000,8.11260400390625,-0.006868824828416109,-0.0028357338160276413,-0.0010684601729735732
1761479795233640000,8.122639892578125,-0.006080795545130968,-0.004323908127844334,-0.0008048072922974825
1761479795243676000,8.132676025390625,-0.007791077718138695,-0.0027768779546022415,-0.0011110707418993115
1761479795253712000,8.1427119140625,-0.005440039094537497,-0.0021196098532527685,-0.0006764429272152483
1761479795263747800,8.152747802734375,-0.008391354233026505,-0.0006261091912165284,-0.0008564725867472589
1761479795273783800,8.16278369140625,-0.004924184642732143,-0.0004546015989035368,-0.004337490536272526
1761479795283820000,8.172820068359375,-0.006414223462343216,-0.0009504822082817554,-0.001764077926054597
1761479795293855000,8.18285498046875,-0.006804642733186483,-0.0018871158827096224,-0.00031185615807771683
1761479795303891000,8.192890869140625,-0.004892759490758181,-0.0005004079430364072,-0.0007456850726157427
1761479795313927000,8.202927001953125,-0.0062155514024198055,-0.003599528456106782,-0.002207494108006358
1761479795323963000,8.212962890625,-0.007925567217171192,-0.0009440905996598303,-0.004601676017045975
1761479795333998800,8.222998779296875,-0.007477623876184225,-0.00015632755821570754,-0.0023462448734790087
1761479795344035000,8.23303515625,-0.005339904222637415,-0.0022394522093236446,-0.002835201332345605
1761479795354071000,8.243071044921875,-0.004897020757198334,-0.0010077401529997587,-0.002698581200093031
1761479795364106200,8.253106201171875,-0.005269863177090883,-0.0011124024167656898,-0.001198955113068223
1761479795374142200,8.26314208984375,-0.009023322723805904,-0.0032386700622737408,-0.0033217607997357845
1761479795384178200,8.27317822265625,-0.004320180043578148,-0.002582201035693288,-0.0015355786308646202
1761479795394214100,8.283214111328125,-0.0051508196629583836,-0.002808836055919528,-0.0022090920247137547
1761479795404250000,8.29325,-0.005429652985185385,-0.004796619527041912,-0.0007070692372508347
1761479795414286000,8.3032861328125,-0.004444282967597246,-0.0041281660087406635,0.00038482676609419286
1761479795424322000,8.313322021484375,-0.0070158313028514385,-0.005992378573864698,-0.0012144014472141862
1761479795434357200,8.323357177734374,-0.0049337721429765224,-0.0046456181444227695,0.0009390306076966226
1761479795444393200,8.333393310546874,-0.006418484263122082,0.000050333743274677545,-0.000821318884845823
1761479795454429200,8.34342919921875,-0.0070672305300831795,-0.0030892668291926384,-0.001434112200513482
1761479795464465200,8.353465087890624,-0.007723699789494276,-0.0033888723701238632,-0.0012535499408841133
1761479795474501000,8.363501220703125,-0.004382497631013393,-0.0038136467337608337,-0.002055694116279483
1761479795484537000,8.373537109375,-0.0048767803236842155,-0.0012082761386409402,-0.0007787083159200847
1761479795494572300,8.383572265625,-0.00427277572453022,-0.005576126743108034,-0.0025337315164506435
1761479795504608300,8.393608154296874,-0.005601692944765091,-0.0020602215081453323,-0.0010106696281582117
1761479795514644200,8.403644287109374,-0.007254716940224171,-0.0015550197567790747,-0.004312722943723202
1761479795524680200,8.41368017578125,-0.004792624618858099,-0.003472229465842247,-0.005542304366827011
1761479795534716200,8.423716064453124,-0.005994509439915419,-0.0019542276859283447,-0.0009235842735506594
1761479795544752000,8.433752197265624,-0.005022721830755472,-0.004247475415468216,-0.0015395734226331115
1761479795554788000,8.4437880859375,-0.006353237200528383,-0.0018735338235273957,-0.0010514160385355353
1761479795564823000,8.453822998046874,-0.006813164800405502,-0.0041582598350942135,-0.00122558674775064
1761479795574859300,8.463859375,-0.004988367203623056,-0.004208859521895647,0.00018668759730644524
1761479795584895200,8.473895263671874,-0.005018460564315319,-0.0037766287568956614,-0.0019273296929895878
1761479795594931200,8.48393115234375,-0.004139084834605455,-0.0009925601771101356,-0.0020578245166689157
1761479795604967200,8.49396728515625,-0.006045375484973192,-0.0027561055030673742,-0.00047164582065306604
1761479795615003100,8.504003173828124,-0.0062304651364684105,-0.002445048186928034,-0.002252501668408513
1761479795625039000,8.5140390625,-0.007513842545449734,-0.0016785904299467802,-0.0020751350093632936
1761479795635074000,8.524073974609376,-0.005708485841751099,-0.004739894066005945,-0.0010277138790115714
1761479795645110000,8.534110107421874,-0.0068211546167731285,-0.003858654061332345,-0.0020599551498889923
1761479795655146200,8.544146240234374,-0.0059987702406942844,-0.0024791366886347532,-0.0011518171522766352
1761479795665182200,8.55418212890625,-0.004865062423050404,-0.0021438447292894125,-0.0015960324089974165
1761479795675218200,8.56421826171875,-0.006293582264333963,-0.00583764910697937,-0.001930791768245399
1761479795685254100,8.574254150390624,-0.0072805495001375675,0.03543149307370186,0.04622448608279228
1761479795695291100,8.584291015625,-0.005256281234323978,-0.010001767426729202,-0.032586704939603806
1761479795705327000,8.5943271484375,-0.005419266410171986,-0.0017955031944438815,-0.005903695244342089
1761479795715363000,8.604363037109374,-0.006256830412894487,-0.0030945930629968643,0.0006791060441173613
1761479795725399300,8.6143994140625,-0.0039116512052714825,-0.007544735446572304,-0.005503688473254442
1761479795735435300,8.624435302734375,-0.0070517840795218945,-0.014028467237949371,-0.011931493878364563
1761479795745470000,8.634469970703124,-0.004887965973466635,-0.00526693370193243,-0.006673082709312439
1761479795755506000,8.644505859375,-0.00509755639359355,-0.004178499802947044,-0.0010783139150589705
