time,seconds_elapsed,z,y,x
1761505132995985200,0.083985107421875,-1.0416412353515625,-0.032806396484375,-0.2342071533203125
1761505133006020400,0.094020263671875,-1.0264739990234375,-0.04180908203125,-0.226470947265625
1761505133016056300,0.104056396484375,-0.9957275390625,-0.03961181640625,-0.2163543701171875
1761505133026091300,0.11409130859375,-0.966888427734375,-0.0396881103515625,-0.2199859619140625
1761505133036126500,0.12412646484375,-0.95538330078125,-0.0454864501953125,-0.225494384765625
1761505133046162400,0.134162353515625,-0.9462738037109375,-0.052032470703125,-0.224365234375
1761505133056197400,0.144197265625,-0.9348602294921875,-0.05224609375,-0.22607421875
1761505133066232300,0.154232421875,-0.929107666015625,-0.0495147705078125,-0.230804443359375
1761505133076268500,0.1642685546875,-0.9275665283203125,-0.045440673828125,-0.235198974609375
1761505133086303200,0.17430322265625,-0.9441070556640625,-0.043853759765625,-0.2414703369140625
1761505133096339200,0.184339111328125,-0.977691650390625,-0.0446014404296875,-0.2445831298828125
1761505133106374100,0.1943740234375,-1.010711669921875,-0.0432891845703125,-0.24853515625
1761505133116409300,0.204409423828125,-1.0428619384765625,-0.0445404052734375,-0.251983642578125
1761505133126445300,0.2144453125,-1.0608062744140625,-0.0546417236328125,-0.2608184814453125
1761505133136480300,0.224480224609375,-1.0628662109375,-0.0712127685546875,-0.268707275390625
1761505133146515500,0.234515380859375,-1.0503082275390625,-0.08709716796875,-0.2795257568359375
1761505133156551400,0.244551513671875,-1.022857666015625,-0.0943603515625,-0.2957305908203125
1761505133166586400,0.25458642578125,-1.0009613037109375,-0.100738525390625,-0.313995361328125
1761505133176621300,0.264621337890625,-0.98992919921875,-0.116668701171875,-0.329071044921875
1761505133186657500,0.274657470703125,-0.986358642578125,-0.13726806640625,-0.3399200439453125
1761505133196692500,0.2846923828125,-1.0013885498046875,-0.1538848876953125,-0.3499908447265625
1761505133206727400,0.2947275390625,-1.0279388427734375,-0.167236328125,-0.362213134765625
1761505133216763400,0.304763427734375,-1.052703857421875,-0.173614501953125,-0.3787994384765625
1761505133226798300,0.31479833984375,-1.0653533935546875,-0.16253662109375,-0.391204833984375
1761505133236834600,0.32483447265625,-1.0698394775390625,-0.135009765625,-0.3829345703125
1761505133246869200,0.334869140625,-1.0538482666015625,-0.1041107177734375,-0.3624420166015625
1761505133256904400,0.344904541015625,-1.0206146240234375,-0.081268310546875,-0.339080810546875
1761505133266940400,0.3549404296875,-0.989013671875,-0.065704345703125,-0.3113555908203125
1761505133276975400,0.364975341796875,-0.948394775390625,-0.05853271484375,-0.298187255859375
1761505133287010300,0.37501025390625,-0.9073333740234375,-0.0552978515625,-0.2958526611328125
1761505133297046500,0.385046630859375,-0.8996124267578125,-0.0507659912109375,-0.2927398681640625
1761505133307081500,0.39508154296875,-0.9068450927734375,-0.049285888671875,-0.2899017333984375
1761505133317117400,0.405117431640625,-0.8757781982421875,-0.057525634765625,-0.2849884033203125
1761505133327152400,0.41515234375,-0.8488922119140625,-0.0645294189453125,-0.2793426513671875
1761505133337187600,0.4251875,-0.8635406494140625,-0.0633087158203125,-0.276641845703125
1761505133347223600,0.4352236328125,-0.886077880859375,-0.060089111328125,-0.2792205810546875
1761505133357258200,0.44525830078125,-0.9178619384765625,-0.0544586181640625,-0.2782135009765625
1761505133367293400,0.45529345703125,-0.9437255859375,-0.0462799072265625,-0.271453857421875
1761505133377329400,0.465329345703125,-0.9496612548828125,-0.048828125,-0.2575836181640625
1761505133387364400,0.4753642578125,-0.940185546875,-0.060516357421875,-0.243011474609375
1761505133397399600,0.485399658203125,-0.922332763671875,-0.073089599609375,-0.2306060791015625
1761505133407435500,0.495435546875,-0.9098968505859375,-0.0807342529296875,-0.2227325439453125
1761505133417470500,0.505470458984375,-0.89508056640625,-0.0861358642578125,-0.23095703125
1761505133427506400,0.51550634765625,-0.8780059814453125,-0.0931243896484375,-0.2505950927734375
1761505133437541400,0.525541259765625,-0.885711669921875,-0.0970306396484375,-0.2734832763671875
1761505133447576600,0.53557666015625,-0.912811279296875,-0.10650634765625,-0.2958221435546875
1761505133457612500,0.545612548828125,-0.9474334716796875,-0.1172943115234375,-0.3131866455078125
1761505133467647200,0.555647216796875,-0.9639434814453125,-0.131561279296875,-0.321502685546875
1761505133477682400,0.565682373046875,-0.9673919677734375,-0.1475677490234375,-0.3162689208984375
1761505133487718400,0.575718505859375,-0.9587860107421875,-0.1614227294921875,-0.314208984375
1761505133497753300,0.58575341796875,-0.9449462890625,-0.167724609375,-0.3162689208984375
1761505133507788500,0.59578857421875,-0.9460601806640625,-0.1752166748046875,-0.321197509765625
1761505133517824500,0.605824462890625,-0.95953369140625,-0.1766204833984375,-0.33056640625
1761505133527859500,0.615859375,-0.9758758544921875,-0.173675537109375,-0.3403472900390625
1761505133537895400,0.6258955078125,-0.9896240234375,-0.1766357421875,-0.3429412841796875
1761505133547930400,0.635930419921875,-1.002777099609375,-0.1746063232421875,-0.341156005859375
1761505133557965600,0.645965576171875,-1.001739501953125,-0.165283203125,-0.34295654296875
1761505133568001500,0.65600146484375,-0.9969635009765625,-0.15106201171875,-0.3385162353515625
1761505133578036200,0.6660361328125,-0.9770050048828125,-0.1384735107421875,-0.3338623046875
1761505133588071400,0.676071533203125,-0.9553070068359375,-0.131103515625,-0.3253021240234375
1761505133598107400,0.686107421875,-0.9329376220703125,-0.126312255859375,-0.3183135986328125
1761505133608142300,0.696142333984375,-0.9133758544921875,-0.1202545166015625,-0.31109619140625
1761505133618178300,0.70617822265625,-0.9057769775390625,-0.1155242919921875,-0.30511474609375
1761505133628213500,0.716213623046875,-0.91259765625,-0.114593505859375,-0.297576904296875
1761505133638248400,0.72624853515625,-0.930938720703125,-0.1107025146484375,-0.301116943359375
1761505133648284400,0.736284423828125,-0.9577789306640625,-0.1033477783203125,-0.311431884765625
1761505133658319400,0.7463193359375,-0.9725341796875,-0.09613037109375,-0.3238372802734375
1761505133668355600,0.75635546875,-0.96392822265625,-0.092742919921875,-0.326171875
1761505133678390500,0.766390625,-0.958038330078125,-0.0984039306640625,-0.318206787109375
1761505133688425200,0.77642529296875,-0.9414215087890625,-0.107025146484375,-0.3038482666015625
1761505133698461200,0.786461181640625,-0.9295654296875,-0.11724853515625,-0.2964935302734375
1761505133708496400,0.796496337890625,-0.928375244140625,-0.1271209716796875,-0.302337646484375
1761505133718531300,0.80653125,-0.926483154296875,-0.131561279296875,-0.3101348876953125
1761505133728567300,0.8165673828125,-0.919586181640625,-0.132965087890625,-0.3216094970703125
1761505133738602500,0.8266025390625,-0.90655517578125,-0.1379547119140625,-0.342681884765625
1761505133748638500,0.836638427734375,-0.9038543701171875,-0.1455230712890625,-0.35809326171875
1761505133758673400,0.84667333984375,-0.9003143310546875,-0.1558074951171875,-0.3601837158203125
1761505133768708400,0.856708251953125,-0.8974761962890625,-0.1639251708984375,-0.3573455810546875
1761505133778744600,0.86674462890625,-0.90142822265625,-0.171600341796875,-0.3524017333984375
1761505133788779500,0.876779541015625,-0.9232635498046875,-0.176422119140625,-0.350494384765625
1761505133798814200,0.886814208984375,-0.9306793212890625,-0.1825103759765625,-0.349761962890625
1761505133808850400,0.896850341796875,-0.9244842529296875,-0.1900177001953125,-0.3459625244140625
1761505133818885400,0.906885498046875,-0.91815185546875,-0.19915771484375,-0.339599609375
1761505133828921300,0.91692138671875,-0.92352294921875,-0.2091064453125,-0.3318939208984375
1761505133838956300,0.926956298828125,-0.927642822265625,-0.214599609375,-0.3242034912109375
1761505133848991500,0.936991455078125,-0.9217987060546875,-0.21466064453125,-0.30615234375
1761505133859027500,0.94702734375,-0.923126220703125,-0.211639404296875,-0.288360595703125
1761505133869062400,0.9570625,-0.92645263671875,-0.20306396484375,-0.273529052734375
1761505133879097300,0.967097412109375,-0.934967041015625,-0.1922760009765625,-0.2689208984375
1761505133889133600,0.977133544921875,-0.9392852783203125,-0.1847686767578125,-0.2623443603515625
1761505133899168500,0.98716845703125,-0.934112548828125,-0.1807403564453125,-0.2509002685546875
1761505133909204500,0.99720458984375,-0.939788818359375,-0.1765899658203125,-0.2416229248046875
1761505133919239400,1.007239501953125,-0.94842529296875,-0.174285888671875,-0.2423095703125
1761505133929274400,1.0172744140625,-0.951263427734375,-0.180755615234375,-0.23736572265625
1761505133939310300,1.027310302734375,-0.9633941650390625,-0.1936492919921875,-0.22430419921875
1761505133949345300,1.03734521484375,-0.95367431640625,-0.208465576171875,-0.215911865234375
1761505133959381200,1.04738134765625,-0.9383544921875,-0.21575927734375,-0.2166748046875
1761505133969416400,1.05741650390625,-0.9262847900390625,-0.2136688232421875,-0.2252197265625
1761505133979451400,1.067451416015625,-0.912384033203125,-0.21063232421875,-0.2361602783203125
1761505133989487400,1.0774873046875,-0.9048309326171875,-0.2080078125,-0.245635986328125
1761505133999522600,1.0875224609375,-0.90777587890625,-0.2155914306640625,-0.2471771240234375
1761505134009557500,1.0975576171875,-0.911346435546875,-0.2264862060546875,-0.2528076171875
1761505134019593500,1.107593505859375,-0.929656982421875,-0.233612060546875,-0.256744384765625
1761505134029628400,1.11762841796875,-0.946929931640625,-0.2358856201171875,-0.2571258544921875
1761505134039664400,1.127664306640625,-0.9493408203125,-0.234954833984375,-0.2597503662109375
1761505134049699300,1.13769921875,-0.94976806640625,-0.232177734375,-0.262847900390625
1761505134059734300,1.147734375,-0.94476318359375,-0.2301177978515625,-0.260894775390625
1761505134069770200,1.157770263671875,-0.9248809814453125,-0.227569580078125,-0.257659912109375
1761505134079805400,1.167805419921875,-0.910491943359375,-0.2247772216796875,-0.247589111328125
1761505134089841400,1.17784130859375,-0.8972015380859375,-0.2173614501953125,-0.2398834228515625
1761505134099876400,1.18787646484375,-0.920257568359375,-0.202301025390625,-0.2450408935546875
1761505134109911600,1.19791162109375,-0.9723663330078125,-0.18658447265625,-0.2624359130859375
1761505134119947500,1.207947509765625,-1.0179901123046875,-0.179412841796875,-0.28631591796875
1761505134129982200,1.217982177734375,-1.0534210205078125,-0.1834716796875,-0.310302734375
1761505134140018200,1.22801806640625,-1.087066650390625,-0.19915771484375,-0.3318939208984375
1761505134150053400,1.238053466796875,-1.0995941162109375,-0.2134857177734375,-0.3626708984375
1761505134160088300,1.24808837890625,-1.1012420654296875,-0.209228515625,-0.3947296142578125
1761505134170124300,1.258124267578125,-1.111846923828125,-0.1848907470703125,-0.4119873046875
1761505134180159200,1.2681591796875,-1.0871734619140625,-0.1603546142578125,-0.3991851806640625
1761505134190195200,1.2781953125,-1.058807373046875,-0.123809814453125,-0.3520660400390625
1761505134200230400,1.28823046875,-1.0362091064453125,-0.0999755859375,-0.2869873046875
1761505134210265300,1.298265380859375,-1.013580322265625,-0.090972900390625,-0.23236083984375
1761505134220301300,1.30830126953125,-0.996063232421875,-0.0786895751953125,-0.20880126953125
1761505134230336300,1.318336181640625,-0.9827728271484375,-0.068450927734375,-0.21160888671875
1761505134240371200,1.32837109375,-0.9678497314453125,-0.0670318603515625,-0.2261505126953125
1761505134250407200,1.3384072265625,-0.95770263671875,-0.0658721923828125,-0.23748779296875
1761505134260442400,1.3484423828125,-0.9638824462890625,-0.05743408203125,-0.2430267333984375
1761505134270478300,1.358478271484375,-0.9645538330078125,-0.0394744873046875,-0.243133544921875
1761505134280513300,1.36851318359375,-0.9656982421875,-0.0145111083984375,-0.2461700439453125
1761505134290548200,1.37854833984375,-0.9681396484375,-0.0000152587890625,-0.2466278076171875
1761505134300584200,1.388584228515625,-0.9774932861328125,0.0014495849609375,-0.247283935546875
1761505134310619400,1.398619384765625,-0.9927978515625,-0.00616455078125,-0.238067626953125
1761505134320655400,1.4086552734375,-1.006317138671875,-0.0092620849609375,-0.2283477783203125
1761505134330690300,1.418690185546875,-1.0002899169921875,-0.0104217529296875,-0.221282958984375
1761505134340725200,1.428725341796875,-0.9907684326171875,-0.0133209228515625,-0.21722412109375
1761505134350761200,1.43876123046875,-0.9779052734375,-0.0135650634765625,-0.21728515625
1761505134360796200,1.448796142578125,-0.963165283203125,-0.0087127685546875,-0.225616455078125
1761505134370832100,1.45883203125,-0.9450836181640625,-0.004974365234375,-0.23724365234375
1761505134380867300,1.468867431640625,-0.9277496337890625,-0.0069427490234375,-0.2457427978515625
1761505134390902300,1.47890234375,-0.917449951171875,-0.01983642578125,-0.2446746826171875
1761505134400938200,1.488938232421875,-0.9178619384765625,-0.0258941650390625,-0.2408599853515625
1761505134410973200,1.49897314453125,-0.9203033447265625,-0.023284912109375,-0.240203857421875
1761505134421009400,1.509009521484375,-0.9315032958984375,-0.0238189697265625,-0.24432373046875
1761505134431044400,1.51904443359375,-0.9467620849609375,-0.0262451171875,-0.254669189453125
1761505134441079300,1.529079345703125,-0.9545745849609375,-0.0258636474609375,-0.2671356201171875
1761505134451115300,1.539115234375,-0.9557647705078125,-0.02691650390625,-0.277435302734375
1761505134461150200,1.549150146484375,-0.9540863037109375,-0.0318450927734375,-0.2777862548828125
1761505134471185200,1.55918505859375,-0.9687042236328125,-0.0410003662109375,-0.2750701904296875
1761505134481221000,1.56922119140625,-0.9830322265625,-0.0479278564453125,-0.2749481201171875
1761505134491256300,1.57925634765625,-0.9999847412109375,-0.0478363037109375,-0.2685699462890625
1761505134501292300,1.589292236328125,-1.010009765625,-0.0442047119140625,-0.264129638671875
1761505134511327200,1.5993271484375,-1.005615234375,-0.0449066162109375,-0.2633209228515625
1761505134521362400,1.609362548828125,-0.998626708984375,-0.0467681884765625,-0.2619781494140625
1761505134531398400,1.6193984375,-0.9998626708984375,-0.049591064453125,-0.259490966796875
1761505134541433300,1.629433349609375,-0.9971466064453125,-0.0489044189453125,-0.260040283203125
1761505134551469300,1.63946923828125,-0.9922027587890625,-0.047454833984375,-0.26214599609375
1761505134561504300,1.649504150390625,-0.9976043701171875,-0.0452423095703125,-0.2645416259765625
1761505134571539500,1.65953955078125,-1.000335693359375,-0.0432891845703125,-0.2656707763671875
1761505134581575400,1.669575439453125,-0.9943389892578125,-0.04052734375,-0.260589599609375
1761505134591610000,1.679610107421875,-0.9913330078125,-0.036468505859375,-0.2516021728515625
1761505134601646000,1.68964599609375,-0.9935150146484375,-0.03631591796875,-0.23626708984375
1761505134611681300,1.699681396484375,-0.9940643310546875,-0.0400543212890625,-0.2193756103515625
1761505134621716200,1.70971630859375,-0.998260498046875,-0.0416259765625,-0.2054901123046875
1761505134631752200,1.719752197265625,-0.981231689453125,-0.0397491455078125,-0.1967620849609375
1761505134641787400,1.729787353515625,-0.96844482421875,-0.0341033935546875,-0.1905059814453125
1761505134651823400,1.7398232421875,-0.966094970703125,-0.03125,-0.180023193359375
1761505134661858300,1.7498583984375,-0.9814300537109375,-0.02734375,-0.1721649169921875
1761505134671893200,1.759893310546875,-1.0016937255859375,-0.02197265625,-0.172088623046875
1761505134681929500,1.769929443359375,-1.012451171875,-0.01702880859375,-0.1718597412109375
1761505134691964400,1.77996435546875,-1.020538330078125,-0.015869140625,-0.1745758056640625
1761505134701999000,1.7899990234375,-1.0295562744140625,-0.01470947265625,-0.1802978515625
1761505134712035000,1.80003515625,-1.0356903076171875,-0.0116729736328125,-0.184783935546875
1761505134722070300,1.8100703125,-1.0404205322265625,-0.0079193115234375,-0.18670654296875
1761505134732106200,1.820106201171875,-1.0386810302734375,-0.007476806640625,-0.1882781982421875
1761505134742141200,1.83014111328125,-1.0291748046875,-0.0098724365234375,-0.1850128173828125
1761505134752176400,1.84017626953125,-1.027191162109375,-0.0157623291015625,-0.1837310791015625
1761505134762212400,1.85021240234375,-1.024383544921875,-0.021026611328125,-0.184539794921875
1761505134772247300,1.860247314453125,-1.018524169921875,-0.019378662109375,-0.1817779541015625
1761505134782283300,1.870283203125,-1.015167236328125,-0.02099609375,-0.1775970458984375
1761505134792318500,1.880318359375,-0.9924163818359375,-0.023040771484375,-0.1788177490234375
1761505134802353400,1.890353515625,-0.9672088623046875,-0.01873779296875,-0.1804962158203125
1761505134812389400,1.900389404296875,-0.954071044921875,-0.0130767822265625,-0.1817779541015625
1761505134822424000,1.910424072265625,-0.959808349609375,-0.0104522705078125,-0.182769775390625
1761505134832460300,1.920460205078125,-0.97039794921875,-0.014556884765625,-0.1815338134765625
1761505134842495200,1.9304951171875,-0.9795684814453125,-0.02337646484375,-0.175537109375
1761505134852530200,1.9405302734375,-1.002960205078125,-0.0282745361328125,-0.173431396484375
1761505134862566100,1.950566162109375,-1.0187225341796875,-0.0311737060546875,-0.1746826171875
1761505134872601300,1.960601318359375,-1.0052032470703125,-0.0309906005859375,-0.1779937744140625
1761505134882637300,1.97063720703125,-0.9877471923828125,-0.029083251953125,-0.176666259765625
1761505134892672300,1.98067236328125,-0.9713897705078125,-0.029327392578125,-0.1708221435546875
1761505134902707500,1.99070751953125,-0.960662841796875,-0.026153564453125,-0.1658935546875
1761505134912743400,2.000743408203125,-0.964385986328125,-0.0233001708984375,-0.15997314453125
1761505134922778400,2.0107783203125,-0.97216796875,-0.021148681640625,-0.15350341796875
1761505134932814300,2.020814453125,-0.9834442138671875,-0.0156707763671875,-0.1556549072265625
1761505134942849300,2.030849365234375,-0.99676513671875,-0.006317138671875,-0.1667633056640625
1761505134952884200,2.04088427734375,-1.0128021240234375,0.000335693359375,-0.1851043701171875
1761505134962920200,2.050920166015625,-1.020416259765625,0.0047760009765625,-0.2014617919921875
1761505134972955100,2.060955078125,-1.008453369140625,0.0049591064453125,-0.2076568603515625
1761505134982991000,2.0709912109375,-0.9994659423828125,0,-0.208221435546875
1761505134993026300,2.0810263671875,-0.994110107421875,-0.0096435546875,-0.2076263427734375
1761505135003061200,2.091061279296875,-0.9886322021484375,-0.02093505859375,-0.2052459716796875
1761505135013097200,2.10109716796875,-0.9897308349609375,-0.025909423828125,-0.2059326171875
1761505135023132400,2.11113232421875,-0.9810791015625,-0.03021240234375,-0.2102508544921875
1761505135033167400,2.12116748046875,-0.9680328369140625,-0.0375213623046875,-0.2146759033203125
1761505135043203300,2.131203369140625,-0.9563446044921875,-0.04254150390625,-0.218780517578125
1761505135053238300,2.14123828125,-0.9597625732421875,-0.048095703125,-0.2220916748046875
1761505135063274500,2.1512744140625,-0.97979736328125,-0.0508880615234375,-0.2236480712890625
1761505135073309200,2.16130908203125,-0.9902801513671875,-0.051025390625,-0.2262115478515625
1761505135083344100,2.17134423828125,-0.9938201904296875,-0.0482330322265625,-0.2320098876953125
1761505135093380000,2.181380126953125,-0.9933319091796875,-0.0444488525390625,-0.2371978759765625
1761505135103415300,2.191415283203125,-0.9827728271484375,-0.0433197021484375,-0.23968505859375
1761505135113451300,2.201451171875,-0.9736328125,-0.0468902587890625,-0.2396087646484375
1761505135123486000,2.21148583984375,-0.9754791259765625,-0.0531005859375,-0.2302703857421875
1761505135133521200,2.221521240234375,-0.9852752685546875,-0.05810546875,-0.2210540771484375
1761505135143557000,2.23155712890625,-0.9966888427734375,-0.0575714111328125,-0.220062255859375
1761505135153592000,2.241592041015625,-1.0063629150390625,-0.0514373779296875,-0.2205047607421875
1761505135163628000,2.2516279296875,-1.0187835693359375,-0.0401153564453125,-0.2209625244140625
1761505135173663200,2.261663330078125,-1.022857666015625,-0.0328216552734375,-0.2162017822265625
1761505135183698200,2.2716982421875,-1.0039520263671875,-0.0363006591796875,-0.210601806640625
1761505135193734100,2.281734130859375,-0.9942474365234375,-0.0377349853515625,-0.207550048828125
1761505135203769000,2.29176904296875,-0.98419189453125,-0.0358428955078125,-0.2053070068359375
1761505135213805300,2.301805419921875,-0.98681640625,-0.0317535400390625,-0.2035980224609375
1761505135223840300,2.31184033203125,-0.9911346435546875,-0.032257080078125,-0.201995849609375
1761505135233875200,2.321875244140625,-0.997161865234375,-0.033538818359375,-0.201324462890625
1761505135243911200,2.3319111328125,-1.0015411376953125,-0.0339508056640625,-0.2007293701171875
1761505135253946000,2.341946044921875,-0.99835205078125,-0.03106689453125,-0.20623779296875
1761505135263981000,2.35198095703125,-1.0016632080078125,-0.025665283203125,-0.2092132568359375
1761505135274017000,2.36201708984375,-1.00665283203125,-0.0224761962890625,-0.203338623046875
1761505135284052200,2.37205224609375,-1.0057525634765625,-0.022857666015625,-0.196746826171875
1761505135294088200,2.382088134765625,-1.0021514892578125,-0.020172119140625,-0.1983489990234375
1761505135304123100,2.392123046875,-1.0030059814453125,-0.018585205078125,-0.2056121826171875
1761505135314158000,2.402157958984375,-1.0116424560546875,-0.020904541015625,-0.21240234375
1761505135324194300,2.4121943359375,-1.0154266357421875,-0.026153564453125,-0.21697998046875
1761505135334229200,2.422229248046875,-1.013153076171875,-0.031982421875,-0.2136077880859375
1761505135344265200,2.43226513671875,-1.0048370361328125,-0.0399627685546875,-0.2063751220703125
1761505135354300200,2.442300048828125,-0.9937744140625,-0.04571533203125,-0.1994781494140625
1761505135364335000,2.452335205078125,-0.9932708740234375,-0.0437774658203125,-0.1943817138671875
1761505135374371000,2.46237109375,-0.9813232421875,-0.0408935546875,-0.1923675537109375
1761505135384406000,2.472406005859375,-0.9763031005859375,-0.037750244140625,-0.1910400390625
1761505135394442000,2.48244189453125,-0.9839324951171875,-0.029632568359375,-0.1897125244140625
1761505135404477200,2.492477294921875,-0.9784393310546875,-0.0247039794921875,-0.1943206787109375
1761505135414512000,2.50251220703125,-0.971038818359375,-0.028564453125,-0.1966552734375
1761505135424548000,2.512548095703125,-0.9810791015625,-0.03680419921875,-0.2040557861328125
1761505135434583300,2.522583251953125,-0.9896240234375,-0.0476837158203125,-0.214447021484375
1761505135444619300,2.532619384765625,-0.990203857421875,-0.0526123046875,-0.220703125
1761505135454654200,2.542654296875,-0.99188232421875,-0.0447998046875,-0.2237091064453125
1761505135464689200,2.552689208984375,-0.99029541015625,-0.0366363525390625,-0.217315673828125
1761505135474725000,2.56272509765625,-0.979156494140625,-0.03668212890625,-0.2030029296875
1761505135484760000,2.572760009765625,-0.9775848388671875,-0.041656494140625,-0.185211181640625
1761505135494795000,2.582794921875,-0.97686767578125,-0.042205810546875,-0.16937255859375
1761505135504831000,2.5928310546875,-0.9742431640625,-0.038238525390625,-0.1618804931640625
1761505135514866200,2.6028662109375,-0.9752349853515625,-0.037261962890625,-0.154296875
1761505135524902100,2.612902099609375,-0.985443115234375,-0.0430908203125,-0.148956298828125
1761505135534937000,2.62293701171875,-1.0138397216796875,-0.051300048828125,-0.1468658447265625
1761505135544972300,2.63297216796875,-1.0337677001953125,-0.0593719482421875,-0.1499176025390625
1761505135555008300,2.64300830078125,-1.041748046875,-0.057769775390625,-0.1584014892578125
1761505135565043200,2.653043212890625,-1.0438385009765625,-0.0526580810546875,-0.167022705078125
1761505135575079200,2.6630791015625,-1.0447845458984375,-0.048858642578125,-0.1828155517578125
1761505135585114400,2.6731142578125,-1.04248046875,-0.03802490234375,-0.2050018310546875
1761505135595149300,2.6831494140625,-1.0452117919921875,-0.0212249755859375,-0.2210845947265625
1761505135605185300,2.693185302734375,-1.0564117431640625,-0.01043701171875,-0.2268829345703125
1761505135615220000,2.703219970703125,-1.0665740966796875,-0.0128173828125,-0.22259521484375
1761505135625256000,2.713255859375,-1.088287353515625,-0.0252227783203125,-0.2102508544921875
1761505135635291100,2.723291015625,-1.11376953125,-0.04107666015625,-0.1989288330078125
1761505135645326000,2.733326171875,-1.122650146484375,-0.0515289306640625,-0.19989013671875
1761505135655362000,2.743362060546875,-1.1167755126953125,-0.056182861328125,-0.2100372314453125
1761505135665397200,2.753397216796875,-1.0961456298828125,-0.0509185791015625,-0.2233734130859375
1761505135675432200,2.76343212890625,-1.0784759521484375,-0.0430145263671875,-0.2254638671875
1761505135685468200,2.77346826171875,-1.0532073974609375,-0.0437469482421875,-0.2198944091796875
1761505135695503400,2.78350341796875,-1.0244903564453125,-0.0493011474609375,-0.214874267578125
1761505135705539300,2.793539306640625,-0.9973297119140625,-0.0510101318359375,-0.210296630859375
1761505135715574300,2.80357421875,-0.99029541015625,-0.0440216064453125,-0.2063140869140625
1761505135725609000,2.81360888671875,-0.9925537109375,-0.0311126708984375,-0.2100830078125
1761505135735645000,2.82364501953125,-0.989837646484375,-0.021942138671875,-0.214599609375
1761505135745680100,2.83368017578125,-0.98565673828125,-0.0150299072265625,-0.221343994140625
1761505135755716000,2.843716064453125,-0.974090576171875,-0.0090179443359375,-0.217864990234375
1761505135765751000,2.8537509765625,-0.9550018310546875,-0.0055694580078125,-0.214569091796875
1761505135775786200,2.8637861328125,-0.953521728515625,-0.0021514892578125,-0.21099853515625
1761505135785822200,2.873822265625,-0.98486328125,0.0021514892578125,-0.2073974609375
1761505135795857200,2.883857177734375,-1.015716552734375,0.0031890869140625,-0.2048797607421875
1761505135805892400,2.893892333984375,-1.0276641845703125,0.0060577392578125,-0.19879150390625
1761505135815928300,2.90392822265625,-1.024261474609375,0.003204345703125,-0.1990966796875
1761505135825963300,2.91396337890625,-1.01409912109375,0.0000762939453125,-0.20794677734375
1761505135835999200,2.923999267578125,-1.0060577392578125,0.000885009765625,-0.219390869140625
1761505135846034200,2.9340341796875,-0.9886016845703125,-0.000762939453125,-0.2300567626953125
1761505135856069000,2.944069091796875,-0.9707794189453125,-0.003509521484375,-0.23748779296875
1761505135866105000,2.95410498046875,-0.9637603759765625,-0.0010986328125,-0.24664306640625
1761505135876140000,2.96414013671875,-0.9726715087890625,0.0124359130859375,-0.254547119140625
1761505135886176000,2.974176025390625,-0.965576171875,0.0240478515625,-0.2534942626953125
1761505135896211200,2.984211181640625,-0.952484130859375,0.0284576416015625,-0.2509613037109375
1761505135906246100,2.99424609375,-0.9576416015625,0.0272216796875,-0.254058837890625
1761505135916282000,3.0042822265625,-0.9578704833984375,0.02642822265625,-0.2586517333984375
1761505135926317300,3.0143173828125,-0.9507904052734375,0.02337646484375,-0.26544189453125
1761505135936353300,3.024353271484375,-0.9562225341796875,0.0224456787109375,-0.274749755859375
1761505135946388200,3.03438818359375,-0.957733154296875,0.0204315185546875,-0.277740478515625
1761505135956423200,3.044423095703125,-0.9552001953125,0.0112762451171875,-0.2738800048828125
1761505135966459400,3.05445947265625,-0.9605560302734375,-0.0053863525390625,-0.276458740234375
1761505135976494000,3.064494140625,-0.9681243896484375,-0.0196533203125,-0.289031982421875
1761505135986529000,3.074529052734375,-0.9748382568359375,-0.028350830078125,-0.3161163330078125
1761505135996565000,3.08456494140625,-0.98028564453125,-0.0391693115234375,-0.343994140625
1761505136006600200,3.09460009765625,-0.98040771484375,-0.049560546875,-0.3551025390625
1761505136016636200,3.10463623046875,-0.978363037109375,-0.05841064453125,-0.3589630126953125
1761505136026671000,3.114671142578125,-0.96759033203125,-0.0663909912109375,-0.367950439453125
1761505136036706300,3.124706298828125,-0.9549102783203125,-0.0687255859375,-0.3841552734375
1761505136046742300,3.1347421875,-0.9396209716796875,-0.0640716552734375,-0.402984619140625
1761505136056777200,3.144777099609375,-0.9351959228515625,-0.0516815185546875,-0.4134521484375
1761505136066812200,3.154812255859375,-0.94384765625,-0.0396728515625,-0.411590576171875
1761505136076848400,3.164848388671875,-0.9854583740234375,-0.02532958984375,-0.399932861328125
1761505136086883000,3.174883056640625,-1.008544921875,-0.0293426513671875,-0.3740997314453125
1761505136096919000,3.1849189453125,-1.009918212890625,-0.0399322509765625,-0.3484344482421875
1761505136106954000,3.1949541015625,-1.00311279296875,-0.040740966796875,-0.3324127197265625
1761505136116989200,3.2049892578125,-0.9885711669921875,-0.0355224609375,-0.3265380859375
1761505136127024000,3.215024169921875,-0.9756927490234375,-0.025848388671875,-0.3309478759765625
1761505136137059300,3.225059326171875,-0.966766357421875,-0.0202789306640625,-0.3428802490234375
1761505136147095300,3.23509521484375,-0.9583740234375,-0.02227783203125,-0.358917236328125
1761505136157130200,3.245130126953125,-0.9514923095703125,-0.022186279296875,-0.3707122802734375
1761505136167165200,3.255165283203125,-0.9573211669921875,-0.019317626953125,-0.370574951171875
1761505136177201200,3.265201171875,-0.9610748291015625,-0.01983642578125,-0.3587188720703125
1761505136187236400,3.275236328125,-0.9752197265625,-0.0206756591796875,-0.34747314453125
1761505136197272300,3.285272216796875,-0.976226806640625,-0.0208892822265625,-0.3441925048828125
1761505136207307300,3.295307373046875,-0.98577880859375,-0.02459716796875,-0.3510894775390625
1761505136217342500,3.305342529296875,-1.0137176513671875,-0.03125,-0.3582763671875
1761505136227378400,3.31537841796875,-0.9991912841796875,-0.0366668701171875,-0.362457275390625
1761505136237413000,3.3254130859375,-0.96014404296875,-0.038360595703125,-0.360504150390625
1761505136247448300,3.3354482421875,-0.9154052734375,-0.0439300537109375,-0.3614044189453125
1761505136257484300,3.345484375,-0.8845977783203125,-0.062255859375,-0.36376953125
1761505136267519200,3.355519287109375,-0.87274169921875,-0.07855224609375,-0.3623199462890625
1761505136277554200,3.36555419921875,-0.8743133544921875,-0.09173583984375,-0.368194580078125
1761505136287590100,3.375590087890625,-0.88232421875,-0.0931396484375,-0.37847900390625
1761505136297625300,3.385625244140625,-0.9033050537109375,-0.0893707275390625,-0.381317138671875
1761505136307661300,3.395661376953125,-0.923828125,-0.094329833984375,-0.373809814453125
1761505136317696300,3.4056962890625,-0.93975830078125,-0.1090240478515625,-0.368133544921875
1761505136327731500,3.4157314453125,-0.9574127197265625,-0.1243896484375,-0.364471435546875
1761505136337767400,3.425767333984375,-0.957855224609375,-0.1332244873046875,-0.364532470703125
1761505136347802400,3.43580224609375,-0.9473419189453125,-0.1358795166015625,-0.37548828125
1761505136357838300,3.44583837890625,-0.936798095703125,-0.13433837890625,-0.3829345703125
1761505136367873300,3.455873291015625,-0.9216156005859375,-0.135650634765625,-0.38360595703125
1761505136377908200,3.465908203125,-0.909271240234375,-0.142913818359375,-0.381591796875
1761505136387944200,3.475944091796875,-0.902130126953125,-0.1558380126953125,-0.387359619140625
1761505136397979100,3.485979248046875,-0.904022216796875,-0.1710968017578125,-0.39398193359375
1761505136408014300,3.496014404296875,-0.9243011474609375,-0.1826934814453125,-0.398345947265625
1761505136418050300,3.50605029296875,-0.9329376220703125,-0.184417724609375,-0.406097412109375
1761505136428085200,3.516085205078125,-0.9178619384765625,-0.1838226318359375,-0.4202880859375
1761505136438121200,3.526121337890625,-0.909515380859375,-0.1844940185546875,-0.4335174560546875
1761505136448156400,3.536156494140625,-0.90087890625,-0.1912078857421875,-0.434112548828125
1761505136458191400,3.54619140625,-0.884368896484375,-0.2045745849609375,-0.42626953125
1761505136468227300,3.556227294921875,-0.8773193359375,-0.216827392578125,-0.4124298095703125
1761505136478262300,3.56626220703125,-0.8800048828125,-0.2251739501953125,-0.397216796875
1761505136488298200,3.57629833984375,-0.8807373046875,-0.235321044921875,-0.3819732666015625
1761505136498333200,3.586333251953125,-0.8891754150390625,-0.239654541015625,-0.372314453125
1761505136508368100,3.5963681640625,-0.90643310546875,-0.2371063232421875,-0.3734893798828125
1761505136518404400,3.606404296875,-0.910491943359375,-0.23028564453125,-0.3742828369140625
1761505136528439300,3.616439208984375,-0.9134979248046875,-0.2194976806640625,-0.3663330078125
1761505136538474200,3.62647412109375,-0.92523193359375,-0.2096099853515625,-0.35369873046875
1761505136548510200,3.63651025390625,-0.9351043701171875,-0.2036590576171875,-0.33880615234375
1761505136558545400,3.64654541015625,-0.9286041259765625,-0.2031707763671875,-0.324462890625
1761505136568581400,3.656581298828125,-0.9123687744140625,-0.2088470458984375,-0.3090972900390625
1761505136578616300,3.6666162109375,-0.8885955810546875,-0.217437744140625,-0.297027587890625
1761505136588651300,3.6766513671875,-0.86029052734375,-0.2247772216796875,-0.2927398681640625
1761505136598687200,3.686687255859375,-0.8447113037109375,-0.227020263671875,-0.283447265625
1761505136608722200,3.69672216796875,-0.8489990234375,-0.2244873046875,-0.2714996337890625
1761505136618757000,3.706757080078125,-0.8685302734375,-0.21221923828125,-0.2781524658203125
1761505136628793300,3.71679345703125,-0.906951904296875,-0.1937713623046875,-0.2850494384765625
1761505136638828300,3.726828369140625,-0.9341583251953125,-0.1853179931640625,-0.2929534912109375
1761505136648864300,3.7368642578125,-0.927032470703125,-0.1869964599609375,-0.292938232421875
1761505136658899200,3.746899169921875,-0.90863037109375,-0.194061279296875,-0.2859039306640625
1761505136668934400,3.756934326171875,-0.8755035400390625,-0.20391845703125,-0.2734375
1761505136678970400,3.766970458984375,-0.8455352783203125,-0.2111358642578125,-0.2670135498046875
1761505136689005300,3.77700537109375,-0.8255157470703125,-0.21337890625,-0.2641448974609375
1761505136699040300,3.787040283203125,-0.8218536376953125,-0.2136993408203125,-0.2611083984375
1761505136709076500,3.797076416015625,-0.863037109375,-0.2133941650390625,-0.2549591064453125
1761505136719111200,3.807111083984375,-0.91033935546875,-0.21002197265625,-0.250274658203125
1761505136729147100,3.817147216796875,-0.93817138671875,-0.2072296142578125,-0.235382080078125
1761505136739182300,3.827182373046875,-0.94500732421875,-0.2016754150390625,-0.2391357421875
1761505136749217300,3.83721728515625,-0.9318084716796875,-0.196197509765625,-0.253662109375
1761505136759253200,3.847253173828125,-0.907562255859375,-0.19403076171875,-0.25970458984375
1761505136769288200,3.8572880859375,-0.8820343017578125,-0.196746826171875,-0.262603759765625
1761505136779324400,3.867324462890625,-0.86639404296875,-0.1976776123046875,-0.2628326416015625
1761505136789359400,3.877359375,-0.8695526123046875,-0.1982269287109375,-0.269256591796875
1761505136799394300,3.887394287109375,-0.8802947998046875,-0.2006378173828125,-0.2899017333984375
1761505136809430300,3.89743017578125,-0.8827972412109375,-0.20843505859375,-0.3112945556640625
1761505136819465500,3.907465576171875,-0.881805419921875,-0.2157440185546875,-0.32049560546875
1761505136829500200,3.917500244140625,-0.8704986572265625,-0.2210845947265625,-0.324127197265625
1761505136839536000,3.9275361328125,-0.871612548828125,-0.221343994140625,-0.3232574462890625
1761505136849571300,3.9375712890625,-0.883819580078125,-0.2194976806640625,-0.313262939453125
1761505136859607300,3.947607177734375,-0.8887786865234375,-0.21563720703125,-0.305511474609375
1761505136869642200,3.957642333984375,-0.8958892822265625,-0.2042236328125,-0.3075714111328125
1761505136879677200,3.96767724609375,-0.911468505859375,-0.1922149658203125,-0.3213653564453125
1761505136889713400,3.97771337890625,-0.927825927734375,-0.186798095703125,-0.3457183837890625
1761505136899748400,3.987748291015625,-0.921356201171875,-0.1903228759765625,-0.3706207275390625
1761505136909783300,3.997783203125,-0.903045654296875,-0.19622802734375,-0.3863372802734375
1761505136919819300,4.0078193359375,-0.8829193115234375,-0.20318603515625,-0.396514892578125
1761505136929854500,4.0178544921875,-0.83367919921875,-0.213958740234375,-0.3828582763671875
1761505136939890400,4.027890380859375,-0.799346923828125,-0.215667724609375,-0.34124755859375
1761505136949925000,4.037925048828125,-0.86224365234375,-0.2035064697265625,-0.32647705078125
1761505136959960300,4.047960205078125,-0.94354248046875,-0.1785888671875,-0.3470306396484375
1761505136969996300,4.057996337890625,-0.9940338134765625,-0.156005859375,-0.3662109375
1761505136980031200,4.06803125,-1.0384063720703125,-0.138763427734375,-0.3770599365234375
1761505136990066200,4.078066162109375,-1.0409088134765625,-0.120635986328125,-0.4014892578125
1761505137000102400,4.088102294921875,-1.014801025390625,-0.12646484375,-0.404052734375
1761505137010137300,4.098137451171875,-0.9850006103515625,-0.1450347900390625,-0.3984832763671875
1761505137020173300,4.10817333984375,-0.9607391357421875,-0.17071533203125,-0.382537841796875
1761505137030208300,4.118208251953125,-0.973541259765625,-0.20355224609375,-0.3658905029296875
1761505137040243500,4.128243408203125,-0.979522705078125,-0.234527587890625,-0.3591461181640625
1761505137050279400,4.138279541015625,-0.953277587890625,-0.25408935546875,-0.36041259765625
1761505137060314000,4.148314208984375,-0.9279327392578125,-0.260833740234375,-0.370147705078125
1761505137070349300,4.158349365234375,-0.9011383056640625,-0.2598724365234375,-0.387542724609375
1761505137080385300,4.16838525390625,-0.863250732421875,-0.2628021240234375,-0.3997802734375
1761505137090420200,4.178420166015625,-0.8494110107421875,-0.2696685791015625,-0.4066314697265625
1761505137100455200,4.188455078125,-0.8643951416015625,-0.2677459716796875,-0.422760009765625
1761505137110491400,4.198491455078125,-0.8985137939453125,-0.245086669921875,-0.4469757080078125
1761505137120526300,4.2085263671875,-0.9781341552734375,-0.2129058837890625,-0.4729766845703125
1761505137130563000,4.21856298828125,-1.06292724609375,-0.200958251953125,-0.4852752685546875
1761505137140598000,4.228597900390625,-1.1047210693359375,-0.2103271484375,-0.4849395751953125
1761505137150633000,4.238633056640625,-1.11517333984375,-0.219879150390625,-0.4752044677734375
1761505137160669000,4.2486689453125,-1.1077117919921875,-0.2188873291015625,-0.46868896484375
1761505137170704000,4.258703857421875,-1.0893402099609375,-0.19927978515625,-0.462890625
1761505137180739800,4.26873974609375,-1.06817626953125,-0.1717681884765625,-0.4448089599609375
1761505137190775000,4.278775146484375,-1.04998779296875,-0.152618408203125,-0.411407470703125
1761505137200810000,4.28881005859375,-1.0201568603515625,-0.147125244140625,-0.36920166015625
1761505137210846000,4.298845947265625,-0.9960784912109375,-0.141082763671875,-0.3395538330078125
1761505137220881000,4.308880859375,-0.983642578125,-0.12841796875,-0.326904296875
1761505137230916000,4.318916015625,-0.969696044921875,-0.1170196533203125,-0.322296142578125
1761505137240952000,4.3289521484375,-0.9548797607421875,-0.1061859130859375,-0.3175506591796875
1761505137250987000,4.338987060546875,-0.9376220703125,-0.0963287353515625,-0.3055877685546875
1761505137261022000,4.34902197265625,-0.9397735595703125,-0.0801849365234375,-0.29498291015625
1761505137271058000,4.359057861328125,-0.95648193359375,-0.0662689208984375,-0.29345703125
1761505137281092900,4.3690927734375,-0.954681396484375,-0.0599517822265625,-0.2872772216796875
1761505137291128800,4.37912890625,-0.9563751220703125,-0.0531158447265625,-0.274322509765625
1761505137301164000,4.3891640625,-0.9663238525390625,-0.0444183349609375,-0.2589874267578125
1761505137311199000,4.399198974609375,-0.9564971923828125,-0.0387725830078125,-0.2463531494140625
1761505137321235000,4.40923486328125,-0.941619873046875,-0.039093017578125,-0.2269744873046875
1761505137331270000,4.419269775390625,-0.9271697998046875,-0.036285400390625,-0.213714599609375
1761505137341305900,4.429305908203125,-0.9202728271484375,-0.0283966064453125,-0.210693359375
1761505137351341000,4.439341064453125,-0.9205322265625,-0.019256591796875,-0.2115325927734375
1761505137361376000,4.4493759765625,-0.9259796142578125,-0.0096893310546875,-0.217926025390625
1761505137371412000,4.459411865234375,-0.9435272216796875,-0.002899169921875,-0.2284088134765625
1761505137381447000,4.469447021484375,-0.9675445556640625,-0.0033111572265625,-0.245758056640625
1761505137391481900,4.47948193359375,-0.980621337890625,-0.008331298828125,-0.2570037841796875
1761505137401517800,4.489517822265625,-0.9922332763671875,-0.0109405517578125,-0.259918212890625
1761505137411553000,4.499552978515625,-1.0037384033203125,-0.0108184814453125,-0.2641143798828125
1761505137421589000,4.509589111328125,-1.006072998046875,-0.0110626220703125,-0.2655792236328125
1761505137431624000,4.5196240234375,-1.000213623046875,-0.0128021240234375,-0.26434326171875
1761505137441659000,4.529658935546875,-0.9958953857421875,-0.016693115234375,-0.26031494140625
1761505137451694800,4.53969482421875,-0.9901275634765625,-0.018096923828125,-0.2577056884765625
1761505137461730000,4.54972998046875,-0.9861297607421875,-0.0106048583984375,-0.2601165771484375
1761505137471765000,4.559764892578125,-0.98126220703125,-0.0031890869140625,-0.2639312744140625
1761505137481801000,4.569801025390625,-0.974578857421875,0.0016632080078125,-0.26336669921875
1761505137491837000,4.5798369140625,-0.97265625,0.0048980712890625,-0.258544921875
1761505137501873000,4.589872802734375,-0.9668426513671875,0.00634765625,-0.24884033203125
1761505137511908000,4.599908203125,-0.959930419921875,0.0069427490234375,-0.2370758056640625
1761505137521944000,4.609944091796875,-0.9680633544921875,0.0052337646484375,-0.2203369140625
1761505137531978800,4.619978759765625,-0.9768218994140625,0.01031494140625,-0.209991455078125
1761505137542014000,4.630013916015625,-0.9762115478515625,0.0130767822265625,-0.20977783203125
1761505137552050000,4.6400498046875,-0.9746856689453125,0.0044097900390625,-0.206573486328125
1761505137562084900,4.6500849609375,-0.9852294921875,-0.006378173828125,-0.1958770751953125
1761505137572120000,4.6601201171875,-0.9972991943359375,-0.0123443603515625,-0.1867218017578125
1761505137582156000,4.670156005859375,-0.998382568359375,-0.01116943359375,-0.1826324462890625
1761505137592191000,4.68019091796875,-0.9974212646484375,-0.007293701171875,-0.1785736083984375
1761505137602227000,4.69022705078125,-0.9943389892578125,-0.000213623046875,-0.1775665283203125
1761505137612262000,4.700261962890625,-0.9879913330078125,0.0073089599609375,-0.1821441650390625
1761505137622297000,4.710297119140625,-0.9810028076171875,0.016876220703125,-0.19268798828125
1761505137632333000,4.7203330078125,-0.9766845703125,0.0216217041015625,-0.2000732421875
1761505137642367700,4.73036767578125,-0.985595703125,0.023101806640625,-0.20013427734375
1761505137652403000,4.74040283203125,-1.01715087890625,0.025848388671875,-0.2021636962890625
1761505137662439000,4.75043896484375,-1.0333404541015625,0.0269012451171875,-0.20550537109375
1761505137672473900,4.760473876953125,-1.04449462890625,0.0254058837890625,-0.205352783203125
1761505137682509800,4.770509765625,-1.0507659912109375,0.0273590087890625,-0.2059783935546875
1761505137692545000,4.780544921875,-1.0410003662109375,0.0253753662109375,-0.2132110595703125
1761505137702580000,4.790580078125,-1.0168304443359375,0.0192413330078125,-0.2175445556640625
1761505137712616000,4.800615966796875,-0.9933013916015625,0.01092529296875,-0.2191619873046875
1761505137722651000,4.81065087890625,-0.980743408203125,0.0063934326171875,-0.2221221923828125
1761505137732687000,4.82068701171875,-0.9762725830078125,0.0041046142578125,-0.223663330078125
1761505137742722000,4.83072216796875,-0.968048095703125,0.001495361328125,-0.2197113037109375
1761505137752756700,4.8407568359375,-0.9593048095703125,-0.0001068115234375,-0.2105712890625
1761505137762793000,4.85079296875,-0.9549407958984375,-0.001983642578125,-0.19964599609375
1761505137772828000,4.860827880859375,-0.959381103515625,-0.0084991455078125,-0.1953125
1761505137782862800,4.87086279296875,-0.96337890625,-0.019439697265625,-0.1885528564453125
1761505137792898800,4.88089892578125,-0.97564697265625,-0.027313232421875,-0.1829833984375
1761505137802934000,4.89093408203125,-0.991302490234375,-0.0286865234375,-0.181060791015625
1761505137812970000,4.900969970703125,-0.993927001953125,-0.029022216796875,-0.17730712890625
1761505137823005000,4.9110048828125,-1.0008697509765625,-0.02813720703125,-0.174285888671875
1761505137833040000,4.921039794921875,-1.0024871826171875,-0.0272369384765625,-0.1639251708984375
1761505137843076000,4.931076171875,-1.005706787109375,-0.0242767333984375,-0.15667724609375
1761505137853111000,4.941111083984375,-1.0099334716796875,-0.0233917236328125,-0.1569366455078125
1761505137863147000,4.95114697265625,-1.0139007568359375,-0.0232086181640625,-0.155364990234375
1761505137873182000,4.961181884765625,-1.018524169921875,-0.020172119140625,-0.1572418212890625
1761505137883217000,4.971216796875,-1.0352020263671875,-0.0189971923828125,-0.1657257080078125
1761505137893252900,4.9812529296875,-1.053192138671875,-0.024871826171875,-0.177215576171875
1761505137903287800,4.991287841796875,-1.0404205322265625,-0.036041259765625,-0.17755126953125
1761505137913323000,5.001322998046875,-1.0193634033203125,-0.04632568359375,-0.17486572265625
1761505137923359000,5.01135888671875,-0.997283935546875,-0.057525634765625,-0.18017578125
1761505137933394000,5.021393798828125,-0.979736328125,-0.0676727294921875,-0.186126708984375
1761505137943430000,5.031429931640625,-0.9667510986328125,-0.07373046875,-0.1906585693359375
1761505137953465000,5.041465087890625,-0.9613037109375,-0.0797271728515625,-0.191925048828125
1761505137963500000,5.0515,-0.9665374755859375,-0.0871429443359375,-0.190521240234375
1761505137973536000,5.061535888671875,-0.9687957763671875,-0.0929718017578125,-0.1930694580078125
1761505137983571000,5.071571044921875,-0.9820556640625,-0.0990447998046875,-0.20245361328125
1761505137993606000,5.08160595703125,-0.99261474609375,-0.1044158935546875,-0.210968017578125
1761505138003641900,5.091641845703125,-0.9893646240234375,-0.1140899658203125,-0.215850830078125
1761505138013676800,5.1016767578125,-0.9820098876953125,-0.126556396484375,-0.2123260498046875
1761505138023712800,5.111712646484375,-0.9724273681640625,-0.136199951171875,-0.2077484130859375
1761505138033748000,5.121748046875,-0.9663543701171875,-0.14093017578125,-0.208740234375
1761505138043783000,5.131782958984375,-0.9712066650390625,-0.1389923095703125,-0.214324951171875
1761505138053819000,5.14181884765625,-0.977935791015625,-0.136260986328125,-0.2162933349609375
1761505138063854000,5.15185400390625,-0.9802703857421875,-0.13385009765625,-0.2151947021484375
1761505138073890000,5.16189013671875,-0.992279052734375,-0.1332244873046875,-0.2188568115234375
1761505138083925000,5.171925048828125,-0.998291015625,-0.1341400146484375,-0.21441650390625
1761505138093960000,5.1819599609375,-0.9909210205078125,-0.1383056640625,-0.2052001953125
1761505138103996200,5.19199609375,-0.982818603515625,-0.14324951171875,-0.1974945068359375
1761505138114030800,5.20203076171875,-0.97210693359375,-0.14678955078125,-0.19281005859375
1761505138124067600,5.212067626953125,-0.970794677734375,-0.1445770263671875,-0.1930084228515625
1761505138134102500,5.2221025390625,-0.979400634765625,-0.13812255859375,-0.1974029541015625
1761505138144137700,5.2321376953125,-0.99029541015625,-0.134918212890625,-0.194854736328125
1761505138154173700,5.242173583984375,-1.0092315673828125,-0.1312255859375,-0.1862945556640625
1761505138164208600,5.252208740234375,-1.02069091796875,-0.124267578125,-0.1791839599609375
1761505138174243600,5.26224365234375,-1.02288818359375,-0.1173858642578125,-0.17138671875
1761505138184279800,5.27227978515625,-1.0176544189453125,-0.111114501953125,-0.168212890625
1761505138194314500,5.282314453125,-1.00616455078125,-0.1105804443359375,-0.164794921875
1761505138204350500,5.2923505859375,-1.0009307861328125,-0.117156982421875,-0.1631011962890625
1761505138214385400,5.302385498046875,-0.9947052001953125,-0.121429443359375,-0.164215087890625
1761505138224420600,5.312420654296875,-0.9919891357421875,-0.1217803955078125,-0.168304443359375
1761505138234456600,5.32245654296875,-0.9956207275390625,-0.120758056640625,-0.179534912109375
1761505138244491500,5.332491455078125,-0.994720458984375,-0.118377685546875,-0.1889495849609375
1761505138254527500,5.342527587890625,-0.9879302978515625,-0.1114501953125,-0.193328857421875
1761505138264562700,5.352562744140625,-0.98382568359375,-0.102386474609375,-0.1989288330078125
1761505138274597600,5.36259765625,-0.9755859375,-0.0961761474609375,-0.2024078369140625
1761505138284633600,5.372633544921875,-0.9755706787109375,-0.0947113037109375,-0.2025909423828125
1761505138294668800,5.382668701171875,-0.9878692626953125,-0.0991668701171875,-0.20074462890625
1761505138304703500,5.392703369140625,-0.9962310791015625,-0.10589599609375,-0.1982574462890625
1761505138314739500,5.402739501953125,-0.9963226318359375,-0.109893798828125,-0.199859619140625
1761505138324774400,5.4127744140625,-0.9871826171875,-0.10992431640625,-0.1987152099609375
1761505138334810400,5.422810302734375,-0.970947265625,-0.1105499267578125,-0.1979827880859375
1761505138344845600,5.432845458984375,-0.953399658203125,-0.114471435546875,-0.19439697265625
1761505138354880500,5.442880615234375,-0.9449310302734375,-0.1193695068359375,-0.189727783203125
1761505138364916500,5.45291650390625,-0.9424591064453125,-0.1224365234375,-0.1851959228515625
1761505138374951700,5.46295166015625,-0.947906494140625,-0.1210784912109375,-0.175567626953125
1761505138384987600,5.472987548828125,-0.9608306884765625,-0.11859130859375,-0.1712188720703125
1761505138395022600,5.483022705078125,-0.96575927734375,-0.1185150146484375,-0.1688385009765625
1761505138405057800,5.493057861328125,-0.96942138671875,-0.1166839599609375,-0.161651611328125
1761505138415093800,5.50309375,-0.9722442626953125,-0.11590576171875,-0.154876708984375
1761505138425128400,5.51312841796875,-0.975067138671875,-0.1174774169921875,-0.1544342041015625
1761505138435163400,5.523163330078125,-0.9739532470703125,-0.120849609375,-0.1533660888671875
1761505138445199600,5.53319970703125,-0.9778289794921875,-0.12078857421875,-0.1536712646484375
1761505138455234600,5.543234619140625,-0.9871978759765625,-0.12060546875,-0.160369873046875
1761505138465270500,5.5532705078125,-0.98614501953125,-0.11962890625,-0.166900634765625
1761505138475305500,5.563305419921875,-0.983154296875,-0.1194305419921875,-0.16986083984375
1761505138485340700,5.573340576171875,-0.9922943115234375,-0.122802734375,-0.171966552734375
1761505138495376600,5.583376708984375,-1.010040283203125,-0.127716064453125,-0.1736602783203125
1761505138505411600,5.59341162109375,-1.0233612060546875,-0.1348876953125,-0.17681884765625
1761505138515447600,5.603447509765625,-1.0416259765625,-0.137664794921875,-0.1817779541015625
1761505138525482800,5.613482666015625,-1.051849365234375,-0.1397857666015625,-0.1904144287109375
1761505138535517700,5.623517578125,-1.049163818359375,-0.1427154541015625,-0.1949310302734375
1761505138545553700,5.6335537109375,-1.044097900390625,-0.1439971923828125,-0.1999359130859375
1761505138555588600,5.643588623046875,-1.03265380859375,-0.1450958251953125,-0.2062530517578125
1761505138565623600,5.65362353515625,-1.0159149169921875,-0.14508056640625,-0.207916259765625
1761505138575659500,5.663659423828125,-0.998443603515625,-0.1439971923828125,-0.2065582275390625
1761505138585694500,5.673694580078125,-0.980224609375,-0.1427459716796875,-0.2002105712890625
1761505138595730400,5.68373046875,-0.9822998046875,-0.14202880859375,-0.1967010498046875
1761505138605765600,5.693765625,-0.9948272705078125,-0.1440582275390625,-0.1905670166015625
1761505138615800600,5.703800537109375,-1.0218048095703125,-0.1287841796875,-0.19964599609375
1761505138625836500,5.71383642578125,-1.047332763671875,-0.0868988037109375,-0.2220916748046875
1761505138635871700,5.723871826171875,-1.0507354736328125,-0.0529327392578125,-0.2291717529296875
1761505138645907700,5.73390771484375,-1.0611419677734375,-0.0563812255859375,-0.2136077880859375
1761505138655942700,5.743942626953125,-1.0904388427734375,-0.084686279296875,-0.191162109375
1761505138665977600,5.7539775390625,-1.116912841796875,-0.115020751953125,-0.1697998046875
1761505138676013600,5.764013671875,-1.144287109375,-0.121551513671875,-0.169647216796875
1761505138686048500,5.774048583984375,-1.1604156494140625,-0.1046600341796875,-0.1864166259765625
1761505138696083500,5.78408349609375,-1.1476287841796875,-0.0919952392578125,-0.1956787109375
1761505138706119400,5.794119384765625,-1.1193084716796875,-0.1007843017578125,-0.1858978271484375
1761505138716154600,5.804154541015625,-1.08349609375,-0.1207275390625,-0.1664276123046875
1761505138726190600,5.814190673828125,-1.05316162109375,-0.1372528076171875,-0.1546630859375
1761505138736225500,5.8242255859375,-1.0293121337890625,-0.1395721435546875,-0.15374755859375
1761505138746260700,5.8342607421875,-1.010650634765625,-0.131988525390625,-0.1601409912109375
1761505138756296700,5.844296630859375,-1.0000152587890625,-0.1222991943359375,-0.1697998046875
1761505138766331600,5.85433154296875,-0.9854583740234375,-0.1155548095703125,-0.1876373291015625
1761505138776366600,5.86436669921875,-0.9660797119140625,-0.109405517578125,-0.2029876708984375
1761505138786402600,5.874402587890625,-0.9419097900390625,-0.10430908203125,-0.2076416015625
1761505138796437500,5.8844375,-0.9212188720703125,-0.104095458984375,-0.212677001953125
1761505138806473500,5.894473388671875,-0.9090728759765625,-0.104949951171875,-0.2139434814453125
1761505138816508400,5.90450830078125,-0.9137725830078125,-0.1034698486328125,-0.2165679931640625
1761505138826543600,5.914543701171875,-0.9254302978515625,-0.102691650390625,-0.224945068359375
1761505138836579600,5.92457958984375,-0.9358978271484375,-0.1042327880859375,-0.2317962646484375
1761505138846614500,5.934614501953125,-0.9531097412109375,-0.1033172607421875,-0.2421722412109375
1761505138856650500,5.944650390625,-0.9764556884765625,-0.0927886962890625,-0.2541656494140625
1761505138866685700,5.954685791015625,-0.9999542236328125,-0.0768890380859375,-0.2664642333984375
1761505138876720600,5.964720703125,-1.011260986328125,-0.0565185546875,-0.2813262939453125
1761505138886756600,5.974756591796875,-1.02398681640625,-0.03741455078125,-0.2910308837890625
1761505138896791800,5.984791748046875,-1.038726806640625,-0.026763916015625,-0.2994232177734375
1761505138906827800,5.994827880859375,-1.0426788330078125,-0.020751953125,-0.3031768798828125
1761505138916862500,6.004862548828125,-1.0460052490234375,-0.0169219970703125,-0.2989654541015625
1761505138926897400,6.0148974609375,-1.03851318359375,-0.016845703125,-0.2938690185546875
1761505138936933600,6.02493359375,-1.0227508544921875,-0.020965576171875,-0.292572021484375
1761505138946968600,6.034968505859375,-1.006622314453125,-0.0219879150390625,-0.3042755126953125
1761505138957003500,6.04500341796875,-0.9864044189453125,-0.0206451416015625,-0.3179473876953125
1761505138967039500,6.05503955078125,-0.9705963134765625,-0.0182037353515625,-0.3319244384765625
1761505138977074700,6.06507470703125,-0.9640655517578125,-0.0147705078125,-0.349456787109375
1761505138987110700,6.075110595703125,-0.955047607421875,-0.0144500732421875,-0.3617401123046875
1761505138997145600,6.0851455078125,-0.9463348388671875,-0.020751953125,-0.375213623046875
1761505139007180800,6.095180908203125,-0.9372711181640625,-0.029571533203125,-0.388458251953125
1761505139017216800,6.105216796875,-0.9190521240234375,-0.0426177978515625,-0.39385986328125
1761505139027251500,6.11525146484375,-0.8964691162109375,-0.0620574951171875,-0.3861541748046875
1761505139037286400,6.125286376953125,-0.8858184814453125,-0.0865936279296875,-0.369476318359375
1761505139047322600,6.135322509765625,-0.88604736328125,-0.11358642578125,-0.3451385498046875
1761505139057357600,6.145357666015625,-0.8939971923828125,-0.133270263671875,-0.31951904296875
1761505139067393500,6.1553935546875,-0.9063262939453125,-0.14056396484375,-0.2993316650390625
1761505139077428500,6.165428466796875,-0.91729736328125,-0.1390228271484375,-0.290283203125
1761505139087463700,6.175463623046875,-0.920166015625,-0.136871337890625,-0.283538818359375
1761505139097499600,6.185499755859375,-0.9127044677734375,-0.1142730712890625,-0.2766876220703125
1761505139107534600,6.19553466796875,-0.9101104736328125,-0.1046905517578125,-0.2674407958984375
1761505139117569800,6.20556982421875,-0.924652099609375,-0.089630126953125,-0.2616119384765625
1761505139127604200,6.215604248046875,-0.9491119384765625,-0.0716400146484375,-0.265350341796875
1761505139137639200,6.22563916015625,-0.969329833984375,-0.0540008544921875,-0.277496337890625
1761505139147675400,6.23567529296875,-0.986328125,-0.0459442138671875,-0.2886199951171875
1761505139157710000,6.2457099609375,-0.9972991943359375,-0.05322265625,-0.294525146484375
1761505139167745000,6.2557451171875,-0.999053955078125,-0.0718841552734375,-0.2975006103515625
1761505139177781000,6.265781005859375,-0.9977569580078125,-0.0946502685546875,-0.29559326171875
1761505139187816200,6.275816162109375,-0.997589111328125,-0.1175079345703125,-0.2920074462890625
1761505139197852200,6.28585205078125,-0.9917449951171875,-0.131134033203125,-0.296142578125
1761505139207887000,6.29588720703125,-0.97857666015625,-0.1387481689453125,-0.302154541015625
1761505139217922300,6.30592236328125,-0.961761474609375,-0.1429595947265625,-0.3046417236328125
1761505139227958300,6.315958251953125,-0.9468994140625,-0.14544677734375,-0.305389404296875
1761505139237993200,6.3259931640625,-0.93914794921875,-0.1429901123046875,-0.3102569580078125
1761505139248028200,6.336028076171875,-0.937652587890625,-0.1382598876953125,-0.319000244140625
1761505139258064400,6.346064453125,-0.938232421875,-0.134429931640625,-0.32574462890625
1761505139268099000,6.35609912109375,-0.9467010498046875,-0.1304931640625,-0.3232574462890625
1761505139278135000,6.366135009765625,-0.95831298828125,-0.130126953125,-0.3136749267578125
1761505139288170000,6.376169921875,-0.964874267578125,-0.1259002685546875,-0.30889892578125
1761505139298205200,6.386205078125,-0.975921630859375,-0.12054443359375,-0.313018798828125
1761505139308241200,6.3962412109375,-0.99853515625,-0.118194580078125,-0.321044921875
1761505139318276000,6.406276123046875,-1.012420654296875,-0.12457275390625,-0.3289337158203125
1761505139328311300,6.416311279296875,-1.00677490234375,-0.1345367431640625,-0.32403564453125
1761505139338347300,6.42634716796875,-0.99078369140625,-0.1456756591796875,-0.3133697509765625
1761505139348382200,6.43638232421875,-0.969573974609375,-0.1568756103515625,-0.302337646484375
1761505139358418200,6.446418212890625,-0.94183349609375,-0.1602630615234375,-0.2953033447265625
1761505139368453400,6.456453369140625,-0.920867919921875,-0.15423583984375,-0.3028106689453125
1761505139378488000,6.466488037109375,-0.898956298828125,-0.146240234375,-0.313873291015625
1761505139388524000,6.47652392578125,-0.888214111328125,-0.1379852294921875,-0.3170166015625
1761505139398559000,6.48655908203125,-0.8696746826171875,-0.1324462890625,-0.3125762939453125
1761505139408594200,6.49659423828125,-0.8628387451171875,-0.1291351318359375,-0.302703857421875
1761505139418630100,6.506630126953125,-0.870941162109375,-0.12469482421875,-0.3043670654296875
1761505139428665000,6.5166650390625,-0.8936614990234375,-0.1188812255859375,-0.310791015625
1761505139438701000,6.526701171875,-0.9262542724609375,-0.11920166015625,-0.3123016357421875
1761505139448736300,6.536736328125,-0.93426513671875,-0.130828857421875,-0.310821533203125
1761505139458771200,6.546771240234375,-0.9218597412109375,-0.143157958984375,-0.3048553466796875
1761505139468807200,6.55680712890625,-0.904052734375,-0.151397705078125,-0.2896270751953125
1761505139478842400,6.56684228515625,-0.886688232421875,-0.1573944091796875,-0.277923583984375
1761505139488877000,6.576876953125,-0.891571044921875,-0.1613006591796875,-0.2688446044921875
1761505139498913000,6.5869130859375,-0.9116973876953125,-0.1690216064453125,-0.259613037109375
1761505139508948000,6.596947998046875,-0.9339447021484375,-0.18255615234375,-0.2539520263671875
1761505139518984200,6.606984130859375,-0.948089599609375,-0.1976165771484375,-0.2470245361328125
1761505139529019100,6.61701904296875,-0.949737548828125,-0.2098541259765625,-0.2480926513671875
1761505139539054000,6.62705419921875,-0.9403839111328125,-0.2189483642578125,-0.25518798828125
1761505139549090000,6.637090087890625,-0.9330291748046875,-0.2275238037109375,-0.260833740234375
1761505139559125200,6.647125244140625,-0.92877197265625,-0.23468017578125,-0.263427734375
1761505139569160200,6.65716015625,-0.929229736328125,-0.241943359375,-0.266357421875
1761505139579196200,6.667196044921875,-0.9273529052734375,-0.2444000244140625,-0.2709808349609375
1761505139589231400,6.6772314453125,-0.924591064453125,-0.2398681640625,-0.2766571044921875
1761505139599267300,6.687267333984375,-0.92071533203125,-0.241973876953125,-0.2751922607421875
1761505139609302000,6.697302001953125,-0.9151763916015625,-0.2490234375,-0.263214111328125
1761505139619337000,6.7073369140625,-0.9152374267578125,-0.2563629150390625,-0.248077392578125
1761505139629373200,6.717373291015625,-0.9209747314453125,-0.25518798828125,-0.2349853515625
1761505139639408000,6.727408203125,-0.9412078857421875,-0.2495880126953125,-0.22479248046875
1761505139649444000,6.737444091796875,-0.957794189453125,-0.2425689697265625,-0.217529296875
1761505139659479000,6.74747900390625,-0.9737396240234375,-0.2346038818359375,-0.216461181640625
1761505139669514200,6.75751416015625,-0.9886322021484375,-0.2267608642578125,-0.2272491455078125
1761505139679550200,6.76755029296875,-0.9781951904296875,-0.2234649658203125,-0.2357177734375
1761505139689585200,6.777585205078125,-0.966400146484375,-0.2309417724609375,-0.233795166015625
1761505139699620400,6.787620361328125,-0.9522552490234375,-0.2364654541015625,-0.2273406982421875
1761505139709656300,6.79765625,-0.9359130859375,-0.2340850830078125,-0.2137451171875
1761505139719691300,6.807691162109375,-0.9307708740234375,-0.22503662109375,-0.2024078369140625
1761505139729726000,6.817725830078125,-0.9392852783203125,-0.2169189453125,-0.2025604248046875
1761505139739762200,6.82776220703125,-0.946929931640625,-0.212799072265625,-0.2054443359375
1761505139749797000,6.837797119140625,-0.94671630859375,-0.207366943359375,-0.2098541259765625
1761505139759833000,6.8478330078125,-0.9467620849609375,-0.2060089111328125,-0.20880126953125
1761505139769868000,6.857867919921875,-0.9382171630859375,-0.2086944580078125,-0.203948974609375
1761505139779903200,6.8679033203125,-0.931121826171875,-0.2186279296875,-0.195281982421875
1761505139789939200,6.877939208984375,-0.9282379150390625,-0.22821044921875,-0.1897430419921875
1761505139799974100,6.88797412109375,-0.9273681640625,-0.2300872802734375,-0.190887451171875
1761505139810009300,6.89800927734375,-0.9319000244140625,-0.2309417724609375,-0.188385009765625
1761505139820045300,6.90804541015625,-0.9427032470703125,-0.2322540283203125,-0.1842193603515625
1761505139830080300,6.918080322265625,-0.9484710693359375,-0.232025146484375,-0.1788482666015625
1761505139840116200,6.9281162109375,-0.957183837890625,-0.232147216796875,-0.1815643310546875
1761505139850151200,6.938151123046875,-0.9575653076171875,-0.228607177734375,-0.1971282958984375
1761505139860186000,6.94818603515625,-0.9556427001953125,-0.2239837646484375,-0.2111663818359375
1761505139870222000,6.95822216796875,-0.9510955810546875,-0.2236328125,-0.2220916748046875
1761505139880257000,6.968257080078125,-0.947265625,-0.22271728515625,-0.230316162109375
1761505139890292200,6.978292236328125,-0.947906494140625,-0.221893310546875,-0.2324981689453125
1761505139900328200,6.988328125,-0.9464111328125,-0.220306396484375,-0.2343597412109375
1761505139910363100,6.998363037109375,-0.944366455078125,-0.2252655029296875,-0.2366790771484375
1761505139920399000,7.008399169921875,-0.940338134765625,-0.22991943359375,-0.2402496337890625
1761505139930434300,7.018434326171875,-0.92974853515625,-0.2333831787109375,-0.2421112060546875
1761505139940469200,7.02846923828125,-0.9261016845703125,-0.2326812744140625,-0.243621826171875
1761505139950505200,7.038505126953125,-0.926971435546875,-0.2261199951171875,-0.252197265625
1761505139960540200,7.0485400390625,-0.9359893798828125,-0.219085693359375,-0.266510009765625
1761505139970575000,7.0585751953125,-0.9447479248046875,-0.21600341796875,-0.279083251953125
1761505139980611000,7.068611083984375,-0.9440155029296875,-0.2189178466796875,-0.2858428955078125
1761505139990646000,7.07864599609375,-0.9427032470703125,-0.2311248779296875,-0.285125732421875
1761505140000682200,7.08868212890625,-0.931610107421875,-0.2388763427734375,-0.288238525390625
1761505140010717200,7.09871728515625,-0.906158447265625,-0.2366180419921875,-0.29058837890625
1761505140020752100,7.108752197265625,-0.89959716796875,-0.2130126953125,-0.310791015625
1761505140030788000,7.1187880859375,-0.9424896240234375,-0.1837921142578125,-0.341217041015625
1761505140040823300,7.1288232421875,-1.0030670166015625,-0.1856536865234375,-0.356475830078125
1761505140050858200,7.138858154296875,-1.0772247314453125,-0.209136962890625,-0.3524017333984375
1761505140060894200,7.148894287109375,-1.1454925537109375,-0.2336883544921875,-0.3482818603515625
1761505140070929200,7.15892919921875,-1.20648193359375,-0.2382965087890625,-0.3611907958984375
1761505140080965000,7.168965087890625,-1.222564697265625,-0.2354583740234375,-0.384490966796875
1761505140091000000,7.179,-1.2008056640625,-0.221771240234375,-0.3950347900390625
1761505140101035000,7.189034912109375,-1.190277099609375,-0.2034759521484375,-0.367462158203125
1761505140111071200,7.1990712890625,-1.1334228515625,-0.2069854736328125,-0.294586181640625
1761505140121106200,7.209106201171875,-1.037689208984375,-0.222259521484375,-0.223968505859375
1761505140131141600,7.2191416015625,-0.9702606201171875,-0.2130126953125,-0.1841278076171875
1761505140141177600,7.229177490234375,-0.93304443359375,-0.1990509033203125,-0.18115234375
1761505140151212800,7.239212890625,-0.921112060546875,-0.1912078857421875,-0.199188232421875
1761505140161247700,7.249247802734375,-0.9188690185546875,-0.1876068115234375,-0.225830078125
1761505140171283700,7.25928369140625,-0.9196014404296875,-0.177520751953125,-0.25018310546875
1761505140181318700,7.269318603515625,-0.9165191650390625,-0.16436767578125,-0.264739990234375
1761505140191354600,7.279354736328125,-0.9136199951171875,-0.1491546630859375,-0.265594482421875
1761505140201389600,7.2893896484375,-0.918182373046875,-0.1322021484375,-0.2522735595703125
1761505140211424500,7.299424560546875,-0.9361419677734375,-0.1207733154296875,-0.23028564453125
1761505140221460500,7.30946044921875,-0.9596405029296875,-0.1139678955078125,-0.2054595947265625
1761505140231495700,7.31949560546875,-0.978179931640625,-0.1031341552734375,-0.188079833984375
1761505140241530600,7.329530517578125,-0.9947357177734375,-0.089874267578125,-0.17864990234375
1761505140251566600,7.339566650390625,-1.0077972412109375,-0.0776824951171875,-0.1805877685546875
1761505140261601800,7.349601806640625,-1.0112152099609375,-0.0696258544921875,-0.18743896484375
1761505140271637800,7.3596376953125,-1.014495849609375,-0.0640869140625,-0.1965789794921875
1761505140281672700,7.369672607421875,-1.0124359130859375,-0.0619049072265625,-0.2061004638671875
1761505140291707600,7.379707763671875,-0.9969482421875,-0.05987548828125,-0.2154388427734375
1761505140301743900,7.389743896484375,-0.9798583984375,-0.0566864013671875,-0.2251434326171875
1761505140311778600,7.399778564453125,-0.9657745361328125,-0.056793212890625,-0.2354736328125
1761505140321813500,7.4098134765625,-0.9532318115234375,-0.0599822998046875,-0.2432861328125
1761505140331849500,7.419849365234375,-0.9540252685546875,-0.0656890869140625,-0.2477264404296875
1761505140341884700,7.429884765625,-0.9719390869140625,-0.0732421875,-0.2467193603515625
1761505140351920600,7.439920654296875,-0.991241455078125,-0.079071044921875,-0.24810791015625
1761505140361955600,7.44995556640625,-1.00311279296875,-0.0821685791015625,-0.2503662109375
1761505140371990800,7.45999072265625,-1.0015716552734375,-0.083099365234375,-0.246124267578125
1761505140382026800,7.47002685546875,-0.98443603515625,-0.08245849609375,-0.236328125
1761505140392061700,7.480061767578125,-0.9586334228515625,-0.0855712890625,-0.2213897705078125
1761505140402096600,7.4900966796875,-0.939697265625,-0.089324951171875,-0.2069091796875
1761505140412132900,7.5001328125,-0.936431884765625,-0.0895843505859375,-0.2010345458984375
1761505140422167800,7.510167724609375,-0.941009521484375,-0.087738037109375,-0.20379638671875
1761505140432202500,7.520202392578125,-0.9533233642578125,-0.086639404296875,-0.2084808349609375
1761505140442238500,7.530238525390625,-0.967376708984375,-0.087066650390625,-0.215057373046875
1761505140452273700,7.540273681640625,-0.9843292236328125,-0.0865325927734375,-0.221893310546875
1761505140462309600,7.5503095703125,-0.985931396484375,-0.0852508544921875,-0.2255401611328125
1761505140472344600,7.560344482421875,-0.9809417724609375,-0.087982177734375,-0.225433349609375
1761505140482379800,7.5703798828125,-0.9770965576171875,-0.0938720703125,-0.2210540771484375
1761505140492415700,7.580415771484375,-0.9774322509765625,-0.0996551513671875,-0.2144622802734375
1761505140502450700,7.59045068359375,-0.9770965576171875,-0.0989990234375,-0.2141265869140625
1761505140512485600,7.600485595703125,-0.979766845703125,-0.09527587890625,-0.2175445556640625
1761505140522521900,7.61052197265625,-0.982330322265625,-0.0896148681640625,-0.2254180908203125
1761505140532556800,7.620556884765625,-0.990570068359375,-0.0845489501953125,-0.2342681884765625
1761505140542592800,7.6305927734375,-0.99951171875,-0.0787506103515625,-0.2412872314453125
1761505140552627500,7.64062744140625,-1.0018310546875,-0.0751190185546875,-0.2395782470703125
1761505140562662700,7.65066259765625,-0.9985504150390625,-0.069610595703125,-0.2315673828125
1761505140572698600,7.66069873046875,-0.9964447021484375,-0.0663299560546875,-0.2216644287109375
1761505140582733600,7.670733642578125,-0.9982452392578125,-0.0640106201171875,-0.210296630859375
1761505140592768800,7.680768798828125,-0.9970245361328125,-0.0617523193359375,-0.1961669921875
1761505140602804700,7.6908046875,-0.99993896484375,-0.0612945556640625,-0.187835693359375
1761505140612839700,7.700839599609375,-1.001953125,-0.05804443359375,-0.1833038330078125
1761505140622874600,7.71087451171875,-0.9981231689453125,-0.0586395263671875,-0.17620849609375
1761505140632910800,7.720910888671875,-0.989654541015625,-0.06024169921875,-0.1663055419921875
1761505140642945800,7.73094580078125,-0.9817962646484375,-0.0611572265625,-0.1614227294921875
1761505140652981800,7.740981689453125,-0.9769287109375,-0.0550994873046875,-0.1604461669921875
1761505140663016400,7.751016357421875,-0.97088623046875,-0.0469207763671875,-0.1615753173828125
1761505140673051600,7.7610517578125,-0.970947265625,-0.043792724609375,-0.164215087890625
1761505140683087600,7.771087646484375,-0.9764251708984375,-0.047698974609375,-0.1647796630859375
1761505140693122600,7.78112255859375,-0.990997314453125,-0.0556488037109375,-0.1683502197265625
1761505140703157800,7.79115771484375,-0.9994964599609375,-0.06268310546875,-0.177490234375
1761505140713193700,7.80119384765625,-1.000030517578125,-0.068603515625,-0.17706298828125
1761505140723228700,7.811228759765625,-1.0006561279296875,-0.07781982421875,-0.17449951171875
1761505140733264600,7.8212646484375,-0.9986114501953125,-0.09149169921875,-0.1739959716796875
1761505140743299800,7.8312998046875,-0.9929962158203125,-0.10101318359375,-0.1733551025390625
1761505140753334800,7.841334716796875,-0.986419677734375,-0.103851318359375,-0.176025390625
1761505140763370800,7.851370849609375,-0.9800567626953125,-0.1037139892578125,-0.1812744140625
1761505140773405400,7.861405517578125,-0.9746856689453125,-0.1062774658203125,-0.180145263671875
1761505140783440600,7.871440673828125,-0.98553466796875,-0.10614013671875,-0.1799774169921875
1761505140793476600,7.8814765625,-1.00311279296875,-0.1035308837890625,-0.1833648681640625
1761505140803511600,7.891511474609375,-1.0245361328125,-0.0996246337890625,-0.18511962890625
1761505140813546800,7.901546630859375,-1.0366363525390625,-0.0944671630859375,-0.18218994140625
1761505140823582700,7.911582763671875,-1.0367584228515625,-0.091278076171875,-0.177642822265625
1761505140833617700,7.92161767578125,-1.01898193359375,-0.0901641845703125,-0.1742401123046875
1761505140843653600,7.931653564453125,-0.99761962890625,-0.0937042236328125,-0.1739349365234375
1761505140853688800,7.941688720703125,-0.98028564453125,-0.0976104736328125,-0.174713134765625
1761505140863723800,7.951723876953125,-0.9727783203125,-0.09893798828125,-0.176544189453125
1761505140873759700,7.961759765625,-0.9782562255859375,-0.0994720458984375,-0.180084228515625
1761505140883794400,7.97179443359375,-0.9873199462890625,-0.101715087890625,-0.184417724609375
1761505140893829600,7.98182958984375,-0.9940032958984375,-0.1055755615234375,-0.18878173828125
1761505140903865600,7.991865478515625,-0.9933319091796875,-0.1063690185546875,-0.1915283203125
1761505140913900500,8.001900634765626,-0.98870849609375,-0.106414794921875,-0.1934967041015625
1761505140923934700,8.011934814453125,-0.9836273193359375,-0.1114501953125,-0.1893768310546875
1761505140933970700,8.021970703125,-0.9814300537109375,-0.11956787109375,-0.1819000244140625
1761505140944005600,8.032005615234375,-0.9800872802734375,-0.1245880126953125,-0.1754302978515625
1761505140954040800,8.042040771484375,-0.976959228515625,-0.1238861083984375,-0.173980712890625
1761505140964076800,8.052076904296875,-0.9748077392578125,-0.12091064453125,-0.179351806640625
1761505140974111500,8.062111572265625,-0.9721527099609375,-0.119964599609375,-0.1870880126953125
1761505140984146700,8.072146728515625,-0.9695587158203125,-0.11810302734375,-0.1809539794921875
1761505140994182700,8.0821826171875,-0.9670257568359375,-0.11480712890625,-0.17529296875
1761505141004217600,8.092217529296875,-0.9677581787109375,-0.1179351806640625,-0.180389404296875
1761505141014253600,8.102253662109375,-0.97113037109375,-0.126220703125,-0.187347412109375
1761505141024288800,8.112288818359374,-0.977203369140625,-0.13275146484375,-0.192901611328125
1761505141034323700,8.12232373046875,-0.97808837890625,-0.139434814453125,-0.2012176513671875
1761505141044359700,8.132359619140624,-0.9813079833984375,-0.145416259765625,-0.209564208984375
1761505141054394600,8.14239453125,-0.980072021484375,-0.15203857421875,-0.218505859375
1761505141064429800,8.152429931640626,-0.976806640625,-0.157196044921875,-0.2198486328125
1761505141074465800,8.1624658203125,-0.9716949462890625,-0.1575775146484375,-0.2142181396484375
1761505141084500500,8.17250048828125,-0.9763031005859375,-0.1544342041015625,-0.2120208740234375
1761505141094535700,8.18253564453125,-0.9863128662109375,-0.15338134765625,-0.2168731689453125
1761505141104571600,8.192571533203125,-0.992156982421875,-0.1532135009765625,-0.211578369140625
1761505141114606600,8.202606689453125,-0.9943389892578125,-0.152618408203125,-0.2024993896484375
1761505141124642600,8.212642578125,-0.9904937744140625,-0.1584014892578125,-0.1969757080078125
1761505141134677800,8.222677734375,-0.984588623046875,-0.1684112548828125,-0.1945037841796875
1761505141144713000,8.232712890625,-0.986572265625,-0.171905517578125,-0.1969146728515625
1761505141154749000,8.2427490234375,-0.9950103759765625,-0.172454833984375,-0.20245361328125
1761505141164783900,8.252783935546875,-0.9995574951171875,-0.1706085205078125,-0.204559326171875
1761505141174819000,8.262819091796874,-0.9924468994140625,-0.171844482421875,-0.2023162841796875
1761505141184855000,8.27285498046875,-0.9915618896484375,-0.1678924560546875,-0.196685791015625
1761505141194890000,8.282889892578124,-0.983489990234375,-0.1633758544921875,-0.187652587890625
1761505141204926000,8.292926025390624,-0.9835052490234375,-0.156982421875,-0.1841278076171875
1761505141214961000,8.3029609375,-0.995758056640625,-0.153076171875,-0.185272216796875
1761505141224995800,8.312995849609376,-1.0201873779296875,-0.1534423828125,-0.1823883056640625
1761505141235031800,8.32303173828125,-1.0258331298828125,-0.15350341796875,-0.178009033203125
1761505141245067000,8.33306689453125,-1.020355224609375,-0.152374267578125,-0.1788177490234375
1761505141255102000,8.34310205078125,-1.00482177734375,-0.1473236083984375,-0.1768341064453125
1761505141265138000,8.353137939453125,-0.98382568359375,-0.1430206298828125,-0.173797607421875
1761505141275172900,8.3631728515625,-0.9718475341796875,-0.1475982666015625,-0.1729736328125
1761505141285208000,8.3732080078125,-0.974761962890625,-0.1558074951171875,-0.1661529541015625
1761505141295244000,8.383244140625,-0.9862060546875,-0.1619415283203125,-0.1698150634765625
1761505141305279000,8.393279052734375,-0.9952850341796875,-0.1630706787109375,-0.1833953857421875
1761505141315315000,8.40331494140625,-1.001861572265625,-0.16229248046875,-0.1917266845703125
1761505141325350000,8.413349853515625,-1.003173828125,-0.1570587158203125,-0.1952056884765625
1761505141335384800,8.423384765625,-0.997802734375,-0.15240478515625,-0.1951751708984375
1761505141345420800,8.4334208984375,-0.994384765625,-0.1487579345703125,-0.189300537109375
1761505141355456000,8.4434560546875,-0.9913787841796875,-0.14947509765625,-0.179168701171875
1761505141365491000,8.453490966796876,-0.9871978759765625,-0.1544189453125,-0.1748504638671875
1761505141375527000,8.46352685546875,-0.987396240234375,-0.1631011962890625,-0.1723175048828125
1761505141385561900,8.473561767578126,-0.98968505859375,-0.1685943603515625,-0.1727752685546875
1761505141395597000,8.48359716796875,-0.9907379150390625,-0.1717376708984375,-0.1759033203125
1761505141405633000,8.493633056640626,-0.9910430908203125,-0.1732940673828125,-0.1777191162109375
1761505141415668000,8.50366796875,-0.986724853515625,-0.1744232177734375,-0.17706298828125
1761505141425704000,8.513703857421875,-0.98223876953125,-0.172821044921875,-0.1771087646484375
1761505141435739000,8.52373876953125,-0.993255615234375,-0.167510986328125,-0.1786346435546875
1761505141445773800,8.53377392578125,-1.0006866455078125,-0.1621551513671875,-0.18048095703125
1761505141455809800,8.543809814453125,-1.0133819580078125,-0.155609130859375,-0.180267333984375
1761505141465845000,8.553844970703125,-1.0134124755859375,-0.1551513671875,-0.1809234619140625
1761505141475880000,8.5638798828125,-1.0080413818359375,-0.144378662109375,-0.195953369140625
1761505141485916000,8.573916015625,-1.00543212890625,-0.1151275634765625,-0.227569580078125
1761505141495950800,8.583950927734374,-0.995635986328125,-0.0836181640625,-0.2481689453125
1761505141505986800,8.59398681640625,-0.9888763427734375,-0.07049560546875,-0.2441253662109375
1761505141516022000,8.60402197265625,-1.006378173828125,-0.0788116455078125,-0.226593017578125
1761505141526057000,8.614056884765626,-1.041473388671875,-0.0970306396484375,-0.2107086181640625
1761505141536093000,8.624093017578126,-1.091583251953125,-0.0928955078125,-0.2205047607421875
1761505141546128000,8.6341279296875,-1.1321258544921875,-0.06817626953125,-0.252410888671875
1761505141556162800,8.644162841796875,-1.1475067138671875,-0.036956787109375,-0.26123046875
1761505141566198800,8.65419873046875,-1.12542724609375,-0.017486572265625,-0.245849609375
1761505141576234000,8.66423388671875,-1.07574462890625,-0.01422119140625,-0.2212066650390625
1761505141586269000,8.67426904296875,-1.0269317626953125,-0.01165771484375,-0.19720458984375
1761505141596305000,8.684304931640625,-0.9844207763671875,-0.015716552734375,-0.1845855712890625
1761505141606339800,8.69433984375,-0.95831298828125,-0.023834228515625,-0.1694488525390625
1761505141616375800,8.704375732421875,-0.965057373046875,-0.029144287109375,-0.1624755859375
1761505141626411000,8.714410888671875,-0.956573486328125,-0.0273284912109375,-0.179534912109375
1761505141636446000,8.724446044921875,-0.948211669921875,0.0050201416015625,-0.210205078125
1761505141646482000,8.73448193359375,-1.0166778564453125,0.0297088623046875,-0.2077789306640625
1761505141656517000,8.74451708984375,-1.0194854736328125,-0.085357666015625,-0.119720458984375
1761505141666551800,8.7545517578125,-0.9688568115234375,-0.1158599853515625,-0.12713623046875
1761505141676587800,8.764587890625,-0.9414215087890625,-0.0992584228515625,-0.1514434814453125
1761505141686623000,8.774623046875,-0.9058074951171875,-0.0687408447265625,-0.194732666015625
1761505141696659000,8.784658935546876,-0.90338134765625,-0.043182373046875,-0.2539215087890625
1761505141706694000,8.79469384765625,-0.92584228515625,-0.019378662109375,-0.2816009521484375
1761505141716728800,8.804728759765625,-0.9473876953125,0.01806640625,-0.28424072265625
1761505141726764800,8.814764892578125,-0.993438720703125,0.0299530029296875,-0.2587432861328125
