time,seconds_elapsed,z,y,x
1761479460286458400,0.077458251953125,-0.9204559326171875,-0.092437744140625,-0.3318328857421875
1761479460296494600,0.08749462890625,-1.0259246826171875,-0.0948944091796875,-0.32989501953125
1761479460306530600,0.097530517578125,-1.144195556640625,-0.092193603515625,-0.3854217529296875
1761479460316566500,0.10756640625,-1.2870635986328125,-0.1019744873046875,-0.47027587890625
1761479460326602500,0.1176025390625,-1.4316558837890625,-0.1695098876953125,-0.5865631103515625
1761479460336638500,0.127638427734375,-1.5333251953125,-0.25982666015625,-0.7417144775390625
1761479460346675700,0.13767578125,-1.5807647705078125,-0.3165283203125,-0.91375732421875
1761479460356711700,0.147711669921875,-1.582489013671875,-0.3257293701171875,-1.0243377685546875
1761479460366747600,0.15774755859375,-1.62359619140625,-0.3194427490234375,-0.99627685546875
1761479460376783600,0.16778369140625,-1.683013916015625,-0.2767791748046875,-0.8590850830078125
1761479460386819600,0.177819580078125,-1.772979736328125,-0.24273681640625,-0.7102813720703125
1761479460396855600,0.18785546875,-1.6975860595703125,-0.2105865478515625,-0.5812530517578125
1761479460406891500,0.1978916015625,-1.7996673583984375,-0.17633056640625,-0.5675506591796875
1761479460416928500,0.207928466796875,-1.8280029296875,-0.18267822265625,-0.6042633056640625
1761479460426964500,0.217964599609375,-1.5935821533203125,-0.222930908203125,-0.6868438720703125
1761479460437000400,0.22800048828125,-1.514129638671875,-0.2912445068359375,-0.7385101318359375
1761479460447036400,0.238036376953125,-1.533447265625,-0.2847747802734375,-0.7713775634765625
1761479460457072400,0.248072265625,-1.5549163818359375,-0.1092681884765625,-0.7838287353515625
1761479460467108600,0.258108642578125,-1.612213134765625,0.0089263916015625,-0.5966033935546875
1761479460477144600,0.26814453125,-1.5714263916015625,0.056304931640625,-0.3066253662109375
1761479460487181600,0.278181640625,-1.4362640380859375,0.0705413818359375,-0.0787811279296875
1761479460497217500,0.288217529296875,-1.19647216796875,0.0461273193359375,0.0718841552734375
1761479460507253800,0.298253662109375,-0.9808502197265625,0.06365966796875,0.0519256591796875
1761479460517289700,0.308289794921875,-0.7969818115234375,0.093353271484375,-0.0496063232421875
1761479460527325700,0.31832568359375,-0.6345062255859375,0.1072998046875,-0.1529693603515625
1761479460537361700,0.328361572265625,-0.5879364013671875,0.1142730712890625,-0.144317626953125
1761479460547397600,0.338397705078125,-0.58984375,0.1212615966796875,-0.0997772216796875
1761479460557434600,0.3484345703125,-0.4590301513671875,0.134857177734375,-0.1397552490234375
1761479460567470600,0.358470703125,-0.26397705078125,0.092376708984375,-0.1997528076171875
1761479460577506600,0.368506591796875,-0.175445556640625,0.019775390625,-0.2742919921875
1761479460587542500,0.37854248046875,-0.1363677978515625,-0.038818359375,-0.3353118896484375
1761479460597578500,0.38857861328125,-0.0106201171875,-0.0620880126953125,-0.3809356689453125
1761479460607614500,0.398614501953125,0.1244354248046875,-0.0790557861328125,-0.35992431640625
1761479460617650400,0.408650390625,0.1990203857421875,-0.1041717529296875,-0.2467803955078125
1761479460627687400,0.4186875,0.314422607421875,0.070343017578125,-0.20928955078125
1761479460637723600,0.4287236328125,0.33795166015625,0.00543212890625,-0.1231536865234375
1761479460647759600,0.438759521484375,0.3520660400390625,-0.0133209228515625,0.03167724609375
1761479460657795600,0.448795654296875,0.3199310302734375,-0.018890380859375,0.1544952392578125
1761479460667831600,0.45883154296875,0.22576904296875,-0.0374908447265625,0.2249298095703125
1761479460677867800,0.46886767578125,0.128631591796875,-0.0435943603515625,0.2387847900390625
1761479460687904500,0.478904541015625,-0.0193634033203125,-0.0527801513671875,0.1916961669921875
1761479460697940500,0.4889404296875,-0.1770782470703125,-0.0768890380859375,0.08050537109375
1761479460707976700,0.498976806640625,-0.23406982421875,-0.0848236083984375,-0.0193634033203125
1761479460718012700,0.5090126953125,-0.2480621337890625,-0.0730743408203125,-0.0693511962890625
1761479460728048600,0.519048583984375,-0.271942138671875,-0.0584869384765625,-0.0955963134765625
1761479460738084600,0.529084716796875,-0.3206787109375,-0.0703125,-0.102630615234375
1761479460748120600,0.53912060546875,-0.4878692626953125,-0.06060791015625,-0.0677642822265625
1761479460758157600,0.549157470703125,-0.690887451171875,-0.0872344970703125,-0.0369873046875
1761479460768193500,0.559193603515625,-0.8913726806640625,-0.1203460693359375,-0.084442138671875
1761479460778229500,0.5692294921875,-1.1334991455078125,-0.057281494140625,-0.2315521240234375
1761479460788265500,0.579265380859375,-1.4039306640625,0.01043701171875,-0.4475250244140625
1761479460798301400,0.589301513671875,-1.6534271240234375,0.0464935302734375,-0.632843017578125
1761479460808337400,0.59933740234375,-1.916259765625,0.1065521240234375,-0.8703460693359375
1761479460818373600,0.60937353515625,-2.1944580078125,0.05718994140625,-1.106536865234375
1761479460828410600,0.61941064453125,-2.4595947265625,-0.1078643798828125,-1.34356689453125
1761479460838446600,0.629446533203125,-2.5071563720703125,-0.36871337890625,-1.6101531982421875
1761479460848482600,0.639482666015625,-2.2450103759765625,-0.53466796875,-1.7105865478515625
1761479460858518500,0.6495185546875,-2.0088653564453125,-0.5033721923828125,-1.4491424560546875
1761479460868554500,0.659554443359375,-1.9171905517578125,-0.41839599609375,-0.9013214111328125
1761479460878590500,0.669590576171875,-2.002960205078125,-0.3519439697265625,-0.39178466796875
1761479460888626700,0.679626708984375,-2.042877197265625,-0.2763214111328125,-0.186309814453125
1761479460898663400,0.689663330078125,-2.0614013671875,-0.1898956298828125,-0.3255157470703125
1761479460908699400,0.699699462890625,-2.1053466796875,-0.1588897705078125,-0.564605712890625
1761479460918735600,0.709735595703125,-2.00189208984375,-0.22711181640625,-0.714202880859375
1761479460928771600,0.719771484375,-1.892303466796875,-0.2672119140625,-0.733367919921875
1761479460938807600,0.7298076171875,-1.739837646484375,-0.2401885986328125,-0.620147705078125
1761479460948843500,0.739843505859375,-1.4616241455078125,-0.18524169921875,-0.509765625
1761479460958879500,0.74987939453125,-1.2593841552734375,-0.0848388671875,-0.5363006591796875
1761479460968916700,0.759916748046875,-1.1160888671875,0.0457305908203125,-0.40240478515625
1761479460978952700,0.76995263671875,-1.1229095458984375,0.136962890625,-0.2176513671875
1761479460988988700,0.77998876953125,-1.0809173583984375,0.16943359375,-0.076019287109375
1761479460999024600,0.790024658203125,-0.8814697265625,0.1957244873046875,-0.0306396484375
1761479461009060600,0.800060546875,-0.697479248046875,0.23681640625,-0.0825347900390625
1761479461019096600,0.8100966796875,-0.552581787109375,0.2430419921875,-0.1618804931640625
1761479461029133800,0.8201337890625,-0.486083984375,0.2581634521484375,-0.2143402099609375
1761479461039169800,0.830169677734375,-0.4352264404296875,0.299957275390625,-0.18756103515625
1761479461049205800,0.840205810546875,-0.446807861328125,0.3033294677734375,-0.0911865234375
1761479461059241700,0.85024169921875,-0.4546051025390625,0.2650604248046875,0.0400238037109375
1761479461069277700,0.860277587890625,-0.445404052734375,0.234283447265625,0.1295928955078125
1761479461079313700,0.870313720703125,-0.5878753662109375,0.1624298095703125,0.06219482421875
1761479461089349600,0.880349609375,-0.5292205810546875,0.053009033203125,-0.0739898681640625
1761479461099386600,0.89038671875,-0.314453125,-0.06317138671875,-0.2288818359375
1761479461109422600,0.900422607421875,-0.0740966796875,-0.202789306640625,-0.351287841796875
1761479461119458600,0.91045849609375,0.15045166015625,-0.267364501953125,-0.394989013671875
1761479461129494800,0.920494873046875,0.2852783203125,-0.25128173828125,-0.300994873046875
1761479461139530800,0.93053076171875,0.324371337890625,-0.2159576416015625,-0.078826904296875
1761479461149566700,0.940566650390625,0.2492523193359375,-0.1599273681640625,0.1183013916015625
1761479461159603700,0.950603759765625,0.16656494140625,-0.082000732421875,0.2712249755859375
1761479461169639700,0.9606396484375,0.0640869140625,-0.044830322265625,0.3647918701171875
1761479461179675600,0.970675537109375,-0.0683135986328125,0.0080108642578125,0.291015625
1761479461189712000,0.9807119140625,-0.2616729736328125,0.125,0.19989013671875
1761479461199747800,0.990747802734375,-0.430023193359375,0.1460723876953125,0.1527862548828125
1761479461209783800,1.00078369140625,-0.5471954345703125,0.107635498046875,0.10198974609375
1761479461219820800,1.01082080078125,-0.5570526123046875,0.0776214599609375,0.0188751220703125
1761479461229856800,1.020856689453125,-0.542266845703125,0.08984375,-0.0612030029296875
1761479461239892700,1.030892822265625,-0.5972137451171875,0.1031494140625,-0.06036376953125
1761479461249928700,1.0409287109375,-0.69293212890625,0.0938873291015625,-0.0074005126953125
1761479461259964700,1.050964599609375,-0.830780029296875,0.0764923095703125,0.0189666748046875
1761479461270000600,1.061000732421875,-0.9217681884765625,0.09051513671875,-0.0660858154296875
1761479461280036600,1.07103662109375,-0.9660797119140625,0.0977783203125,-0.2507781982421875
1761479461290073600,1.081073486328125,-1.0263671875,0.078399658203125,-0.4989776611328125
1761479461300109600,1.091109619140625,-1.1693115234375,0.105865478515625,-0.75372314453125
1761479461310145500,1.1011455078125,-1.4650115966796875,0.1726226806640625,-0.896026611328125
1761479461320181500,1.111181396484375,-1.7839508056640625,0.1689605712890625,-0.900726318359375
1761479461330217500,1.121217529296875,-1.996917724609375,0.10955810546875,-0.952606201171875
1761479461340253700,1.131253662109375,-2.1195831298828125,0.0360260009765625,-1.07659912109375
1761479461350290700,1.141290771484375,-2.2291107177734375,-0.026763916015625,-1.2270660400390625
1761479461360326700,1.15132666015625,-2.33074951171875,-0.06671142578125,-1.243682861328125
1761479461370363000,1.16136279296875,-2.3605194091796875,-0.0478668212890625,-1.081298828125
1761479461380398800,1.17139892578125,-2.3551788330078125,-0.00274658203125,-0.7903289794921875
1761479461390434800,1.181434814453125,-2.3179168701171875,-0.0533599853515625,-0.55023193359375
1761479461400470800,1.191470703125,-2.2001190185546875,-0.10040283203125,-0.529052734375
1761479461410507800,1.2015078125,-2.1385498046875,-0.0598297119140625,-0.6776123046875
1761479461420543700,1.211543701171875,-2.1849212646484375,-0.031036376953125,-0.7791290283203125
1761479461430579700,1.221579833984375,-2.20159912109375,-0.011505126953125,-0.7652435302734375
1761479461440615700,1.23161572265625,-2.089599609375,-0.006103515625,-0.6865234375
1761479461450651600,1.241651611328125,-1.8865814208984375,-0.00970458984375,-0.571380615234375
1761479461460687600,1.2516875,-1.6620635986328125,0.017303466796875,-0.4137420654296875
1761479461470724600,1.261724609375,-1.460235595703125,0.0540008544921875,-0.2075653076171875
1761479461480760600,1.271760498046875,-1.204010009765625,0.0592041015625,-0.019561767578125
1761479461490796800,1.281796875,-0.96661376953125,0.09185791015625,0.095733642578125
1761479461500832800,1.291832763671875,-0.9053955078125,0.1400604248046875,0.104461669921875
1761479461510868700,1.30186865234375,-0.951873779296875,0.2455902099609375,-0.030426025390625
1761479461520904700,1.31190478515625,-0.87646484375,0.3056488037109375,-0.1826171875
1761479461530940700,1.321940673828125,-0.6794586181640625,0.2628936767578125,-0.272430419921875
1761479461540977700,1.331977783203125,-0.517669677734375,0.1853790283203125,-0.2700347900390625
1761479461551013600,1.342013671875,-0.3976287841796875,0.1332855224609375,-0.258209228515625
1761479461561049600,1.352049560546875,-0.28924560546875,0.123077392578125,-0.26019287109375
1761479461571085600,1.36208544921875,-0.187347412109375,0.1123199462890625,-0.260345458984375
1761479461581121800,1.372121826171875,-0.0882720947265625,0.0723876953125,-0.266082763671875
1761479461591158500,1.382158447265625,0.02191162109375,0.005523681640625,-0.28570556640625
1761479461601194500,1.392194580078125,0.14617919921875,-0.0107574462890625,-0.263946533203125
1761479461611230700,1.402230712890625,0.229736328125,-0.036773681640625,-0.1658477783203125
1761479461621266700,1.4122666015625,0.2947235107421875,-0.079620361328125,-0.040740966796875
1761479461631302700,1.422302734375,0.3450927734375,-0.0816650390625,0.0564727783203125
1761479461641338600,1.432338623046875,0.341949462890625,-0.063720703125,0.0836639404296875
1761479461651374600,1.44237451171875,0.2697906494140625,-0.0423583984375,0.0847930908203125
1761479461661411800,1.452411865234375,0.22418212890625,-0.030303955078125,0.066162109375
1761479461671447800,1.46244775390625,0.12847900390625,-0.052459716796875,0.075225830078125
1761479461681483800,1.47248388671875,0.0250091552734375,-0.0554962158203125,0.07525634765625
1761479461691519700,1.482519775390625,-0.080657958984375,-0.0514373779296875,0.058990478515625
1761479461701555700,1.4925556640625,-0.220428466796875,-0.0703582763671875,0.0704803466796875
1761479461711591700,1.502591796875,-0.37347412109375,-0.0880126953125,0.0719757080078125
1761479461721628700,1.512628662109375,-0.4937591552734375,-0.08929443359375,0.0185546875
1761479461731664600,1.52266455078125,-0.5924530029296875,-0.0613861083984375,-0.0269622802734375
1761479461741700600,1.53270068359375,-0.637542724609375,-0.0597686767578125,-0.0522308349609375
1761479461751736600,1.542736572265625,-0.6011810302734375,-0.051422119140625,-0.115966796875
1761479461761772500,1.5527724609375,-0.574310302734375,0.00250244140625,-0.1753692626953125
1761479461771808500,1.56280859375,-0.6041259765625,0.101776123046875,-0.136749267578125
1761479461781845800,1.572845703125,-0.7387237548828125,0.15753173828125,-0.0477294921875
1761479461791881700,1.5828818359375,-0.910369873046875,0.18963623046875,-0.025787353515625
1761479461801917700,1.592917724609375,-1.1019134521484375,0.191009521484375,-0.09234619140625
1761479461811953700,1.60295361328125,-1.3654632568359375,0.181671142578125,-0.2267303466796875
1761479461821990000,1.612989990234375,-1.659210205078125,0.229461669921875,-0.4986724853515625
1761479461832025900,1.62302587890625,-1.987701416015625,0.2395172119140625,-0.8517913818359375
1761479461842062600,1.6330625,-2.2568359375,0.075286865234375,-1.2892913818359375
1761479461852098800,1.643098876953125,-2.270355224609375,-0.1764373779296875,-1.757568359375
1761479461862134800,1.653134765625,-2.11431884765625,-0.3701324462890625,-2.0482177734375
1761479461872170800,1.663170654296875,-1.972991943359375,-0.389862060546875,-1.9243621826171875
1761479461882206700,1.673206787109375,-1.9389495849609375,-0.24713134765625,-1.3155364990234375
1761479461892242700,1.68324267578125,-2.009185791015625,-0.1078033447265625,-0.6262359619140625
1761479461902279700,1.69327978515625,-2.113525390625,0.0007476806640625,-0.2127532958984375
1761479461912315600,1.703315673828125,-2.115386962890625,0.0395355224609375,-0.162841796875
1761479461922351600,1.7133515625,-2.01910400390625,-0.002838134765625,-0.43487548828125
1761479461932387600,1.7233876953125,-2.00286865234375,-0.09844970703125,-0.821136474609375
1761479461942423600,1.733423583984375,-2.08062744140625,-0.1860809326171875,-1.1047515869140625
1761479461952459500,1.74345947265625,-2.1262664794921875,-0.118988037109375,-1.09429931640625
1761479461962496800,1.753496826171875,-2.0472564697265625,-0.02630615234375,-0.7805633544921875
1761479461972532700,1.76353271484375,-1.8594818115234375,0.0641632080078125,-0.3877410888671875
1761479461982568700,1.773568603515625,-1.63494873046875,0.12188720703125,-0.048431396484375
1761479461992604700,1.783604736328125,-1.3862152099609375,0.1426239013671875,0.1704559326171875
1761479462002641000,1.793640869140625,-1.1636199951171875,0.1383514404296875,0.2097320556640625
1761479462012676900,1.8036767578125,-0.997955322265625,0.1418914794921875,0.1179351806640625
1761479462022714000,1.813714111328125,-0.8725128173828125,0.1717071533203125,-0.044219970703125
1761479462032750000,1.82375,-0.769744873046875,0.1830291748046875,-0.188995361328125
1761479462042786000,1.8337861328125,-0.6805877685546875,0.192352294921875,-0.2903900146484375
1761479462052822000,1.843822021484375,-0.587493896484375,0.2033233642578125,-0.34014892578125
1761479462062858000,1.85385791015625,-0.4962005615234375,0.19525146484375,-0.334197998046875
1761479462072894200,1.863894287109375,-0.429595947265625,0.1595458984375,-0.27911376953125
1761479462082931000,1.873930908203125,-0.33709716796875,0.129302978515625,-0.23968505859375
1761479462092967000,1.883966796875,-0.2071990966796875,0.0899810791015625,-0.2229156494140625
1761479462103003100,1.894003173828125,-0.0402374267578125,0.047088623046875,-0.194183349609375
1761479462113039000,1.9040390625,0.1241455078125,0.017974853515625,-0.1522216796875
1761479462123075000,1.914074951171875,0.28155517578125,-0.0307464599609375,-0.0891265869140625
1761479462133111000,1.924111083984375,0.4574737548828125,-0.08599853515625,-0.0196990966796875
1761479462143148000,1.93414794921875,0.6241302490234375,-0.1151885986328125,0.019622802734375
1761479462153184000,1.94418408203125,0.63671875,-0.1072235107421875,0.0113677978515625
1761479462163220000,1.954219970703125,0.5137786865234375,-0.1199188232421875,0.148406982421875
1761479462173256000,1.964255859375,0.3125457763671875,-0.1492156982421875,0.23291015625
1761479462183292000,1.9742919921875,0.0978240966796875,-0.0886383056640625,0.238037109375
1761479462193328000,1.984328125,-0.1373291015625,-0.0183868408203125,0.225982666015625
1761479462203365000,1.994365234375,-0.346954345703125,-0.0352783203125,0.2109375
1761479462213401000,2.004401123046875,-0.4539031982421875,-0.047210693359375,0.1642608642578125
1761479462223437000,2.01443701171875,-0.4821319580078125,-0.0469512939453125,0.06561279296875
1761479462233473000,2.02447314453125,-0.4926605224609375,-0.045562744140625,-0.018707275390625
1761479462243509000,2.034509033203125,-0.4841461181640625,-0.08758544921875,-0.0373687744140625
1761479462253545000,2.044544921875,-0.4923553466796875,-0.0906829833984375,-0.034271240234375
1761479462263582000,2.05458203125,-0.503692626953125,-0.0175628662109375,-0.015838623046875
1761479462273618000,2.064617919921875,-0.51416015625,0.06494140625,0.0108642578125
1761479462283654000,2.07465380859375,-0.57379150390625,0.17242431640625,0.01055908203125
1761479462293689900,2.08468994140625,-0.682281494140625,0.2299041748046875,-0.0421142578125
1761479462303726000,2.09472607421875,-0.9092254638671875,0.301727294921875,-0.119171142578125
1761479462313762000,2.104761962890625,-1.23431396484375,0.3215789794921875,-0.2459716796875
1761479462323799000,2.114799072265625,-1.519622802734375,0.2519073486328125,-0.4916534423828125
1761479462333835000,2.1248349609375,-1.7278289794921875,0.1515045166015625,-0.8580322265625
1761479462343871200,2.134871337890625,-1.8927764892578125,0.0453948974609375,-1.2603759765625
1761479462353907200,2.1449072265625,-2.1371917724609375,-0.042877197265625,-1.623748779296875
1761479462363943200,2.154943115234375,-2.3823089599609375,-0.062835693359375,-1.801483154296875
1761479462373979100,2.164979248046875,-2.57354736328125,0.0417327880859375,-1.6473541259765625
1761479462384016100,2.17501611328125,-2.6705169677734375,0.16717529296875,-1.145111083984375
1761479462394052000,2.185052001953125,-2.6121063232421875,0.163909912109375,-0.5892333984375
1761479462404088000,2.195088134765625,-2.5068359375,0.030029296875,-0.277130126953125
1761479462414124000,2.2051240234375,-2.5153045654296875,-0.0447235107421875,-0.379302978515625
1761479462424160000,2.215159912109375,-2.6548309326171875,0.0859527587890625,-0.664764404296875
1761479462434196000,2.225196044921875,-2.8700408935546875,0.1977691650390625,-0.759918212890625
1761479462444233000,2.23523291015625,-2.847076416015625,0.219390869140625,-0.629241943359375
1761479462454269000,2.24526904296875,-2.5498809814453125,0.173248291015625,-0.4346466064453125
1761479462464305000,2.255304931640625,-2.1361083984375,0.131866455078125,-0.2978668212890625
1761479462474340900,2.2653408203125,-1.74249267578125,0.164947509765625,-0.097259521484375
1761479462484376800,2.275376953125,-1.4704437255859375,0.154815673828125,0.07342529296875
1761479462494413000,2.2854130859375,-1.2447509765625,0.111602783203125,0.1318511962890625
1761479462504450000,2.295449951171875,-0.91998291015625,0.1127777099609375,0.113983154296875
1761479462514486000,2.305486083984375,-0.63189697265625,0.1285552978515625,0.0525054931640625
1761479462524522000,2.31552197265625,-0.4653472900390625,0.124298095703125,0.0316619873046875
1761479462534558000,2.325557861328125,-0.458709716796875,0.1417694091796875,0.0636749267578125
1761479462544594200,2.33559423828125,-0.54693603515625,0.2108001708984375,0.0974273681640625
1761479462554630100,2.345630126953125,-0.6335296630859375,0.265533447265625,0.0842437744140625
1761479462564667000,2.3556669921875,-0.67840576171875,0.2960357666015625,0.033660888671875
1761479462574703000,2.365703125,-0.551177978515625,0.2989501953125,-0.0157928466796875
1761479462584739000,2.375739013671875,-0.3600921630859375,0.2340545654296875,-0.103057861328125
1761479462594775000,2.385775146484375,-0.196380615234375,0.11334228515625,-0.27471923828125
1761479462604811000,2.39581103515625,0.0301513671875,0.0088653564453125,-0.4388275146484375
1761479462614847000,2.405846923828125,0.2352294921875,-0.082366943359375,-0.5446929931640625
1761479462624884200,2.41588427734375,0.40643310546875,-0.145263671875,-0.5487823486328125
1761479462634920200,2.425920166015625,0.54681396484375,-0.1627960205078125,-0.3970489501953125
1761479462644956200,2.4359560546875,0.62872314453125,-0.164642333984375,-0.1540985107421875
1761479462654992100,2.4459921875,0.6223602294921875,-0.14129638671875,0.070892333984375
1761479462665028000,2.456028076171875,0.5165863037109375,-0.09832763671875,0.2342071533203125
1761479462675064000,2.46606396484375,0.3297119140625,-0.05230712890625,0.3037109375
1761479462685101000,2.47610107421875,0.1449127197265625,-0.0070648193359375,0.2879638671875
1761479462695137000,2.486136962890625,-0.00848388671875,0.0172576904296875,0.2495880126953125
1761479462705173000,2.496173095703125,-0.1478118896484375,0.0110321044921875,0.1641998291015625
1761479462715209000,2.506208984375,-0.2740936279296875,0.0086822509765625,0.0546875
1761479462725245000,2.516244873046875,-0.3895416259765625,0.0074615478515625,-0.0333251953125
1761479462735281000,2.526281005859375,-0.4853057861328125,-0.0229644775390625,-0.0755157470703125
1761479462745318000,2.53631787109375,-0.5185089111328125,-0.047760009765625,-0.09185791015625
1761479462755353900,2.546353759765625,-0.5008697509765625,-0.0136260986328125,-0.1132659912109375
1761479462765389800,2.556389892578125,-0.4499053955078125,-0.0083770751953125,-0.09478759765625
1761479462775425800,2.56642578125,-0.3907470703125,-0.0226593017578125,-0.068206787109375
1761479462785462000,2.5764619140625,-0.37005615234375,0.014434814453125,-0.0668487548828125
1761479462795498200,2.586498291015625,-0.47186279296875,0.05621337890625,-0.053955078125
1761479462805534200,2.5965341796875,-0.695770263671875,0.056365966796875,-0.0960235595703125
1761479462815571000,2.606571044921875,-0.9693756103515625,0.1336669921875,-0.27130126953125
1761479462825607200,2.616607177734375,-1.2943115234375,0.2161407470703125,-0.4959869384765625
1761479462835643100,2.62664306640625,-1.59210205078125,0.2422637939453125,-0.6349639892578125
1761479462845679000,2.63667919921875,-1.858978271484375,0.1961822509765625,-0.777313232421875
1761479462855715000,2.646715087890625,-2.086669921875,0.0781707763671875,-0.989501953125
1761479462865751000,2.6567509765625,-2.345489501953125,-0.096099853515625,-1.3368988037109375
1761479462875788000,2.6667880859375,-2.7115020751953125,-0.296112060546875,-1.8151702880859375
1761479462885824000,2.676823974609375,-2.8678436279296875,-0.3108062744140625,-2.0796356201171875
1761479462895860000,2.68685986328125,-2.87469482421875,-0.1633148193359375,-1.8667755126953125
1761479462905896000,2.69689599609375,-2.795379638671875,0.0184478759765625,-1.222808837890625
1761479462915932000,2.706931884765625,-2.618316650390625,0.1195526123046875,-0.546173095703125
1761479462925968000,2.7169677734375,-2.350341796875,0.08740234375,-0.112701416015625
1761479462936005000,2.727005126953125,-2.0513458251953125,-0.0106964111328125,-0.0232391357421875
1761479462946041000,2.737041015625,-1.7713623046875,-0.043365478515625,-0.1937103271484375
1761479462956077000,2.7470771484375,-1.6843719482421875,-0.0425262451171875,-0.443572998046875
1761479462966113000,2.757113037109375,-1.808197021484375,0.001220703125,-0.64337158203125
1761479462976149000,2.76714892578125,-1.9156646728515625,0.075225830078125,-0.7365264892578125
1761479462986185000,2.77718505859375,-1.8838043212890625,0.1415863037109375,-0.7472991943359375
1761479462996222000,2.787221923828125,-1.742767333984375,0.2139129638671875,-0.6572113037109375
1761479463006256600,2.797256591796875,-1.591766357421875,0.2589111328125,-0.476470947265625
1761479463016292900,2.80729296875,-1.45562744140625,0.26605224609375,-0.2530975341796875
1761479463026328800,2.817328857421875,-1.2976531982421875,0.2895050048828125,-0.0300140380859375
1761479463036364800,2.82736474609375,-1.0950927734375,0.3145904541015625,0.073944091796875
1761479463046400800,2.83740087890625,-0.857269287109375,0.2858123779296875,0.07305908203125
1761479463056437800,2.847437744140625,-0.5534820556640625,0.2034912109375,0.0067596435546875
1761479463066473700,2.8574736328125,-0.2380828857421875,0.1494293212890625,-0.102935791015625
1761479463076509700,2.867509765625,-0.045318603515625,0.13543701171875,-0.193878173828125
1761479463086545700,2.877545654296875,0.046356201171875,0.118865966796875,-0.23822021484375
1761479463096581600,2.88758154296875,0.0591278076171875,0.121795654296875,-0.25518798828125
1761479463106617600,2.89761767578125,0.0284271240234375,0.1282958984375,-0.244659423828125
1761479463116653600,2.907653564453125,0.029083251953125,0.0978851318359375,-0.1826019287109375
1761479463126690600,2.917690673828125,0.054840087890625,0.0596160888671875,-0.0787200927734375
1761479463136726500,2.9277265625,0.140960693359375,0.014984130859375,-0.0167999267578125
1761479463146762500,2.937762451171875,0.2329864501953125,-0.052154541015625,0.066925048828125
1761479463156798700,2.947798828125,0.2954864501953125,-0.1097564697265625,0.147125244140625
1761479463166834700,2.957834716796875,0.3278350830078125,-0.1478424072265625,0.1908111572265625
1761479463176870700,2.96787060546875,0.2872467041015625,-0.1594390869140625,0.1765899658203125
1761479463186907600,2.97790771484375,0.190887451171875,-0.12786865234375,0.1153717041015625
1761479463196944000,2.98794384765625,0.0701446533203125,-0.09320068359375,0.0477142333984375
1761479463206979800,2.997979736328125,-0.049774169921875,-0.077880859375,0.0180511474609375
1761479463217015800,3.008015869140625,-0.164581298828125,-0.0492706298828125,0.03460693359375
1761479463227051800,3.0180517578125,-0.26385498046875,-0.0269775390625,0.0805511474609375
1761479463237087700,3.028087646484375,-0.3628387451171875,-0.012115478515625,0.14251708984375
1761479463247124700,3.038124755859375,-0.4456634521484375,-0.022918701171875,0.1651611328125
1761479463257160700,3.04816064453125,-0.4764556884765625,-0.0395965576171875,0.1539764404296875
1761479463267196700,3.05819677734375,-0.4869842529296875,-0.039886474609375,0.09478759765625
1761479463277232600,3.068232666015625,-0.4969482421875,-0.0773468017578125,-0.0457916259765625
1761479463287268600,3.0782685546875,-0.49322509765625,-0.03948974609375,-0.1939697265625
1761479463297304600,3.0883046875,-0.5180206298828125,0.0964508056640625,-0.210296630859375
1761479463307341600,3.098341552734375,-0.6392364501953125,0.212127685546875,-0.09600830078125
1761479463317377800,3.108377685546875,-0.8430328369140625,0.2349090576171875,0.0579376220703125
1761479463327413800,3.118413818359375,-1.0724945068359375,0.243927001953125,0.1069488525390625
1761479463337449700,3.12844970703125,-1.3378143310546875,0.236114501953125,0.0015411376953125
1761479463347485700,3.138485595703125,-1.61566162109375,0.191925048828125,-0.223968505859375
1761479463357521700,3.148521728515625,-1.8946075439453125,0.117767333984375,-0.63714599609375
1761479463367558000,3.158557861328125,-2.0938720703125,-0.038177490234375,-1.283477783203125
1761479463377594600,3.1685947265625,-2.2777252197265625,-0.292236328125,-2.056671142578125
1761479463387630600,3.178630615234375,-2.37158203125,-0.4140472412109375,-2.5006256103515625
1761479463397666800,3.188666748046875,-2.46173095703125,-0.27447509765625,-2.25872802734375
1761479463407702800,3.198702880859375,-2.490692138671875,-0.0964202880859375,-1.4953765869140625
1761479463417738800,3.20873876953125,-2.420562744140625,-0.00579833984375,-0.7263336181640625
1761479463427774700,3.218774658203125,-2.2997283935546875,-0.0377349853515625,-0.287200927734375
1761479463437811700,3.228811767578125,-2.2000274658203125,0.0041656494140625,-0.319305419921875
1761479463447847700,3.23884765625,-2.2158660888671875,0.0654449462890625,-0.6429290771484375
1761479463457883600,3.248883544921875,-2.3157806396484375,0.03369140625,-0.957977294921875
1761479463467919600,3.258919677734375,-2.28253173828125,0.0274810791015625,-1.097869873046875
1761479463477955600,3.26895556640625,-2.027069091796875,0.0838623046875,-0.9984893798828125
1761479463487991800,3.27899169921875,-1.7277984619140625,0.166168212890625,-0.7219696044921875
1761479463498028800,3.28902880859375,-1.4086456298828125,0.22137451171875,-0.3308868408203125
1761479463508064800,3.299064697265625,-1.1862945556640625,0.2067108154296875,0.041900634765625
1761479463518100700,3.309100830078125,-1.030242919921875,0.1763916015625,0.2073974609375
1761479463528136700,3.31913671875,-0.7821807861328125,0.158203125,0.20343017578125
1761479463538172700,3.329172607421875,-0.4978485107421875,0.1390838623046875,0.1225738525390625
1761479463548208600,3.339208740234375,-0.346466064453125,0.1181488037109375,0.018524169921875
1761479463558244600,3.34924462890625,-0.384368896484375,0.124603271484375,-0.04388427734375
1761479463568281600,3.359281494140625,-0.6186676025390625,0.1547088623046875,-0.0688018798828125
1761479463578317600,3.369317626953125,-0.696502685546875,0.1695556640625,-0.086456298828125
1761479463588353500,3.379353515625,-0.6571502685546875,0.1670684814453125,-0.090667724609375
1761479463598389500,3.389389404296875,-0.622467041015625,0.1205291748046875,-0.0667572021484375
1761479463608425700,3.39942578125,-0.544281005859375,0.040374755859375,-0.0391693115234375
1761479463618461700,3.409461669921875,-0.4331512451171875,-0.032989501953125,-0.0594482421875
1761479463628498700,3.419498779296875,-0.308929443359375,-0.1009674072265625,-0.119049072265625
1761479463638535000,3.429534912109375,-0.15252685546875,-0.141845703125,-0.193756103515625
1761479463648571000,3.43957080078125,-0.000457763671875,-0.14599609375,-0.239959716796875
1761479463658606800,3.44960693359375,0.1408538818359375,-0.142333984375,-0.207305908203125
1761479463668642800,3.459642822265625,0.26611328125,-0.1243743896484375,-0.093994140625
1761479463678678800,3.4696787109375,0.345489501953125,-0.1027374267578125,0.0468292236328125
1761479463688714800,3.47971484375,0.3622589111328125,-0.0941619873046875,0.17913818359375
1761479463698751700,3.489751708984375,0.3147430419921875,-0.0745086669921875,0.2670745849609375
1761479463708787700,3.49978759765625,0.1971893310546875,-0.028076171875,0.2977447509765625
1761479463718823700,3.50982373046875,0.061370849609375,0.01458740234375,0.2664642333984375
1761479463728859600,3.519859619140625,-0.0825042724609375,0.0561676025390625,0.180389404296875
1761479463738895600,3.5298955078125,-0.2147064208984375,0.0666656494140625,0.0821685791015625
1761479463748931600,3.539931640625,-0.2894134521484375,0.033294677734375,-0.0225677490234375
1761479463758968600,3.549968505859375,-0.3062896728515625,0.022674560546875,-0.090911865234375
1761479463769004500,3.560004638671875,-0.3102264404296875,-0.0230255126953125,-0.1069793701171875
1761479463779040500,3.57004052734375,-0.341461181640625,-0.077239990234375,-0.106842041015625
1761479463789076700,3.58007666015625,-0.36761474609375,-0.092498779296875,-0.1181793212890625
1761479463799112700,3.59011279296875,-0.433929443359375,-0.03521728515625,-0.126007080078125
1761479463809148700,3.600148681640625,-0.6202545166015625,0.0482177734375,-0.10101318359375
1761479463819185700,3.610185546875,-0.9393463134765625,0.1312713623046875,-0.104888916015625
1761479463829221600,3.6202216796875,-1.3146820068359375,0.2390289306640625,-0.21807861328125
1761479463839257600,3.630257568359375,-1.654876708984375,0.3416900634765625,-0.3757781982421875
1761479463849293800,3.6402939453125,-1.8772735595703125,0.337493896484375,-0.6131439208984375
1761479463859329800,3.650329833984375,-1.969696044921875,0.2158203125,-0.917236328125
1761479463869365800,3.66036572265625,-1.9398193359375,-0.02618408203125,-1.2971954345703125
1761479463879401700,3.670401611328125,-1.9517822265625,-0.3152923583984375,-1.7838592529296875
1761479463889438700,3.680438720703125,-2.134613037109375,-0.450225830078125,-2.193756103515625
1761479463899474700,3.690474609375,-2.47174072265625,-0.365631103515625,-2.25836181640625
1761479463909510700,3.7005107421875,-2.677337646484375,-0.1298370361328125,-1.83551025390625
1761479463919546600,3.710546630859375,-2.734039306640625,0.0810394287109375,-1.1429901123046875
1761479463929582600,3.72058251953125,-2.6730804443359375,0.09124755859375,-0.5317840576171875
1761479463939618600,3.73061865234375,-2.467987060546875,0.0427093505859375,-0.257904052734375
1761479463949654500,3.740654541015625,-2.2299957275390625,-0.0266876220703125,-0.3361968994140625
1761479463959691800,3.75069189453125,-2.0341339111328125,-0.104888916015625,-0.56890869140625
1761479463969727700,3.760727783203125,-2.0170440673828125,-0.1323089599609375,-0.7821044921875
1761479463979763700,3.770763671875,-2.169281005859375,-0.098388671875,-0.801025390625
1761479463989799700,3.780799560546875,-2.2036895751953125,0.0045013427734375,-0.6075286865234375
1761479463999837000,3.7908369140625,-2.091156005859375,0.120330810546875,-0.3063201904296875
1761479464009873000,3.800872802734375,-1.9256744384765625,0.16473388671875,-0.061309814453125
1761479464019910100,3.81091015625,-1.6058197021484375,0.1948089599609375,0.092010498046875
1761479464029946000,3.820946044921875,-1.27447509765625,0.18878173828125,0.1481170654296875
1761479464039982000,3.830982177734375,-0.9318695068359375,0.1618804931640625,0.1678619384765625
1761479464050018000,3.84101806640625,-0.6076812744140625,0.0869140625,0.1449737548828125
1761479464060054000,3.851053955078125,-0.2933349609375,0.029296875,0.12261962890625
1761479464070090000,3.861090087890625,-0.15045166015625,0.064056396484375,0.0552520751953125
1761479464080127000,3.871126953125,-0.1003570556640625,0.10784912109375,-0.0207977294921875
1761479464090163000,3.881162841796875,-0.0776214599609375,0.1505126953125,-0.0959625244140625
1761479464100199000,3.891198974609375,-0.0265350341796875,0.166046142578125,-0.140045166015625
1761479464110235000,3.90123486328125,0.0247802734375,0.1401519775390625,-0.1256256103515625
1761479464120270800,3.911270751953125,0.0866546630859375,0.0882720947265625,-0.1157684326171875
1761479464130307000,3.92130712890625,0.171173095703125,0.0186309814453125,-0.158843994140625
1761479464140343000,3.931343017578125,0.25360107421875,-0.04107666015625,-0.227447509765625
1761479464150380000,3.941380126953125,0.3448638916015625,-0.0940093994140625,-0.24371337890625
1761479464160416000,3.951416015625,0.44683837890625,-0.1645050048828125,-0.1863861083984375
1761479464170452200,3.9614521484375,0.461944580078125,-0.1767730712890625,-0.0977325439453125
1761479464180488200,3.97148828125,0.3766937255859375,-0.1261444091796875,0.0015716552734375
1761479464190524200,3.981524169921875,0.227294921875,-0.099090576171875,0.0945281982421875
1761479464200560000,3.99156005859375,0.0598907470703125,-0.0619659423828125,0.13525390625
1761479464210597000,4.00159716796875,-0.119354248046875,-0.0004119873046875,0.1225738525390625
1761479464220631000,4.011631103515625,-0.282928466796875,0.0349884033203125,0.1008758544921875
1761479464230667000,4.0216669921875,-0.393096923828125,0.049407958984375,0.122222900390625
1761479464240703200,4.031703125,-0.5009307861328125,0.060821533203125,0.1500091552734375
1761479464250740000,4.041739990234375,-0.5739288330078125,0.03564453125,0.12908935546875
1761479464260776000,4.05177587890625,-0.5509185791015625,-0.009796142578125,0.016265869140625
1761479464270812200,4.061812255859375,-0.4659576416015625,0.01910400390625,-0.096771240234375
1761479464280848100,4.07184814453125,-0.3937835693359375,0.003509521484375,-0.131561279296875
1761479464290884000,4.081884033203125,-0.352447509765625,0.0005340576171875,-0.1355438232421875
1761479464300920000,4.091920166015625,-0.3726959228515625,0.065399169921875,-0.1053619384765625
1761479464310956000,4.1019560546875,-0.5004119873046875,0.115386962890625,-0.04864501953125
1761479464320993000,4.111992919921875,-0.6953277587890625,0.131683349609375,-0.1049041748046875
1761479464331029000,4.122029052734375,-0.9495086669921875,0.196807861328125,-0.276458740234375
1761479464341065000,4.13206494140625,-1.2806549072265625,0.2974853515625,-0.4978485107421875
1761479464351101000,4.142100830078125,-1.6185150146484375,0.35369873046875,-0.647979736328125
1761479464361137000,4.152136962890625,-1.845489501953125,0.30322265625,-0.6889801025390625
1761479464371173000,4.162173095703125,-1.9201812744140625,0.204833984375,-0.68353271484375
1761479464381210000,4.172210205078125,-1.8914031982421875,0.0727081298828125,-0.70428466796875
1761479464391246000,4.18224609375,-1.8876190185546875,-0.071563720703125,-0.896636962890625
1761479464401282000,4.192281982421875,-2.063323974609375,-0.1494293212890625,-1.2514801025390625
1761479464411318000,4.202318115234375,-2.246490478515625,-0.1724853515625,-1.553741455078125
1761479464421354000,4.21235400390625,-2.2881927490234375,-0.1336822509765625,-1.61602783203125
1761479464431390000,4.222389892578125,-2.2938690185546875,-0.0334625244140625,-1.25250244140625
1761479464441426000,4.232426025390625,-2.370025634765625,-0.0314178466796875,-0.66290283203125
1761479464451463000,4.242462890625,-2.511566162109375,-0.0806732177734375,-0.306640625
1761479464461499000,4.252498779296875,-2.6659393310546875,-0.006683349609375,-0.305572509765625
1761479464471534800,4.262534912109375,-2.78997802734375,0.091552734375,-0.4297332763671875
1761479464481571000,4.272571044921875,-2.7723541259765625,0.141021728515625,-0.4739532470703125
1761479464491607000,4.28260693359375,-2.4992828369140625,0.1599273681640625,-0.4206695556640625
1761479464501643000,4.29264306640625,-2.0978240966796875,0.166595458984375,-0.285858154296875
1761479464511680000,4.302679931640625,-1.680450439453125,0.1822052001953125,-0.1257781982421875
1761479464521716200,4.31271630859375,-1.3433074951171875,0.171478271484375,0.0251312255859375
1761479464531752200,4.322752197265625,-1.0947723388671875,0.1550140380859375,0.1096038818359375
1761479464541788200,4.3327880859375,-0.9226226806640625,0.182586669921875,0.082183837890625
1761479464551824100,4.34282421875,-0.7650146484375,0.2216033935546875,-0.009002685546875
1761479464561860000,4.352860107421875,-0.62841796875,0.2450714111328125,-0.095733642578125
1761479464571896000,4.36289599609375,-0.5381927490234375,0.2864837646484375,-0.1317596435546875
1761479464581933000,4.37293310546875,-0.448272705078125,0.312469482421875,-0.096588134765625
1761479464591969000,4.382968994140625,-0.3517303466796875,0.258758544921875,-0.071533203125
1761479464602005000,4.3930048828125,-0.266448974609375,0.179229736328125,-0.1083831787109375
1761479464612041000,4.403041015625,-0.198577880859375,0.0859222412109375,-0.184326171875
1761479464622077000,4.413076904296875,-0.069183349609375,-0.06304931640625,-0.295074462890625
1761479464632113000,4.42311279296875,0.1128387451171875,-0.1782989501953125,-0.452972412109375
1761479464642148900,4.43314892578125,0.2736663818359375,-0.210968017578125,-0.531707763671875
1761479464652185900,4.443185791015625,0.3703460693359375,-0.2200927734375,-0.42694091796875
1761479464662221800,4.453221923828125,0.418426513671875,-0.219879150390625,-0.2051239013671875
1761479464672258000,4.463258056640625,0.3840484619140625,-0.1803436279296875,-0.004913330078125
1761479464682294000,4.4732939453125,0.2828216552734375,-0.1148834228515625,0.1615753173828125
1761479464692330200,4.483330322265625,0.1395721435546875,-0.0629425048828125,0.2880096435546875
1761479464702366200,4.4933662109375,-0.0478057861328125,-0.0291748046875,0.3230743408203125
1761479464712403000,4.50340283203125,-0.2372894287109375,0.0225830078125,0.2633056640625
1761479464722439200,4.513439208984375,-0.3300018310546875,0.0459442138671875,0.171966552734375
1761479464732475100,4.52347509765625,-0.374969482421875,0.0049591064453125,0.090240478515625
1761479464742511000,4.533510986328125,-0.4290313720703125,-0.0246124267578125,0.0369415283203125
1761479464752547000,4.543547119140625,-0.4741668701171875,-0.027130126953125,-0.00341796875
1761479464762583000,4.5535830078125,-0.499420166015625,-0.0467376708984375,-0.0228729248046875
1761479464772619000,4.563618896484375,-0.47613525390625,-0.0818328857421875,-0.0782623291015625
1761479464782656000,4.573656005859375,-0.4251708984375,-0.112701416015625,-0.1608428955078125
1761479464792692000,4.58369189453125,-0.3961639404296875,-0.110137939453125,-0.212493896484375
1761479464802728000,4.59372802734375,-0.392333984375,-0.0736236572265625,-0.179229736328125
1761479464812764000,4.603763916015625,-0.45587158203125,-0.034423828125,-0.08123779296875
1761479464822800000,4.6137998046875,-0.57281494140625,-0.0065155029296875,-0.0349884033203125
1761479464832835800,4.6238359375,-0.71697998046875,0.0897979736328125,-0.1339263916015625
1761479464842872000,4.6338720703125,-0.77642822265625,0.1848907470703125,-0.3626556396484375
1761479464852909000,4.643908935546875,-0.9203033447265625,0.2448272705078125,-0.57470703125
1761479464862945000,4.653945068359375,-1.293243408203125,0.2477569580078125,-0.611175537109375
1761479464872981000,4.66398095703125,-1.7077178955078125,0.2787933349609375,-0.467987060546875
1761479464883017000,4.674016845703125,-2.1476898193359375,0.280517578125,-0.3846893310546875
1761479464893053000,4.684052978515625,-2.592742919921875,0.2126312255859375,-0.56414794921875
1761479464903089200,4.694089111328125,-2.76531982421875,-0.019287109375,-1.1458892822265625
1761479464913126000,4.7041259765625,-2.775146484375,-0.3206024169921875,-1.8900909423828125
1761479464923161900,4.714161865234375,-2.7247161865234375,-0.371734619140625,-2.2661285400390625
1761479464933198000,4.724197998046875,-2.6463470458984375,-0.2489776611328125,-1.8477630615234375
1761479464943234000,4.734234130859375,-2.6257781982421875,-0.095306396484375,-0.885345458984375
1761479464953270000,4.74427001953125,-2.567474365234375,-0.0594482421875,-0.0626983642578125
1761479464963306000,4.754305908203125,-2.40325927734375,-0.0054473876953125,0.2860565185546875
1761479464973343200,4.76434326171875,-2.366729736328125,0.1385650634765625,0.1696624755859375
1761479464983379200,4.774379150390625,-2.2134552001953125,0.216156005859375,0.004241943359375
1761479464993415200,4.784415283203125,-2.0037841796875,0.1712188720703125,-0.140533447265625
1761479465003450400,4.794450439453125,-1.814971923828125,0.139373779296875,-0.2844696044921875
1761479465013486300,4.804486328125,-1.6301422119140625,0.170684814453125,-0.3637847900390625
1761479465023522300,4.814522216796875,-1.46575927734375,0.1945953369140625,-0.31097412109375
1761479465033558300,4.824558349609375,-1.3274993896484375,0.208099365234375,-0.1376953125
1761479465043595500,4.834595458984375,-1.19964599609375,0.2318115234375,0.0426788330078125
1761479465053631500,4.844631591796875,-1.0603790283203125,0.24615478515625,0.1432952880859375
1761479465063667500,4.85466748046875,-0.886993408203125,0.24591064453125,0.135894775390625
1761479465073703400,4.864703369140625,-0.6733856201171875,0.242034912109375,-0.011627197265625
1761479465083739400,4.874739501953125,-0.47198486328125,0.2144775390625,-0.173126220703125
1761479465093775600,4.884775634765625,-0.260772705078125,0.19110107421875,-0.2680816650390625
1761479465103812400,4.894812255859375,-0.0937347412109375,0.1512298583984375,-0.2981414794921875
1761479465113848300,4.904848388671875,0.0268707275390625,0.093231201171875,-0.297515869140625
1761479465123884500,4.914884521484375,0.103515625,0.058837890625,-0.297393798828125
1761479465133920500,4.92492041015625,0.1054840087890625,0.0206146240234375,-0.3177337646484375
1761479465143956500,4.93495654296875,0.1141204833984375,-0.0061187744140625,-0.345428466796875
1761479465153992400,4.944992431640625,0.1494903564453125,-0.0050201416015625,-0.3401031494140625
1761479465164029400,4.955029541015625,0.2233428955078125,-0.0320892333984375,-0.252227783203125
1761479465174065400,4.9650654296875,0.2598724365234375,-0.052947998046875,-0.1241302490234375
1761479465184101400,4.975101318359375,0.224822998046875,-0.0431060791015625,-0.006317138671875
1761479465194137300,4.985137451171875,0.1139984130859375,-0.0347747802734375,0.079345703125
1761479465204173300,4.99517333984375,0.0308074951171875,-0.01348876953125,0.102294921875
1761479465214209500,5.00520947265625,-0.0494842529296875,-0.0166015625,0.1073760986328125
1761479465224246500,5.01524658203125,-0.128143310546875,-0.0434112548828125,0.086822509765625
1761479465234282500,5.025282470703125,-0.1839752197265625,-0.0686492919921875,0.0609283447265625
1761479465244318500,5.035318359375,-0.3133392333984375,-0.103912353515625,0.042938232421875
1761479465254354400,5.0453544921875,-0.3728485107421875,-0.1139984130859375,0.0099945068359375
1761479465264390400,5.055390380859375,-0.3826904296875,-0.1294097900390625,-0.014190673828125
1761479465274426400,5.06542626953125,-0.353057861328125,-0.12152099609375,-0.0102996826171875
1761479465284462300,5.07546240234375,-0.334716796875,-0.0910797119140625,0.020599365234375
1761479465294499300,5.085499267578125,-0.3404541015625,-0.07427978515625,0.013153076171875
1761479465304535300,5.095535400390625,-0.326446533203125,0.06695556640625,0.02020263671875
1761479465314571300,5.1055712890625,-0.3409881591796875,0.14202880859375,0.118927001953125
1761479465324607500,5.115607421875,-0.3267974853515625,0.16796875,0.174407958984375
1761479465334643500,5.1256435546875,-0.298492431640625,0.264495849609375,0.135955810546875
1761479465344679400,5.135679443359375,-0.3549041748046875,0.2510986328125,0.0543975830078125
1761479465354716400,5.14571630859375,-0.5042266845703125,0.13177490234375,-0.1241912841796875
1761479465364752600,5.155752685546875,-0.785980224609375,0.0874786376953125,-0.4326934814453125
1761479465374788600,5.16578857421875,-1.2103729248046875,0.103515625,-0.7225341796875
1761479465384824600,5.175824462890625,-1.7238616943359375,0.100250244140625,-0.9825897216796875
1761479465394860500,5.185860595703125,-2.2321624755859375,0.0778656005859375,-1.229156494140625
1761479465404896500,5.195896484375,-2.602813720703125,-0.0627593994140625,-1.474822998046875
1761479465414933500,5.20593359375,-2.83697509765625,-0.1917266845703125,-1.7388458251953125
1761479465424969500,5.215969482421875,-3.0234222412109375,-0.1944732666015625,-1.9139404296875
1761479465435005400,5.22600537109375,-3.083282470703125,-0.0429840087890625,-1.634033203125
1761479465445041400,5.23604150390625,-3.090362548828125,0.0896148681640625,-0.9647216796875
1761479465455077400,5.246077392578125,-2.932159423828125,0.03826904296875,-0.3386383056640625
1761479465465113300,5.25611328125,-2.667205810546875,-0.0912933349609375,-0.1178436279296875
1761479465475149300,5.2661494140625,-2.381683349609375,-0.201171875,-0.294189453125
1761479465485186300,5.276186279296875,-2.2021636962890625,-0.189117431640625,-0.59906005859375
1761479465495222300,5.28622216796875,-2.2426300048828125,-0.12677001953125,-0.7880401611328125
1761479465505258500,5.296258544921875,-2.2518310546875,-0.068267822265625,-0.825836181640625
1761479465515294500,5.30629443359375,-2.1190643310546875,0.0420684814453125,-0.748931884765625
1761479465525330400,5.316330322265625,-1.8998565673828125,0.14349365234375,-0.506866455078125
1761479465535366700,5.32636669921875,-1.591949462890625,0.22222900390625,-0.2385101318359375
1761479465545403400,5.3364033203125,-1.2900848388671875,0.276824951171875,-0.035888671875
1761479465555439400,5.346439453125,-1.0009307861328125,0.287139892578125,0.1386566162109375
1761479465565475600,5.3564755859375,-0.74847412109375,0.255279541015625,0.268890380859375
1761479465575511600,5.366511474609375,-0.551605224609375,0.206756591796875,0.264556884765625
1761479465585547500,5.376547607421875,-0.438751220703125,0.1789093017578125,0.1078033447265625
1761479465595583500,5.38658349609375,-0.37994384765625,0.16851806640625,-0.0877532958984375
1761479465605620500,5.396620361328125,-0.3631439208984375,0.14581298828125,-0.286773681640625
1761479465615656400,5.406656494140625,-0.3415679931640625,0.141265869140625,-0.423492431640625
1761479465625692400,5.4166923828125,-0.24017333984375,0.1362457275390625,-0.482086181640625
1761479465635728400,5.426728271484375,-0.177032470703125,0.10137939453125,-0.499542236328125
1761479465645764400,5.436764404296875,-0.091461181640625,0.010986328125,-0.41534423828125
1761479465655800300,5.44680029296875,0.0783233642578125,-0.0662841796875,-0.3192291259765625
1761479465665836300,5.456836181640625,0.2559051513671875,-0.094635009765625,-0.213653564453125
1761479465675873500,5.46687353515625,0.4031219482421875,-0.1205902099609375,-0.091827392578125
1761479465685909500,5.476909423828125,0.4959716796875,-0.1313629150390625,0.0146484375
1761479465695945500,5.486945556640625,0.5009307861328125,-0.0986480712890625,0.0911407470703125
1761479465705981400,5.4969814453125,0.3833465576171875,-0.0491943359375,0.14898681640625
1761479465716017400,5.507017333984375,0.1444091796875,-0.0075836181640625,0.1813507080078125
1761479465726053400,5.517053466796875,-0.1206817626953125,0.0343170166015625,0.166168212890625
1761479465736090400,5.52709033203125,-0.2659149169921875,0.0535736083984375,0.094207763671875
1761479465746126300,5.537126220703125,-0.3309478759765625,0.0438385009765625,0.00970458984375
1761479465756162300,5.547162353515625,-0.3665771484375,0.0221710205078125,-0.0320587158203125
1761479465766198300,5.5571982421875,-0.3492584228515625,-0.0012359619140625,-0.0356903076171875
1761479465776234500,5.567234375,-0.30377197265625,-0.025115966796875,0.0140533447265625
1761479465786270500,5.5772705078125,-0.29437255859375,-0.0671539306640625,0.089263916015625
1761479465796307200,5.58730712890625,-0.3068084716796875,-0.0945587158203125,0.101043701171875
1761479465806343700,5.59734375,-0.3291473388671875,-0.098541259765625,-0.0010833740234375
1761479465816379600,5.607379638671875,-0.3571624755859375,-0.0778045654296875,-0.158966064453125
1761479465826415600,5.61741552734375,-0.343597412109375,0.01806640625,-0.233642578125
1761479465836451600,5.62745166015625,-0.3041839599609375,0.0882720947265625,-0.11712646484375
1761479465846487600,5.637487548828125,-0.3043975830078125,0.0827484130859375,0.0755615234375
1761479465856524500,5.647524658203125,-0.31658935546875,0.112091064453125,0.191619873046875
1761479465866560500,5.657560546875,-0.3616180419921875,0.1269683837890625,0.1771087646484375
1761479465876596500,5.667596435546875,-0.500457763671875,0.12750244140625,-0.011474609375
1761479465886632400,5.677632568359375,-0.72674560546875,0.138946533203125,-0.3336181640625
1761479465896668400,5.68766845703125,-1.10552978515625,0.133331298828125,-0.709442138671875
1761479465906704400,5.697704345703125,-1.647857666015625,0.116119384765625,-1.0943603515625
1761479465916740400,5.707740234375,-2.214691162109375,0.063507080078125,-1.3986968994140625
1761479465926777300,5.71777734375,-2.6674041748046875,-0.0874176025390625,-1.67864990234375
1761479465936813300,5.727813232421875,-2.87872314453125,-0.2554931640625,-1.9515838623046875
1761479465946849300,5.737849365234375,-2.91754150390625,-0.2908172607421875,-1.9912872314453125
1761479465956885200,5.74788525390625,-2.890228271484375,-0.182647705078125,-1.595123291015625
1761479465966921200,5.757921142578125,-2.813507080078125,0.027130126953125,-0.9088134765625
1761479465976957400,5.76795751953125,-2.692901611328125,0.146514892578125,-0.2719879150390625
1761479465986994400,5.777994384765625,-2.507080078125,0.08404541015625,0.0549468994140625
1761479465997030400,5.788030517578125,-2.30157470703125,0.011138916015625,-0.01806640625
1761479466007066600,5.798066650390625,-2.24951171875,-0.007415771484375,-0.340667724609375
1761479466017102600,5.8081025390625,-2.32501220703125,-0.0435638427734375,-0.5933074951171875
1761479466027138800,5.818138916015625,-2.4102325439453125,0.0035552978515625,-0.6093292236328125
1761479466037174800,5.8281748046875,-2.3631591796875,0.0497894287109375,-0.3929443359375
1761479466047211500,5.83821142578125,-2.1304168701171875,0.0808258056640625,-0.0858306884765625
1761479466057247700,5.848247802734375,-1.7921905517578125,0.09686279296875,0.141357421875
1761479466067283700,5.85828369140625,-1.4859161376953125,0.0974884033203125,0.2205047607421875
1761479466077319700,5.868319580078125,-1.245513916015625,0.1470794677734375,0.237213134765625
1761479466087355600,5.878355712890625,-1.102783203125,0.2052764892578125,0.2145843505859375
1761479466097391600,5.8883916015625,-1.0090484619140625,0.239837646484375,0.1298828125
1761479466107428600,5.8984287109375,-0.8991546630859375,0.2489471435546875,-0.0288848876953125
1761479466117464600,5.908464599609375,-0.7420654296875,0.2574615478515625,-0.2108154296875
1761479466127500500,5.91850048828125,-0.601165771484375,0.280487060546875,-0.3338623046875
1761479466137536800,5.928536865234375,-0.467926025390625,0.300140380859375,-0.352294921875
1761479466147572700,5.93857275390625,-0.361358642578125,0.28961181640625,-0.310516357421875
1761479466157608700,5.948608642578125,-0.3035430908203125,0.2740631103515625,-0.2633056640625
1761479466167644700,5.958644775390625,-0.24017333984375,0.2423858642578125,-0.305755615234375
1761479466177681700,5.968681640625,-0.103607177734375,0.1947479248046875,-0.39813232421875
1761479466187717600,5.978717529296875,0.0959625244140625,0.175628662109375,-0.4584503173828125
1761479466197753600,5.988753662109375,0.270538330078125,0.138458251953125,-0.4248809814453125
1761479466207789600,5.99878955078125,0.4306793212890625,0.0448150634765625,-0.32098388671875
1761479466217825500,6.008825439453125,0.543975830078125,-0.000274658203125,-0.2027130126953125
1761479466227861800,6.01886181640625,0.549346923828125,-0.020355224609375,-0.090576171875
1761479466237898500,6.0288984375,0.5073394775390625,-0.0319671630859375,0.0073394775390625
1761479466247934500,6.0389345703125,0.4261016845703125,-0.04449462890625,0.0893096923828125
1761479466257970700,6.048970703125,0.279296875,-0.0769195556640625,0.164794921875
1761479466268006700,6.059006591796875,0.099609375,-0.0973052978515625,0.19158935546875
1761479466278042600,6.069042724609375,-0.076507568359375,-0.114105224609375,0.1326751708984375
1761479466288078600,6.07907861328125,-0.236968994140625,-0.1103973388671875,0.0675506591796875
1761479466298115800,6.08911572265625,-0.3639068603515625,-0.1008148193359375,0.0013580322265625
1761479466308151800,6.09915185546875,-0.41778564453125,-0.1009521484375,-0.0159759521484375
1761479466318187800,6.109187744140625,-0.4709625244140625,-0.103790283203125,0.035186767578125
1761479466328223700,6.1192236328125,-0.5157928466796875,-0.093170166015625,0.0745697021484375
1761479466338259700,6.129259765625,-0.500335693359375,-0.071990966796875,0.06488037109375
1761479466348295700,6.139295654296875,-0.4542388916015625,-0.0733795166015625,-0.0173492431640625
1761479466358331600,6.14933154296875,-0.4611358642578125,0.084930419921875,-0.03106689453125
1761479466368368600,6.15936865234375,-0.5105743408203125,0.0665283203125,0.0495452880859375
1761479466378404600,6.169404541015625,-0.5263214111328125,0.0396881103515625,0.066375732421875
1761479466388440600,6.179440673828125,-0.5077667236328125,0.12542724609375,0.0383453369140625
1761479466398476500,6.1894765625,-0.54010009765625,0.0542755126953125,-0.0443115234375
1761479466408512500,6.199512451171875,-0.662689208984375,0.026519775390625,-0.2820892333984375
1761479466418548500,6.209548583984375,-0.9014892578125,0.043243408203125,-0.5571746826171875
1761479466428585700,6.219585693359375,-1.2787628173828125,0.0406341552734375,-0.7855072021484375
1761479466438621700,6.22962158203125,-1.6493377685546875,0.0945587158203125,-0.961883544921875
1761479466448657700,6.23965771484375,-2.0655364990234375,0.135101318359375,-1.1052398681640625
1761479466458693600,6.249693603515625,-2.522705078125,0.033355712890625,-1.2023162841796875
1761479466468729900,6.259729736328125,-2.829925537109375,-0.121978759765625,-1.297698974609375
1761479466478765800,6.269765869140625,-3.0525665283203125,-0.195098876953125,-1.3485870361328125
1761479466488801800,6.2798017578125,-3.274383544921875,-0.1221771240234375,-1.225341796875
1761479466498838800,6.2898388671875,-3.236541748046875,0.089691162109375,-0.872589111328125
1761479466508874800,6.299874755859375,-3.032501220703125,0.1698150634765625,-0.4009246826171875
1761479466518910700,6.30991064453125,-2.76904296875,0.1004791259765625,-0.14984130859375
1761479466528946700,6.31994677734375,-2.5343017578125,0.051025390625,-0.1877593994140625
1761479466538982700,6.329982666015625,-2.4945220947265625,0.0647735595703125,-0.3160858154296875
1761479466549018600,6.3400185546875,-2.5163726806640625,0.1595001220703125,-0.32672119140625
1761479466559055600,6.3500556640625,-2.3059539794921875,0.2082977294921875,-0.1819000244140625
1761479466569091600,6.360091552734375,-1.9095916748046875,0.2228851318359375,-0.00799560546875
1761479466579127600,6.37012744140625,-1.5573577880859375,0.26690673828125,0.0509490966796875
1761479466589163500,6.38016357421875,-1.350677490234375,0.3760528564453125,0.0200347900390625
1761479466599199500,6.390199462890625,-1.1767425537109375,0.3963470458984375,0.0338134765625
1761479466609235700,6.400235595703125,-0.9615478515625,0.104888916015625,0.15374755859375
1761479466619271700,6.410271728515625,-1.0757904052734375,0.1803131103515625,0.0914459228515625
1761479466629308700,6.42030859375,-1.2578125,0.211883544921875,-0.048431396484375
1761479466639344600,6.4303447265625,-1.167022705078125,0.1670074462890625,-0.1805267333984375
1761479466649380600,6.440380615234375,-0.9113311767578125,0.16943359375,-0.302734375
1761479466659416600,6.45041650390625,-0.5783538818359375,0.153289794921875,-0.30877685546875
1761479466669452500,6.46045263671875,-0.1744232177734375,0.1858978271484375,-0.2632904052734375
