time,seconds_elapsed,z,y,x
1761479460300256500,0.091256591796875,0.40889403223991394,-0.4694826304912567,0.1465834528207779
1761479460310292500,0.10129248046875,0.36936792731285095,-0.6643812656402588,0.08793611824512482
1761479460320328400,0.111328369140625,0.26382505893707275,-0.9348656535148621,0.052505940198898315
1761479460330364400,0.121364501953125,0.08587155491113663,-1.1390024423599243,0.058033332228660583
1761479460340400400,0.131400390625,-0.14486916363239288,-1.279754638671875,0.026548532769083977
1761479460350437600,0.141437744140625,-0.3953232169151306,-1.2840244770050049,-0.06884856522083282
1761479460360473600,0.1514736328125,-0.6034519672393799,-1.1940792798995972,-0.1716732531785965
1761479460370509600,0.161509521484375,-0.6352927684783936,-1.0091036558151245,-0.26133280992507935
1761479460380545500,0.171545654296875,-0.5572896599769592,-0.8464667201042175,-0.27071982622146606
1761479460390581500,0.18158154296875,-0.2742827236652374,-0.31830039620399475,-0.48905694484710693
1761479460400617500,0.191617431640625,-0.15893924236297607,-0.08940750360488892,-0.5212909579277039
1761479460410653700,0.20165380859375,-0.094904325902462,-0.13485035300254822,-0.49079909920692444
1761479460420690400,0.2116904296875,-0.0010434091091156006,0.2986719608306885,-0.6662271618843079
1761479460430726700,0.2217265625,-0.046272940933704376,0.5542744398117065,-0.9509526491165161
1761479460440762600,0.2317626953125,-0.17577609419822693,0.6103634238243103,-1.1659634113311768
1761479460450798600,0.241798583984375,-0.4336307942867279,0.77408766746521,-1.193670630455017
1761479460460834600,0.25183447265625,-0.6012381911277771,0.8968063592910767,-1.004820466041565
1761479460470870500,0.26187060546875,-0.5090411305427551,0.9718025922775269,-0.6912689805030823
1761479460480906500,0.271906494140625,-0.26861485838890076,0.829481840133667,-0.34034299850463867
1761479460490943700,0.28194384765625,0.10404925793409348,0.6609951257705688,-0.1256062090396881
1761479460500979700,0.291979736328125,0.3897717297077179,0.42357274889945984,-0.0007549799047410488
1761479460511015700,0.302015625,0.5098523497581482,0.13820280134677887,0.037100788205862045
1761479460521051600,0.3120517578125,0.4547729790210724,-0.03488439321517944,0.03260873630642891
1761479460531087600,0.322087646484375,0.3556442856788635,-0.24740412831306458,0.03722532466053963
1761479460541123600,0.33212353515625,0.3035517930984497,-0.4851631224155426,0.20258407294750214
1761479460551159600,0.34215966796875,0.27439045906066895,-0.5373349785804749,0.35580742359161377
1761479460561196500,0.352196533203125,0.27889204025268555,-0.37910014390945435,0.4143306314945221
1761479460571232500,0.362232421875,0.238979771733284,-0.35369357466697693,0.5243527293205261
1761479460581268500,0.3722685546875,0.144990012049675,-0.6238979697227478,0.7268960475921631
1761479460591304400,0.382304443359375,0.00883457250893116,-0.8576372265815735,0.9464124441146851
1761479460601340400,0.39234033203125,-0.1541694700717926,-0.9570167064666748,1.0756511688232422
1761479460611376600,0.402376708984375,-0.24823951721191406,-0.9128209948539734,1.1748988628387451
1761479460621412600,0.41241259765625,-0.4548843801021576,-0.7318649888038635,1.0744320154190063
1761479460631449300,0.422449462890625,-0.5948169827461243,-0.5429496765136719,0.9160231947898865
1761479460641485600,0.432485595703125,-0.6421582698822021,-0.3705768883228302,0.6538793444633484
1761479460651521800,0.442521728515625,-0.5862513184547424,-0.16587860882282257,0.37195712327957153
1761479460661557800,0.452557861328125,-0.44225701689720154,-0.0002405848354101181,0.13517343997955322
1761479460671593700,0.46259375,-0.26824232935905457,0.22194640338420868,-0.030763857066631317
1761479460681629700,0.472629638671875,-0.08270888030529022,0.4172065556049347,-0.05904683470726013
1761479460691666700,0.482666748046875,-0.013203845359385014,0.42862698435783386,0.035118814557790756
1761479460701702700,0.49270263671875,-0.035057052969932556,0.44610390067100525,0.1178399920463562
1761479460711738600,0.502738525390625,-0.05547737330198288,0.5153290629386902,0.1545119732618332
1761479460721774600,0.512774658203125,-0.037635304033756256,0.5127032399177551,0.10891253501176834
1761479460731810600,0.522810546875,0.020863424986600876,0.5685979127883911,0.0023567993193864822
1761479460741846500,0.532846435546875,0.1654018610715866,0.52427077293396,-0.12269244343042374
1761479460751882500,0.542882568359375,0.4077439308166504,0.34781694412231445,-0.2826610803604126
1761479460761919500,0.55291943359375,0.6921854019165039,0.15435273945331573,-0.47554412484169006
1761479460771955500,0.56295556640625,0.8853769302368164,-0.0560082271695137,-0.6985460519790649
1761479460781991400,0.572991455078125,0.8451284766197205,-0.2698473334312439,-0.9035022258758545
1761479460792027400,0.58302734375,0.7522802948951721,-0.23835520446300507,-1.0419853925704956
1761479460802063400,0.5930634765625,0.5203853845596313,-0.018251530826091766,-1.1145302057266235
1761479460812099600,0.603099609375,0.3097333610057831,0.48606330156326294,-0.9972469806671143
1761479460822135600,0.613135498046875,-0.019582634791731834,0.8455753326416016,-0.5199190378189087
1761479460832172500,0.623172607421875,-0.5245235562324524,0.554141104221344,0.00011937972158193588
1761479460842208500,0.63320849609375,-1.1076291799545288,0.17639175057411194,0.24169611930847168
1761479460852244700,0.64324462890625,-1.5147773027420044,-0.1427745223045349,0.20162272453308105
1761479460862280700,0.65328076171875,-1.4927445650100708,-0.23417428135871887,-0.0026355464942753315
1761479460872316700,0.663316650390625,-1.0296406745910645,-0.16514140367507935,-0.15400615334510803
1761479460882352600,0.6733525390625,-0.3775022029876709,0.10289749503135681,-0.320555180311203
1761479460892388600,0.683388671875,-0.05038106441497803,0.3701736629009247,-0.515231728553772
1761479460902425600,0.693425537109375,-0.13986770808696747,0.2966766059398651,-0.6803770065307617
1761479460912461600,0.703461669921875,-0.40975672006607056,0.3413495421409607,-0.8740647435188293
1761479460922497500,0.71349755859375,-0.730927586555481,0.4893666207790375,-0.9913942813873291
1761479460932533500,0.723533447265625,-0.8839725255966187,0.6943396925926208,-1.0012898445129395
1761479460942569500,0.733569580078125,-0.7958382368087769,1.1282672882080078,-1.0606286525726318
1761479460952605400,0.74360546875,-0.8866428136825562,1.3038625717163086,-1.1579115390777588
1761479460962641400,0.753641357421875,-0.8509137034416199,1.5759488344192505,-1.2481812238693237
1761479460972678700,0.7636787109375,-0.7268040180206299,1.5005779266357422,-1.1854292154312134
1761479460982714600,0.773714599609375,-0.4906170964241028,1.2079108953475952,-1.0170917510986328
1761479460992750600,0.78375048828125,-0.20966503024101257,1.165635108947754,-0.9475465416908264
1761479461002786600,0.79378662109375,-0.04591463878750801,1.2035497426986694,-1.0006753206253052
1761479461012822500,0.803822509765625,-0.030616644769906998,1.1411579847335815,-1.1409777402877808
1761479461022858500,0.8138583984375,-0.15070198476314545,0.9027029275894165,-1.2374660968780518
1761479461032895700,0.823895751953125,-0.27892839908599854,0.6165388226509094,-1.3136357069015503
1761479461042931700,0.833931640625,-0.3043326139450073,0.26492953300476074,-1.3252143859863281
1761479461052967700,0.8439677734375,-0.17564013600349426,0.17240995168685913,-1.2866361141204834
1761479461063004000,0.85400390625,0.15763378143310547,0.45848068594932556,-1.1565762758255005
1761479461073040000,0.864039794921875,0.3746228516101837,0.34846949577331543,-0.6542439460754395
1761479461083075800,0.874075927734375,0.5111856460571289,0.016210801899433136,-0.06663127988576889
1761479461093111800,0.88411181640625,0.49178874492645264,-0.2394087165594101,0.42138126492500305
1761479461103148800,0.894148681640625,0.3354073762893677,-0.3974723815917969,0.6699575781822205
1761479461113184800,0.904184814453125,0.08799091726541519,-0.4691481590270996,0.6556675434112549
1761479461123220700,0.914220703125,-0.13678602874279022,-0.49096807837486267,0.4610757529735565
1761479461133256700,0.924256591796875,-0.16037790477275848,-0.43273141980171204,0.19976451992988586
1761479461143292700,0.934292724609375,-0.07505901157855988,-0.5133205056190491,-0.03584987670183182
1761479461153328600,0.94432861328125,0.06860122084617615,-0.6807675957679749,-0.26375654339790344
1761479461163365600,0.95436572265625,0.31914353370666504,-0.6822857856750488,-0.41440680623054504
1761479461173401600,0.964401611328125,0.5285119414329529,-0.4907677471637726,-0.4303532838821411
1761479461183437600,0.9744375,0.6363850831985474,-0.40985167026519775,-0.2897806763648987
1761479461193473500,0.9844736328125,0.6892903447151184,-0.3989683985710144,0.025487802922725677
1761479461203509800,0.994509765625,0.6229555606842041,-0.5879327654838562,0.39912477135658264
1761479461213545700,1.004545654296875,0.5038353204727173,-0.6989511847496033,0.721164345741272
1761479461223582700,1.014582763671875,0.3662901818752289,-0.6714164614677429,0.9328482151031494
1761479461233618700,1.02461865234375,0.31840628385543823,-0.5883843898773193,1.0616605281829834
1761479461243654700,1.034654541015625,0.46539202332496643,-0.40622618794441223,1.1724774837493896
1761479461253690600,1.044690673828125,0.7807749509811401,-0.32342398166656494,1.2660013437271118
1761479461263726600,1.0547265625,1.0713258981704712,-0.4114624857902527,1.278787612915039
1761479461273762800,1.0647626953125,1.2088921070098877,-0.593885600566864,1.091033697128296
1761479461283798800,1.074798828125,1.1494841575622559,-0.6880921721458435,0.6866219639778137
1761479461293835500,1.08483544921875,0.8617376089096069,-0.5068947076797485,0.22378958761692047
1761479461303871700,1.094871826171875,0.4718150198459625,-0.31726130843162537,-0.11062809824943542
1761479461313907700,1.10490771484375,0.2559317350387573,-0.13432848453521729,-0.22958537936210632
1761479461323943700,1.114943603515625,0.16459119319915771,0.16716888546943665,-0.2127152532339096
1761479461333979600,1.124979736328125,0.10815161466598511,0.47370192408561707,-0.15984565019607544
1761479461344015600,1.135015625,-0.13216881453990936,0.5086890459060669,-0.03872806951403618
1761479461354052900,1.145052978515625,-0.44094157218933105,0.17944300174713135,0.12836185097694397
1761479461364088800,1.1550888671875,-0.6579962372779846,-0.14548151195049286,0.2730870544910431
1761479461374124800,1.165124755859375,-0.6733384728431702,-0.39379945397377014,0.3381797671318054
1761479461384160800,1.175160888671875,-0.5122758150100708,-0.6494770050048828,0.2891213893890381
1761479461394196700,1.18519677734375,-0.3235391676425934,-0.6677545309066772,0.04844062030315399
1761479461404232700,1.195232666015625,-0.3426818549633026,-0.43839091062545776,-0.27792295813560486
1761479461414269700,1.205269775390625,-0.5197514891624451,-0.18381856381893158,-0.4596717059612274
1761479461424305700,1.2153056640625,-0.697935938835144,0.028574593365192413,-0.4103586971759796
1761479461434341600,1.225341552734375,-0.8136628270149231,0.1707807332277298,-0.26200971007347107
1761479461444377600,1.235377685546875,-0.8073784708976746,0.21938003599643707,-0.13111460208892822
1761479461454413600,1.24541357421875,-0.6881991028785706,0.09735506027936935,-0.028472380712628365
1761479461464449500,1.255449462890625,-0.4834476113319397,-0.23609809577465057,0.02690318040549755
1761479461474486500,1.265486572265625,-0.14593294262886047,-0.4233151078224182,0.0007927512051537633
1761479461484522500,1.2755224609375,0.2371823936700821,-0.44656726717948914,-0.16951408982276917
1761479461494558500,1.285558349609375,0.5911489725112915,-0.3111537992954254,-0.36620479822158813
1761479461504594700,1.2955947265625,0.8256520628929138,-0.08214376866817474,-0.26335859298706055
1761479461514631000,1.305630859375,0.9220768213272095,0.045832838863134384,-0.023420004174113274
1761479461524667000,1.3156669921875,0.8282175064086914,0.12181413173675537,0.13078129291534424
1761479461534702800,1.325702880859375,0.6741520166397095,0.08312825113534927,0.21743735671043396
1761479461544739800,1.33573974609375,0.5413857698440552,-0.043495338410139084,0.2803419828414917
1761479461554775800,1.34577587890625,0.40834859013557434,-0.15328815579414368,0.33792322874069214
1761479461564811800,1.355811767578125,0.29545858502388,-0.1627742350101471,0.4481455683708191
1761479461574847700,1.36584765625,0.20054806768894196,-0.23620237410068512,0.5408464670181274
1761479461584883700,1.3758837890625,0.08021071553230286,-0.33147162199020386,0.6181697249412537
1761479461594920700,1.385920654296875,-0.020403770729899406,-0.3877386152744293,0.6379644870758057
1761479461604956700,1.395956787109375,-0.07890656590461731,-0.4389309287071228,0.6009262800216675
1761479461614992600,1.40599267578125,-0.06054220348596573,-0.4589381814002991,0.5105266571044922
1761479461625028600,1.416028564453125,0.0009485292248427868,-0.3812222182750702,0.3574126064777374
1761479461635064600,1.426064697265625,0.04460066929459572,-0.20778144896030426,0.16643361747264862
1761479461645100500,1.4361005859375,0.06430958211421967,-0.026735572144389153,0.03938809782266617
1761479461655136500,1.446136474609375,-0.036434341222047806,0.16305379569530487,-0.13573604822158813
1761479461665173800,1.456173828125,-0.1058167964220047,0.33323466777801514,-0.2828595042228699
1761479461675209700,1.466209716796875,-0.15413080155849457,0.4728524684906006,-0.3562759459018707
1761479461685245700,1.47624560546875,-0.20097656548023224,0.4637164771556854,-0.3826090097427368
1761479461695281700,1.48628173828125,-0.221075177192688,0.32858341932296753,-0.3174654245376587
1761479461705317600,1.496317626953125,-0.1801096796989441,0.19364160299301147,-0.11860425025224686
1761479461715353600,1.506353515625,-0.10987252742052078,0.10426086187362671,0.1722041517496109
1761479461725390600,1.516390625,-0.04203769564628601,0.04671575129032135,0.5123403072357178
1761479461735426600,1.526426513671875,0.04171312600374222,0.08887652307748795,0.8714686036109924
1761479461745462800,1.536462890625,0.1117333248257637,0.19903774559497833,1.1166216135025024
1761479461755498800,1.546498779296875,0.148966446518898,0.26095518469810486,1.1643635034561157
1761479461765534700,1.55653466796875,0.24700433015823364,0.31037917733192444,1.0140371322631836
1761479461775570700,1.56657080078125,0.44423219561576843,0.24380281567573547,0.7676632404327393
1761479461785607700,1.576607666015625,0.6390242576599121,-0.13436259329319,0.4281758666038513
1761479461795644000,1.586643798828125,0.757684588432312,-0.618733823299408,-0.03706958517432213
1761479461805679900,1.596679931640625,0.8513391017913818,-0.9071609973907471,-0.4695607125759125
1761479461815715800,1.6067158203125,0.8680416345596313,-0.7631611824035645,-0.7062198519706726
1761479461825751800,1.616751708984375,0.8086828589439392,-0.38813573122024536,-0.6366444826126099
1761479461835787800,1.626787841796875,0.5024299621582031,-0.17761072516441345,-0.3033331036567688
1761479461845824800,1.63682470703125,-0.042080946266651154,-0.09499085694551468,-0.036899060010910034
1761479461855860700,1.64686083984375,-0.7542799711227417,0.0477825403213501,0.005189003888517618
1761479461865896700,1.656896728515625,-1.4279818534851074,0.11563213169574738,-0.14836005866527557
1761479461875932700,1.6669326171875,-1.7150205373764038,0.09652820974588394,-0.3544035255908966
1761479461885968600,1.67696875,-1.4435882568359375,0.13958735764026642,-0.46962442994117737
1761479461896004600,1.687004638671875,-0.8258411288261414,0.13844619691371918,-0.4780344069004059
1761479461906041600,1.69704150390625,-0.20688532292842865,0.2105012685060501,-0.5677698254585266
1761479461916077600,1.70707763671875,0.07847505062818527,0.5286073684692383,-0.8376758694648743
1761479461926113500,1.717113525390625,-0.08436790853738785,0.826193630695343,-1.181404948234558
1761479461936149500,1.7271494140625,-0.6014062166213989,0.8437641263008118,-1.3555940389633179
1761479461946185500,1.737185546875,-1.1417394876480103,0.7170413732528687,-1.2638273239135742
1761479461956221700,1.7472216796875,-1.3743386268615723,0.7240995764732361,-0.9625041484832764
1761479461966258700,1.7572587890625,-1.2378400564193726,0.7824674844741821,-0.5940542221069336
1761479461976294700,1.767294677734375,-0.8585963249206543,0.6585116982460022,-0.30037492513656616
1761479461986330600,1.77733056640625,-0.3048882484436035,0.4503335654735565,-0.12562018632888794
1761479461996366800,1.787366943359375,0.20463916659355164,0.15994992852210999,-0.10355269908905029
1761479462006403000,1.797403076171875,0.5580533742904663,-0.052227262407541275,-0.16605445742607117
1761479462016439000,1.80743896484375,0.7011231780052185,-0.0846475213766098,-0.23204518854618073
1761479462026476000,1.81747607421875,0.6779825091362,-0.01535919588059187,-0.2641383111476898
1761479462036512300,1.82751220703125,0.56590735912323,0.06628293544054031,-0.23933042585849762
1761479462046548200,1.83754833984375,0.3950234651565552,0.06334803253412247,-0.16735312342643738
1761479462056584200,1.847584228515625,0.2181733399629593,-0.03317451477050781,-0.059272460639476776
1761479462066620200,1.8576201171875,0.09103003144264221,-0.19550591707229614,0.11455246061086655
1761479462076656000,1.86765625,0.03946218267083168,-0.2879706025123596,0.35533392429351807
1761479462086693000,1.877693115234375,-0.011300111189484596,-0.3270604610443115,0.6273313164710999
1761479462096729000,1.88772900390625,-0.04211847484111786,-0.2860528528690338,0.8794341087341309
1761479462106765000,1.89776513671875,-0.08577309548854828,-0.26024141907691956,1.0827383995056152
1761479462116801000,1.907801025390625,-0.14615386724472046,-0.35859063267707825,1.176352858543396
1761479462126837000,1.9178369140625,-0.20102952420711517,-0.47108474373817444,1.0442185401916504
1761479462136873000,1.927873046875,-0.24294021725654602,-0.43974971771240234,0.6544701457023621
1761479462146910000,1.937909912109375,-0.3422011137008667,-0.3330278992652893,0.12975181639194489
1761479462156946000,1.94794580078125,-0.3311133086681366,-0.024703364819288254,-0.344020277261734
1761479462166982000,1.95798193359375,-0.2168092280626297,0.29613053798675537,-0.6689706444740295
1761479462177017900,1.968017822265625,-0.06987199187278748,0.4807392656803131,-0.8106699585914612
1761479462187053800,1.9780537109375,0.041603460907936096,0.5203492045402527,-0.7376584410667419
1761479462197089800,1.98808984375,0.1588888168334961,0.36714473366737366,-0.49564236402511597
1761479462207127000,1.998126953125,0.25592905282974243,0.2204354703426361,-0.17828264832496643
1761479462217163000,2.0081630859375,0.29051896929740906,0.19254711270332336,0.14119493961334229
1761479462227199000,2.018198974609375,0.25287726521492004,0.14496579766273499,0.4229939877986908
1761479462237235000,2.02823486328125,0.2296377271413803,0.08389391005039215,0.6291618347167969
1761479462247271200,2.038271240234375,0.24584715068340302,0.04340542107820511,0.7646580934524536
1761479462257307100,2.04830712890625,0.30483031272888184,0.009325212799012661,0.8074201941490173
1761479462267344000,2.05834375,0.4378146529197693,0.03458690643310547,0.7377695441246033
1761479462277380000,2.068380126953125,0.5905616283416748,-0.0031037493608891964,0.5240130424499512
1761479462287416000,2.078416015625,0.726845383644104,-0.03894361853599548,0.15303096175193787
1761479462297452000,2.0884521484375,0.8313171863555908,-0.0970306247472763,-0.23666061460971832
1761479462307488000,2.098488037109375,0.8972510099411011,-0.1752077341079712,-0.5064899325370789
1761479462317524000,2.10852392578125,0.8590719699859619,-0.16977861523628235,-0.6983762979507446
1761479462327561200,2.118561279296875,0.6995100975036621,0.038088634610176086,-0.9157315492630005
1761479462337597200,2.12859716796875,0.41812020540237427,0.5048379898071289,-1.2036858797073364
1761479462347633200,2.138633056640625,-0.15195322036743164,0.8751408457756042,-1.3952605724334717
1761479462357669000,2.148669189453125,-0.9372531175613403,0.9108588695526123,-1.3979634046554565
1761479462367705000,2.158705078125,-1.692034125328064,0.6810296177864075,-1.1586295366287231
1761479462377741000,2.168740966796875,-2.035492420196533,0.3215489387512207,-0.8001044988632202
1761479462387778000,2.178778076171875,-1.7836753129959106,0.12429608404636383,-0.6025382876396179
1761479462397814000,2.18881396484375,-1.1644011735916138,0.15996167063713074,-0.7726463675498962
1761479462407850000,2.19885009765625,-0.6765457987785339,0.31356871128082275,-1.1646006107330322
1761479462417886000,2.208885986328125,-0.6120128631591797,0.5269176959991455,-1.4155871868133545
1761479462427922000,2.218921875,-0.793175995349884,0.5312982201576233,-1.1884799003601074
1761479462437958000,2.2289580078125,-0.9502825140953064,0.4632386863231659,-0.6454371809959412
1761479462447995000,2.238994873046875,-0.9919783473014832,0.47755298018455505,-0.11377407610416412
1761479462458030800,2.24903076171875,-0.9837827086448669,0.5532287955284119,0.2162725329399109
1761479462468066800,2.25906689453125,-0.7350584268569946,0.603714644908905,0.3537936508655548
1761479462478103000,2.26910302734375,-0.4650213420391083,0.5091543197631836,0.5050652027130127
1761479462488139000,2.279138916015625,-0.23194380104541779,0.1089480072259903,0.6251271367073059
1761479462498175200,2.28917529296875,-0.04995002597570419,-0.15692201256752014,0.5907620191574097
1761479462508212000,2.2992119140625,0.021573174744844437,-0.20878775417804718,0.37230974435806274
1761479462518248200,2.309248291015625,0.08237767219543457,-0.23176045715808868,0.04276914522051811
1761479462528284200,2.3192841796875,0.1782630831003189,-0.29530754685401917,-0.21279440820217133
1761479462538320100,2.329320068359375,0.3623034954071045,-0.3906404376029968,-0.243956059217453
1761479462548356000,2.339356201171875,0.5643649101257324,-0.5204811096191406,-0.029720675200223923
1761479462558392000,2.34939208984375,0.6992889046669006,-0.761348307132721,0.39387479424476624
1761479462568429000,2.359428955078125,0.847298800945282,-0.8218594193458557,0.819057285785675
1761479462578465000,2.369465087890625,0.9495713710784912,-0.7250795960426331,1.1533050537109375
1761479462588501000,2.3795009765625,0.8596981167793274,-0.7129164934158325,1.437732219696045
1761479462598537000,2.389536865234375,0.6243138313293457,-0.6500270366668701,1.5968585014343262
1761479462608573000,2.399572998046875,0.3168303668498993,-0.5775631070137024,1.6274880170822144
1761479462618609000,2.40960888671875,-0.033636823296546936,-0.5902668833732605,1.524324893951416
1761479462628646100,2.419646240234375,-0.28717944025993347,-0.6000629663467407,1.2812600135803223
1761479462638682000,2.42968212890625,-0.36142197251319885,-0.5289900898933411,0.8924387097358704
1761479462648718000,2.439718017578125,-0.2759190499782562,-0.40603432059288025,0.41960409283638
1761479462658754000,2.449754150390625,-0.0856524258852005,-0.2824364900588989,-0.02307000569999218
1761479462668790000,2.4597900390625,0.12774798274040222,-0.2521435618400574,-0.32695719599723816
1761479462678826000,2.469825927734375,0.2865847647190094,-0.22470207512378693,-0.4858185052871704
1761479462688863000,2.479863037109375,0.3961881399154663,-0.15681034326553345,-0.5255653858184814
1761479462698899000,2.48989892578125,0.43598294258117676,-0.027221713215112686,-0.46414169669151306
1761479462708935000,2.499934814453125,0.3845376968383789,0.10582710057497025,-0.3164425194263458
1761479462718971100,2.50997119140625,0.27998384833335876,0.1276080310344696,-0.07368019223213196
1761479462729007000,2.520007080078125,0.1509806364774704,0.0011737844906747341,0.236343652009964
1761479462739043000,2.53004296875,0.06738986819982529,-0.08023559302091599,0.5656381845474243
1761479462749080000,2.540080078125,0.02515193074941635,-0.06895475834608078,0.8566170930862427
1761479462759116000,2.550115966796875,0.0498247854411602,-0.032684363424777985,1.0377784967422485
1761479462769152000,2.560152099609375,0.1608732044696808,0.043667830526828766,1.0646913051605225
1761479462779188000,2.57018798828125,0.3192596435546875,0.0840727686882019,0.8761149048805237
1761479462789224000,2.580223876953125,0.5497943758964539,-0.020379064604640007,0.5123776793479919
1761479462799260200,2.59026025390625,0.8260254263877869,-0.21624469757080078,0.08474435657262802
1761479462809296100,2.600296142578125,0.9368688464164734,-0.26548340916633606,-0.30715179443359375
1761479462819333000,2.6103330078125,0.8222583532333374,-0.27164727449417114,-0.5977569818496704
1761479462829369000,2.620369140625,0.6346297264099121,-0.22391584515571594,-0.8913615942001343
1761479462839405000,2.630405029296875,0.4601585566997528,0.03309090808033943,-1.181721568107605
1761479462849441000,2.64044091796875,0.3643990755081177,0.4709186851978302,-1.483749508857727
1761479462859477000,2.65047705078125,0.17161202430725098,0.8319197297096252,-1.7035186290740967
1761479462869513000,2.660512939453125,-0.43304896354675293,0.6211352944374084,-1.5830903053283691
1761479462879550000,2.670550048828125,-1.1914740800857544,0.3183083236217499,-1.2185556888580322
1761479462889586000,2.6805859375,-1.8304024934768677,0.15610730648040771,-0.6929103136062622
1761479462899622000,2.690621826171875,-1.9671651124954224,0.15013836324214935,-0.0831712856888771
1761479462909657900,2.700657958984375,-1.5939688682556152,0.11828698962926865,0.4698997139930725
1761479462919693800,2.71069384765625,-0.9393956065177917,-0.07442360371351242,0.7464130520820618
1761479462929730000,2.72072998046875,-0.29717767238616943,-0.3544333577156067,0.6168585419654846
1761479462939767000,2.73076708984375,0.10724518448114395,-0.3725053071975708,0.10069822520017624
1761479462949803000,2.740802978515625,0.22501429915428162,-0.1178659051656723,-0.49468669295310974
1761479462959839200,2.750839111328125,0.10435234010219574,0.13160064816474915,-0.845352828502655
1761479462969875200,2.760875244140625,-0.12163259088993073,0.32777148485183716,-0.8305178284645081
1761479462979911200,2.7709111328125,-0.34823673963546753,0.4773266315460205,-0.6105207204818726
1761479462989947100,2.780947021484375,-0.528969943523407,0.5770357251167297,-0.33721470832824707
1761479462999984000,2.790984130859375,-0.5569453835487366,0.6088709235191345,-0.04156175255775452
1761479463010018600,2.8010185546875,-0.4252082109451294,0.6185556650161743,0.30040696263313293
1761479463020054500,2.811054443359375,-0.08426418155431747,0.6285384893417358,0.656458854675293
1761479463030090800,2.8210908203125,0.31575530767440796,0.5917993187904358,0.9997116327285767
1761479463040126700,2.831126708984375,0.6400558948516846,0.3010860085487366,1.2495921850204468
1761479463050162700,2.84116259765625,0.8311043381690979,-0.12393678724765778,1.3133955001831055
1761479463060199700,2.85119970703125,0.8660812377929688,-0.3480425775051117,1.1328378915786743
1761479463070235600,2.861235595703125,0.7506909370422363,-0.39939719438552856,0.8278861045837402
1761479463080271600,2.871271728515625,0.548083484172821,-0.2773200273513794,0.5059229731559753
1761479463090307800,2.881307861328125,0.3131791353225708,-0.09688609093427658,0.2849818170070648
1761479463100343800,2.89134375,0.06612993031740189,0.011757032945752144,0.20646226406097412
1761479463110379800,2.9013798828125,-0.13398952782154083,0.039614610373973846,0.24359798431396484
1761479463120415700,2.911415771484375,-0.16689342260360718,0.03619511425495148,0.3863801956176758
1761479463130452700,2.92145263671875,-0.16613289713859558,-0.0014804629608988762,0.46140146255493164
1761479463140488700,2.93148876953125,-0.055999211966991425,0.007619558367878199,0.46249282360076904
1761479463150524700,2.941524658203125,0.13054752349853516,-0.06528276205062866,0.3737552762031555
1761479463160560600,2.951560546875,0.3369923233985901,-0.1342349350452423,0.1759849488735199
1761479463170596600,2.9615966796875,0.4899275302886963,-0.1367109715938568,-0.0385778583586216
1761479463180632600,2.971632568359375,0.5395145416259766,-0.09650256484746933,-0.19898538291454315
1761479463190669800,2.981669921875,0.45191583037376404,-0.06930059939622879,-0.27019545435905457
1761479463200705800,2.991705810546875,0.29838138818740845,-0.0023940028622746468,-0.25810950994491577
1761479463210741800,3.00174169921875,0.14946767687797546,0.08893440663814545,-0.18493187427520752
1761479463220777700,3.01177783203125,0.051634326577186584,0.21765616536140442,-0.04633963853120804
1761479463230813700,3.021813720703125,0.06634964048862457,0.23673847317695618,0.14799895882606506
1761479463240849700,3.031849609375,0.14047499001026154,0.11805763840675354,0.37760016322135925
1761479463250886700,3.04188671875,0.2848479747772217,-0.01915910840034485,0.5901328325271606
1761479463260922600,3.051922607421875,0.4161370098590851,-0.20637880265712738,0.757245659828186
1761479463270958600,3.06195849609375,0.4543585181236267,-0.40906018018722534,0.8848584294319153
1761479463280994600,3.07199462890625,0.37842434644699097,-0.4686886668205261,0.9131872653961182
1761479463291030500,3.082030517578125,0.2870807647705078,-0.44234392046928406,0.8038867712020874
1761479463301066800,3.092066650390625,0.265135258436203,-0.40977054834365845,0.6128153800964355
1761479463311103500,3.102103515625,0.478619247674942,-0.4944874048233032,0.35956186056137085
1761479463321139500,3.112139404296875,0.7945513725280762,-0.6839467883110046,0.0026793666183948517
1761479463331175700,3.12217578125,1.0899807214736938,-0.8478853106498718,-0.3758995234966278
1761479463341212000,3.1322119140625,1.3197665214538574,-0.8894602060317993,-0.6914716362953186
1761479463351248000,3.142247802734375,1.4423341751098633,-0.66534823179245,-0.8415557742118835
1761479463361283800,3.152283935546875,1.2891677618026733,-0.07541573792695999,-0.8909316062927246
1761479463371319800,3.16231982421875,0.5331226587295532,0.26595762372016907,-0.8666688799858093
1761479463381356800,3.172356689453125,-0.5975721478462219,0.3462418019771576,-0.8504363894462585
1761479463391392800,3.182392822265625,-1.5574570894241333,0.31374868750572205,-0.6982133388519287
1761479463401428700,3.1924287109375,-1.8735929727554321,0.3314097225666046,-0.4098585247993469
1761479463411464700,3.202464599609375,-1.5456955432891846,0.15200990438461304,-0.2226477712392807
1761479463421500700,3.212500732421875,-0.7941904664039612,-0.04682488739490509,-0.31021809577941895
1761479463431536600,3.22253662109375,-0.0776946172118187,0.002267657546326518,-0.6346423029899597
1761479463441573600,3.23257373046875,0.20611658692359924,0.23955877125263214,-1.0093101263046265
1761479463451609600,3.242609619140625,0.04241526126861572,0.4177073538303375,-1.182765245437622
1761479463461645600,3.2526455078125,-0.37722355127334595,0.47689396142959595,-1.1102124452590942
1761479463471681500,3.262681640625,-0.8206208944320679,0.5883257389068604,-0.9275303483009338
1761479463481717500,3.272717529296875,-1.1232271194458008,0.6575679779052734,-0.6620358228683472
1761479463491753500,3.28275341796875,-1.150604486465454,0.6604918837547302,-0.41996970772743225
1761479463501790700,3.292790771484375,-0.8075799942016602,0.5157283544540405,-0.16895262897014618
1761479463511826700,3.30282666015625,-0.4217282831668854,0.053594544529914856,0.05928342044353485
1761479463521862700,3.312862548828125,-0.10729097574949265,-0.32189759612083435,0.06509870290756226
1761479463531898600,3.322898681640625,0.11520785093307495,-0.24413739144802094,-0.259738028049469
1761479463541934800,3.332934814453125,0.20719477534294128,0.20424732565879822,-0.8096083998680115
1761479463551970800,3.342970703125,0.22083915770053864,0.7136803865432739,-1.2763673067092896
1761479463562006800,3.3530068359375,0.1496608555316925,0.7226133942604065,-1.2657732963562012
1761479463572043800,3.363043701171875,0.08928629010915756,0.5227125883102417,-1.007851243019104
1761479463582079700,3.373079833984375,0.03519429266452789,0.40895700454711914,-0.6215012073516846
1761479463592115700,3.38311572265625,0.013812217861413956,0.2843696177005768,-0.1779964566230774
1761479463602151700,3.393151611328125,0.06851354241371155,0.143083855509758,0.2694697380065918
1761479463612187600,3.403187744140625,0.13283208012580872,0.0008372226729989052,0.6813930869102478
1761479463622223600,3.4132236328125,0.16331781446933746,-0.1321096420288086,1.05316162109375
1761479463632260900,3.4232607421875,0.11773624271154404,-0.2075219750404358,1.3326137065887451
1761479463642296800,3.433296875,-0.021414194256067276,-0.29979971051216125,1.4909359216690063
1761479463652332800,3.443332763671875,-0.17538045346736908,-0.3765133321285248,1.5210503339767456
1761479463662368800,3.45336865234375,-0.26834020018577576,-0.383333683013916,1.4140636920928955
1761479463672404700,3.46340478515625,-0.2732495665550232,-0.334442138671875,1.1759988069534302
1761479463682440700,3.473440673828125,-0.1935427337884903,-0.27131858468055725,0.8446611166000366
1761479463692476700,3.4834765625,-0.04185742139816284,-0.2296089082956314,0.5063120722770691
1761479463702513700,3.493513671875,0.14364773035049438,-0.23350536823272705,0.2425280660390854
1761479463712549600,3.503549560546875,0.3265087604522705,-0.16643959283828735,0.11670054495334625
1761479463722585600,3.513585693359375,0.4652179181575775,-0.08476922661066055,0.12621095776557922
1761479463732621600,3.52362158203125,0.5189782977104187,-0.07940986007452011,0.26455044746398926
1761479463742657500,3.533657470703125,0.5102217793464661,-0.07191518694162369,0.47374388575553894
1761479463752693800,3.54369384765625,0.47119206190109253,-0.03892592713236809,0.6718547344207764
1761479463762730500,3.55373046875,0.4636278748512268,-0.07372519373893738,0.8107324242591858
1761479463772766500,3.563766357421875,0.4881925582885742,-0.22991448640823364,0.8717056512832642
1761479463782802700,3.573802734375,0.5614475607872009,-0.3568247854709625,0.8223679065704346
1761479463792838700,3.583838623046875,0.6867751479148865,-0.46821439266204834,0.6248679161071777
1761479463802875000,3.593875,0.8612270951271057,-0.613427996635437,0.3224763572216034
1761479463812910800,3.603910888671875,1.0399097204208374,-0.7389804720878601,0.0369691476225853
1761479463822947800,3.61394775390625,1.0964531898498535,-0.7095043659210205,-0.10081668198108673
1761479463832983800,3.62398388671875,1.13106369972229,-0.4460233449935913,-0.062291957437992096
1761479463843019800,3.634019775390625,1.0533316135406494,-0.04189719259738922,0.00999821349978447
1761479463853055700,3.6440556640625,0.8530733585357666,0.2153298258781433,-0.053873974829912186
1761479463863091700,3.654091796875,0.5273327827453613,0.3893527388572693,-0.3921891748905182
1761479463873127700,3.664127685546875,-0.09074721485376358,0.42171362042427063,-0.9673254489898682
1761479463883163600,3.67416357421875,-0.9897398948669434,0.31184491515159607,-1.4615247249603271
1761479463893200600,3.68420068359375,-1.9390687942504883,-0.011717261746525764,-1.524200439453125
1761479463903236600,3.694236572265625,-2.4683361053466797,-0.06389497965574265,-1.1931087970733643
1761479463913272600,3.7042724609375,-2.4183409214019775,0.10638412833213806,-0.6303737759590149
1761479463923308500,3.71430859375,-1.9212660789489746,0.16793057322502136,-0.06490051746368408
1761479463933344500,3.724344482421875,-1.2674401998519897,0.035459380596876144,0.20856748521327972
1761479463943380500,3.73438037109375,-0.8395335674285889,-0.21542397141456604,0.03528786078095436
1761479463953416700,3.744416748046875,-0.7161312699317932,-0.16864576935768127,-0.4832565188407898
1761479463963453700,3.75445361328125,-0.8853895664215088,0.1862287074327469,-0.989149272441864
1761479463973489700,3.76448974609375,-1.1705294847488403,0.41040879487991333,-1.132386565208435
1761479463983525600,3.774525634765625,-1.2735199928283691,0.6720601320266724,-0.9294100403785706
1761479463993561900,3.784561767578125,-1.0431208610534668,1.063157320022583,-0.4796605706214905
1761479464003598800,3.794598876953125,-0.7001051306724548,1.0708428621292114,0.14647094905376434
1761479464013634800,3.804634765625,-0.33804091811180115,0.9090332984924316,0.6754077076911926
1761479464023672000,3.814672119140625,-0.08056782186031342,0.6211557388305664,1.058687686920166
1761479464033708000,3.8247080078125,0.14721599221229553,0.3147107660770416,1.2356451749801636
1761479464043744000,3.834743896484375,0.28046751022338867,-0.030670851469039917,1.1623491048812866
1761479464053780000,3.844780029296875,0.47550058364868164,-0.024981264024972916,0.8914249539375305
1761479464063816200,3.854816162109375,0.5908889770507812,0.03150917589664459,0.5814162492752075
1761479464073852200,3.86485205078125,0.6412232518196106,0.066016286611557,0.3390220105648041
1761479464083889000,3.874888916015625,0.5950658917427063,0.007755912374705076,0.2547963559627533
1761479464093925000,3.884925048828125,0.48308637738227844,-0.06481907516717911,0.23956342041492462
1761479464103961000,3.894961181640625,0.4074523448944092,-0.06769342720508575,0.2920337915420532
1761479464113997000,3.9049970703125,0.40914246439933777,0.018286656588315964,0.39924904704093933
1761479464124033000,3.915032958984375,0.42134106159210205,0.09742169082164764,0.4846755266189575
1761479464134069000,3.925069091796875,0.3838506042957306,0.08980709314346313,0.5278794169425964
1761479464144105000,3.93510498046875,0.29264745116233826,-0.05297455936670303,0.4727916419506073
1761479464154142200,3.94514208984375,0.21154633164405823,-0.07733453065156937,0.23791353404521942
1761479464164178200,3.95517822265625,0.18863435089588165,0.08172276616096497,-0.09281830489635468
1761479464174214100,3.965214111328125,0.20137177407741547,0.24017146229743958,-0.41662198305130005
1761479464184250000,3.97525,0.2520386874675751,0.3326824903488159,-0.656774640083313
1761479464194286000,3.9852861328125,0.3103848695755005,0.42627424001693726,-0.7770739197731018
1761479464204322000,3.995322021484375,0.32399043440818787,0.46532922983169556,-0.7528316974639893
1761479464214359000,4.005359130859375,0.2715376913547516,0.3746189773082733,-0.6163083910942078
1761479464224395000,4.01539501953125,0.27332332730293274,0.37676069140434265,-0.38907045125961304
1761479464234431000,4.025430908203125,0.32879361510276794,0.36099857091903687,-0.07899050414562225
1761479464244467000,4.035467041015625,0.4035989046096802,0.2301795780658722,0.29123175144195557
1761479464254503000,4.0455029296875,0.43184784054756165,0.0888136550784111,0.6311438083648682
1761479464264539000,4.055538818359375,0.36986783146858215,-0.07374995946884155,0.8598067760467529
1761479464274575000,4.0655751953125,0.3131439983844757,-0.20477169752120972,0.952427327632904
1761479464284611800,4.07561181640625,0.305610716342926,-0.23621617257595062,0.9142173528671265
1761479464294647800,4.085647705078125,0.3732827305793762,-0.295450896024704,0.718320369720459
1761479464304684000,4.09568408203125,0.530270516872406,-0.46922722458839417,0.3921014964580536
1761479464314720000,4.105719970703125,0.6765585541725159,-0.5444375872612,-0.004401909653097391
1761479464324756000,4.115755859375,0.7331027388572693,-0.40674257278442383,-0.34960272908210754
1761479464334792200,4.125792236328125,0.5907211899757385,-0.14035804569721222,-0.528769314289093
1761479464344828200,4.135828125,0.31860658526420593,-0.024602141231298447,-0.5257695317268372
1761479464354865200,4.145865234375,0.08007027208805084,-0.0994466096162796,-0.42660754919052124
1761479464364901000,4.155901123046875,-0.019085340201854706,-0.35027509927749634,-0.42909494042396545
1761479464374937000,4.16593701171875,0.04971132054924965,-0.4505792260169983,-0.667718231678009
1761479464384973000,4.17597314453125,0.04536610469222069,-0.18142282962799072,-1.0989444255828857
1761479464395009000,4.186009033203125,-0.2933134436607361,0.0917888656258583,-1.3824325799942017
1761479464405045000,4.196044921875,-0.8917893767356873,0.1423436552286148,-1.3991135358810425
1761479464415082000,4.20608203125,-1.5493751764297485,0.17355456948280334,-1.34931480884552
1761479464425118000,4.216117919921875,-1.846710205078125,0.3941415250301361,-1.3683258295059204
1761479464435154000,4.22615380859375,-1.5880447626113892,0.696998119354248,-1.4276361465454102
1761479464445190000,4.23618994140625,-1.0114065408706665,0.7535703182220459,-1.4690914154052734
1761479464455225900,4.246225830078125,-0.5402633547782898,0.49496567249298096,-1.4342762231826782
1761479464465261800,4.25626171875,-0.34830087423324585,0.18661873042583466,-1.1565455198287964
1761479464475298000,4.266298095703125,-0.32812923192977905,0.0020306361839175224,-0.6351491212844849
1761479464485335000,4.2763349609375,-0.3655727505683899,0.04622526094317436,-0.12477878481149673
1761479464495371000,4.28637109375,-0.3182657063007355,0.20493996143341064,0.22568728029727936
1761479464505407000,4.296406982421875,-0.16400715708732605,0.300060898065567,0.34833914041519165
1761479464515443200,4.306443115234375,0.0915493592619896,0.20335757732391357,0.31958723068237305
1761479464525479200,4.316479248046875,0.3888516128063202,0.06513898074626923,0.20901890099048615
1761479464535515100,4.32651513671875,0.6029869914054871,-0.16931624710559845,0.11099130660295486
1761479464545551000,4.336551025390625,0.6703628301620483,-0.4935401380062103,0.03258359059691429
1761479464555588000,4.346588134765625,0.6139258742332458,-0.6769185662269592,-0.027559062466025352
1761479464565624000,4.3566240234375,0.5224121809005737,-0.6163673400878906,-0.06064058467745781
1761479464575660000,4.366659912109375,0.5070576667785645,-0.3456856310367584,-0.055903948843479156
1761479464585696000,4.376696044921875,0.5514664053916931,-0.05955132469534874,-0.02949897199869156
1761479464595732000,4.38673193359375,0.5825598835945129,0.1454102098941803,0.0634106695652008
1761479464605768000,4.396767822265625,0.5704105496406555,0.19286347925662994,0.23936252295970917
1761479464615805000,4.406804931640625,0.49949753284454346,0.11614485830068588,0.4361969530582428
1761479464625841200,4.416841064453125,0.2913312613964081,-0.019962649792432785,0.5446363091468811
1761479464635877000,4.426877197265625,-0.05207057297229767,-0.21372252702713013,0.5375232696533203
1761479464645913000,4.4369130859375,-0.3700557351112366,-0.36927351355552673,0.42528676986694336
1761479464655949000,4.446948974609375,-0.5181904435157776,-0.3231546878814697,0.22228342294692993
1761479464665985000,4.456985107421875,-0.5121184587478638,-0.1453910768032074,-0.006519928574562073
1761479464676021000,4.46702099609375,-0.37088295817375183,0.059604108333587646,-0.2195790559053421
1761479464686058000,4.47705810546875,-0.1275254189968109,0.23383262753486633,-0.3576919138431549
1761479464696094000,4.487093994140625,0.14977233111858368,0.3390690088272095,-0.35429647564888
1761479464706130000,4.4971298828125,0.3195144832134247,0.3382314443588257,-0.21138645708560944
1761479464716166100,4.507166259765625,0.3566947281360626,0.2902304232120514,-0.024665527045726776
1761479464726202000,4.5172021484375,0.2832263708114624,0.22944776713848114,0.14297008514404297
1761479464736238000,4.527238037109375,0.19028529524803162,0.13944540917873383,0.33404234051704407
1761479464746275000,4.537275146484375,0.10004141926765442,0.07598307728767395,0.5557659268379211
1761479464756311000,4.54731103515625,0.039528872817754745,0.027379944920539856,0.8136188387870789
1761479464766347000,4.557346923828125,-0.030269116163253784,-0.012042295187711716,1.0590206384658813
1761479464776383000,4.567383056640625,-0.13853247463703156,-0.12276293337345123,1.2190892696380615
1761479464786419000,4.5774189453125,-0.2535315155982971,-0.33070680499076843,1.3039569854736328
1761479464796456200,4.587456298828125,-0.31491050124168396,-0.5738838911056519,1.3053100109100342
1761479464806492200,4.5974921875,-0.19708852469921112,-0.7835207581520081,1.2520899772644043
1761479464816528100,4.607528076171875,0.04957527294754982,-0.9499581456184387,1.0879417657852173
1761479464826564000,4.617564208984375,0.2695569097995758,-1.0234547853469849,0.7805566787719727
1761479464836600000,4.62760009765625,0.2868753671646118,-0.6386900544166565,0.1947983205318451
1761479464846637000,4.637636962890625,0.02442161738872528,0.037943754345178604,-0.558384120464325
1761479464856673000,4.647673095703125,-0.3377624452114105,0.46369683742523193,-1.1630584001541138
1761479464866709000,4.657708984375,-0.42223551869392395,0.5279690027236938,-1.5787639617919922
1761479464876745000,4.667744873046875,-0.17880691587924957,0.292296439409256,-1.7343934774398804
1761479464886781000,4.677781005859375,0.1925376057624817,-0.18907073140144348,-1.5197921991348267
1761479464896817000,4.68781689453125,0.12697377800941467,-0.17003284394741058,-1.2446824312210083
1761479464906854000,4.69785400390625,-0.5771540403366089,0.21668849885463715,-1.0190000534057617
1761479464916890000,4.70789013671875,-1.6851621866226196,0.5339394211769104,-0.8109104037284851
1761479464926926000,4.717926025390625,-2.4788005352020264,0.7737081050872803,-0.5934060215950012
1761479464936962000,4.727962158203125,-2.467348337173462,0.8627507090568542,-0.32383623719215393
1761479464946998000,4.737998046875,-1.8024554252624512,0.8599368333816528,-0.08334479480981827
1761479464957034000,4.748033935546875,-0.8551850914955139,0.8079128861427307,-0.07144706696271896
1761479464967070200,4.7580703125,-0.3009226322174072,0.3243584930896759,0.022651471197605133
1761479464977107000,4.76810693359375,0.01694071851670742,-0.06572321057319641,0.08564744144678116
1761479464987143000,4.778142822265625,0.16570594906806946,-0.1033446192741394,0.046824146062135696
1761479464997179100,4.78817919921875,0.15408553183078766,0.15682479739189148,-0.0397946760058403
1761479465007214600,4.798214599609375,0.05590143799781799,0.5039291977882385,-0.13795453310012817
1761479465017250600,4.80825048828125,-0.03992495685815811,0.7328321933746338,-0.18773780763149261
1761479465027286500,4.81828662109375,0.0059874095022678375,0.7809946537017822,-0.16875478625297546
1761479465037323500,4.828323486328125,0.23952582478523254,0.6289633512496948,-0.05816303566098213
1761479465047359500,4.838359375,0.5938751101493835,0.33478230237960815,0.14150959253311157
1761479465057395500,4.8483955078125,0.9542309641838074,0.1183033213019371,0.3914201557636261
1761479465067431400,4.858431396484375,1.1495405435562134,-0.017001239582896233,0.5773559212684631
1761479465077467400,4.86846728515625,1.1299010515213013,-0.17670993506908417,0.7074799537658691
1761479465087503400,4.87850341796875,1.0123860836029053,-0.2708052694797516,0.7280454635620117
1761479465097539300,4.888539306640625,0.8698562383651733,-0.30767303705215454,0.6643847227096558
1761479465107576300,4.898576416015625,0.7731150388717651,-0.252462238073349,0.5422079563140869
1761479465117612300,4.9086123046875,0.70230633020401,-0.1564497947692871,0.41919365525245667
1761479465127648300,4.918648193359375,0.5920567512512207,-0.1944163590669632,0.3665565550327301
1761479465137684200,4.928684326171875,0.4518374502658844,-0.24448157846927643,0.3569054901599884
1761479465147720400,4.938720458984375,0.2783929705619812,-0.29005783796310425,0.3680391013622284
1761479465157756400,4.94875634765625,0.12294714152812958,-0.35153675079345703,0.29957300424575806
1761479465167793400,4.95879345703125,0.03852226957678795,-0.3809511065483093,0.15995362401008606
1761479465177829600,4.96882958984375,0.01725326105952263,-0.39070427417755127,0.012655450962483883
1761479465187865600,4.978865478515625,0.04363400116562843,-0.4379764497280121,-0.033814579248428345
1761479465197901600,4.988901611328125,0.07575071603059769,-0.3126456141471863,-0.06757046282291412
1761479465207937500,4.9989375,0.09715800732374191,-0.13844771683216095,-0.06701093167066574
1761479465217973500,5.008973388671875,0.08400361239910126,0.0688326358795166,-0.03558649122714996
1761479465228010500,5.019010498046875,0.03305068239569664,0.27884817123413086,-0.025298966094851494
1761479465238046500,5.02904638671875,-0.015533359721302986,0.24684922397136688,0.10953940451145172
1761479465248082400,5.03908251953125,-0.05736203119158745,0.12402716279029846,0.3109143078327179
1761479465258118400,5.049118408203125,-0.0983741506934166,-0.07268083095550537,0.5167748332023621
1761479465268154400,5.059154296875,-0.10631302744150162,-0.23500129580497742,0.6864591836929321
1761479465278190300,5.0691904296875,-0.05166896432638168,-0.30915623903274536,0.8303292989730835
1761479465288227600,5.0792275390625,0.046764664351940155,-0.37366998195648193,0.9886182546615601
1761479465298263600,5.089263671875,0.10822201520204544,-0.3936866223812103,1.1323972940444946
1761479465308299500,5.099299560546875,0.26218706369400024,-0.3948725163936615,1.2822380065917969
1761479465318335500,5.10933544921875,0.48258355259895325,-0.4320250451564789,1.3187127113342285
1761479465328371500,5.119371337890625,0.6656410098075867,-0.5007972121238708,1.1509711742401123
1761479465338407400,5.129407470703125,0.8220031261444092,-0.6075478792190552,0.7801722288131714
1761479465348443400,5.139443359375,0.9604385495185852,-0.6539233922958374,0.19433853030204773
1761479465358480400,5.14948046875,0.965325653553009,-0.5973659157752991,-0.4914032816886902
1761479465368516400,5.159516357421875,0.8755073547363281,-0.45941680669784546,-1.0778182744979858
1761479465378552300,5.16955224609375,0.8012195229530334,-0.20147113502025604,-1.412675380706787
1761479465388588500,5.179588623046875,0.7234296202659607,0.01431201957166195,-1.4684044122695923
1761479465398624500,5.18962451171875,0.5904796719551086,0.17730805277824402,-1.3658726215362549
1761479465408660500,5.199660400390625,0.20771069824695587,0.4097605049610138,-1.1906715631484985
1761479465418697500,5.209697509765625,-0.5868404507637024,0.42444050312042236,-0.9270800352096558
1761479465428733400,5.2197333984375,-1.2849946022033691,0.4439167380332947,-0.5739629864692688
1761479465438769400,5.229769287109375,-1.4870796203613281,0.3866003155708313,-0.0977492555975914
1761479465448805400,5.239805419921875,-1.0977404117584229,0.22184517979621887,0.3095194399356842
1761479465458841300,5.24984130859375,-0.4908713698387146,-0.10939546674489975,0.4377247393131256
1761479465468877600,5.259877685546875,-0.0546245239675045,-0.31608152389526367,0.24698542058467865
1761479465478914600,5.26991455078125,0.08227849006652832,-0.12560158967971802,-0.08791638910770416
1761479465488950500,5.279950439453125,-0.048020388931035995,0.17931996285915375,-0.23095424473285675
1761479465498986500,5.289986572265625,-0.2923845052719116,0.3985424041748047,-0.18362367153167725
1761479465509022500,5.3000224609375,-0.5739227533340454,0.4986490309238434,-0.08547312766313553
1761479465519058400,5.310058349609375,-0.6944910883903503,0.5108453035354614,0.04345764219760895
1761479465529094400,5.320094482421875,-0.6267583966255188,0.5146746635437012,0.13935594260692596
1761479465539131400,5.33013134765625,-0.42951613664627075,0.4441123306751251,0.2011169195175171
1761479465549167400,5.34016748046875,-0.13096778094768524,0.3915993273258209,0.20196567475795746
1761479465559203300,5.350203369140625,0.3079003095626831,0.28890496492385864,0.1183498352766037
1761479465569239300,5.3602392578125,0.7392120361328125,0.11794385313987732,-0.05349995195865631
1761479465579275300,5.370275146484375,1.017549991607666,-0.04805966839194298,-0.25849613547325134
1761479465589311500,5.3803115234375,1.1074020862579346,-0.19305679202079773,-0.40087032318115234
1761479465599347500,5.390347412109375,1.0072689056396484,-0.32564693689346313,-0.4257733225822449
1761479465609384400,5.400384521484375,0.7740311622619629,-0.4357934296131134,-0.3137117624282837
1761479465619420400,5.41042041015625,0.5407760143280029,-0.26709696650505066,-0.11465040594339371
1761479465629456600,5.42045654296875,0.258516401052475,-0.09967520833015442,0.18204385042190552
1761479465639492600,5.43049267578125,0.08481407165527344,-0.12117315083742142,0.49043411016464233
1761479465649528600,5.440528564453125,-0.015505339950323105,-0.24819181859493256,0.6962512135505676
1761479465659564500,5.450564453125,-0.05840509384870529,-0.3462659418582916,0.7487977743148804
1761479465669601500,5.4606015625,-0.05110803246498108,-0.42544999718666077,0.6067039966583252
1761479465679637500,5.470637451171875,-0.012744292616844177,-0.4309157729148865,0.2994800806045532
1761479465689673500,5.480673583984375,0.046297457069158554,-0.2941206395626068,-0.09686724841594696
1761479465699709400,5.49070947265625,0.11919540166854858,-0.06565075367689133,-0.4608380198478699
1761479465709745400,5.500745361328125,0.20409512519836426,0.13129107654094696,-0.6265489459037781
1761479465719781400,5.510781494140625,0.24727897346019745,0.2132929265499115,-0.5414581894874573
1761479465729818400,5.520818359375,0.20427317917346954,0.2426052838563919,-0.33749231696128845
1761479465739854300,5.530854248046875,0.06562046706676483,0.25379201769828796,-0.1291666030883789
1761479465749890300,5.540890380859375,-0.12409540265798569,0.1810419261455536,0.08099354803562164
1761479465759926500,5.550926513671875,-0.2935951352119446,0.09243398159742355,0.2601372003555298
1761479465769962500,5.56096240234375,-0.3710702061653137,0.033418867737054825,0.36501169204711914
1761479465779998500,5.57099853515625,-0.3025280237197876,-0.02062884531915188,0.4432031512260437
1761479465790034400,5.581034423828125,-0.1630135476589203,-0.10108374059200287,0.5338521003723145
1761479465800071400,5.591071533203125,-0.08142086863517761,-0.15968051552772522,0.6491683125495911
1761479465810107400,5.601107421875,-0.11358413100242615,-0.1981125921010971,0.8246541023254395
1761479465820143400,5.611143310546875,-0.2482096254825592,-0.24874407052993774,0.9820084571838379
1761479465830179300,5.621179443359375,-0.29956361651420593,-0.22340063750743866,1.0578150749206543
1761479465840215600,5.631215576171875,-0.13855776190757751,-0.1978977918624878,1.0258036851882935
1761479465850251500,5.64125146484375,0.20403234660625458,-0.14806312322616577,0.8172436356544495
1761479465860288300,5.651288330078125,0.6261963248252869,-0.11200813204050064,0.3982338309288025
1761479465870324500,5.661324462890625,0.9374753832817078,-0.2079615592956543,-0.16619518399238586
1761479465880360400,5.6713603515625,1.0275375843048096,-0.34298112988471985,-0.8429675698280334
1761479465890396400,5.681396484375,0.8812585473060608,-0.42701396346092224,-1.479763150215149
1761479465900432400,5.691432373046875,0.5599469542503357,-0.385741263628006,-1.8477985858917236
1761479465910468400,5.70146826171875,0.20610608160495758,-0.2701456844806671,-1.8696919679641724
1761479465920505600,5.711505615234375,-0.17172186076641083,0.04430783540010452,-1.5865942239761353
1761479465930541600,5.72154150390625,-0.6992173790931702,0.4907156825065613,-1.2171297073364258
1761479465940577500,5.73157763671875,-1.3685331344604492,0.8396886587142944,-0.8718882203102112
1761479465950613500,5.741613525390625,-1.8687865734100342,0.8978012204170227,-0.5406655073165894
1761479465960649500,5.7516494140625,-1.927115559577942,0.6895217299461365,-0.22576098144054413
1761479465970685400,5.761685546875,-1.584534764289856,0.24946899712085724,-0.013596798293292522
1761479465980722400,5.771722412109375,-1.0424473285675049,-0.15392382442951202,-0.07367631047964096
1761479465990758400,5.78175830078125,-0.6057693362236023,-0.1525256633758545,-0.4726460576057434
1761479466000794400,5.79179443359375,-0.5619305372238159,0.24276840686798096,-0.9764478802680969
1761479466010830600,5.80183056640625,-0.8042960166931152,0.8458465933799744,-1.238729476928711
1761479466020866600,5.811866455078125,-1.045606255531311,1.3226206302642822,-1.089626431465149
1761479466030902500,5.821902587890625,-1.070938229560852,1.496261715888977,-0.6743298172950745
1761479466040938500,5.8319384765625,-0.8073372840881348,1.4262763261795044,-0.24489998817443848
1761479466050975500,5.8419755859375,-0.37764155864715576,1.227328896522522,0.022701365873217583
1761479466061011500,5.852011474609375,0.019254304468631744,0.929571270942688,0.11069430410861969
1761479466071047400,5.86204736328125,0.38604748249053955,0.755765438079834,0.10776642709970474
1761479466081083600,5.872083740234375,0.7282573580741882,0.6527376174926758,0.09785903990268707
1761479466091119900,5.882119873046875,1.0015422105789185,0.5395623445510864,0.167742520570755
1761479466101155800,5.89215576171875,1.1302578449249268,0.39009419083595276,0.3028199374675751
1761479466111192600,5.902192626953125,1.0938243865966797,0.22856788337230682,0.3735029101371765
1761479466121228800,5.912228759765625,0.9516130089759827,0.059090904891490936,0.4445865750312805
1761479466131264800,5.9222646484375,0.8529197573661804,-0.07025536894798279,0.4834514260292053
1761479466141300700,5.93230078125,0.8558582663536072,-0.044267162680625916,0.5281452536582947
1761479466151336700,5.942336669921875,0.9413689374923706,-0.04689010977745056,0.6525223255157471
1761479466161372700,5.95237255859375,0.9220984578132629,-0.2441987246274948,0.8810969591140747
1761479466171408600,5.96240869140625,0.7720522284507751,-0.4493499994277954,1.0927224159240723
1761479466181445600,5.972445556640625,0.5257135629653931,-0.4613139033317566,1.2345633506774902
1761479466191481600,5.982481689453125,0.25402164459228516,-0.515306293964386,1.2413814067840576
1761479466201517600,5.992517578125,0.030388765037059784,-0.6690690517425537,1.065920114517212
1761479466211553500,6.002553466796875,-0.11818525940179825,-0.7233253717422485,0.7197496294975281
1761479466221589500,6.012589599609375,-0.19788503646850586,-0.5952547192573547,0.3298320472240448
1761479466231625500,6.02262548828125,-0.1940881609916687,-0.31797197461128235,-0.029646245762705803
1761479466241662700,6.032662841796875,-0.1565655916929245,-0.08155887573957443,-0.3679770529270172
1761479466251698700,6.04269873046875,-0.046322450041770935,0.05373849719762802,-0.6133947968482971
1761479466261734700,6.052734619140625,0.045269422233104706,0.10905720293521881,-0.6922532916069031
1761479466271770600,6.0627705078125,0.09021905809640884,0.14128679037094116,-0.6607659459114075
1761479466281806600,6.072806640625,0.08674832433462143,0.1343795210123062,-0.5292004942893982
1761479466291842800,6.0828427734375,0.016742076724767685,0.14958137273788452,-0.2624873220920563
1761479466301879600,6.092879638671875,-0.05370178073644638,0.22717751562595367,0.026890859007835388
1761479466311915500,6.10291552734375,-0.08214834332466125,0.1515597105026245,0.3059901297092438
1761479466321951700,6.11295166015625,-0.0709487572312355,-0.08747999370098114,0.6034026145935059
1761479466331987700,6.12298779296875,-0.06969200819730759,-0.37379616498947144,0.8557232618331909
1761479466342023700,6.133023681640625,-0.09329183399677277,-0.4629938304424286,1.0147736072540283
1761479466352059600,6.1430595703125,-0.12995289266109467,-0.31919699907302856,1.1710268259048462
1761479466362095600,6.153095703125,0.022628799080848694,-0.21545882523059845,1.2936595678329468
1761479466372132600,6.163132568359375,0.25750282406806946,-0.221673846244812,1.3817806243896484
1761479466382168600,6.17316845703125,0.4860090911388397,-0.4288610517978668,1.2966268062591553
1761479466392204800,6.183204833984375,0.6963881850242615,-0.6280710697174072,0.932406485080719
1761479466402240800,6.19324072265625,0.7419914603233337,-0.6662953495979309,0.42422807216644287
1761479466412276700,6.20327685546875,0.564226508140564,-0.7864680886268616,-0.2224375307559967
1761479466422312700,6.213312744140625,0.24422790110111237,-0.8680031299591064,-0.9002105593681335
1761479466432349700,6.223349609375,-0.05283281207084656,-0.5050736665725708,-1.390702247619629
1761479466442385700,6.2333857421875,-0.2575448155403137,0.23581169545650482,-1.7167719602584839
1761479466452421600,6.243421630859375,-0.37477049231529236,0.9036025404930115,-1.7852303981781006
1761479466462457600,6.25345751953125,-0.5926351547241211,1.2072575092315674,-1.7197355031967163
1761479466472493600,6.26349365234375,-0.9634435772895813,1.0794864892959595,-1.533720850944519
1761479466482529500,6.273529541015625,-1.3526219129562378,0.7886243462562561,-1.0883246660232544
1761479466492566500,6.28356640625,-1.5360058546066284,0.6982068419456482,-0.6052327752113342
1761479466502602500,6.2936025390625,-1.388330340385437,0.6152832508087158,-0.3492347300052643
1761479466512638500,6.303638427734375,-1.0601348876953125,0.5595763325691223,-0.43695366382598877
1761479466522674700,6.3136748046875,-0.8037391304969788,0.6736597418785095,-0.7942311763763428
1761479466532710700,6.323710693359375,-0.7223393321037292,0.8922951221466064,-0.9983789920806885
1761479466542746600,6.33374658203125,-0.7096582055091858,1.0466723442077637,-0.8037083148956299
1761479466552782600,6.343782470703125,-0.6400383710861206,1.05515718460083,-0.4767261743545532
1761479466562819800,6.35381982421875,-0.5118434429168701,0.9525198340415955,-0.28910401463508606
1761479466572855800,6.363855712890625,-0.39140674471855164,0.8655599355697632,-0.25840282440185547
1761479466582891800,6.373891845703125,-0.34887033700942993,0.8249443769454956,-0.057112906128168106
1761479466592927700,6.383927734375,-0.38714155554771423,0.6103165149688721,0.10853065550327301
1761479466602963700,6.393963623046875,-0.055812422186136246,0.8254881501197815,0.07206563651561737
1761479466612999700,6.403999755859375,0.32850220799446106,0.7260707020759583,0.11915671825408936
1761479466623036700,6.41403662109375,0.5810996890068054,0.4915071427822113,0.6948003172874451
1761479466633072600,6.42407275390625,0.7082376480102539,-0.12665672600269318,1.284005880355835
1761479466643108600,6.434108642578125,0.6473408937454224,-0.6831580996513367,1.7424604892730713
1761479466653144600,6.44414453125,0.5547933578491211,-1.0699188709259033,1.9721239805221558
1761479466663180500,6.4541806640625,0.5303090810775757,-1.0095926523208618,2.000152111053467
1761479466673216500,6.464216552734375,0.5115652084350586,-1.0463030338287354,1.8682034015655518
