time,seconds_elapsed,z,y,x
1761505474229731800,0.07973193359375,-0.991851806640625,-0.1439666748046875,-0.18524169921875
1761505474239767800,0.089767822265625,-0.999786376953125,-0.1365203857421875,-0.205078125
1761505474249804800,0.0998046875,-0.9907073974609375,-0.1316680908203125,-0.2223052978515625
1761505474259840800,0.1098408203125,-0.9752349853515625,-0.119049072265625,-0.2252197265625
1761505474269876700,0.119876708984375,-0.9831695556640625,-0.10693359375,-0.227996826171875
1761505474279913700,0.129913818359375,-0.9750518798828125,-0.1061248779296875,-0.2210845947265625
1761505474289949700,0.13994970703125,-0.9568023681640625,-0.11541748046875,-0.203369140625
1761505474299985700,0.149985595703125,-0.948944091796875,-0.123382568359375,-0.1937255859375
1761505474310022700,0.160022705078125,-0.939605712890625,-0.128082275390625,-0.1967010498046875
1761505474320058600,0.17005859375,-0.9315032958984375,-0.132659912109375,-0.207275390625
1761505474330094600,0.180094482421875,-0.9286346435546875,-0.1367034912109375,-0.2193450927734375
1761505474340131800,0.1901318359375,-0.936248779296875,-0.1349945068359375,-0.2355499267578125
1761505474350167800,0.200167724609375,-0.984710693359375,-0.1236572265625,-0.240966796875
1761505474360203800,0.210203857421875,-1.032257080078125,-0.1163482666015625,-0.232696533203125
1761505474370240800,0.22024072265625,-1.0395355224609375,-0.10919189453125,-0.225677490234375
1761505474380276700,0.23027685546875,-1.052734375,-0.1029052734375,-0.2259063720703125
1761505474390312700,0.240312744140625,-1.062835693359375,-0.1084136962890625,-0.2278900146484375
1761505474400348700,0.2503486328125,-1.0604400634765625,-0.1168060302734375,-0.2210540771484375
1761505474410385700,0.2603857421875,-1.0851898193359375,-0.1195526123046875,-0.2140350341796875
1761505474420421600,0.270421630859375,-1.11529541015625,-0.12115478515625,-0.2136383056640625
1761505474430457600,0.28045751953125,-1.1580657958984375,-0.1285858154296875,-0.20806884765625
1761505474440494800,0.290494873046875,-1.183380126953125,-0.13775634765625,-0.20355224609375
1761505474450530800,0.30053076171875,-1.179534912109375,-0.1447906494140625,-0.2107391357421875
1761505474460566800,0.31056689453125,-1.147430419921875,-0.15802001953125,-0.2182159423828125
1761505474470603800,0.320603759765625,-1.106475830078125,-0.1479949951171875,-0.21453857421875
1761505474480639700,0.3306396484375,-1.0762939453125,-0.154449462890625,-0.216339111328125
1761505474490675700,0.34067578125,-1.0583648681640625,-0.160369873046875,-0.21728515625
1761505474500712700,0.350712646484375,-1.0604248046875,-0.1606292724609375,-0.210845947265625
1761505474510748700,0.360748779296875,-1.056243896484375,-0.162841796875,-0.2054595947265625
1761505474520784600,0.37078466796875,-1.0457305908203125,-0.1629180908203125,-0.1959075927734375
1761505474530820600,0.380820556640625,-1.0492401123046875,-0.16033935546875,-0.1975250244140625
1761505474540857900,0.39085791015625,-1.0489654541015625,-0.1574859619140625,-0.203338623046875
1761505474550893800,0.400893798828125,-1.045166015625,-0.1511383056640625,-0.2043609619140625
1761505474560929800,0.4109296875,-1.0517730712890625,-0.136688232421875,-0.203643798828125
1761505474570966800,0.420966796875,-1.0440673828125,-0.121612548828125,-0.1996307373046875
1761505474581002200,0.431002197265625,-1.028350830078125,-0.11041259765625,-0.188995361328125
1761505474591038200,0.4410380859375,-1.0075836181640625,-0.095458984375,-0.180755615234375
1761505474601075200,0.4510751953125,-0.99578857421875,-0.0846099853515625,-0.1806182861328125
1761505474611111200,0.461111083984375,-0.98712158203125,-0.0755767822265625,-0.1845550537109375
1761505474621147100,0.471147216796875,-0.9677734375,-0.067535400390625,-0.18890380859375
1761505474631184400,0.481184326171875,-0.9681243896484375,-0.0618133544921875,-0.1916046142578125
1761505474641220400,0.491220458984375,-0.995452880859375,-0.05194091796875,-0.1966400146484375
1761505474651256300,0.50125634765625,-1.013397216796875,-0.041595458984375,-0.19403076171875
1761505474661292300,0.511292236328125,-1.0188446044921875,-0.0314788818359375,-0.1878204345703125
1761505474671329300,0.521329345703125,-1.013153076171875,-0.0241546630859375,-0.1785888671875
1761505474681365200,0.531365234375,-0.9999847412109375,-0.0224456787109375,-0.1659393310546875
1761505474691401200,0.541401123046875,-0.9826507568359375,-0.023162841796875,-0.15386962890625
1761505474701438200,0.551438232421875,-0.979034423828125,-0.023590087890625,-0.1512451171875
1761505474711474200,0.56147412109375,-0.98187255859375,-0.021514892578125,-0.15771484375
1761505474721510100,0.57151025390625,-0.9898223876953125,-0.01507568359375,-0.16217041015625
1761505474731547100,0.581547119140625,-0.983673095703125,-0.01043701171875,-0.1686248779296875
1761505474741583000,0.5915830078125,-0.9595947265625,-0.0094146728515625,-0.167938232421875
1761505474751619300,0.601619384765625,-0.94940185546875,-0.0163116455078125,-0.163055419921875
1761505474761656300,0.61165625,-0.9552001953125,-0.0245513916015625,-0.157928466796875
1761505474771692300,0.6216923828125,-0.975830078125,-0.03076171875,-0.15594482421875
1761505474781728300,0.631728271484375,-0.9986724853515625,-0.0361328125,-0.1524505615234375
1761505474791765200,0.64176513671875,-1.0111236572265625,-0.0421905517578125,-0.151153564453125
1761505474801801200,0.65180126953125,-1.0062713623046875,-0.0478363037109375,-0.1516265869140625
1761505474811837200,0.661837158203125,-0.9958953857421875,-0.0511322021484375,-0.1550445556640625
1761505474821873200,0.671873046875,-0.985137939453125,-0.0524444580078125,-0.1632843017578125
1761505474831910100,0.68191015625,-0.9688262939453125,-0.0539398193359375,-0.168426513671875
1761505474841946000,0.691946044921875,-0.9801177978515625,-0.0585174560546875,-0.173553466796875
1761505474851982000,0.701982177734375,-1.009796142578125,-0.0604095458984375,-0.1746978759765625
1761505474862019300,0.712019287109375,-1.037994384765625,-0.060516357421875,-0.171417236328125
1761505474872055300,0.72205517578125,-1.0447845458984375,-0.062255859375,-0.16339111328125
1761505474882091300,0.73209130859375,-1.0312347412109375,-0.0636444091796875,-0.1599273681640625
1761505474892128300,0.742128173828125,-0.9996795654296875,-0.067291259765625,-0.1597137451171875
1761505474902164200,0.752164306640625,-0.9678955078125,-0.0707550048828125,-0.1574554443359375
1761505474912200200,0.7622001953125,-0.9522705078125,-0.078125,-0.1602325439453125
1761505474922237200,0.7722373046875,-0.9626617431640625,-0.080841064453125,-0.1655120849609375
1761505474932273200,0.782273193359375,-1.0001068115234375,-0.0743408203125,-0.17236328125
1761505474942309000,0.79230908203125,-1.0212249755859375,-0.0655364990234375,-0.177398681640625
1761505474952346400,0.802346435546875,-1.0270843505859375,-0.0611114501953125,-0.1784210205078125
1761505474962382300,0.81238232421875,-1.0296173095703125,-0.056610107421875,-0.17852783203125
1761505474972418300,0.822418212890625,-1.020843505859375,-0.0567474365234375,-0.174041748046875
1761505474982454300,0.832454345703125,-1.0067901611328125,-0.05694580078125,-0.1674957275390625
1761505474992491300,0.8424912109375,-0.984893798828125,-0.05780029296875,-0.1652374267578125
1761505475002527200,0.85252734375,-0.9783477783203125,-0.0596771240234375,-0.16357421875
1761505475012563200,0.862563232421875,-0.987274169921875,-0.0604248046875,-0.16436767578125
1761505475022600200,0.87260009765625,-0.997161865234375,-0.0610809326171875,-0.159515380859375
1761505475032636200,0.88263623046875,-0.99566650390625,-0.06329345703125,-0.1541748046875
1761505475042672000,0.892672119140625,-1.004302978515625,-0.0647125244140625,-0.1527099609375
1761505475052709400,0.90270947265625,-1.0121307373046875,-0.061187744140625,-0.1609649658203125
1761505475062745300,0.912745361328125,-1.0102996826171875,-0.053314208984375,-0.170318603515625
1761505475072781300,0.92278125,-1.0082855224609375,-0.0473785400390625,-0.173431396484375
1761505475082818300,0.932818359375,-1.0077362060546875,-0.0501861572265625,-0.1689605712890625
1761505475092854300,0.942854248046875,-1.002471923828125,-0.055206298828125,-0.1637420654296875
1761505475102890200,0.95289013671875,-0.9976959228515625,-0.062164306640625,-0.15252685546875
1761505475112927200,0.96292724609375,-0.998199462890625,-0.0670623779296875,-0.1466064453125
1761505475122963200,0.972963134765625,-0.9997406005859375,-0.0675811767578125,-0.148681640625
1761505475132999200,0.982999267578125,-0.9958953857421875,-0.0664825439453125,-0.14935302734375
1761505475143036200,0.9930361328125,-0.986907958984375,-0.0667266845703125,-0.148040771484375
1761505475153072000,1.003072021484375,-0.9736785888671875,-0.071075439453125,-0.1473846435546875
1761505475163108000,1.013108154296875,-0.9647369384765625,-0.0763397216796875,-0.1475830078125
1761505475173145300,1.023145263671875,-0.956756591796875,-0.07708740234375,-0.147308349609375
1761505475183181300,1.033181396484375,-0.97039794921875,-0.069244384765625,-0.152435302734375
1761505475193217300,1.04321728515625,-0.9841766357421875,-0.062347412109375,-0.158172607421875
1761505475203254300,1.053254150390625,-0.999298095703125,-0.059478759765625,-0.160247802734375
1761505475213290200,1.063290283203125,-1.0164031982421875,-0.060302734375,-0.1624908447265625
1761505475223326200,1.073326171875,-1.0218658447265625,-0.0607757568359375,-0.159088134765625
1761505475233362200,1.083362060546875,-1.0250244140625,-0.0596466064453125,-0.15667724609375
1761505475243399200,1.093399169921875,-1.0171966552734375,-0.0598602294921875,-0.1585845947265625
1761505475253435100,1.10343505859375,-1.0032806396484375,-0.0644073486328125,-0.16058349609375
1761505475263471000,1.11347119140625,-0.993072509765625,-0.0678863525390625,-0.158355712890625
1761505475273508400,1.12350830078125,-0.9975128173828125,-0.0724639892578125,-0.1530303955078125
1761505475283544300,1.13354443359375,-1.0053253173828125,-0.075408935546875,-0.153564453125
1761505475293580300,1.143580322265625,-1.012176513671875,-0.074310302734375,-0.1588134765625
1761505475303617300,1.1536171875,-1.019866943359375,-0.072601318359375,-0.1631927490234375
1761505475313653200,1.1636533203125,-1.00958251953125,-0.0713958740234375,-0.16705322265625
1761505475323689200,1.173689208984375,-1.0087738037109375,-0.06658935546875,-0.172943115234375
1761505475333726200,1.183726318359375,-1.00421142578125,-0.0652313232421875,-0.1732025146484375
1761505475343762200,1.19376220703125,-0.98919677734375,-0.0677490234375,-0.1632080078125
1761505475353798100,1.203798095703125,-0.9820404052734375,-0.07025146484375,-0.154296875
1761505475363835400,1.21383544921875,-0.9830322265625,-0.069000244140625,-0.1543731689453125
1761505475373871400,1.223871337890625,-0.9865264892578125,-0.0690460205078125,-0.153900146484375
1761505475383907300,1.2339072265625,-0.991943359375,-0.0694732666015625,-0.149932861328125
1761505475393944300,1.2439443359375,-1.0001068115234375,-0.0673828125,-0.1480255126953125
1761505475403980300,1.253980224609375,-1.0164337158203125,-0.06451416015625,-0.1534271240234375
1761505475414016300,1.264016357421875,-1.01971435546875,-0.0642852783203125,-0.1572265625
1761505475424053200,1.27405322265625,-1.0130615234375,-0.0647430419921875,-0.1557159423828125
1761505475434089200,1.284089111328125,-0.9959869384765625,-0.0670013427734375,-0.1519012451171875
1761505475444125200,1.294125244140625,-0.9823760986328125,-0.07037353515625,-0.1533966064453125
1761505475454161200,1.3041611328125,-0.9788970947265625,-0.074005126953125,-0.1555633544921875
1761505475464198100,1.3141982421875,-0.9846954345703125,-0.0782623291015625,-0.155120849609375
1761505475474234400,1.324234375,-0.98834228515625,-0.0774993896484375,-0.1562652587890625
1761505475484270300,1.334270263671875,-0.985870361328125,-0.078369140625,-0.16070556640625
1761505475494307300,1.344307373046875,-0.9882659912109375,-0.077056884765625,-0.1631011962890625
1761505475504343300,1.35434326171875,-0.9904327392578125,-0.07293701171875,-0.1638336181640625
1761505475514379300,1.364379150390625,-0.986480712890625,-0.0715484619140625,-0.1616668701171875
1761505475524416300,1.374416259765625,-0.9965667724609375,-0.07464599609375,-0.155303955078125
1761505475534452200,1.3844521484375,-0.9996795654296875,-0.07403564453125,-0.1544189453125
1761505475544488200,1.39448828125,-0.9981842041015625,-0.069915771484375,-0.1564483642578125
1761505475554525200,1.404525146484375,-1.006744384765625,-0.069244384765625,-0.161590576171875
1761505475564561200,1.41456103515625,-1.0179290771484375,-0.07275390625,-0.1628265380859375
1761505475574597000,1.42459716796875,-1.027740478515625,-0.0767059326171875,-0.1600494384765625
1761505475584635100,1.43463525390625,-1.0214996337890625,-0.0781707763671875,-0.1565704345703125
1761505475594671000,1.444671142578125,-1.0151214599609375,-0.079681396484375,-0.15814208984375
1761505475604707000,1.45470703125,-1.0092010498046875,-0.0802459716796875,-0.159393310546875
1761505475614744000,1.464744140625,-0.9980010986328125,-0.0790863037109375,-0.1595001220703125
1761505475624780000,1.474780029296875,-0.9851226806640625,-0.079071044921875,-0.1594696044921875
1761505475634816000,1.48481591796875,-0.9781036376953125,-0.0784759521484375,-0.158660888671875
1761505475644853000,1.49485302734375,-0.9859161376953125,-0.080169677734375,-0.1551971435546875
1761505475654889000,1.504888916015625,-0.9964599609375,-0.083221435546875,-0.1540679931640625
1761505475664925000,1.514925048828125,-1.0087432861328125,-0.0791168212890625,-0.1538543701171875
1761505475674961200,1.524961181640625,-1.0091552734375,-0.074249267578125,-0.1556243896484375
1761505475684998100,1.534998046875,-1.0027008056640625,-0.070068359375,-0.1537628173828125
1761505475695034000,1.5450341796875,-0.9967193603515625,-0.0671234130859375,-0.1545257568359375
1761505475705070000,1.555070068359375,-0.987213134765625,-0.0654144287109375,-0.1556854248046875
1761505475715107000,1.565107177734375,-0.9782257080078125,-0.0660858154296875,-0.157684326171875
1761505475725143000,1.57514306640625,-0.9796295166015625,-0.067413330078125,-0.16009521484375
1761505475735179000,1.585178955078125,-0.99456787109375,-0.0692596435546875,-0.159027099609375
1761505475745216000,1.595216064453125,-0.998565673828125,-0.070159912109375,-0.1530914306640625
1761505475755252000,1.605251953125,-0.995941162109375,-0.0680389404296875,-0.146453857421875
1761505475765288000,1.615287841796875,-0.9828643798828125,-0.0685882568359375,-0.142974853515625
1761505475775325200,1.6253251953125,-0.974853515625,-0.0675506591796875,-0.1405029296875
1761505475785361200,1.635361083984375,-0.9924468994140625,-0.06451416015625,-0.1450042724609375
1761505475795397000,1.645397216796875,-1.0122833251953125,-0.0615386962890625,-0.160125732421875
1761505475805434000,1.65543408203125,-1.0315399169921875,-0.0596923828125,-0.1742095947265625
1761505475815470000,1.665469970703125,-1.0389404296875,-0.061676025390625,-0.1771087646484375
1761505475825506000,1.675506103515625,-1.0264892578125,-0.0660400390625,-0.172698974609375
1761505475835542000,1.6855419921875,-1.0187530517578125,-0.066650390625,-0.1722412109375
1761505475845579000,1.6955791015625,-1.006683349609375,-0.069091796875,-0.1725616455078125
1761505475855615000,1.705614990234375,-0.9972076416015625,-0.077880859375,-0.167388916015625
1761505475865651000,1.71565087890625,-0.9893951416015625,-0.083648681640625,-0.1629791259765625
1761505475875688200,1.725688232421875,-0.986724853515625,-0.0860137939453125,-0.1616973876953125
1761505475885724200,1.73572412109375,-0.986663818359375,-0.0886993408203125,-0.15838623046875
1761505475895760100,1.745760009765625,-0.986663818359375,-0.087127685546875,-0.1571807861328125
1761505475905797000,1.755797119140625,-0.986572265625,-0.0787353515625,-0.16241455078125
1761505475915833000,1.7658330078125,-1.0000457763671875,-0.0723114013671875,-0.1693115234375
1761505475925869000,1.775869140625,-1.0095367431640625,-0.0697174072265625,-0.1701202392578125
1761505475935906000,1.785906005859375,-1.012359619140625,-0.071563720703125,-0.1626129150390625
1761505475945942000,1.79594189453125,-1.0074920654296875,-0.07373046875,-0.1561737060546875
1761505475955978000,1.80597802734375,-0.998931884765625,-0.0751800537109375,-0.1576690673828125
1761505475966015000,1.816014892578125,-0.993896484375,-0.073272705078125,-0.1593017578125
1761505475976051200,1.82605126953125,-0.9871368408203125,-0.0745086669921875,-0.157318115234375
1761505475986087200,1.836087158203125,-0.98052978515625,-0.073638916015625,-0.1531524658203125
1761505475996123100,1.846123046875,-0.9801177978515625,-0.0651397705078125,-0.151092529296875
1761505476006160100,1.85616015625,-0.994842529296875,-0.058258056640625,-0.149505615234375
1761505476016196000,1.866196044921875,-1.0030670166015625,-0.0529937744140625,-0.1436920166015625
1761505476026232000,1.876232177734375,-1.0162811279296875,-0.052490234375,-0.140106201171875
1761505476036269000,1.88626904296875,-1.0183563232421875,-0.055755615234375,-0.1453704833984375
1761505476046305000,1.896304931640625,-1.01123046875,-0.0581817626953125,-0.1506500244140625
1761505476056341000,1.906341064453125,-1.0027618408203125,-0.0609130859375,-0.156890869140625
1761505476066378000,1.9163779296875,-0.9945526123046875,-0.0670013427734375,-0.1559906005859375
1761505476076414000,1.9264140625,-0.9877777099609375,-0.072906494140625,-0.154632568359375
1761505476086450000,1.936449951171875,-0.9932861328125,-0.0773773193359375,-0.152130126953125
1761505476096487200,1.946487060546875,-1.0038909912109375,-0.0787811279296875,-0.1546783447265625
1761505476106523100,1.956523193359375,-1.0110321044921875,-0.0736541748046875,-0.1592864990234375
1761505476116559000,1.96655908203125,-1.0176239013671875,-0.0677032470703125,-0.159881591796875
1761505476126595000,1.976594970703125,-1.0229644775390625,-0.0662689208984375,-0.1591949462890625
1761505476136632000,1.986632080078125,-1.016876220703125,-0.0690460205078125,-0.1583709716796875
1761505476146668000,1.99666796875,-1.005523681640625,-0.07354736328125,-0.1621551513671875
1761505476156704000,2.0067041015625,-0.995880126953125,-0.07659912109375,-0.1671600341796875
1761505476166741000,2.016740966796875,-0.9878082275390625,-0.0782470703125,-0.1723785400390625
1761505476176777000,2.02677685546875,-0.9859771728515625,-0.0788116455078125,-0.17218017578125
1761505476186813000,2.03681298828125,-0.9895782470703125,-0.0745697021484375,-0.1705169677734375
1761505476196850200,2.04685009765625,-1.0048675537109375,-0.070556640625,-0.170806884765625
1761505476206886100,2.05688623046875,-1.0146026611328125,-0.06768798828125,-0.1740875244140625
1761505476216922000,2.066922119140625,-1.01031494140625,-0.0654449462890625,-0.1772003173828125
1761505476226958000,2.0769580078125,-0.9971160888671875,-0.0651702880859375,-0.177520751953125
1761505476236995000,2.0869951171875,-0.9848785400390625,-0.0681610107421875,-0.174163818359375
1761505476247031000,2.097031005859375,-0.972320556640625,-0.072418212890625,-0.168365478515625
1761505476257067000,2.10706689453125,-0.9712677001953125,-0.0747528076171875,-0.1626434326171875
1761505476267104000,2.11710400390625,-0.98968505859375,-0.073638916015625,-0.1606597900390625
1761505476277140000,2.127139892578125,-1.0144500732421875,-0.0688934326171875,-0.1647186279296875
1761505476287176000,2.137176025390625,-1.016754150390625,-0.065216064453125,-0.1661834716796875
1761505476297213200,2.147213134765625,-1.0049285888671875,-0.0631866455078125,-0.1623077392578125
1761505476307249200,2.157249267578125,-0.9908447265625,-0.065093994140625,-0.159271240234375
1761505476317285000,2.16728515625,-0.98193359375,-0.0674285888671875,-0.157196044921875
1761505476327321000,2.177321044921875,-0.9839630126953125,-0.0667877197265625,-0.1503448486328125
1761505476337358000,2.187358154296875,-1.003753662109375,-0.0621185302734375,-0.1489105224609375
1761505476347394000,2.19739404296875,-1.0369873046875,-0.0588226318359375,-0.151031494140625
1761505476357430000,2.207429931640625,-1.0599365234375,-0.057037353515625,-0.1548919677734375
1761505476367467000,2.217467041015625,-1.049560546875,-0.053955078125,-0.1560516357421875
1761505476377503000,2.2275029296875,-1.010650634765625,-0.05621337890625,-0.154296875
1761505476387539000,2.2375390625,-0.9693756103515625,-0.066070556640625,-0.1483001708984375
1761505476397576200,2.247576171875,-0.945281982421875,-0.0763092041015625,-0.140106201171875
1761505476407612200,2.257612060546875,-0.9511871337890625,-0.0778656005859375,-0.139617919921875
1761505476417648000,2.267648193359375,-0.9864044189453125,-0.0728912353515625,-0.1506500244140625
1761505476427684000,2.27768408203125,-1.0237884521484375,-0.060882568359375,-0.1623077392578125
1761505476437721000,2.28772119140625,-1.041046142578125,-0.0512237548828125,-0.168731689453125
1761505476447757000,2.297757080078125,-1.0406951904296875,-0.04949951171875,-0.172607421875
1761505476457793000,2.30779296875,-1.0185699462890625,-0.0554962158203125,-0.1694793701171875
1761505476467830000,2.317830078125,-0.995086669921875,-0.0670623779296875,-0.1586761474609375
1761505476477866000,2.327865966796875,-0.9802093505859375,-0.0723419189453125,-0.1514434814453125
1761505476487902000,2.33790185546875,-0.9818267822265625,-0.07330322265625,-0.1521148681640625
1761505476497939000,2.34793896484375,-0.9848175048828125,-0.0731048583984375,-0.1541595458984375
1761505476507975000,2.357974853515625,-0.988525390625,-0.06988525390625,-0.1558990478515625
1761505476518011100,2.36801123046875,-0.9849090576171875,-0.064483642578125,-0.160491943359375
1761505476528047000,2.378047119140625,-0.98455810546875,-0.0619964599609375,-0.163665771484375
1761505476538084000,2.388083984375,-0.9936981201171875,-0.06060791015625,-0.156494140625
1761505476548120000,2.3981201171875,-1.0030975341796875,-0.0610809326171875,-0.1526641845703125
1761505476558156000,2.408156005859375,-1.0093841552734375,-0.06097412109375,-0.150665283203125
1761505476568193000,2.418193115234375,-1.022491455078125,-0.06036376953125,-0.1525726318359375
1761505476578228200,2.428228271484375,-1.0189666748046875,-0.060089111328125,-0.1558685302734375
1761505476588264200,2.43826416015625,-1.0045928955078125,-0.064422607421875,-0.1530609130859375
1761505476598300200,2.448300048828125,-0.992523193359375,-0.0717620849609375,-0.150726318359375
1761505476608337400,2.45833740234375,-0.989410400390625,-0.0721893310546875,-0.15118408203125
1761505476618373400,2.468373291015625,-0.9913482666015625,-0.069580078125,-0.1538848876953125
1761505476628409300,2.478409423828125,-0.9980926513671875,-0.0691375732421875,-0.1535186767578125
1761505476638446300,2.4884462890625,-1.02227783203125,-0.0678558349609375,-0.1497039794921875
1761505476648482300,2.498482421875,-1.039459228515625,-0.0664520263671875,-0.1478271484375
1761505476658518300,2.508518310546875,-1.0369720458984375,-0.065338134765625,-0.148406982421875
1761505476668554200,2.51855419921875,-1.0171661376953125,-0.0653533935546875,-0.1502227783203125
1761505476678591200,2.52859130859375,-0.9913482666015625,-0.0663604736328125,-0.15191650390625
1761505476688627200,2.538627197265625,-0.9802703857421875,-0.0684051513671875,-0.151153564453125
1761505476698663200,2.5486630859375,-0.991546630859375,-0.0667266845703125,-0.1522369384765625
1761505476708700400,2.558700439453125,-1.0000152587890625,-0.06591796875,-0.1546173095703125
1761505476718736400,2.568736328125,-1.009735107421875,-0.0646820068359375,-0.1545257568359375
1761505476728772400,2.5787724609375,-1.0117950439453125,-0.0643463134765625,-0.15753173828125
1761505476738808300,2.588808349609375,-0.99871826171875,-0.064605712890625,-0.162445068359375
1761505476748845300,2.59884521484375,-0.9856719970703125,-0.0638427734375,-0.1626434326171875
1761505476758881300,2.60888134765625,-0.9718475341796875,-0.0670623779296875,-0.1598052978515625
1761505476768917200,2.618917236328125,-0.971832275390625,-0.0680084228515625,-0.155120849609375
1761505476778954200,2.628954345703125,-0.9912109375,-0.0648193359375,-0.1537628173828125
1761505476788990200,2.638990234375,-1.014068603515625,-0.0618133544921875,-0.15484619140625
1761505476799026200,2.649026123046875,-1.02130126953125,-0.0561065673828125,-0.158935546875
1761505476809062100,2.659062255859375,-1.01416015625,-0.0544281005859375,-0.15655517578125
1761505476819099400,2.669099365234375,-1.00433349609375,-0.05682373046875,-0.1529693603515625
1761505476829135400,2.67913525390625,-0.999847412109375,-0.0627899169921875,-0.153289794921875
1761505476839171300,2.68917138671875,-1.00189208984375,-0.0680084228515625,-0.152008056640625
1761505476849208300,2.699208251953125,-1.0036163330078125,-0.069061279296875,-0.14813232421875
1761505476859244300,2.709244384765625,-1.001129150390625,-0.0701446533203125,-0.14471435546875
1761505476869280300,2.7192802734375,-0.9949951171875,-0.0690765380859375,-0.1446380615234375
1761505476879316200,2.729316162109375,-1.00238037109375,-0.0662689208984375,-0.1480255126953125
1761505476889353200,2.739353271484375,-1.0121307373046875,-0.06329345703125,-0.1563873291015625
1761505476899389200,2.74938916015625,-1.0065460205078125,-0.0648345947265625,-0.1607666015625
1761505476909425200,2.759425048828125,-0.9935455322265625,-0.067352294921875,-0.1579742431640625
1761505476919462100,2.769462158203125,-0.979827880859375,-0.0696563720703125,-0.1537628173828125
1761505476929498000,2.779498046875,-0.9822845458984375,-0.068450927734375,-0.1511383056640625
1761505476939534300,2.789534423828125,-0.9946746826171875,-0.0650482177734375,-0.145477294921875
1761505476949570300,2.7995703125,-1.0089263916015625,-0.064605712890625,-0.14666748046875
1761505476959607300,2.809607177734375,-1.02471923828125,-0.0640869140625,-0.1556854248046875
1761505476969643300,2.819643310546875,-1.01776123046875,-0.0650787353515625,-0.1589813232421875
1761505476979679200,2.82967919921875,-1.008819580078125,-0.0688323974609375,-0.15899658203125
1761505476989716200,2.83971630859375,-0.9876251220703125,-0.0741729736328125,-0.1578369140625
1761505476999752200,2.849752197265625,-0.976806640625,-0.07830810546875,-0.1547088623046875
1761505477009788200,2.8597880859375,-0.9826202392578125,-0.076751708984375,-0.1527099609375
1761505477019824400,2.869824462890625,-0.9992523193359375,-0.0694122314453125,-0.1535491943359375
1761505477029861000,2.879861083984375,-1.01025390625,-0.064971923828125,-0.153533935546875
1761505477039897000,2.88989697265625,-1.007080078125,-0.063140869140625,-0.1503143310546875
1761505477049933300,2.899933349609375,-0.9948577880859375,-0.0647430419921875,-0.14404296875
1761505477059969500,2.909969482421875,-0.9900360107421875,-0.0665283203125,-0.14215087890625
1761505477070006300,2.92000634765625,-0.9950103759765625,-0.066497802734375,-0.1461181640625
1761505477080042200,2.930042236328125,-1.000823974609375,-0.0681915283203125,-0.14971923828125
1761505477090078500,2.940078369140625,-1.0040130615234375,-0.068756103515625,-0.15264892578125
1761505477100115200,2.950115234375,-1.0010223388671875,-0.069854736328125,-0.153656005859375
1761505477110151200,2.960151123046875,-0.993682861328125,-0.069305419921875,-0.1543731689453125
1761505477120187400,2.9701875,-1.0025634765625,-0.0634002685546875,-0.1556854248046875
1761505477130223400,2.980223388671875,-1.0107269287109375,-0.058929443359375,-0.154754638671875
1761505477140260000,2.990260009765625,-1.015228271484375,-0.0566864013671875,-0.15057373046875
1761505477150296300,3.00029638671875,-1.0168304443359375,-0.0600128173828125,-0.148162841796875
1761505477160332300,3.010332275390625,-1.01849365234375,-0.0596160888671875,-0.1440277099609375
1761505477170368300,3.0203681640625,-1.016754150390625,-0.0597076416015625,-0.1407623291015625
1761505477180405500,3.030405517578125,-1.00848388671875,-0.062530517578125,-0.1430511474609375
1761505477190441500,3.04044140625,-1.0067138671875,-0.065093994140625,-0.14849853515625
1761505477200477400,3.0504775390625,-1.002593994140625,-0.066162109375,-0.151123046875
1761505477210514400,3.060514404296875,-0.9941253662109375,-0.06658935546875,-0.153900146484375
1761505477220550400,3.07055029296875,-0.9943695068359375,-0.0612640380859375,-0.1553192138671875
1761505477230586400,3.08058642578125,-0.9924774169921875,-0.0581817626953125,-0.157379150390625
1761505477240622300,3.090622314453125,-0.9959259033203125,-0.0593414306640625,-0.1559600830078125
1761505477250659300,3.100659423828125,-0.9958343505859375,-0.0606842041015625,-0.153472900390625
1761505477260695300,3.1106953125,-0.9962921142578125,-0.0618743896484375,-0.1523590087890625
1761505477270731300,3.120731201171875,-1.000518798828125,-0.061279296875,-0.149200439453125
1761505477280767200,3.130767333984375,-1.0079193115234375,-0.0597076416015625,-0.1478271484375
1761505477290804500,3.140804443359375,-1.00750732421875,-0.06317138671875,-0.1461029052734375
1761505477300840400,3.15084033203125,-1.004241943359375,-0.0666961669921875,-0.14093017578125
1761505477310876400,3.16087646484375,-1.0017852783203125,-0.0677032470703125,-0.1411895751953125
1761505477320913400,3.170913330078125,-0.999420166015625,-0.0688629150390625,-0.142425537109375
1761505477330949400,3.180949462890625,-0.996002197265625,-0.074462890625,-0.1463470458984375
1761505477340985300,3.1909853515625,-0.994659423828125,-0.0768280029296875,-0.1558074951171875
1761505477351021300,3.201021240234375,-1.004974365234375,-0.072784423828125,-0.16351318359375
1761505477361058300,3.211058349609375,-1.009185791015625,-0.070037841796875,-0.16851806640625
1761505477371094300,3.22109423828125,-1.0084991455078125,-0.0681915283203125,-0.171417236328125
1761505477381130200,3.231130126953125,-1.000946044921875,-0.066802978515625,-0.1698760986328125
1761505477391166200,3.241166259765625,-0.99774169921875,-0.070068359375,-0.16302490234375
1761505477401203500,3.251203369140625,-0.9986724853515625,-0.0723724365234375,-0.154052734375
1761505477411239400,3.261239501953125,-0.9992828369140625,-0.072052001953125,-0.1470184326171875
1761505477421275400,3.271275390625,-1.008026123046875,-0.069122314453125,-0.1475067138671875
1761505477431311400,3.281311279296875,-1.009033203125,-0.0665283203125,-0.1496124267578125
1761505477441348400,3.291348388671875,-1.0166015625,-0.0627288818359375,-0.1475982666015625
1761505477451384300,3.30138427734375,-1.0165863037109375,-0.059906005859375,-0.15130615234375
1761505477461420300,3.311420166015625,-1.01361083984375,-0.0565032958984375,-0.1549530029296875
1761505477471456300,3.321456298828125,-1.011474609375,-0.057373046875,-0.15765380859375
1761505477481493200,3.3314931640625,-1.006500244140625,-0.0652313232421875,-0.1544952392578125
1761505477491529200,3.341529296875,-1.00177001953125,-0.0717315673828125,-0.1453094482421875
1761505477501565200,3.351565185546875,-0.9924468994140625,-0.0736083984375,-0.1357269287109375
1761505477511601200,3.36160107421875,-0.9810333251953125,-0.073333740234375,-0.1352386474609375
1761505477521638400,3.371638427734375,-0.9852142333984375,-0.069915771484375,-0.1392974853515625
1761505477531674400,3.38167431640625,-0.9962005615234375,-0.065185546875,-0.1397552490234375
1761505477541710300,3.39171044921875,-1.00732421875,-0.0601043701171875,-0.1394500732421875
1761505477551747300,3.401747314453125,-1.0098419189453125,-0.0553741455078125,-0.1373748779296875
1761505477561783300,3.411783203125,-1.0011444091796875,-0.055999755859375,-0.1337738037109375
1761505477571819300,3.4218193359375,-0.993682861328125,-0.05975341796875,-0.1380157470703125
1761505477581855500,3.43185546875,-0.9864044189453125,-0.064056396484375,-0.14276123046875
1761505477591892500,3.441892578125,-0.9945068359375,-0.066864013671875,-0.14105224609375
1761505477601928400,3.451928466796875,-1.0059661865234375,-0.0695343017578125,-0.1387176513671875
1761505477611964400,3.46196435546875,-1.009857177734375,-0.0703887939453125,-0.1382293701171875
1761505477622000400,3.47200048828125,-1.0037841796875,-0.066925048828125,-0.13641357421875
1761505477632037600,3.48203759765625,-1.0005340576171875,-0.0663604736328125,-0.1376190185546875
1761505477642073600,3.492073486328125,-1.01123046875,-0.06329345703125,-0.148040771484375
1761505477652109600,3.502109619140625,-1.023529052734375,-0.058502197265625,-0.1593475341796875
1761505477662145500,3.5121455078125,-1.0295867919921875,-0.056640625,-0.1605377197265625
1761505477672182500,3.5221826171875,-1.0251922607421875,-0.06298828125,-0.1603240966796875
1761505477682218500,3.532218505859375,-1.013336181640625,-0.070159912109375,-0.1591339111328125
1761505477692254500,3.54225439453125,-0.998443603515625,-0.074066162109375,-0.1577606201171875
1761505477702290400,3.55229052734375,-0.9911346435546875,-0.075347900390625,-0.1544036865234375
1761505477712327400,3.562327392578125,-0.98651123046875,-0.0743255615234375,-0.1540374755859375
1761505477722363400,3.57236328125,-0.98114013671875,-0.0750885009765625,-0.156097412109375
1761505477732399400,3.5823994140625,-0.978118896484375,-0.07470703125,-0.157257080078125
1761505477742435300,3.592435302734375,-0.9778900146484375,-0.06927490234375,-0.154876708984375
1761505477752472600,3.60247265625,-0.986663818359375,-0.0656280517578125,-0.1525421142578125
1761505477762508500,3.612508544921875,-0.9994354248046875,-0.06488037109375,-0.1485748291015625
1761505477772544500,3.62254443359375,-1.0164794921875,-0.0623321533203125,-0.148651123046875
1761505477782580700,3.632580810546875,-1.01446533203125,-0.0633544921875,-0.14532470703125
1761505477792617500,3.642617431640625,-1.0081787109375,-0.0673065185546875,-0.1448211669921875
1761505477802653400,3.6526533203125,-0.9993896484375,-0.071563720703125,-0.1481475830078125
1761505477812689700,3.662689697265625,-1.00177001953125,-0.072235107421875,-0.14447021484375
1761505477822725600,3.6727255859375,-1.0060272216796875,-0.071258544921875,-0.1436767578125
1761505477832762400,3.682762451171875,-1.003326416015625,-0.071685791015625,-0.1456298828125
1761505477842798600,3.692798583984375,-1.00714111328125,-0.071533203125,-0.1498565673828125
1761505477852834600,3.70283447265625,-1.0087127685546875,-0.07037353515625,-0.155242919921875
1761505477862870500,3.71287060546875,-1.005279541015625,-0.0688323974609375,-0.1567840576171875
1761505477872907500,3.722907470703125,-0.99627685546875,-0.0689544677734375,-0.1560211181640625
1761505477882943700,3.73294384765625,-0.989990234375,-0.0699615478515625,-0.157318115234375
1761505477892979700,3.742979736328125,-0.998504638671875,-0.0679779052734375,-0.1596832275390625
1761505477903015700,3.753015625,-1.0025482177734375,-0.0671844482421875,-0.1556396484375
1761505477913052700,3.763052734375,-1.0034332275390625,-0.0707855224609375,-0.1450042724609375
1761505477923088600,3.773088623046875,-1.0053558349609375,-0.06884765625,-0.1420745849609375
1761505477933124600,3.78312451171875,-1.011566162109375,-0.065277099609375,-0.14459228515625
1761505477943160600,3.79316064453125,-1.0125885009765625,-0.06329345703125,-0.14678955078125
1761505477953197600,3.803197509765625,-1.008392333984375,-0.0624542236328125,-0.144012451171875
1761505477963233500,3.813233642578125,-0.9951019287109375,-0.063201904296875,-0.143280029296875
1761505477973269500,3.82326953125,-0.98406982421875,-0.0659637451171875,-0.1431427001953125
1761505477983305500,3.833305419921875,-0.9803009033203125,-0.0697021484375,-0.144744873046875
1761505477993342700,3.8433427734375,-0.98583984375,-0.074127197265625,-0.1467437744140625
1761505478003378700,3.853378662109375,-1.00164794921875,-0.07525634765625,-0.1464385986328125
1761505478013414700,3.86341455078125,-1.0186614990234375,-0.0711517333984375,-0.1482391357421875
1761505478023450600,3.87345068359375,-1.0312652587890625,-0.0686492919921875,-0.1507568359375
1761505478033487600,3.883487548828125,-1.0197296142578125,-0.0701446533203125,-0.144744873046875
1761505478043523600,3.893523681640625,-0.9970245361328125,-0.0733489990234375,-0.1403350830078125
1761505478053559600,3.9035595703125,-0.9726409912109375,-0.0771484375,-0.13763427734375
1761505478063595500,3.913595458984375,-0.962371826171875,-0.0816192626953125,-0.139739990234375
1761505478073632500,3.923632568359375,-0.9644622802734375,-0.0851898193359375,-0.1423492431640625
1761505478083668500,3.93366845703125,-0.978240966796875,-0.080413818359375,-0.1453094482421875
1761505478093704400,3.943704345703125,-0.998992919921875,-0.0738983154296875,-0.14849853515625
1761505478103740400,3.953740478515625,-1.015655517578125,-0.07177734375,-0.151092529296875
1761505478113777700,3.963777587890625,-1.021484375,-0.072235107421875,-0.150299072265625
1761505478123813600,3.973813720703125,-1.023529052734375,-0.0726776123046875,-0.150634765625
1761505478133849600,3.983849609375,-1.02093505859375,-0.07403564453125,-0.1509552001953125
1761505478143885600,3.993885498046875,-1.01654052734375,-0.07177734375,-0.155120849609375
1761505478153922600,4.003922607421875,-1.01336669921875,-0.0687255859375,-0.15557861328125
1761505478163956700,4.013956787109375,-1.0065155029296875,-0.069061279296875,-0.155120849609375
1761505478173992700,4.02399267578125,-1.0000152587890625,-0.0717315673828125,-0.1567230224609375
1761505478184029700,4.03402978515625,-0.994384765625,-0.0728607177734375,-0.1559600830078125
1761505478194065700,4.044065673828125,-0.9911956787109375,-0.0747833251953125,-0.1558074951171875
1761505478204101600,4.0541015625,-0.995452880859375,-0.07330322265625,-0.158111572265625
1761505478214137600,4.0641376953125,-0.9961090087890625,-0.068878173828125,-0.16143798828125
1761505478224174600,4.074174560546875,-0.99993896484375,-0.0654296875,-0.1636962890625
1761505478234210600,4.08421044921875,-1.0094146728515625,-0.0692291259765625,-0.16387939453125
1761505478244246500,4.09424658203125,-1.0126953125,-0.0740814208984375,-0.1584014892578125
1761505478254282500,4.104282470703125,-1.0033416748046875,-0.0706634521484375,-0.1507720947265625
1761505478264319700,4.11431982421875,-0.9875640869140625,-0.0682525634765625,-0.1449737548828125
1761505478274355700,4.124355712890625,-0.989959716796875,-0.0692596435546875,-0.143218994140625
1761505478284391700,4.1343916015625,-1.005218505859375,-0.0697174072265625,-0.1484527587890625
1761505478294427600,4.144427734375,-1.018524169921875,-0.06781005859375,-0.152679443359375
1761505478304464600,4.154464599609375,-1.0178070068359375,-0.0644683837890625,-0.155120849609375
1761505478314500600,4.16450048828125,-1.003448486328125,-0.0686798095703125,-0.1537933349609375
1761505478324536600,4.17453662109375,-0.9877166748046875,-0.0803070068359375,-0.14727783203125
1761505478334572500,4.184572509765625,-0.9798431396484375,-0.087188720703125,-0.1480560302734375
1761505478344609500,4.194609619140625,-0.9804229736328125,-0.0853118896484375,-0.15057373046875
1761505478354645500,4.2046455078125,-1.0002593994140625,-0.0808258056640625,-0.1518402099609375
1761505478364681500,4.214681396484375,-1.01666259765625,-0.07476806640625,-0.153900146484375
1761505478374717400,4.224717529296875,-1.020477294921875,-0.069854736328125,-0.1512298583984375
1761505478384753400,4.23475341796875,-1.022705078125,-0.06988525390625,-0.148193359375
1761505478394790700,4.244790771484375,-1.0113372802734375,-0.0780029296875,-0.1447906494140625
1761505478404826600,4.25482666015625,-1.0001373291015625,-0.081695556640625,-0.139312744140625
1761505478414862600,4.264862548828125,-0.989654541015625,-0.08160400390625,-0.146881103515625
1761505478424898600,4.274898681640625,-0.9987640380859375,-0.0775299072265625,-0.1483154296875
1761505478434935600,4.284935546875,-1.0155029296875,-0.0782012939453125,-0.1490020751953125
1761505478444971500,4.294971435546875,-1.0194854736328125,-0.077178955078125,-0.139434814453125
1761505478455007500,4.305007568359375,-1.0160064697265625,-0.072021484375,-0.13372802734375
1761505478465043500,4.31504345703125,-0.9960784912109375,-0.0723419189453125,-0.1337432861328125
1761505478475080400,4.32508056640625,-0.977325439453125,-0.0811309814453125,-0.1351776123046875
1761505478485116400,4.335116455078125,-0.971923828125,-0.0848388671875,-0.138671875
1761505478495152400,4.34515234375,-0.97113037109375,-0.0836944580078125,-0.1460418701171875
1761505478505188400,4.355188232421875,-0.982879638671875,-0.079681396484375,-0.1473388671875
1761505478515224600,4.365224609375,-0.998260498046875,-0.0783843994140625,-0.143646240234375
1761505478525261600,4.375261474609375,-1.01397705078125,-0.0759429931640625,-0.1393890380859375
1761505478535297500,4.385297607421875,-1.02825927734375,-0.071807861328125,-0.138397216796875
1761505478545333500,4.39533349609375,-1.0268402099609375,-0.06768798828125,-0.1421661376953125
1761505478555369700,4.40536962890625,-1.00897216796875,-0.063079833984375,-0.140716552734375
1761505478565406500,4.415406494140625,-0.99896240234375,-0.066802978515625,-0.1318817138671875
1761505478575442400,4.4254423828125,-0.9911346435546875,-0.0750579833984375,-0.1230621337890625
1761505478585478400,4.435478515625,-0.9941558837890625,-0.0809478759765625,-0.12835693359375
1761505478595514400,4.445514404296875,-0.999237060546875,-0.0825042724609375,-0.13812255859375
1761505478605551400,4.45555126953125,-1.0039520263671875,-0.0788116455078125,-0.143035888671875
1761505478615587300,4.46558740234375,-1.0024871826171875,-0.07476806640625,-0.1475372314453125
1761505478625623300,4.475623291015625,-1.0008087158203125,-0.0802001953125,-0.1507415771484375
1761505478635659300,4.4856591796875,-0.9979400634765625,-0.0867156982421875,-0.1457672119140625
1761505478645695200,4.4956953125,-0.9978485107421875,-0.085601806640625,-0.1435089111328125
1761505478655732200,4.505732177734375,-1.0048980712890625,-0.0771331787109375,-0.146881103515625
1761505478665768200,4.515768310546875,-1.0239105224609375,-0.0700836181640625,-0.151885986328125
1761505478675804200,4.52580419921875,-1.0337066650390625,-0.07110595703125,-0.15692138671875
1761505478685840100,4.535840087890625,-1.02752685546875,-0.0781707763671875,-0.1525115966796875
1761505478695877400,4.54587744140625,-1.008575439453125,-0.083892822265625,-0.1461639404296875
1761505478705913300,4.555913330078125,-0.98651123046875,-0.0854339599609375,-0.1454010009765625
1761505478715949300,4.56594921875,-0.9755401611328125,-0.083740234375,-0.1482391357421875
1761505478725985300,4.5759853515625,-0.9781341552734375,-0.0820770263671875,-0.1509552001953125
1761505478736023300,4.586023193359375,-0.9827880859375,-0.080352783203125,-0.1531524658203125
1761505478746059300,4.596059326171875,-0.988739013671875,-0.078582763671875,-0.15228271484375
1761505478756095200,4.60609521484375,-1.0005035400390625,-0.0787811279296875,-0.1504669189453125
1761505478766131200,4.616131103515625,-1.01226806640625,-0.0764617919921875,-0.148651123046875
1761505478776168400,4.62616845703125,-1.0132904052734375,-0.073211669921875,-0.15020751953125
1761505478786204400,4.636204345703125,-1.0054779052734375,-0.07183837890625,-0.14996337890625
1761505478796240400,4.646240478515625,-0.9956512451171875,-0.0731658935546875,-0.147064208984375
1761505478806276400,4.6562763671875,-0.990875244140625,-0.0793914794921875,-0.1441497802734375
1761505478816312300,4.666312255859375,-0.98712158203125,-0.0842437744140625,-0.1420745849609375
1761505478826349300,4.676349365234375,-0.9937286376953125,-0.082550048828125,-0.1450042724609375
1761505478836385300,4.68638525390625,-0.9987640380859375,-0.0827789306640625,-0.155120849609375
1761505478846421200,4.696421142578125,-0.9903411865234375,-0.0787811279296875,-0.1621551513671875
1761505478856457200,4.706457275390625,-0.991607666015625,-0.0717315673828125,-0.1638336181640625
1761505478866494200,4.716494140625,-0.9998931884765625,-0.07281494140625,-0.15826416015625
1761505478876530200,4.7265302734375,-1.00677490234375,-0.0761871337890625,-0.1497344970703125
1761505478886566100,4.736566162109375,-1.0126953125,-0.0759429931640625,-0.1422119140625
1761505478896602000,4.74660205078125,-1.017791748046875,-0.074371337890625,-0.1385498046875
1761505478906638000,4.75663818359375,-1.0118865966796875,-0.07452392578125,-0.134521484375
1761505478916675300,4.76667529296875,-1.00494384765625,-0.0793914794921875,-0.1349945068359375
1761505478926711300,4.776711181640625,-0.9962615966796875,-0.0866546630859375,-0.1357421875
1761505478936747300,4.786747314453125,-0.9917755126953125,-0.08856201171875,-0.140167236328125
1761505478946783200,4.796783203125,-0.99188232421875,-0.083953857421875,-0.1497039794921875
1761505478956820200,4.8068203125,-0.99346923828125,-0.0765380859375,-0.1541290283203125
1761505478966856200,4.816856201171875,-1.0001983642578125,-0.07281494140625,-0.1550140380859375
1761505478976892200,4.82689208984375,-1.0113067626953125,-0.071136474609375,-0.157684326171875
1761505478986928000,4.83692822265625,-1.022430419921875,-0.0699615478515625,-0.156097412109375
1761505478996964000,4.846964111328125,-1.0224761962890625,-0.0715484619140625,-0.1516571044921875
1761505479007001000,4.8570009765625,-1.0119476318359375,-0.0773773193359375,-0.1453094482421875
1761505479017037000,4.867037109375,-1.0009613037109375,-0.0819854736328125,-0.143280029296875
1761505479027073000,4.877072998046875,-0.993865966796875,-0.0838775634765625,-0.1459503173828125
1761505479037109200,4.887109130859375,-0.9990997314453125,-0.0808258056640625,-0.1512298583984375
1761505479047146200,4.897146240234375,-0.9975128173828125,-0.078582763671875,-0.156158447265625
1761505479057182200,4.90718212890625,-0.9904022216796875,-0.0768585205078125,-0.157135009765625
1761505479067218200,4.91721826171875,-0.9805450439453125,-0.0764617919921875,-0.15802001953125
1761505479077254400,4.92725439453125,-0.97528076171875,-0.0778961181640625,-0.15771484375
1761505479087290400,4.937290283203125,-0.9820098876953125,-0.0779876708984375,-0.1586761474609375
1761505479097327400,4.947327392578125,-0.99017333984375,-0.0767974853515625,-0.1554412841796875
1761505479107363300,4.95736328125,-0.998046875,-0.074066162109375,-0.1511688232421875
1761505479117399300,4.9673994140625,-1.0052032470703125,-0.075042724609375,-0.1482086181640625
1761505479127435300,4.977435302734375,-1.0133819580078125,-0.076812744140625,-0.1497802734375
1761505479137472300,4.98747216796875,-1.013763427734375,-0.0796356201171875,-0.150146484375
1761505479147508200,4.99750830078125,-1.0115966796875,-0.0819091796875,-0.1461181640625
1761505479157544200,5.007544189453125,-1.01397705078125,-0.0821075439453125,-0.142669677734375
1761505479167580200,5.017580078125,-1.0163421630859375,-0.0804290771484375,-0.143646240234375
1761505479177617400,5.027617431640625,-1.0137481689453125,-0.081512451171875,-0.14788818359375
1761505479187653400,5.0376533203125,-1.0111846923828125,-0.0846099853515625,-0.1508636474609375
1761505479197689300,5.047689453125,-1.0001373291015625,-0.088958740234375,-0.1507568359375
1761505479207725300,5.057725341796875,-0.9900054931640625,-0.0951385498046875,-0.1495513916015625
1761505479217761300,5.06776123046875,-0.9900054931640625,-0.0931396484375,-0.15484619140625
1761505479227798300,5.07779833984375,-0.9941253662109375,-0.0869140625,-0.1578369140625
1761505479237834200,5.087834228515625,-1.0148162841796875,-0.082183837890625,-0.156768798828125
1761505479247870200,5.0978701171875,-1.01971435546875,-0.0831756591796875,-0.1493072509765625
1761505479257906200,5.10790625,-1.016815185546875,-0.0845794677734375,-0.1406402587890625
1761505479267943200,5.117943115234375,-1.00555419921875,-0.0865325927734375,-0.135986328125
1761505479277979100,5.127979248046875,-0.9857330322265625,-0.0902557373046875,-0.132843017578125
1761505479288015000,5.13801513671875,-0.9724273681640625,-0.0916900634765625,-0.1328887939453125
1761505479298051000,5.148051025390625,-0.9621734619140625,-0.0888214111328125,-0.136077880859375
1761505479308087000,5.158087158203125,-0.9660186767578125,-0.0852508544921875,-0.1420745849609375
1761505479318124300,5.168124267578125,-0.9786834716796875,-0.0822906494140625,-0.14990234375
1761505479328160300,5.17816015625,-1.002349853515625,-0.077117919921875,-0.15087890625
1761505479338196200,5.1881962890625,-1.029998779296875,-0.07232666015625,-0.1529541015625
1761505479348232200,5.198232177734375,-1.0379638671875,-0.070037841796875,-0.1595916748046875
1761505479358269200,5.208269287109375,-1.0347442626953125,-0.0699005126953125,-0.1630706787109375
1761505479368305200,5.21830517578125,-1.0228424072265625,-0.0722198486328125,-0.160797119140625
1761505479378341000,5.228341064453125,-1.011383056640625,-0.078216552734375,-0.1543426513671875
1761505479388377000,5.238377197265625,-0.998931884765625,-0.0831298828125,-0.1455841064453125
1761505479398413000,5.2484130859375,-0.989654541015625,-0.0853424072265625,-0.1364593505859375
1761505479408450000,5.258449951171875,-0.988861083984375,-0.0841064453125,-0.136962890625
1761505479418486000,5.268486083984375,-0.984893798828125,-0.079986572265625,-0.1466827392578125
1761505479428522000,5.27852197265625,-0.9837188720703125,-0.0754547119140625,-0.15130615234375
1761505479438558500,5.288558349609375,-0.9855804443359375,-0.07977294921875,-0.152099609375
1761505479448594400,5.298594482421875,-0.9928436279296875,-0.081573486328125,-0.1491241455078125
1761505479458631200,5.308631103515625,-1.009429931640625,-0.0794219970703125,-0.14642333984375
1761505479468667400,5.31866748046875,-1.0149688720703125,-0.0781707763671875,-0.1474151611328125
1761505479478703400,5.328703369140625,-1.0123138427734375,-0.0798492431640625,-0.1482696533203125
1761505479488739300,5.3387392578125,-1.003631591796875,-0.083648681640625,-0.1469573974609375
1761505479498776300,5.3487763671875,-0.9948272705078125,-0.0875091552734375,-0.146209716796875
1761505479508812300,5.358812255859375,-0.986846923828125,-0.09442138671875,-0.1475677490234375
1761505479518848300,5.36884814453125,-0.9786376953125,-0.095977783203125,-0.145355224609375
1761505479528884200,5.37888427734375,-0.9837493896484375,-0.0929107666015625,-0.143798828125
1761505479538920200,5.388920166015625,-0.998992919921875,-0.0906829833984375,-0.145477294921875
1761505479548957200,5.398957275390625,-1.0160675048828125,-0.0876312255859375,-0.1482391357421875
1761505479558993400,5.408993408203125,-1.0202789306640625,-0.0833587646484375,-0.152679443359375
1761505479569029400,5.419029296875,-1.015716552734375,-0.08245849609375,-0.1596832275390625
1761505479579065300,5.4290654296875,-1.0042266845703125,-0.085235595703125,-0.160491943359375
1761505479589102600,5.4391025390625,-0.9930267333984375,-0.0910186767578125,-0.157806396484375
1761505479599138600,5.449138671875,-0.9886627197265625,-0.0956878662109375,-0.1559906005859375
1761505479609174500,5.459174560546875,-0.9886627197265625,-0.098236083984375,-0.15301513671875
1761505479619210500,5.46921044921875,-0.9962921142578125,-0.0964813232421875,-0.150390625
1761505479629246500,5.47924658203125,-1.003631591796875,-0.09185791015625,-0.1468963623046875
1761505479639283700,5.48928369140625,-1.0123443603515625,-0.0867919921875,-0.1419525146484375
1761505479649319700,5.499319580078125,-1.0157470703125,-0.0874176025390625,-0.1409149169921875
1761505479659355600,5.509355712890625,-1.0178985595703125,-0.0848236083984375,-0.142822265625
1761505479669391600,5.5193916015625,-1.011566162109375,-0.082122802734375,-0.1443328857421875
1761505479679427600,5.529427490234375,-0.999267578125,-0.083160400390625,-0.1472625732421875
1761505479689464600,5.539464599609375,-0.9920196533203125,-0.0894622802734375,-0.149444580078125
1761505479699500500,5.54950048828125,-1.0004730224609375,-0.09124755859375,-0.1468963623046875
1761505479709536500,5.55953662109375,-1.0114898681640625,-0.0870208740234375,-0.1452484130859375
1761505479719572500,5.569572509765625,-1.012908935546875,-0.0828857421875,-0.142425537109375
1761505479729608400,5.5796083984375,-1.0040130615234375,-0.0792999267578125,-0.1434326171875
1761505479739645400,5.5896455078125,-0.98565673828125,-0.0839691162109375,-0.14422607421875
1761505479749681400,5.599681396484375,-0.9736785888671875,-0.090850830078125,-0.1417388916015625
1761505479759717400,5.60971728515625,-0.9759674072265625,-0.092193603515625,-0.14263916015625
1761505479769753300,5.61975341796875,-0.9863433837890625,-0.0865020751953125,-0.1441192626953125
1761505479779789600,5.62978955078125,-1.0012054443359375,-0.08172607421875,-0.1453399658203125
1761505479789826600,5.63982666015625,-1.0085296630859375,-0.07940673828125,-0.1484375
1761505479799862500,5.649862548828125,-1.0164947509765625,-0.0829315185546875,-0.151458740234375
1761505479809898500,5.6598984375,-1.0186004638671875,-0.087493896484375,-0.15338134765625
1761505479819934700,5.669934814453125,-1.016021728515625,-0.089569091796875,-0.1482086181640625
1761505479829971500,5.679971435546875,-1.0094146728515625,-0.0930633544921875,-0.1434478759765625
1761505479840007400,5.69000732421875,-0.9959716796875,-0.098876953125,-0.139923095703125
1761505479850043600,5.700043701171875,-0.9883270263671875,-0.1014251708984375,-0.1367340087890625
1761505479860079600,5.71007958984375,-0.9906005859375,-0.10107421875,-0.1363525390625
1761505479870115600,5.720115478515625,-0.99359130859375,-0.0994415283203125,-0.1407318115234375
1761505479880152600,5.730152587890625,-0.9937286376953125,-0.0964508056640625,-0.144744873046875
1761505479890188500,5.7401884765625,-0.996368408203125,-0.0933837890625,-0.1472320556640625
1761505479900224500,5.750224609375,-1.0059661865234375,-0.0897369384765625,-0.1516876220703125
1761505479910260700,5.7602607421875,-1.0146636962890625,-0.0893096923828125,-0.1519775390625
1761505479920296700,5.770296630859375,-1.0150604248046875,-0.0920562744140625,-0.1421661376953125
1761505479930333700,5.780333740234375,-1.008880615234375,-0.0946197509765625,-0.1339569091796875
1761505479940369700,5.79036962890625,-0.998992919921875,-0.096221923828125,-0.12908935546875
1761505479950405600,5.800405517578125,-0.9896392822265625,-0.095245361328125,-0.131866455078125
1761505479960441600,5.810441650390625,-0.988922119140625,-0.0951995849609375,-0.1369781494140625
1761505479970477600,5.8204775390625,-0.990081787109375,-0.0968475341796875,-0.142791748046875
1761505479980514600,5.8305146484375,-0.99444580078125,-0.0973968505859375,-0.151397705078125
1761505479990550500,5.840550537109375,-1.00146484375,-0.095672607421875,-0.1516876220703125
1761505480000586500,5.85058642578125,-1.006591796875,-0.0924224853515625,-0.1384429931640625
1761505480010622500,5.86062255859375,-1.0124969482421875,-0.0882110595703125,-0.1302337646484375
1761505480020658400,5.870658447265625,-1.0151214599609375,-0.0860137939453125,-0.13427734375
1761505480030695700,5.88069580078125,-1.009735107421875,-0.087799072265625,-0.1379852294921875
1761505480040731600,5.890731689453125,-1.00738525390625,-0.089813232421875,-0.137481689453125
1761505480050767600,5.900767578125,-1.0037689208984375,-0.09002685546875,-0.1398162841796875
1761505480060803600,5.910803466796875,-0.9933624267578125,-0.08648681640625,-0.139373779296875
1761505480070840600,5.920840576171875,-0.98638916015625,-0.0839691162109375,-0.137939453125
1761505480080876500,5.93087646484375,-0.97845458984375,-0.0878448486328125,-0.142669677734375
1761505480090912500,5.94091259765625,-0.978424072265625,-0.0929412841796875,-0.148712158203125
1761505480100948500,5.950948486328125,-0.988494873046875,-0.0910797119140625,-0.1543426513671875
1761505480110984400,5.960984375,-0.9907989501953125,-0.08673095703125,-0.154754638671875
1761505480121020700,5.971020751953125,-1.000457763671875,-0.0820159912109375,-0.1524200439453125
1761505480131057400,5.981057373046875,-1.0092620849609375,-0.0774688720703125,-0.1484527587890625
1761505480141093400,5.99109326171875,-1.0167388916015625,-0.0775299072265625,-0.1445770263671875
1761505480151129600,6.001129638671875,-1.0224456787109375,-0.081939697265625,-0.1399383544921875
1761505480161165600,6.01116552734375,-1.016876220703125,-0.0919952392578125,-0.1372222900390625
1761505480171201500,6.021201416015625,-1.0050201416015625,-0.0956268310546875,-0.1371002197265625
1761505480181238500,6.031238525390625,-0.988189697265625,-0.0950775146484375,-0.140106201171875
1761505480191274800,6.041274658203125,-0.9786834716796875,-0.0927581787109375,-0.1474151611328125
1761505480201310700,6.051310791015625,-0.9833526611328125,-0.090911865234375,-0.154693603515625
1761505480211346700,6.0613466796875,-0.9913787841796875,-0.0883331298828125,-0.1556549072265625
1761505480221382700,6.071382568359375,-1.007781982421875,-0.0833282470703125,-0.1554412841796875
1761505480231419600,6.081419677734375,-1.0194854736328125,-0.0817108154296875,-0.15081787109375
1761505480241455600,6.09145556640625,-1.014984130859375,-0.08428955078125,-0.14398193359375
1761505480251491600,6.10149169921875,-1.0061492919921875,-0.0880889892578125,-0.134735107421875
1761505480261527600,6.111527587890625,-0.9949493408203125,-0.0908050537109375,-0.12774658203125
1761505480271563500,6.1215634765625,-0.9927978515625,-0.09222412109375,-0.1271209716796875
1761505480281600500,6.1316005859375,-0.9901885986328125,-0.0937652587890625,-0.13018798828125
1761505480291636500,6.141636474609375,-0.9830474853515625,-0.0924224853515625,-0.13470458984375
1761505480301672400,6.15167236328125,-0.9783935546875,-0.0905914306640625,-0.1400604248046875
1761505480311708400,6.16170849609375,-0.9857177734375,-0.090240478515625,-0.14739990234375
1761505480321744400,6.171744384765625,-1.0030670166015625,-0.0898590087890625,-0.151580810546875
1761505480331781600,6.18178173828125,-1.0194549560546875,-0.0895233154296875,-0.15191650390625
1761505480341817600,6.191817626953125,-1.0277099609375,-0.0888214111328125,-0.151580810546875
1761505480351853600,6.201853515625,-1.0245819091796875,-0.090240478515625,-0.1486968994140625
1761505480361889500,6.2118896484375,-1.0157623291015625,-0.0949859619140625,-0.1451873779296875
1761505480371925500,6.221925537109375,-1.0074615478515625,-0.09954833984375,-0.1425933837890625
1761505480381962500,6.23196240234375,-1.000274658203125,-0.10198974609375,-0.14306640625
1761505480391998500,6.24199853515625,-0.9990386962890625,-0.0986480712890625,-0.1393585205078125
1761505480402034400,6.252034423828125,-1.0004730224609375,-0.0930633544921875,-0.1367034912109375
1761505480412070400,6.2620703125,-0.99853515625,-0.087677001953125,-0.139801025390625
1761505480422106600,6.272106689453125,-0.99273681640625,-0.0868377685546875,-0.14300537109375
1761505480432143400,6.282143310546875,-0.9924468994140625,-0.084930419921875,-0.148284912109375
1761505480442179600,6.2921796875,-0.9944610595703125,-0.08489990234375,-0.1526031494140625
1761505480452215600,6.302215576171875,-1.0053253173828125,-0.0889129638671875,-0.1515045166015625
1761505480462251800,6.312251708984375,-1.01373291015625,-0.091217041015625,-0.1485595703125
1761505480472287700,6.322287841796875,-1.013214111328125,-0.0887603759765625,-0.1491851806640625
1761505480482324500,6.332324462890625,-1.0053863525390625,-0.0847015380859375,-0.147674560546875
1761505480492360700,6.342360595703125,-0.9897308349609375,-0.0882568359375,-0.1390533447265625
1761505480502396700,6.352396728515625,-0.9800872802734375,-0.0943603515625,-0.1338043212890625
1761505480512432600,6.3624326171875,-0.9780731201171875,-0.0966339111328125,-0.13494873046875
1761505480522468600,6.372468505859375,-0.9826202392578125,-0.092803955078125,-0.138946533203125
1761505480532505600,6.382505615234375,-0.9940948486328125,-0.0892181396484375,-0.13885498046875
1761505480542541600,6.39254150390625,-1.0007781982421875,-0.0882415771484375,-0.138092041015625
1761505480552577500,6.40257763671875,-1.0052642822265625,-0.0847930908203125,-0.1388397216796875
1761505480562613500,6.412613525390625,-1.0116119384765625,-0.084136962890625,-0.1407928466796875
1761505480572649500,6.4226494140625,-1.0162506103515625,-0.0865325927734375,-0.1410675048828125
1761505480582686700,6.432686767578125,-1.01275634765625,-0.092071533203125,-0.1384124755859375
1761505480592722700,6.44272265625,-1.0056610107421875,-0.091522216796875,-0.1319427490234375
1761505480602758700,6.452758544921875,-0.9966583251953125,-0.0899200439453125,-0.12725830078125
1761505480612794600,6.462794677734375,-0.991912841796875,-0.0927734375,-0.1313934326171875
1761505480622830600,6.47283056640625,-0.996185302734375,-0.098907470703125,-0.1339263916015625
1761505480632866600,6.482866455078125,-1.00628662109375,-0.100738525390625,-0.1395416259765625
1761505480642903800,6.49290380859375,-1.01409912109375,-0.096160888671875,-0.1461181640625
1761505480652939800,6.502939697265625,-1.01861572265625,-0.0930023193359375,-0.1473541259765625
1761505480662975700,6.512975830078125,-1.01708984375,-0.091400146484375,-0.147613525390625
1761505480673011700,6.52301171875,-1.01397705078125,-0.09075927734375,-0.146148681640625
1761505480683047700,6.533047607421875,-1.008636474609375,-0.0921173095703125,-0.1423492431640625
1761505480693084700,6.543084716796875,-0.99951171875,-0.0948486328125,-0.1380157470703125
1761505480703120600,6.55312060546875,-0.986297607421875,-0.09765625,-0.14019775390625
1761505480713156600,6.563156494140625,-0.9761810302734375,-0.101806640625,-0.1438446044921875
1761505480723192600,6.573192626953125,-0.975677490234375,-0.1029510498046875,-0.1466064453125
1761505480733228800,6.583228759765625,-0.98089599609375,-0.09942626953125,-0.1523895263671875
1761505480743264800,6.5932646484375,-0.9877166748046875,-0.09381103515625,-0.15643310546875
1761505480753301500,6.603301513671875,-1.001434326171875,-0.0893707275390625,-0.15594482421875
1761505480763337700,6.613337646484375,-1.0168914794921875,-0.087249755859375,-0.150054931640625
1761505480773373700,6.623373779296875,-1.01922607421875,-0.0868682861328125,-0.142791748046875
1761505480783409700,6.63340966796875,-1.0133514404296875,-0.0888671875,-0.137725830078125
1761505480793445600,6.643445556640625,-1.0062255859375,-0.0912322998046875,-0.1360626220703125
1761505480803483000,6.65348291015625,-1.001678466796875,-0.09228515625,-0.1370849609375
1761505480813518800,6.663518798828125,-0.9913482666015625,-0.090179443359375,-0.139739990234375
1761505480823554800,6.673554931640625,-0.99078369140625,-0.088287353515625,-0.1407012939453125
1761505480833590800,6.6835908203125,-0.99993896484375,-0.08795166015625,-0.1390838623046875
1761505480843626800,6.693626708984375,-1.0117950439453125,-0.08868408203125,-0.139556884765625
1761505480853663700,6.703663818359375,-1.0140380859375,-0.0886383056640625,-0.1394805908203125
1761505480863699700,6.71369970703125,-1.008544921875,-0.0862884521484375,-0.1376953125
1761505480873735700,6.723735595703125,-0.9901580810546875,-0.08514404296875,-0.1404876708984375
1761505480883771600,6.733771728515625,-0.9758758544921875,-0.0853729248046875,-0.1396942138671875
1761505480893807600,6.7438076171875,-0.979248046875,-0.0861358642578125,-0.13885498046875
1761505480903843600,6.753843505859375,-0.9906463623046875,-0.0859527587890625,-0.1379852294921875
1761505480913880600,6.763880615234375,-1.00201416015625,-0.0851898193359375,-0.140869140625
1761505480923916500,6.77391650390625,-1.00927734375,-0.0871124267578125,-0.1434783935546875
1761505480933952500,6.783952392578125,-1.0139007568359375,-0.0894775390625,-0.1450958251953125
1761505480943988700,6.79398876953125,-1.0165863037109375,-0.0890045166015625,-0.144500732421875
1761505480954024700,6.804024658203125,-1.010498046875,-0.0889434814453125,-0.1418304443359375
1761505480964061700,6.814061767578125,-1.00018310546875,-0.089019775390625,-0.1399688720703125
1761505480974097700,6.82409765625,-0.995941162109375,-0.0908050537109375,-0.1433868408203125
1761505480984133600,6.834133544921875,-0.9947662353515625,-0.0906219482421875,-0.1533355712890625
1761505480994169600,6.844169677734375,-1.0018310546875,-0.090087890625,-0.162567138671875
1761505481004205800,6.854205810546875,-1.00054931640625,-0.086029052734375,-0.1616363525390625
1761505481014241800,6.86424169921875,-0.997283935546875,-0.0876617431640625,-0.1546478271484375
1761505481024278500,6.874278564453125,-0.992156982421875,-0.094757080078125,-0.149200439453125
1761505481034314800,6.884314697265625,-0.9889984130859375,-0.0972747802734375,-0.1448822021484375
1761505481044350700,6.894350830078125,-0.9966278076171875,-0.0955810546875,-0.145721435546875
1761505481054386700,6.90438671875,-1.0123443603515625,-0.092071533203125,-0.1461639404296875
1761505481064422700,6.914422607421875,-1.0177154541015625,-0.089508056640625,-0.14361572265625
1761505481074458600,6.924458740234375,-1.014495849609375,-0.084259033203125,-0.139739990234375
1761505481084496000,6.934495849609375,-1.0041961669921875,-0.0835113525390625,-0.1372222900390625
1761505481094531800,6.94453173828125,-0.994232177734375,-0.0861968994140625,-0.13336181640625
1761505481104567800,6.95456787109375,-0.9870758056640625,-0.0890960693359375,-0.1302337646484375
1761505481114603800,6.964603759765625,-0.9826812744140625,-0.0898590087890625,-0.13299560546875
1761505481124639700,6.9746396484375,-0.985260009765625,-0.0915985107421875,-0.13623046875
1761505481134676700,6.9846767578125,-0.9917755126953125,-0.0908355712890625,-0.1415252685546875
1761505481144712700,6.994712646484375,-1.0063629150390625,-0.0854949951171875,-0.1458740234375
1761505481154748700,7.004748779296875,-1.02337646484375,-0.079742431640625,-0.14910888671875
1761505481164784600,7.01478466796875,-1.035308837890625,-0.0763092041015625,-0.146881103515625
1761505481174820600,7.024820556640625,-1.03948974609375,-0.0739288330078125,-0.14447021484375
1761505481184856600,7.034856689453125,-1.0245513916015625,-0.0761871337890625,-0.14111328125
1761505481194893600,7.0448935546875,-1.00079345703125,-0.0803680419921875,-0.132781982421875
1761505481204929500,7.054929443359375,-0.97918701171875,-0.084228515625,-0.1313323974609375
1761505481214965500,7.064965576171875,-0.97442626953125,-0.0869140625,-0.1393585205078125
1761505481225001500,7.07500146484375,-0.9799957275390625,-0.0892486572265625,-0.1434783935546875
1761505481235037700,7.08503759765625,-0.9965972900390625,-0.087432861328125,-0.1450958251953125
1761505481245074000,7.095073974609375,-1.011077880859375,-0.0835418701171875,-0.147216796875
1761505481255110700,7.105110595703125,-1.0090789794921875,-0.0834503173828125,-0.1484222412109375
1761505481265146600,7.115146728515625,-0.9956207275390625,-0.0831451416015625,-0.145233154296875
1761505481275182800,7.125182861328125,-0.98590087890625,-0.084014892578125,-0.142059326171875
1761505481285218800,7.13521875,-0.99664306640625,-0.08465576171875,-0.1419219970703125
1761505481295254800,7.1452548828125,-1.0065155029296875,-0.082122802734375,-0.1413116455078125
1761505481305291800,7.155291748046875,-1.0096893310546875,-0.0787506103515625,-0.1400909423828125
1761505481315327700,7.16532763671875,-1.004364013671875,-0.0810089111328125,-0.1374359130859375
1761505481325363700,7.17536376953125,-0.998748779296875,-0.083953857421875,-0.1374359130859375
1761505481335399700,7.185399658203125,-0.9986724853515625,-0.0827789306640625,-0.1408233642578125
1761505481345435600,7.195435546875,-0.999053955078125,-0.0808258056640625,-0.146148681640625
1761505481355471600,7.2054716796875,-1.00128173828125,-0.08319091796875,-0.1485595703125
1761505481365508900,7.2155087890625,-1.00714111328125,-0.0869140625,-0.144561767578125
1761505481375544800,7.225544921875,-1.0145721435546875,-0.083404541015625,-0.141387939453125
1761505481385580800,7.235580810546875,-1.0179443359375,-0.0781402587890625,-0.142333984375
1761505481395616800,7.24561669921875,-1.014434814453125,-0.0773162841796875,-0.1480865478515625
1761505481405652700,7.25565283203125,-1.0054931640625,-0.0839996337890625,-0.15423583984375
1761505481415688700,7.265688720703125,-0.9917144775390625,-0.08917236328125,-0.1532745361328125
1761505481425725700,7.2757255859375,-0.9840087890625,-0.088134765625,-0.146453857421875
1761505481435761700,7.28576171875,-0.98590087890625,-0.0826263427734375,-0.141357421875
1761505481445797600,7.295797607421875,-0.9968719482421875,-0.0786590576171875,-0.1387939453125
1761505481455833600,7.30583349609375,-1.0113983154296875,-0.0800933837890625,-0.13677978515625
1761505481465869600,7.31586962890625,-1.01513671875,-0.079681396484375,-0.131988525390625
1761505481475905500,7.325905517578125,-1.0118560791015625,-0.07952880859375,-0.1328277587890625
1761505481485942500,7.335942626953125,-0.997406005859375,-0.0837249755859375,-0.1415557861328125
1761505481495978500,7.345978515625,-0.9851531982421875,-0.088836669921875,-0.1452484130859375
1761505481506014500,7.356014404296875,-0.98443603515625,-0.0896759033203125,-0.1506805419921875
1761505481516050700,7.36605078125,-0.99127197265625,-0.0896148681640625,-0.1561279296875
1761505481526086700,7.376086669921875,-1.00152587890625,-0.095611572265625,-0.150604248046875
1761505481536123000,7.386122802734375,-1.0060272216796875,-0.09478759765625,-0.1456451416015625
1761505481546159900,7.396159912109375,-1.0068206787109375,-0.0891571044921875,-0.142120361328125
1761505481556195800,7.40619580078125,-1.0099029541015625,-0.0843353271484375,-0.136566162109375
1761505481566231800,7.416231689453125,-1.00909423828125,-0.0825958251953125,-0.1349639892578125
1761505481576267800,7.426267822265625,-1.0048065185546875,-0.0790557861328125,-0.1383514404296875
1761505481586303700,7.4363037109375,-1.000732421875,-0.0743408203125,-0.142822265625
1761505481596339700,7.446339599609375,-1.00213623046875,-0.07305908203125,-0.1445159912109375
1761505481606376700,7.456376708984375,-1.002960205078125,-0.079132080078125,-0.1448822021484375
1761505481616412700,7.46641259765625,-1.0000457763671875,-0.090240478515625,-0.1387176513671875
1761505481626448600,7.47644873046875,-0.994476318359375,-0.093994140625,-0.13983154296875
1761505481636484600,7.486484619140625,-0.9917144775390625,-0.0860595703125,-0.1429290771484375
1761505481646520600,7.4965205078125,-0.99249267578125,-0.0798187255859375,-0.1438140869140625
1761505481656556500,7.506556640625,-0.9971771240234375,-0.0796356201171875,-0.1461181640625
1761505481666593800,7.51659375,-1.0043792724609375,-0.0818634033203125,-0.147796630859375
1761505481676629800,7.526629638671875,-1.015533447265625,-0.0819091796875,-0.1521148681640625
1761505481686665700,7.536665771484375,-1.012664794921875,-0.0816650390625,-0.149444580078125
1761505481696701700,7.54670166015625,-1.00250244140625,-0.0808868408203125,-0.1435394287109375
1761505481706737700,7.556737548828125,-0.9901885986328125,-0.0835723876953125,-0.1408843994140625
1761505481716773600,7.566773681640625,-0.9910125732421875,-0.0858917236328125,-0.1369781494140625
1761505481726810600,7.576810546875,-0.998870849609375,-0.085968017578125,-0.13604736328125
1761505481736846600,7.5868466796875,-0.998748779296875,-0.088104248046875,-0.1385955810546875
1761505481746882600,7.596882568359375,-0.9919891357421875,-0.0871429443359375,-0.1414947509765625
1761505481756918800,7.606918701171875,-0.983062744140625,-0.0832061767578125,-0.1419830322265625
1761505481766954800,7.616954833984375,-0.9834136962890625,-0.084197998046875,-0.14385986328125
1761505481776990700,7.62699072265625,-0.99591064453125,-0.083404541015625,-0.1465301513671875
1761505481787027700,7.63702783203125,-1.0128173828125,-0.078704833984375,-0.1522979736328125
1761505481797063700,7.647063720703125,-1.0224151611328125,-0.0759124755859375,-0.15576171875
1761505481807099600,7.657099609375,-1.0225982666015625,-0.0737762451171875,-0.1534881591796875
1761505481817135600,7.667135498046875,-1.0076446533203125,-0.0780487060546875,-0.14715576171875
1761505481827171800,7.677171875,-0.9998779296875,-0.083770751953125,-0.1356964111328125
1761505481837207800,7.687207763671875,-0.9965667724609375,-0.08795166015625,-0.130126953125
1761505481847244800,7.697244873046875,-1.001800537109375,-0.0885467529296875,-0.13812255859375
1761505481857280800,7.70728076171875,-1.0071258544921875,-0.0866851806640625,-0.1459808349609375
1761505481867316700,7.717316650390625,-1.0108489990234375,-0.0829010009765625,-0.1505889892578125
1761505481877352700,7.727352783203125,-1.009674072265625,-0.078582763671875,-0.1529998779296875
1761505481887388700,7.737388671875,-1.003265380859375,-0.0807647705078125,-0.1548309326171875
1761505481897424600,7.747424560546875,-0.9970855712890625,-0.0855560302734375,-0.1547393798828125
1761505481907461600,7.757461669921875,-1.001495361328125,-0.0860595703125,-0.1522369384765625
1761505481917497600,7.76749755859375,-1.0118865966796875,-0.08197021484375,-0.151214599609375
1761505481927533600,7.777533447265625,-1.0154876708984375,-0.0777740478515625,-0.150787353515625
1761505481937569500,7.787569580078125,-1.0081329345703125,-0.0802001953125,-0.1461029052734375
1761505481947605500,7.79760546875,-0.9945068359375,-0.0866546630859375,-0.1430816650390625
1761505481957641700,7.807641845703125,-0.985504150390625,-0.089141845703125,-0.1440582275390625
1761505481967677700,7.817677734375,-0.977264404296875,-0.0893402099609375,-0.145294189453125
1761505481977714700,7.827714599609375,-0.9760284423828125,-0.080413818359375,-0.143463134765625
1761505481987750700,7.837750732421875,-0.9969940185546875,-0.079071044921875,-0.13836669921875
1761505481997787000,7.847786865234375,-1.0169219970703125,-0.076263427734375,-0.1376953125
1761505482007822800,7.85782275390625,-1.02349853515625,-0.07049560546875,-0.1398468017578125
1761505482017858800,7.86785888671875,-1.0257720947265625,-0.072174072265625,-0.1400909423828125
1761505482027894800,7.877894775390625,-1.0084686279296875,-0.0785369873046875,-0.139190673828125
1761505482037931800,7.887931884765625,-0.99444580078125,-0.083831787109375,-0.142608642578125
1761505482047967700,7.8979677734375,-0.99139404296875,-0.0848846435546875,-0.1437530517578125
1761505482058003700,7.908003662109375,-0.98602294921875,-0.08892822265625,-0.1395416259765625
1761505482068039700,7.918039794921875,-0.97833251953125,-0.0908355712890625,-0.1348114013671875
1761505482078075600,7.92807568359375,-0.978302001953125,-0.0883636474609375,-0.133514404296875
1761505482088111600,7.938111572265625,-0.983184814453125,-0.0911102294921875,-0.123992919921875
1761505482098147600,7.948147705078125,-0.9904632568359375,-0.080963134765625,-0.124481201171875
1761505482108184600,7.9581845703125,-1.0060577392578125,-0.0724029541015625,-0.134857177734375
1761505482118220500,7.968220458984375,-1.018829345703125,-0.075103759765625,-0.1393890380859375
1761505482128256800,7.9782568359375,-1.031494140625,-0.0748748779296875,-0.1367034912109375
1761505482138292700,7.988292724609375,-1.031982421875,-0.07330322265625,-0.1346282958984375
1761505482148328700,7.99832861328125,-1.035247802734375,-0.0811767578125,-0.1332855224609375
1761505482158364700,8.00836474609375,-1.02142333984375,-0.0936431884765625,-0.129547119140625
1761505482168400600,8.018400634765625,-1.0068511962890625,-0.095458984375,-0.122894287109375
1761505482178436900,8.028436767578125,-0.994964599609375,-0.0943756103515625,-0.1261749267578125
1761505482188472800,8.038472900390625,-0.98883056640625,-0.094757080078125,-0.1341705322265625
1761505482198508800,8.0485087890625,-0.986541748046875,-0.0926971435546875,-0.1376190185546875
1761505482208544800,8.058544677734375,-0.994598388671875,-0.08587646484375,-0.1377105712890625
1761505482218580700,8.068580810546875,-1.00579833984375,-0.082763671875,-0.145355224609375
1761505482228616700,8.07861669921875,-1.0117034912109375,-0.08306884765625,-0.1415863037109375
1761505482238653700,8.08865380859375,-1.0159759521484375,-0.0820159912109375,-0.137298583984375
1761505482248689700,8.098689697265625,-1.0017547607421875,-0.0809478759765625,-0.140106201171875
1761505482258725600,8.1087255859375,-0.9892730712890625,-0.0841064453125,-0.1417236328125
1761505482268761600,8.11876171875,-0.9893646240234375,-0.0941162109375,-0.13299560546875
1761505482278797600,8.128797607421875,-0.9926605224609375,-0.090728759765625,-0.1292266845703125
1761505482288833500,8.13883349609375,-0.99322509765625,-0.0776214599609375,-0.1434173583984375
1761505482298870800,8.148870849609375,-0.996063232421875,-0.074432373046875,-0.1606292724609375
1761505482308906800,8.15890673828125,-0.9444580078125,-0.0706329345703125,-0.1913604736328125
1761505482318942700,8.168942626953125,-0.9699249267578125,0.043853759765625,-0.1839752197265625
1761505482328978700,8.178978759765625,-1.109344482421875,-0.048980712890625,-0.0573883056640625
1761505482339014700,8.1890146484375,-1.1168975830078125,-0.1545562744140625,-0.0374603271484375
1761505482349051000,8.19905078125,-1.0394439697265625,-0.1507720947265625,-0.010498046875
1761505482359086800,8.2090869140625,-0.934783935546875,-0.0887298583984375,-0.084197998046875
1761505482369123600,8.21912353515625,-0.9223785400390625,-0.04412841796875,-0.1505279541015625
1761505482379159800,8.229159912109376,-0.9551544189453125,-0.068572998046875,-0.1660003662109375
1761505482389195800,8.23919580078125,-1.0141754150390625,-0.1071929931640625,-0.1682281494140625
1761505482399231700,8.249231689453126,-1.0161285400390625,-0.1160736083984375,-0.18280029296875
1761505482409267700,8.259267822265626,-0.9824066162109375,-0.08489990234375,-0.1911773681640625
1761505482419303700,8.2693037109375,-0.939056396484375,-0.02099609375,-0.1714019775390625
