time,seconds_elapsed,z,y,x
1761505474249804800,0.0998046875,0.6401563882827759,-0.06934556365013123,-0.04990485683083534
1761505474259840800,0.1098408203125,0.6116235256195068,0.006462648510932922,-0.06905112415552139
1761505474269876700,0.119876708984375,0.5823606848716736,0.036726050078868866,-0.09262149035930634
1761505474279913700,0.129913818359375,0.5629510283470154,0.05331035330891609,-0.1265893131494522
1761505474289949700,0.13994970703125,0.5512768626213074,0.014502824284136295,-0.17759287357330322
1761505474299985700,0.149985595703125,0.5508017539978027,-0.041365500539541245,-0.24059714376926422
1761505474310022700,0.160022705078125,0.5535715222358704,-0.11004046350717545,-0.3265039324760437
1761505474320058600,0.17005859375,0.5398080348968506,-0.1608690321445465,-0.4183342456817627
1761505474330094600,0.180094482421875,0.4975745379924774,-0.15585260093212128,-0.5227196216583252
1761505474340131800,0.1901318359375,0.4158596992492676,-0.1339784562587738,-0.5813373923301697
1761505474350167800,0.200167724609375,0.33304816484451294,-0.15774554014205933,-0.6106644868850708
1761505474360203800,0.210203857421875,0.2789124846458435,-0.15507012605667114,-0.6355043053627014
1761505474370240800,0.22024072265625,0.25438427925109863,-0.1053292378783226,-0.6680286526679993
1761505474380276700,0.23027685546875,0.2471146434545517,-0.05284392833709717,-0.6922197341918945
1761505474390312700,0.240312744140625,0.24820226430892944,0.04963064193725586,-0.7044414281845093
1761505474400348700,0.2503486328125,0.2515519857406616,0.1433238387107849,-0.6969249248504639
1761505474410385700,0.2603857421875,0.2517159581184387,0.178668811917305,-0.6693087816238403
1761505474420421600,0.270421630859375,0.23345863819122314,0.17121489346027374,-0.595275342464447
1761505474430457600,0.28045751953125,0.21102863550186157,0.14714986085891724,-0.46867117285728455
1761505474440494800,0.290494873046875,0.18780693411827087,0.1315985918045044,-0.31982526183128357
1761505474450530800,0.30053076171875,0.1629486083984375,0.12725859880447388,-0.19602370262145996
1761505474460566800,0.31056689453125,0.14002439379692078,0.12519890069961548,-0.13799022138118744
1761505474470603800,0.320603759765625,0.10951200127601624,0.1537022590637207,-0.12539273500442505
1761505474480639700,0.3306396484375,0.0947738066315651,0.19887693226337433,-0.12331599742174149
1761505474490675700,0.34067578125,0.08306901901960373,0.2250637263059616,-0.13273628056049347
1761505474500712700,0.350712646484375,0.07119717448949814,0.23490862548351288,-0.12675321102142334
1761505474510748700,0.360748779296875,0.054800666868686676,0.24690888822078705,-0.1113242357969284
1761505474520784600,0.37078466796875,0.02003496326506138,0.21428915858268738,-0.09056942909955978
1761505474530820600,0.380820556640625,-0.03182974085211754,0.14724266529083252,-0.06211891397833824
1761505474540857900,0.39085791015625,-0.07677724212408066,0.09113679081201553,-0.01746942102909088
1761505474550893800,0.400893798828125,-0.11274921149015427,0.027003943920135498,0.0232370775192976
1761505474560929800,0.4109296875,-0.13144166767597198,-0.011422540992498398,0.07072923332452774
1761505474570966800,0.420966796875,-0.13646173477172852,0.002096246462315321,0.11397460103034973
1761505474581002200,0.431002197265625,-0.1227981299161911,0.02335093542933464,0.11433359235525131
1761505474591038200,0.4410380859375,-0.09825597703456879,0.05621621385216713,0.08565381169319153
1761505474601075200,0.4510751953125,-0.08712795376777649,0.10438214242458344,0.05778302997350693
1761505474611111200,0.461111083984375,-0.08064036071300507,0.15765728056430817,0.0034958370961248875
1761505474621147100,0.471147216796875,-0.07815270125865936,0.20197494328022003,-0.062306612730026245
1761505474631184400,0.481184326171875,-0.08326008170843124,0.18886899948120117,-0.10191743820905685
1761505474641220400,0.491220458984375,-0.0913504958152771,0.14984969794750214,-0.07781050354242325
1761505474651256300,0.50125634765625,-0.10250795632600784,0.125872403383255,-0.013823614455759525
1761505474661292300,0.511292236328125,-0.11500377207994461,0.10704464465379715,0.05750036984682083
1761505474671329300,0.521329345703125,-0.12627549469470978,0.07276178151369095,0.10255478322505951
1761505474681365200,0.531365234375,-0.1319166123867035,0.038875188678503036,0.12233354151248932
1761505474691401200,0.541401123046875,-0.12938441336154938,0.007601348217576742,0.11881323903799057
1761505474701438200,0.551438232421875,-0.12255392223596573,-0.009073502384126186,0.09641419351100922
1761505474711474200,0.56147412109375,-0.11038745194673538,-0.002373992232605815,0.10217861831188202
1761505474721510100,0.57151025390625,-0.09725886583328247,0.011146077886223793,0.11458895355463028
1761505474731547100,0.581547119140625,-0.0767008438706398,0.05221579223871231,0.08988679945468903
1761505474741583000,0.5915830078125,-0.0561220645904541,0.11767362803220749,0.03827287629246712
1761505474751619300,0.601619384765625,-0.03835033252835274,0.16063661873340607,-0.021623605862259865
1761505474761656300,0.61165625,-0.031478311866521835,0.1740158051252365,-0.0634903609752655
1761505474771692300,0.6216923828125,-0.03886313736438751,0.1592956930398941,-0.06103537604212761
1761505474781728300,0.631728271484375,-0.0546860434114933,0.12879104912281036,-0.02673359587788582
1761505474791765200,0.64176513671875,-0.05544278398156166,0.07286496460437775,0.01343813817948103
1761505474801801200,0.65180126953125,-0.04423939809203148,0.015690084546804428,0.041611455380916595
1761505474811837200,0.661837158203125,-0.02277703955769539,-0.04905496910214424,0.0526256337761879
1761505474821873200,0.671873046875,-0.008202090859413147,-0.06898713111877441,0.032822899520397186
1761505474831910100,0.68191015625,-0.0006249742582440376,-0.06674831360578537,-0.003631532657891512
1761505474841946000,0.691946044921875,-0.007697531022131443,-0.04942978173494339,-0.023902183398604393
1761505474851982000,0.701982177734375,-0.020648181438446045,-0.025567680597305298,0.004037733189761639
1761505474862019300,0.712019287109375,-0.03832437843084335,0.01202443614602089,0.06055160611867905
1761505474872055300,0.72205517578125,-0.03967607766389847,0.041026726365089417,0.10926154255867004
1761505474882091300,0.73209130859375,-0.020828619599342346,0.05350310355424881,0.12258320301771164
1761505474892128300,0.742128173828125,0.005936496891081333,0.05805392935872078,0.08976802229881287
1761505474902164200,0.752164306640625,0.030117999762296677,0.03421277925372124,0.027615703642368317
1761505474912200200,0.7622001953125,0.03844325989484787,0.0015591743867844343,-0.036609843373298645
1761505474922237200,0.7722373046875,0.02707289345562458,-0.04639902710914612,-0.06861092150211334
1761505474932273200,0.782273193359375,0.003248884342610836,-0.06796124577522278,-0.05297335237264633
1761505474942309000,0.79230908203125,-0.02341042272746563,-0.04041937366127968,-0.007719853892922401
1761505474952346400,0.802346435546875,-0.04849543794989586,-0.02120838314294815,0.031116608530282974
1761505474962382300,0.81238232421875,-0.05716482922434807,0.02421662211418152,0.06220768392086029
1761505474972418300,0.822418212890625,-0.05277189612388611,0.07515603303909302,0.07840845733880997
1761505474982454300,0.832454345703125,-0.04434778541326523,0.112095408141613,0.06345027685165405
1761505474992491300,0.8424912109375,-0.03746490553021431,0.1259160339832306,0.026862213388085365
1761505475002527200,0.85252734375,-0.03186747431755066,0.10711998492479324,0.0033813894260674715
1761505475012563200,0.862563232421875,-0.0286505538970232,0.05672362819314003,0.00836561806499958
1761505475022600200,0.87260009765625,-0.030680151656270027,-0.010623455978929996,0.03218839317560196
1761505475032636200,0.88263623046875,-0.03285599127411842,-0.09074435383081436,0.04911724850535393
1761505475042672000,0.892672119140625,-0.03350100666284561,-0.12989415228366852,0.04906051978468895
1761505475052709400,0.90270947265625,-0.039342619478702545,-0.06955739855766296,0.05496863275766373
1761505475062745300,0.912745361328125,-0.04600052163004875,0.026033570989966393,0.056446950882673264
1761505475072781300,0.92278125,-0.05201328173279762,0.09933466464281082,0.046349138021469116
1761505475082818300,0.932818359375,-0.04731466621160507,0.13930924236774445,0.047780320048332214
1761505475092854300,0.942854248046875,-0.03453648090362549,0.15095698833465576,0.05515456944704056
1761505475102890200,0.95289013671875,-0.01780783385038376,0.11669383198022842,0.05763929709792137
1761505475112927200,0.96292724609375,-0.00037354743108153343,0.07393783330917358,0.061220332980155945
1761505475122963200,0.972963134765625,0.006446009036153555,0.06010590121150017,0.07742246985435486
1761505475132999200,0.982999267578125,-0.0021136202849447727,0.04529091715812683,0.08778099715709686
1761505475143036200,0.9930361328125,-0.011025356128811836,0.01116543635725975,0.0748758539557457
1761505475153072000,1.003072021484375,-0.010483112186193466,-0.02867686189711094,0.047275979071855545
1761505475163108000,1.013108154296875,-0.006767736282199621,-0.035454075783491135,0.006268092896789312
1761505475173145300,1.023145263671875,-0.0007878015749156475,-0.04958386719226837,-0.04542550444602966
1761505475183181300,1.033181396484375,0.005792070180177689,-0.0560673326253891,-0.0801592543721199
1761505475193217300,1.04321728515625,0.005811020266264677,-0.0458793044090271,-0.08402177691459656
1761505475203254300,1.053254150390625,0.0015060203149914742,-0.045378364622592926,-0.06725131720304489
1761505475213290200,1.063290283203125,-0.001422517467290163,-0.028717702254652977,-0.038518719375133514
1761505475223326200,1.073326171875,-0.00409766286611557,-0.017033616080880165,-0.013327078893780708
1761505475233362200,1.083362060546875,-0.006361022591590881,0.016657067462801933,0.005071061663329601
1761505475243399200,1.093399169921875,0.003634353168308735,0.05988682806491852,0.011697272770106792
1761505475253435100,1.10343505859375,0.01689673587679863,0.09492699056863785,0.005740765947848558
1761505475263471000,1.11347119140625,0.02693871781229973,0.08213929086923599,-0.004623990971595049
1761505475273508400,1.12350830078125,0.039341434836387634,0.03244614601135254,-0.003264958504587412
1761505475283544300,1.13354443359375,0.0403294675052166,-0.014171956107020378,0.013849047012627125
1761505475293580300,1.143580322265625,0.03173258900642395,-0.05975527688860893,0.04239382967352867
1761505475303617300,1.1536171875,0.01807616651058197,-0.07195602357387543,0.06175794079899788
1761505475313653200,1.1636533203125,0.006656423676759005,-0.060154061764478683,0.06985019892454147
1761505475323689200,1.173689208984375,-0.010160639882087708,-0.028973236680030823,0.07027231156826019
1761505475333726200,1.183726318359375,-0.01337108202278614,0.0268753282725811,0.06334739178419113
1761505475343762200,1.19376220703125,-0.016269933432340622,0.05431334674358368,0.038624729961156845
1761505475353798100,1.203798095703125,-0.006373939570039511,0.053333830088377,0.00358519796282053
1761505475363835400,1.21383544921875,-0.004279363434761763,0.06495159864425659,-0.008725795894861221
1761505475373871400,1.223871337890625,0.00031541241332888603,0.0646015852689743,-0.002499259077012539
1761505475383907300,1.2339072265625,-0.0008566449396312237,0.027715740725398064,0.0018273125169798732
1761505475393944300,1.2439443359375,0.004725050181150436,-0.037491947412490845,0.02148750051856041
1761505475403980300,1.253980224609375,0.00640071090310812,-0.07483506202697754,0.06239285320043564
1761505475414016300,1.264016357421875,0.00781317986547947,-0.08575735986232758,0.09251032769680023
1761505475424053200,1.27405322265625,0.011215901002287865,-0.06457031518220901,0.08992040157318115
1761505475434089200,1.284089111328125,0.026089316233992577,-0.009851066395640373,0.06363540142774582
1761505475444125200,1.294125244140625,0.04253966361284256,0.03055308200418949,0.02417774312198162
1761505475454161200,1.3041611328125,0.046121664345264435,0.05601508915424347,-0.002870155731216073
1761505475464198100,1.3141982421875,0.035286061465740204,0.06095179170370102,-0.011367503553628922
1761505475474234400,1.324234375,0.014266188256442547,0.05475655570626259,-0.00956280529499054
1761505475484270300,1.334270263671875,-0.004257694818079472,0.019024919718503952,-0.012103194370865822
1761505475494307300,1.344307373046875,-0.014454199932515621,-0.01632038503885269,-0.013310364447534084
1761505475504343300,1.35434326171875,-0.014849147759377956,-0.030059633776545525,-0.0052625578828155994
1761505475514379300,1.364379150390625,-0.015722177922725677,-0.053844064474105835,-0.005932135507464409
1761505475524416300,1.374416259765625,-0.013532527722418308,-0.06880756467580795,-0.006978225894272327
1761505475534452200,1.3844521484375,0.0006909910589456558,-0.030048085376620293,-0.015676356852054596
1761505475544488200,1.39448828125,0.010215254500508308,0.0023178462870419025,-0.023863181471824646
1761505475554525200,1.404525146484375,0.008764981292188168,0.020838502794504166,-0.018325280398130417
1761505475564561200,1.41456103515625,0.005059991497546434,0.018024606630206108,0.0058144088834524155
1761505475574597000,1.42459716796875,0.0064145238138735294,0.008603464812040329,0.0343802347779274
1761505475584635100,1.43463525390625,0.0074952347204089165,-0.007266045548021793,0.055243439972400665
1761505475594671000,1.444671142578125,0.002917962847277522,-0.026095189154148102,0.06631337851285934
1761505475604707000,1.45470703125,-0.000676239375025034,-0.019670845940709114,0.06064457446336746
1761505475614744000,1.464744140625,0.010547047480940819,0.01700393483042717,0.03963174298405647
1761505475624780000,1.474780029296875,0.011774231679737568,0.06430886685848236,0.004320358857512474
1761505475634816000,1.48481591796875,0.004635507706552744,0.08401872217655182,-0.02842791937291622
1761505475644853000,1.49485302734375,-0.003112692851573229,0.06308893859386444,-0.035553205758333206
1761505475654889000,1.504888916015625,-0.005295238923281431,0.024760758504271507,-0.0177018940448761
1761505475664925000,1.514925048828125,-0.0008589457720518112,-0.027910443022847176,0.01868514157831669
1761505475674961200,1.524961181640625,0.006396147888153791,-0.05258745700120926,0.04778898507356644
1761505475684998100,1.534998046875,0.012887069955468178,-0.06306646019220352,0.05544264242053032
1761505475695034000,1.5450341796875,0.017534879967570305,-0.04554649069905281,0.04426718130707741
1761505475705070000,1.555070068359375,0.023720603436231613,-0.0016581283416599035,0.011875685304403305
1761505475715107000,1.565107177734375,0.028441986069083214,0.035122279077768326,-0.029519610106945038
1761505475725143000,1.57514306640625,0.02865450643002987,0.02901938185095787,-0.05402921512722969
1761505475735179000,1.585178955078125,0.03213265538215637,0.027865532785654068,-0.04919641837477684
1761505475745216000,1.595216064453125,0.044368546456098557,0.0010613491758704185,-0.03650619089603424
1761505475755252000,1.605251953125,0.06924798339605331,-0.04005628079175949,-0.03231306001543999
1761505475765288000,1.615287841796875,0.09008189290761948,-0.06896142661571503,-0.049149565398693085
1761505475775325200,1.6253251953125,0.10889662057161331,-0.11077304184436798,-0.0707118883728981
1761505475785361200,1.635361083984375,0.11517475545406342,-0.1292945295572281,-0.06497064977884293
1761505475795397000,1.645397216796875,0.1017104759812355,-0.11304430663585663,-0.029542328789830208
1761505475805434000,1.65543408203125,0.07080528885126114,-0.08319240063428879,0.01076248474419117
1761505475815470000,1.665469970703125,0.047620609402656555,-0.025168247520923615,0.035634011030197144
1761505475825506000,1.675506103515625,0.03422757238149643,0.037832289934158325,0.03737332299351692
1761505475835542000,1.6855419921875,0.02642793580889702,0.08878631889820099,0.03357452526688576
1761505475845579000,1.6955791015625,0.02896140143275261,0.11654897779226303,0.031633615493774414
1761505475855615000,1.705614990234375,0.027176126837730408,0.10167830437421799,0.021211786195635796
1761505475865651000,1.71565087890625,0.023175792768597603,0.055204812437295914,0.013806600123643875
1761505475875688200,1.725688232421875,0.013674894347786903,0.012143704108893871,0.01076221838593483
1761505475885724200,1.73572412109375,-0.0013418728485703468,-0.017186220735311508,0.007530738599598408
1761505475895760100,1.745760009765625,-0.01582428812980652,-0.01928965374827385,-0.009796136058866978
1761505475905797000,1.755797119140625,-0.017951088026165962,-0.004022284410893917,-0.027512017637491226
1761505475915833000,1.7658330078125,-0.020963706076145172,0.018647601827979088,-0.030613860115408897
1761505475925869000,1.775869140625,-0.015823006629943848,0.03352987766265869,-0.020797982811927795
1761505475935906000,1.785906005859375,-0.010775764472782612,0.03842521831393242,-0.018180040642619133
1761505475945942000,1.79594189453125,-0.008605289272964,0.04748023301362991,-0.0206807479262352
1761505475955978000,1.80597802734375,-0.010705817490816116,0.0353073924779892,-0.022850176319479942
1761505475966015000,1.816014892578125,-0.006215995643287897,0.04282789304852486,-0.024021435528993607
1761505475976051200,1.82605126953125,-0.001612790860235691,0.04110277444124222,-0.03167521581053734
1761505475986087200,1.836087158203125,0.0038581406697630882,0.024240437895059586,-0.0501524917781353
1761505475996123100,1.846123046875,0.009656203910708427,-0.0006728402804583311,-0.0591781921684742
1761505476006160100,1.85616015625,0.019032660871744156,-0.014715421944856644,-0.04439365118741989
1761505476016196000,1.866196044921875,0.033142827451229095,-0.03262687847018242,-0.019479207694530487
1761505476026232000,1.876232177734375,0.04202846437692642,-0.04130345582962036,0.009470152668654919
1761505476036269000,1.88626904296875,0.05151239410042763,-0.031821466982364655,0.023925339803099632
1761505476046305000,1.896304931640625,0.055766794830560684,-0.010968651622533798,0.027431124821305275
1761505476056341000,1.906341064453125,0.0550973005592823,0.011924018152058125,0.011259512044489384
1761505476066378000,1.9163779296875,0.05673860386013985,0.028753597289323807,-0.007234811317175627
1761505476076414000,1.9264140625,0.053125400096178055,0.026306889951229095,-0.02285080961883068
1761505476086450000,1.936449951171875,0.04803982749581337,0.006470334716141224,-0.029846932739019394
1761505476096487200,1.946487060546875,0.04464691877365112,-0.006715422496199608,-0.022045370191335678
1761505476106523100,1.956523193359375,0.03799887001514435,-0.010201500728726387,-0.0056834411807358265
1761505476116559000,1.96655908203125,0.03163667395710945,-0.022426413372159004,0.020147906616330147
1761505476126595000,1.976594970703125,0.03265399858355522,-0.022621624171733856,0.040294717997312546
1761505476136632000,1.986632080078125,0.03924025595188141,0.0042578354477882385,0.0473354272544384
1761505476146668000,1.99666796875,0.049025774002075195,0.023844853043556213,0.03926258534193039
1761505476156704000,2.0067041015625,0.048256680369377136,0.04377608746290207,0.017674634233117104
1761505476166741000,2.016740966796875,0.036264996975660324,0.04775591567158699,-0.004949184600263834
1761505476176777000,2.02677685546875,0.028932860121130943,0.02623732201755047,-0.013617496937513351
1761505476186813000,2.03681298828125,0.013698246330022812,-0.009476466104388237,-0.007601948454976082
1761505476196850200,2.04685009765625,-0.0036527886986732483,-0.03391505405306816,0.014954867772758007
1761505476206886100,2.05688623046875,-0.016319848597049713,-0.026177773252129555,0.043913014233112335
1761505476216922000,2.066922119140625,-0.028322061523795128,-0.005752994678914547,0.051586300134658813
1761505476226958000,2.0769580078125,-0.034806862473487854,0.01372483279556036,0.028830120339989662
1761505476236995000,2.0869951171875,-0.038917191326618195,0.04891761392354965,-0.013749990612268448
1761505476247031000,2.097031005859375,-0.04286905750632286,0.06196044757962227,-0.055783458054065704
1761505476257067000,2.10706689453125,-0.04438938573002815,0.03549973666667938,-0.09149926155805588
1761505476267104000,2.11710400390625,-0.0562705434858799,-0.013808157294988632,-0.08146154135465622
1761505476277140000,2.127139892578125,-0.06835373491048813,-0.036256369203329086,-0.04621325060725212
1761505476287176000,2.137176025390625,-0.07870890200138092,-0.031266938894987106,-0.019929978996515274
1761505476297213200,2.147213134765625,-0.0765223428606987,-0.006155573762953281,-0.028451120480895042
1761505476307249200,2.157249267578125,-0.07289565354585648,0.021473392844200134,-0.05870915949344635
1761505476317285000,2.16728515625,-0.05703095719218254,0.035388536751270294,-0.0915844514966011
1761505476327321000,2.177321044921875,-0.04722386598587036,0.02891519106924534,-0.10476469993591309
1761505476337358000,2.187358154296875,-0.04338012635707855,-0.0011686752550303936,-0.07329119741916656
1761505476347394000,2.19739404296875,-0.0392940379679203,-0.03379346430301666,0.0028080972842872143
1761505476357430000,2.207429931640625,-0.0453178733587265,-0.043108630925416946,0.0814804807305336
1761505476367467000,2.217467041015625,-0.04277109354734421,-0.02295995131134987,0.11809202283620834
1761505476377503000,2.2275029296875,-0.03985079377889633,0.02214527502655983,0.08620554208755493
1761505476387539000,2.2375390625,-0.022854499518871307,0.054072048515081406,0.009829547256231308
1761505476397576200,2.247576171875,-0.004134434275329113,0.05303628742694855,-0.06851161271333694
1761505476407612200,2.257612060546875,0.0041322833858430386,0.010098673403263092,-0.11833003908395767
1761505476417648000,2.267648193359375,-0.004079093225300312,-0.04707833752036095,-0.10875630378723145
1761505476427684000,2.27768408203125,-0.021451957523822784,-0.06765418499708176,-0.042684342712163925
1761505476437721000,2.28772119140625,-0.04039040952920914,-0.05914302170276642,0.03238097205758095
1761505476447757000,2.297757080078125,-0.05065849423408508,-0.02882532775402069,0.07316302508115768
1761505476457793000,2.30779296875,-0.050197187811136246,-0.001903517171740532,0.07020282745361328
1761505476467830000,2.317830078125,-0.037984732538461685,0.030673334375023842,0.03739667683839798
1761505476477866000,2.327865966796875,-0.030141498893499374,0.039560385048389435,0.000011313357390463352
1761505476487902000,2.33790185546875,-0.02844160422682762,0.034160830080509186,-0.014076275750994682
1761505476497939000,2.34793896484375,-0.03658444061875343,0.01451909076422453,-0.023104557767510414
1761505476507975000,2.357974853515625,-0.046695929020643234,0.003956728149205446,-0.031473807990550995
1761505476518011100,2.36801123046875,-0.05096586421132088,0.00830783136188984,-0.042745765298604965
1761505476528047000,2.378047119140625,-0.04915358126163483,0.009193331934511662,-0.04820897430181503
1761505476538084000,2.388083984375,-0.04269404336810112,-0.0009130036924034357,-0.04608933627605438
1761505476548120000,2.3981201171875,-0.03559618815779686,-0.010748057626187801,-0.02791672572493553
1761505476558156000,2.408156005859375,-0.023466432467103004,-0.03319564461708069,-0.0012857295805588365
1761505476568193000,2.418193115234375,-0.023288533091545105,-0.04859617352485657,0.035465892404317856
1761505476578228200,2.428228271484375,-0.026807716116309166,-0.037137798964977264,0.061895400285720825
1761505476588264200,2.43826416015625,-0.025098497048020363,-0.03326423093676567,0.052317339926958084
1761505476598300200,2.448300048828125,-0.028397243469953537,-0.022218132391572,0.017808925360441208
1761505476608337400,2.45833740234375,-0.03787596523761749,0.0040467604994773865,-0.02207510732114315
1761505476618373400,2.468373291015625,-0.042027413845062256,0.0452665276825428,-0.0548008568584919
1761505476628409300,2.478409423828125,-0.0407770611345768,0.06018981710076332,-0.06625884026288986
1761505476638446300,2.4884462890625,-0.030477751046419144,0.050494235008955,-0.04239840433001518
1761505476648482300,2.498482421875,-0.023013975471258163,0.05540483817458153,0.013251543045043945
1761505476658518300,2.508518310546875,-0.01456746831536293,0.04927597567439079,0.046821121126413345
1761505476668554200,2.51855419921875,-0.013677706941962242,0.05570751056075096,0.04625413566827774
1761505476678591200,2.52859130859375,-0.00956474244594574,0.06891407817602158,0.0190707016736269
1761505476688627200,2.538627197265625,-0.0044533382169902325,0.060908082872629166,-0.009866408072412014
1761505476698663200,2.5486630859375,0.005525053013116121,0.05083610862493515,-0.008065620437264442
1761505476708700400,2.558700439453125,0.0051988158375024796,0.03722815215587616,0.011946969665586948
1761505476718736400,2.568736328125,-0.0036442135460674763,0.012075040489435196,0.036488112062215805
1761505476728772400,2.5787724609375,-0.015109654515981674,0.016938503831624985,0.05493050441145897
1761505476738808300,2.588808349609375,-0.02232234925031662,0.02633199654519558,0.05198390781879425
1761505476748845300,2.59884521484375,-0.031264711171388626,0.026620151475071907,0.022596992552280426
1761505476758881300,2.60888134765625,-0.032510362565517426,0.022841865196824074,-0.018062297254800797
1761505476768917200,2.618917236328125,-0.023730188608169556,-0.004012652672827244,-0.045678213238716125
1761505476778954200,2.628954345703125,-0.020595170557498932,-0.031868260353803635,-0.03964782506227493
1761505476788990200,2.638990234375,-0.020023923367261887,-0.039695557206869125,-0.01032482273876667
1761505476799026200,2.649026123046875,-0.02498117834329605,-0.015725210309028625,0.016267921775579453
1761505476809062100,2.659062255859375,-0.03033706359565258,0.01479275245219469,0.01842641457915306
1761505476819099400,2.669099365234375,-0.03476552292704582,0.04289236292243004,-0.00003467744681984186
1761505476829135400,2.67913525390625,-0.026236217468976974,0.058746159076690674,-0.008887025527656078
1761505476839171300,2.68917138671875,-0.014204267412424088,0.057803675532341,-0.004450657870620489
1761505476849208300,2.699208251953125,-0.00012307008728384972,0.03390686586499214,0.00390660809352994
1761505476859244300,2.709244384765625,0.0066632600501179695,-0.005712528713047504,0.010361152701079845
1761505476869280300,2.7192802734375,0.008922153152525425,-0.04458402842283249,0.00918323639780283
1761505476879316200,2.729316162109375,0.0003933720290660858,-0.07151488959789276,0.020755434408783913
1761505476889353200,2.739353271484375,-0.01378316804766655,-0.03388176113367081,0.037865977734327316
1761505476899389200,2.74938916015625,-0.01880025863647461,0.007853219285607338,0.03648613393306732
1761505476909425200,2.759425048828125,-0.017319276928901672,0.046294886618852615,0.009178879670798779
1761505476919462100,2.769462158203125,-0.013294802978634834,0.05959216505289078,-0.025924142450094223
1761505476929498000,2.779498046875,-0.006162059027701616,0.03378533571958542,-0.0449681431055069
1761505476939534300,2.789534423828125,-0.0007184380665421486,-0.0063493698835372925,-0.03783521428704262
1761505476949570300,2.7995703125,-0.007288190070539713,-0.0532526969909668,-0.008865883573889732
1761505476959607300,2.809607177734375,-0.012685760855674744,-0.052583690732717514,0.027513496577739716
1761505476969643300,2.819643310546875,-0.017330579459667206,-0.0385456345975399,0.04316835477948189
1761505476979679200,2.82967919921875,-0.023670971393585205,-0.003003699705004692,0.030959734693169594
1761505476989716200,2.83971630859375,-0.024883775040507317,0.03450053557753563,-0.004027011804282665
1761505476999752200,2.849752197265625,-0.02921188622713089,0.045335348695516586,-0.041298143565654755
1761505477009788200,2.8597880859375,-0.036592040210962296,0.03730964660644531,-0.05821880325675011
1761505477019824400,2.869824462890625,-0.04242628440260887,0.029732320457696915,-0.03946664556860924
1761505477029861000,2.879861083984375,-0.04333815351128578,0.013764805160462856,-0.015661979094147682
1761505477039897000,2.88989697265625,-0.04117980971932411,0.0009782789275050163,-0.004123004153370857
1761505477049933300,2.899933349609375,-0.030009713023900986,-0.01173005998134613,-0.01767929270863533
1761505477059969500,2.909969482421875,-0.01852867566049099,-0.03009985387325287,-0.029052352532744408
1761505477070006300,2.92000634765625,-0.014767494052648544,-0.040181782096624374,-0.03135545551776886
1761505477080042200,2.930042236328125,-0.02046213112771511,-0.04183027893304825,-0.023445334285497665
1761505477090078500,2.940078369140625,-0.03207617625594139,-0.05279557779431343,-0.022426141425967216
1761505477100115200,2.950115234375,-0.04258512705564499,-0.04060133919119835,-0.03355605527758598
1761505477110151200,2.960151123046875,-0.04714179411530495,-0.021558407694101334,-0.042524516582489014
1761505477120187400,2.9701875,-0.05487934127449989,-0.006720516365021467,-0.0491790734231472
1761505477130223400,2.980223388671875,-0.060728710144758224,0.007419270928949118,-0.048898909240961075
1761505477140260000,2.990260009765625,-0.04915425926446915,0.03168543055653572,-0.04650885984301567
1761505477150296300,3.00029638671875,-0.03646615892648697,0.051997095346450806,-0.03791430965065956
1761505477160332300,3.010332275390625,-0.024949584156274796,0.05315796658396721,-0.023271983489394188
1761505477170368300,3.0203681640625,-0.011362668126821518,0.048675864934921265,-0.006504455115646124
1761505477180405500,3.030405517578125,-0.007432255893945694,0.034650348126888275,0.010239697992801666
1761505477190441500,3.04044140625,-0.00689802598208189,0.010082953609526157,0.021091278642416
1761505477200477400,3.0504775390625,-0.016292918473482132,-0.009872477501630783,0.024439716711640358
1761505477210514400,3.060514404296875,-0.028476880863308907,-0.022396791726350784,0.013400114141404629
1761505477220550400,3.07055029296875,-0.04192238301038742,-0.003923063166439533,0.0024109664373099804
1761505477230586400,3.08058642578125,-0.04884713515639305,0.013670312240719795,-0.0031763454899191856
1761505477240622300,3.090622314453125,-0.04851790890097618,0.018974272534251213,-0.011013953015208244
1761505477250659300,3.100659423828125,-0.04610481858253479,0.017257068306207657,-0.014290440827608109
1761505477260695300,3.1106953125,-0.040590859949588776,0.018858937546610832,-0.01317206583917141
1761505477270731300,3.120731201171875,-0.042865198105573654,0.009605783969163895,-0.004652879200875759
1761505477280767200,3.130767333984375,-0.04281989857554436,0.006228056736290455,0.0073593598790466785
1761505477290804500,3.140804443359375,-0.02211834490299225,-0.0035241725854575634,0.01570783741772175
1761505477300840400,3.15084033203125,0.002869206015020609,-0.003887752303853631,0.014157070778310299
1761505477310876400,3.16087646484375,0.018173594027757645,-0.011132615618407726,0.010809743776917458
1761505477320913400,3.170913330078125,0.027782989665865898,-0.01815880462527275,0.00008106988389045
1761505477330949400,3.180949462890625,0.02898993343114853,-0.019202496856451035,-0.014714120887219906
1761505477340985300,3.1909853515625,0.02031303010880947,-0.02517011947929859,-0.024801455438137054
1761505477351021300,3.201021240234375,0.002340953564271331,-0.01352225337177515,-0.01641383022069931
1761505477361058300,3.211058349609375,-0.023616522550582886,0.009617658331990242,-0.007645242847502232
1761505477371094300,3.22109423828125,-0.03873075917363167,0.024360651150345802,-0.014084232971072197
1761505477381130200,3.231130126953125,-0.05184363201260567,0.03649241849780083,-0.01788616180419922
1761505477391166200,3.241166259765625,-0.05587965250015259,0.026042437180876732,-0.024164296686649323
1761505477401203500,3.251203369140625,-0.054515641182661057,0.0066001988016068935,-0.02433682791888714
1761505477411239400,3.261239501953125,-0.04248641058802605,-0.025807809084653854,-0.012483363971114159
1761505477421275400,3.271275390625,-0.038751475512981415,-0.051232896745204926,0.005773972254246473
1761505477431311400,3.281311279296875,-0.03269491344690323,-0.07410944998264313,0.025950079783797264
1761505477441348400,3.291348388671875,-0.029330454766750336,-0.07549218833446503,0.03887639567255974
1761505477451384300,3.30138427734375,-0.030659105628728867,-0.040229544043540955,0.043681804090738297
1761505477461420300,3.311420166015625,-0.030139019712805748,0.008686373941600323,0.041075315326452255
1761505477471456300,3.321456298828125,-0.026253467425704002,0.05430418998003006,0.03257370367646217
1761505477481493200,3.3314931640625,-0.028668005019426346,0.07279902696609497,0.02429298311471939
1761505477491529200,3.341529296875,-0.03050532191991806,0.06473124772310257,0.0170609038323164
1761505477501565200,3.351565185546875,-0.03067123517394066,0.04632622376084328,0.0058504692278802395
1761505477511601200,3.36160107421875,-0.028844039887189865,0.007546605076640844,-0.009641937911510468
1761505477521638400,3.371638427734375,-0.020938094705343246,-0.0211411751806736,-0.012073664925992489
1761505477531674400,3.38167431640625,-0.018212081864476204,-0.04210158437490463,0.005865122191607952
1761505477541710300,3.39171044921875,-0.0160225797444582,-0.042707256972789764,0.03501013666391373
1761505477551747300,3.401747314453125,-0.010417424142360687,-0.024529319256544113,0.04785589501261711
1761505477561783300,3.411783203125,-0.0039034783840179443,0.010504056699573994,0.027631478384137154
1761505477571819300,3.4218193359375,0.0013261707499623299,0.04757286235690117,0.0018621995113790035
1761505477581855500,3.43185546875,0.0035976103972643614,0.06830526888370514,-0.02757127396762371
1761505477591892500,3.441892578125,0.00463464530184865,0.05211137980222702,-0.036682747304439545
1761505477601928400,3.451928466796875,0.008698096498847008,0.01619173027575016,-0.019587649032473564
1761505477611964400,3.46196435546875,0.015356265008449554,-0.01564609445631504,-0.004265151917934418
1761505477622000400,3.47200048828125,0.027066953480243683,-0.03529947251081467,-0.006922914646565914
1761505477632037600,3.48203759765625,0.04469921067357063,-0.05258418619632721,-0.011361604556441307
1761505477642073600,3.492073486328125,0.05021825432777405,-0.03937576711177826,0.004464120138436556
1761505477652109600,3.502109619140625,0.03609657660126686,-0.013944445177912712,0.0395941436290741
1761505477662145500,3.5121455078125,0.023087473586201668,0.0033247550018131733,0.06545837968587875
1761505477672182500,3.5221826171875,0.016890298575162888,0.02579624205827713,0.07778428494930267
1761505477682218500,3.532218505859375,0.01904432661831379,0.05852189287543297,0.0776449516415596
1761505477692254500,3.54225439453125,0.01970585621893406,0.0669366866350174,0.059619344770908356
1761505477702290400,3.55229052734375,0.019404977560043335,0.049291208386421204,0.043979886919260025
1761505477712327400,3.562327392578125,0.010429326444864273,0.02533048205077648,0.030263807624578476
1761505477722363400,3.57236328125,0.0065496331080794334,0.006600469816476107,0.015478469431400299
1761505477732399400,3.5823994140625,0.003452909644693136,-0.014421459287405014,-0.006501663010567427
1761505477742435300,3.592435302734375,0.0013137347996234894,-0.03557364270091057,-0.02206055074930191
1761505477752472600,3.60247265625,-0.0018628835678100586,-0.0414765365421772,-0.021796632558107376
1761505477762508500,3.612508544921875,0.0010362397879362106,-0.04924514889717102,-0.011950137093663216
1761505477772544500,3.62254443359375,-0.0002540615387260914,-0.019969020038843155,0.00986807607114315
1761505477782580700,3.632580810546875,-0.008590703830122948,0.012208021245896816,0.011233124881982803
1761505477792617500,3.642617431640625,0.0023884442634880543,0.04440590366721153,-0.0017263491172343493
1761505477802653400,3.6526533203125,0.013474738225340843,0.059243232011795044,-0.012287909165024757
1761505477812689700,3.662689697265625,0.02391779236495495,0.03359139710664749,-0.009972822852432728
1761505477822725600,3.6727255859375,0.025177937000989914,-0.0037690370809286833,0.003810015507042408
1761505477832762400,3.682762451171875,0.022599197924137115,-0.04983533173799515,0.015424593351781368
1761505477842798600,3.692798583984375,0.015739314258098602,-0.07148152589797974,0.027867097407579422
1761505477852834600,3.70283447265625,0.0021630513947457075,-0.050995416939258575,0.03518546372652054
1761505477862870500,3.71287060546875,-0.006579635664820671,-0.02120957523584366,0.023467471823096275
1761505477872907500,3.722907470703125,-0.013498795218765736,0.014548955485224724,-0.0011859425576403737
1761505477882943700,3.73294384765625,-0.018048124387860298,0.04293832182884216,-0.022599268704652786
1761505477892979700,3.742979736328125,-0.022104118019342422,0.06364093720912933,-0.024352693930268288
1761505477903015700,3.753015625,-0.024640986695885658,0.06030409410595894,-0.02634105272591114
1761505477913052700,3.763052734375,-0.018719714134931564,0.03461950644850731,-0.017466600984334946
1761505477923088600,3.773088623046875,-0.015018777921795845,0.00338665209710598,0.001097006956115365
1761505477933124600,3.78312451171875,-0.009358495473861694,-0.016276797279715538,0.03627843037247658
1761505477943160600,3.79316064453125,-0.005282762460410595,-0.03893563151359558,0.05747790262103081
1761505477953197600,3.803197509765625,0.0020177606493234634,-0.043468065559864044,0.06273551285266876
1761505477963233500,3.813233642578125,0.012318570166826248,-0.025905722752213478,0.044879376888275146
1761505477973269500,3.82326953125,0.01978633925318718,-0.00933739822357893,0.005652343854308128
1761505477983305500,3.833305419921875,0.02163332886993885,0.012344516813755035,-0.033295851200819016
1761505477993342700,3.8433427734375,0.020634111016988754,0.008997722528874874,-0.04879118874669075
1761505478003378700,3.853378662109375,0.014579080045223236,0.01074189692735672,-0.024928949773311615
1761505478013414700,3.86341455078125,-0.003338135778903961,-0.006964395754039288,0.029419509693980217
1761505478023450600,3.87345068359375,-0.01024683564901352,-0.00883409008383751,0.08249612897634506
1761505478033487600,3.883487548828125,-0.007417760323733091,-0.0018331720493733883,0.10480915755033493
1761505478043523600,3.893523681640625,0.003038844559341669,0.010209236294031143,0.08401181548833847
1761505478053559600,3.9035595703125,0.01410640962421894,0.005801971070468426,0.034891944378614426
1761505478063595500,3.913595458984375,0.024653056636452675,0.007262799888849258,-0.01876821741461754
1761505478073632500,3.923632568359375,0.031451039016246796,0.004123731516301632,-0.05820004642009735
1761505478083668500,3.93366845703125,0.030944736674427986,-0.02488214336335659,-0.06757868081331253
1761505478093704400,3.943704345703125,0.024976059794425964,-0.053959865123033524,-0.05879716947674751
1761505478103740400,3.953740478515625,0.018565155565738678,-0.04578091949224472,-0.029276516288518906
1761505478113777700,3.963777587890625,0.021179581061005592,-0.02966480143368244,-0.007383469492197037
1761505478123813600,3.973813720703125,0.02385520376265049,-0.013271365314722061,0.01027719210833311
1761505478133849600,3.983849609375,0.03469373658299446,0.010737299919128418,0.01620512269437313
1761505478143885600,3.993885498046875,0.033645063638687134,0.017085617408156395,0.022521477192640305
1761505478153922600,4.003922607421875,0.029203444719314575,0.01597907394170761,0.029275521636009216
1761505478163956700,4.013956787109375,0.02678292989730835,0.006365202367305756,0.02822641283273697
1761505478173992700,4.02399267578125,0.025011127814650536,-0.008078185841441154,0.027103090658783913
1761505478184029700,4.03402978515625,0.022983983159065247,-0.020734410732984543,0.021679650992155075
1761505478194065700,4.044065673828125,0.014297550544142723,-0.025791486725211143,0.007326012942939997
1761505478204101600,4.0541015625,0.0022360417060554028,-0.0024719652719795704,-0.004155229311436415
1761505478214137600,4.0641376953125,-0.010269897058606148,0.029004467651247978,-0.009743873029947281
1761505478224174600,4.074174560546875,-0.028518440201878548,0.042781926691532135,-0.006785544566810131
1761505478234210600,4.08421044921875,-0.03923766314983368,0.045607272535562515,0.011172949336469173
1761505478244246500,4.09424658203125,-0.03301331028342247,0.035833485424518585,0.03465789183974266
1761505478254282500,4.104282470703125,-0.026840370148420334,0.011554243974387646,0.03909631446003914
1761505478264319700,4.11431982421875,-0.02352769859135151,-0.029754366725683212,0.019322041422128677
1761505478274355700,4.124355712890625,-0.015031149610877037,-0.05418780446052551,0.006194256246089935
1761505478284391700,4.1343916015625,-0.003982984460890293,-0.03122674860060215,0.022737104445695877
1761505478294427600,4.144427734375,0.0010133720934391022,-0.009759805165231228,0.04922597110271454
1761505478304464600,4.154464599609375,-0.01001640036702156,0.008451199159026146,0.057868149131536484
1761505478314500600,4.16450048828125,-0.017916401848196983,0.024929242208600044,0.043914783746004105
1761505478324536600,4.17453662109375,-0.026755012571811676,0.028760451823472977,0.005248836241662502
1761505478334572500,4.184572509765625,-0.019307482987642288,0.04755304753780365,-0.03151876479387283
1761505478344609500,4.194609619140625,-0.02384810894727707,0.03253922611474991,-0.05698994919657707
1761505478354645500,4.2046455078125,-0.039406295865774155,0.03369849920272827,-0.04664037376642227
1761505478364681500,4.214681396484375,-0.04303450509905815,0.03817674517631531,-0.0187247171998024
1761505478374717400,4.224717529296875,-0.04368032142519951,0.01898707076907158,0.015703829005360603
1761505478384753400,4.23475341796875,-0.04447932541370392,0.003414321690797806,0.04213854297995567
1761505478394790700,4.244790771484375,-0.040716543793678284,-0.005986636504530907,0.050146400928497314
1761505478404826600,4.25482666015625,-0.03365275263786316,-0.011209053918719292,0.03540625050663948
1761505478414862600,4.264862548828125,-0.03282451257109642,0.013388700783252716,0.013180039823055267
1761505478424898600,4.274898681640625,-0.03488084673881531,0.030695710331201553,0.006116128992289305
1761505478434935600,4.284935546875,-0.028263689950108528,0.0615478977560997,0.0240357406437397
1761505478444971500,4.294971435546875,-0.01943543739616871,0.0598311722278595,0.05437452718615532
1761505478455007500,4.305007568359375,-0.009594257920980453,0.03078966774046421,0.06717794388532639
1761505478465043500,4.31504345703125,-0.000238912645727396,-0.002121342346072197,0.0487837940454483
1761505478475080400,4.32508056640625,0.005640814080834389,-0.03320522606372833,0.009277128614485264
1761505478485116400,4.335116455078125,0.006973493378609419,-0.0322820320725441,-0.038989290595054626
1761505478495152400,4.34515234375,-0.003242126200348139,-0.007548989728093147,-0.07585596293210983
1761505478505188400,4.355188232421875,-0.01733098179101944,0.01617979072034359,-0.09017835557460785
1761505478515224600,4.365224609375,-0.029772469773888588,0.027401551604270935,-0.07926791161298752
1761505478525261600,4.375261474609375,-0.02955843135714531,0.026443207636475563,-0.04193452373147011
1761505478535297500,4.385297607421875,-0.017919618636369705,0.026634689420461655,0.0021967203356325626
1761505478545333500,4.39533349609375,0.0004302957095205784,0.0425017885863781,0.03751813620328903
1761505478555369700,4.40536962890625,0.013127448037266731,0.04042558744549751,0.04630869999527931
1761505478565406500,4.415406494140625,0.03217218071222305,0.015307437628507614,0.03890528529882431
1761505478575442400,4.4254423828125,0.04714660346508026,-0.014000650495290756,0.025835558772087097
1761505478585478400,4.435478515625,0.056025732308626175,-0.0298455897718668,0.01940144971013069
1761505478595514400,4.445514404296875,0.05850620195269585,-0.03312580659985542,0.016903938725590706
1761505478605551400,4.45555126953125,0.05349596589803696,-0.019330771639943123,0.02171662449836731
1761505478615587300,4.46558740234375,0.03762751817703247,-0.0075236475095152855,0.018995940685272217
1761505478625623300,4.475623291015625,0.030027946457266808,-0.009877924807369709,0.01469817291945219
1761505478635659300,4.4856591796875,0.025240115821361542,-0.008420908823609352,-0.0008451007306575775
1761505478645695200,4.4956953125,0.026495983824133873,-0.0010070728603750467,-0.01598716527223587
1761505478655732200,4.505732177734375,0.02942279912531376,0.005411944352090359,-0.012383109889924526
1761505478665768200,4.515768310546875,0.025833643972873688,0.024916036054491997,0.025018319487571716
1761505478675804200,4.52580419921875,0.023419752717018127,0.0370430052280426,0.06802304834127426
1761505478685840100,4.535840087890625,0.018888741731643677,0.03673645108938217,0.08483731001615524
1761505478695877400,4.54587744140625,0.012355742044746876,0.041091784834861755,0.07814931124448776
1761505478705913300,4.555913330078125,0.00940662994980812,0.036594171077013016,0.04589333385229111
1761505478715949300,4.56594921875,0.005043306387960911,0.02891600877046585,0.009095639921724796
1761505478725985300,4.5759853515625,0.0032360292971134186,0.019810235127806664,-0.012440867722034454
1761505478736023300,4.586023193359375,-0.00429539056494832,0.009010317735373974,-0.02006256766617298
1761505478746059300,4.596059326171875,-0.011200102046132088,-0.007294337265193462,-0.01546319480985403
1761505478756095200,4.60609521484375,-0.02193051017820835,-0.02324960008263588,-0.0005992938531562686
1761505478766131200,4.616131103515625,-0.01761428266763687,-0.014036336913704872,0.02018965780735016
1761505478776168400,4.62616845703125,-0.009391507133841515,0.006386646069586277,0.03409561887383461
1761505478786204400,4.636204345703125,-0.005750034004449844,0.008953370153903961,0.0326559953391552
1761505478796240400,4.646240478515625,-0.005135109648108482,-0.03149125725030899,0.029349947348237038
1761505478806276400,4.6562763671875,-0.005871581844985485,-0.08088012039661407,0.024716008454561234
1761505478816312300,4.666312255859375,-0.01032198965549469,-0.12037479877471924,0.01909806951880455
1761505478826349300,4.676349365234375,-0.02427830919623375,-0.1425359845161438,0.01837737485766411
1761505478836385300,4.68638525390625,-0.03405317664146423,-0.1195361316204071,0.017227690666913986
1761505478846421200,4.696421142578125,-0.03975997492671013,-0.06957446038722992,-0.008046107366681099
1761505478856457200,4.706457275390625,-0.0512419268488884,-0.022850628942251205,-0.029615582898259163
1761505478866494200,4.716494140625,-0.05903244391083717,0.0137277627363801,-0.042058490216732025
1761505478876530200,4.7265302734375,-0.055665671825408936,0.03648234158754349,-0.044407930225133896
1761505478886566100,4.736566162109375,-0.04035395011305809,0.03750328719615936,-0.032298583537340164
1761505478896602000,4.74660205078125,-0.018853984773159027,0.03075323812663555,-0.0059577906504273415
1761505478906638000,4.75663818359375,0.00623685447499156,-0.0007426668889820576,0.011052167043089867
1761505478916675300,4.76667529296875,0.01942988857626915,-0.034952834248542786,0.018623268231749535
1761505478926711300,4.776711181640625,0.024387769401073456,-0.05903218686580658,0.011665710248053074
1761505478936747300,4.786747314453125,0.017636656761169434,-0.06945952028036118,0.0021859221160411835
1761505478946783200,4.796783203125,0.00040669552981853485,-0.06370285153388977,-0.015290576964616776
1761505478956820200,4.8068203125,-0.01796751841902733,-0.0418659932911396,-0.03180057927966118
1761505478966856200,4.816856201171875,-0.02401953749358654,-0.02031106688082218,-0.04207318276166916
1761505478976892200,4.82689208984375,-0.011353809386491776,0.008156794123351574,-0.03301417455077171
1761505478986928000,4.83692822265625,-0.001993694342672825,0.02643950656056404,-0.007842245511710644
1761505478996964000,4.846964111328125,0.003998151980340481,0.036816779524087906,0.017736084759235382
1761505479007001000,4.8570009765625,0.007649332284927368,0.027012759819626808,0.030279796570539474
1761505479017037000,4.867037109375,0.012259529903531075,0.009450544603168964,0.03301752731204033
1761505479027073000,4.877072998046875,0.01218041405081749,-0.012411627918481827,0.03846222162246704
1761505479037109200,4.887109130859375,0.010226719081401825,-0.027441710233688354,0.047705523669719696
1761505479047146200,4.897146240234375,0.003911007661372423,-0.01919492334127426,0.04997928813099861
1761505479057182200,4.90718212890625,-0.00415464211255312,-0.009655479341745377,0.03457742929458618
1761505479067218200,4.91721826171875,-0.005716455169022083,0.0025873680133372545,0.00046730833128094673
1761505479077254400,4.92725439453125,-0.010326653718948364,0.010873527266085148,-0.031108196824789047
1761505479087290400,4.937290283203125,-0.014036783948540688,0.011761842295527458,-0.04534182325005531
1761505479097327400,4.947327392578125,-0.016847483813762665,-0.0014255992136895657,-0.04754851758480072
1761505479107363300,4.95736328125,-0.0171652901917696,-0.018159545958042145,-0.03460249304771423
1761505479117399300,4.9673994140625,-0.01626833714544773,-0.02798447757959366,-0.017932968214154243
1761505479127435300,4.977435302734375,-0.0219787135720253,-0.01820131205022335,-0.0024784202687442303
1761505479137472300,4.98747216796875,-0.02168922685086727,0.006406295113265514,0.00041430513374507427
1761505479147508200,4.99750830078125,-0.01675904169678688,0.02503126487135887,-0.005898767150938511
1761505479157544200,5.007544189453125,-0.008550381287932396,0.033589065074920654,-0.0094695333391428
1761505479167580200,5.017580078125,0.004645000211894512,0.04664876312017441,0.006543705239892006
1761505479177617400,5.027617431640625,0.007955309003591537,0.03269645944237709,0.029265262186527252
1761505479187653400,5.0376533203125,-0.0015647346153855324,0.008543661795556545,0.05025677755475044
1761505479197689300,5.047689453125,-0.019611379131674767,-0.005109299439936876,0.050688210874795914
1761505479207725300,5.057725341796875,-0.03790413588285446,-0.005852995906025171,0.02861521765589714
1761505479217761300,5.06776123046875,-0.05035734176635742,0.024836739525198936,0.011816796846687794
1761505479227798300,5.07779833984375,-0.0635274276137352,0.053553130477666855,0.003249727888032794
1761505479237834200,5.087834228515625,-0.06749048084020615,0.07018484175205231,0.023612525314092636
1761505479247870200,5.0978701171875,-0.052850984036922455,0.07979767769575119,0.05209876224398613
1761505479257906200,5.10790625,-0.03554682433605194,0.055461712181568146,0.06405769288539886
1761505479267943200,5.117943115234375,-0.016202999278903008,0.036951616406440735,0.06507230550050735
1761505479277979100,5.127979248046875,0.0010968954302370548,0.015970701351761818,0.04281866177916527
1761505479288015000,5.13801513671875,0.011035754345357418,-0.013604333624243736,0.012047214433550835
1761505479298051000,5.148051025390625,0.013326605781912804,-0.03484783694148064,-0.028009923174977303
1761505479308087000,5.158087158203125,0.013755615800619125,-0.04979052394628525,-0.056647468358278275
1761505479318124300,5.168124267578125,0.01414443738758564,-0.057533930987119675,-0.06602632254362106
1761505479328160300,5.17816015625,0.01168270967900753,-0.056164972484111786,-0.04786979407072067
1761505479338196200,5.1881962890625,0.004756626207381487,-0.024740206077694893,-0.010505110956728458
1761505479348232200,5.198232177734375,-0.010188652202486992,0.01885194145143032,0.022722793743014336
1761505479358269200,5.208269287109375,-0.021334245800971985,0.06198449805378914,0.0423569492995739
1761505479368305200,5.21830517578125,-0.025520090013742447,0.08786570280790329,0.047273024916648865
1761505479378341000,5.228341064453125,-0.019870195537805557,0.07438504695892334,0.04602799564599991
1761505479388377000,5.238377197265625,-0.01525438018143177,0.03477075323462486,0.045334815979003906
1761505479398413000,5.2484130859375,-0.004027558956295252,-0.012851359322667122,0.03472931310534477
1761505479408450000,5.258449951171875,-0.0007724445313215256,-0.026325372979044914,0.020556673407554626
1761505479418486000,5.268486083984375,-0.009784048423171043,-0.0014442577958106995,0.009225988760590553
1761505479428522000,5.27852197265625,-0.013694969937205315,0.025366567075252533,-0.013122555799782276
1761505479438558500,5.288558349609375,-0.009082107804715633,0.03318267688155174,-0.02935612015426159
1761505479448594400,5.298594482421875,-0.0031249653548002243,0.007732125464826822,-0.027514539659023285
1761505479458631200,5.308631103515625,0.007668826729059219,-0.011840511113405228,0.0016012677224352956
1761505479468667400,5.31866748046875,0.01564730890095234,-0.027733244001865387,0.030372731387615204
1761505479478703400,5.328703369140625,0.0164348054677248,-0.041563574224710464,0.04456445202231407
1761505479488739300,5.3387392578125,0.013281540013849735,-0.0252419114112854,0.03474271669983864
1761505479498776300,5.3487763671875,0.009235398843884468,-0.0026066408026963472,0.00460825115442276
1761505479508812300,5.358812255859375,0.009251694194972515,0.03747358173131943,-0.029511019587516785
1761505479518848300,5.36884814453125,0.013874676078557968,0.04505613073706627,-0.051362257450819016
1761505479528884200,5.37888427734375,0.009648596867918968,0.014355184510350227,-0.057167280465364456
1761505479538920200,5.388920166015625,0.009388938546180725,-0.03436761349439621,-0.0322456881403923
1761505479548957200,5.398957275390625,0.00755087286233902,-0.06099025905132294,0.00986482948064804
1761505479558993400,5.408993408203125,0.011311521753668785,-0.062193743884563446,0.046665456146001816
1761505479569029400,5.419029296875,0.011806197464466095,-0.0423690527677536,0.0556078664958477
1761505479579065300,5.4290654296875,0.005855897441506386,-0.003934313077479601,0.04378636181354523
1761505479589102600,5.4391025390625,-0.007638224400579929,0.00902828574180603,0.01439615897834301
1761505479599138600,5.449138671875,-0.030143797397613525,0.010804614052176476,-0.01060852687805891
1761505479609174500,5.459174560546875,-0.048197973519563675,0.00803635735064745,-0.024112433195114136
1761505479619210500,5.46921044921875,-0.05582473427057266,-0.0034453286789357662,-0.02575667016208172
1761505479629246500,5.47924658203125,-0.05283118784427643,-0.010150831192731857,-0.014631222002208233
1761505479639283700,5.48928369140625,-0.035590946674346924,-0.014873415231704712,-0.004762612283229828
1761505479649319700,5.499319580078125,-0.012157050892710686,-0.01141844317317009,0.012336775660514832
1761505479659355600,5.509355712890625,-0.006378525402396917,0.00031304778531193733,0.024630192667245865
1761505479669391600,5.5193916015625,-0.006872947793453932,0.011228926479816437,0.02780153788626194
1761505479679427600,5.529427490234375,-0.01132948137819767,0.021924979984760284,0.01769271120429039
1761505479689464600,5.539464599609375,-0.017040571197867393,0.02418130822479725,0.005071411840617657
1761505479699500500,5.54950048828125,-0.017645109444856644,0.01611725613474846,0.012438780628144741
1761505479709536500,5.55953662109375,-0.015603041276335716,0.023287223652005196,0.03109256736934185
1761505479719572500,5.569572509765625,-0.016855793073773384,0.023567920550704002,0.044731684029102325
1761505479729608400,5.5796083984375,-0.014817386865615845,0.03943738713860512,0.0396682508289814
1761505479739645400,5.5896455078125,-0.011004539206624031,0.03488977253437042,0.008726049214601517
1761505479749681400,5.599681396484375,-0.011807553470134735,0.010664194822311401,-0.02067616581916809
1761505479759717400,5.60971728515625,-0.007854623720049858,-0.01510322093963623,-0.034653231501579285
1761505479769753300,5.61975341796875,-0.010638736188411713,-0.036095116287469864,-0.02916877716779709
1761505479779789600,5.62978955078125,-0.01502176746726036,-0.03984963893890381,-0.008878685534000397
1761505479789826600,5.63982666015625,-0.020579323172569275,-0.022951368242502213,0.004097200930118561
1761505479799862500,5.649862548828125,-0.024086173623800278,0.009098444133996964,0.013613740913569927
1761505479809898500,5.6598984375,-0.01937554031610489,0.04368307814002037,0.02868020348250866
1761505479819934700,5.669934814453125,-0.01818563975393772,0.0584777370095253,0.033119961619377136
1761505479829971500,5.679971435546875,-0.013438900001347065,0.05706818774342537,0.03066987916827202
1761505479840007400,5.69000732421875,-0.008600736036896706,0.029983041808009148,0.022034047171473503
1761505479850043600,5.700043701171875,-0.0005905143916606903,-0.013811985962092876,0.01000729575753212
1761505479860079600,5.71007958984375,-0.006644145585596561,-0.042599957436323166,0.007047458551824093
1761505479870115600,5.720115478515625,-0.004763803444802761,-0.04805004596710205,0.006120769307017326
1761505479880152600,5.730152587890625,-0.0000012721866369247437,-0.032188523560762405,-0.004393656738102436
1761505479890188500,5.7401884765625,0.0030479629058390856,-0.002358128782361746,-0.01435598824173212
1761505479900224500,5.750224609375,0.0055974069982767105,0.027223996818065643,-0.006995811127126217
1761505479910260700,5.7602607421875,0.006608458235859871,0.05115056410431862,0.015906216576695442
1761505479920296700,5.770296630859375,0.01413002423942089,0.049082085490226746,0.03967546299099922
1761505479930333700,5.780333740234375,0.020028047263622284,0.026039566844701767,0.060226552188396454
1761505479940369700,5.79036962890625,0.025075003504753113,0.0002106321044266224,0.061130162328481674
1761505479950405600,5.800405517578125,0.027766477316617966,-0.030328698456287384,0.04983434081077576
1761505479960441600,5.810441650390625,0.026242349296808243,-0.03552132844924927,0.020060203969478607
1761505479970477600,5.8204775390625,0.021731138229370117,-0.016693782061338425,-0.008399644866585732
1761505479980514600,5.8305146484375,0.021489856764674187,0.016377083957195282,-0.030156873166561127
1761505479990550500,5.840550537109375,0.01843816414475441,0.046684231609106064,-0.03926406055688858
1761505480000586500,5.85058642578125,0.0171665046364069,0.050648078322410583,-0.02247069962322712
1761505480010622500,5.86062255859375,0.011844628490507603,0.03801517188549042,0.0010018915636464953
1761505480020658400,5.870658447265625,0.009088789112865925,0.040521204471588135,0.02795201726257801
1761505480030695700,5.88069580078125,0.013895923271775246,0.047549933195114136,0.04461387172341347
1761505480040731600,5.890731689453125,0.012430652976036072,0.03920598328113556,0.052125852555036545
1761505480050767600,5.900767578125,0.017961077392101288,0.04261792078614235,0.05099508911371231
1761505480060803600,5.910803466796875,0.021973662078380585,0.03388621658086777,0.04478219896554947
1761505480070840600,5.920840576171875,0.023650260642170906,-0.002201596973463893,0.0318375825881958
1761505480080876500,5.93087646484375,0.022366616874933243,-0.02697112411260605,0.012573076412081718
1761505480090912500,5.94091259765625,0.017506450414657593,-0.0479525625705719,-0.012388436123728752
1761505480100948500,5.950948486328125,0.004287051502615213,-0.03056292235851288,-0.027370581403374672
1761505480110984400,5.960984375,-0.018599169328808784,0.004954538773745298,-0.04142753407359123
1761505480121020700,5.971020751953125,-0.023522289469838142,0.03847680985927582,-0.0487685389816761
1761505480131057400,5.981057373046875,-0.014530971646308899,0.07499294728040695,-0.03501071408390999
1761505480141093400,5.99109326171875,-0.0031390353105962276,0.07432609051465988,-0.006605437025427818
1761505480151129600,6.001129638671875,0.011597350239753723,0.03091716393828392,0.028219185769557953
1761505480161165600,6.01116552734375,0.027498017996549606,-0.013770146295428276,0.05419805645942688
1761505480171201500,6.021201416015625,0.036764755845069885,-0.05103282630443573,0.056570932269096375
1761505480181238500,6.031238525390625,0.036695778369903564,-0.07094448804855347,0.03664596006274223
1761505480191274800,6.041274658203125,0.02946116030216217,-0.055417079478502274,0.006625796668231487
1761505480201310700,6.051310791015625,0.012095487676560879,-0.02000129595398903,-0.011852546595036983
1761505480211346700,6.0613466796875,-0.008143222890794277,0.017494874075055122,-0.024380993098020554
1761505480221382700,6.071382568359375,-0.0233466774225235,0.03866061195731163,-0.006929033435881138
1761505480231419600,6.081419677734375,-0.030602488666772842,0.06131240725517273,0.020162582397460938
1761505480241455600,6.09145556640625,-0.017367376014590263,0.0528683215379715,0.03848353400826454
1761505480251491600,6.10149169921875,-0.0025484836660325527,0.039562106132507324,0.03950884938240051
1761505480261527600,6.111527587890625,0.019314203411340714,0.013938765972852707,0.029971804469823837
1761505480271563500,6.1215634765625,0.03938250243663788,-0.0064857532270252705,0.01900017447769642
1761505480281600500,6.1316005859375,0.04401800036430359,-0.01645662821829319,0.007703577168285847
1761505480291636500,6.141636474609375,0.04500417038798332,-0.026309909299016,-0.016581891104578972
1761505480301672400,6.15167236328125,0.0360141396522522,-0.02992967702448368,-0.04406917840242386
1761505480311708400,6.16170849609375,0.020462222397327423,-0.029423905536532402,-0.05311093479394913
1761505480321744400,6.171744384765625,0.007065456360578537,-0.019760359078645706,-0.04651614651083946
1761505480331781600,6.18178173828125,-0.010171227157115936,0.004530039615929127,-0.01758342795073986
1761505480341817600,6.191817626953125,-0.01296062208712101,0.03249882161617279,0.010971518233418465
1761505480351853600,6.201853515625,-0.011413542553782463,0.0544368214905262,0.023904848843812943
1761505480361889500,6.2118896484375,-0.006145811174064875,0.05961161106824875,0.023454507812857628
1761505480371925500,6.221925537109375,-0.003740298096090555,0.05768538638949394,0.010469943284988403
1761505480381962500,6.23196240234375,0.0027074816171079874,0.03551297262310982,0.0009973447304219007
1761505480391998500,6.24199853515625,0.003205320332199335,-0.006967670749872923,0.0007894901791587472
1761505480402034400,6.252034423828125,0.00882006250321865,-0.04280928894877434,0.011490870267152786
1761505480412070400,6.2620703125,0.006186671555042267,-0.05088462680578232,0.01661350578069687
1761505480422106600,6.272106689453125,0.0032545311842113733,-0.04621370881795883,0.0019536041654646397
1761505480432143400,6.282143310546875,0.005776853300631046,-0.01543457992374897,-0.0074065374210476875
1761505480442179600,6.2921796875,-0.000997429247945547,0.012433003634214401,-0.004606223665177822
1761505480452215600,6.302215576171875,-0.010152765549719334,0.009420754387974739,0.011355419643223286
1761505480462251800,6.312251708984375,-0.018672749400138855,0.004343703854829073,0.028532544150948524
1761505480472287700,6.322287841796875,-0.01753992773592472,0.00350445625372231,0.040640730410814285
1761505480482324500,6.332324462890625,-0.020271798595786095,0.003054648404940963,0.044857315719127655
1761505480492360700,6.342360595703125,-0.018902316689491272,-0.00898808054625988,0.015092633664608002
1761505480502396700,6.352396728515625,-0.01374403852969408,-0.01975710503757,-0.02076922543346882
1761505480512432600,6.3624326171875,-0.00887254811823368,-0.013970977626740932,-0.04193637892603874
1761505480522468600,6.372468505859375,-0.012553568929433823,-0.01717902161180973,-0.04870693385601044
1761505480532505600,6.382505615234375,-0.011051192879676819,-0.019336242228746414,-0.04773755744099617
1761505480542541600,6.39254150390625,-0.00680318521335721,-0.004908034577965736,-0.0386364720761776
1761505480552577500,6.40257763671875,-0.007627250161021948,0.003137467196211219,-0.025454992428421974
1761505480562613500,6.412613525390625,-0.006591014098376036,0.0015542180044576526,-0.004345444962382317
1761505480572649500,6.4226494140625,-0.004535295069217682,0.004774322733283043,0.021052740514278412
1761505480582686700,6.432686767578125,0.0013172682374715805,0.0016770662041381001,0.03480823338031769
1761505480592722700,6.44272265625,0.016541825607419014,-0.011125948280096054,0.034515392035245895
1761505480602758700,6.452758544921875,0.026159565895795822,-0.02680504322052002,0.017885282635688782
1761505480612794600,6.462794677734375,0.027062010020017624,-0.040940042585134506,0.002602175809442997
1761505480622830600,6.47283056640625,0.023802300915122032,-0.05276155099272728,-0.005777993239462376
1761505480632866600,6.482866455078125,0.01501439232379198,-0.036083661019802094,-0.009990847669541836
1761505480642903800,6.49290380859375,-0.00021489383652806282,-0.002486550947651267,-0.006373208947479725
1761505480652939800,6.502939697265625,-0.004095918498933315,0.04059300944209099,-0.0037622463423758745
1761505480662975700,6.512975830078125,0.001959843561053276,0.07458213716745377,0.0022373232059180737
1761505480673011700,6.52301171875,0.010482219979166985,0.07773394882678986,0.015001172199845314
1761505480683047700,6.533047607421875,0.011746156960725784,0.04243641719222069,0.03260759636759758
1761505480693084700,6.543084716796875,0.017992578446865082,-0.003434357000514865,0.04435795918107033
1761505480703120600,6.55312060546875,0.02165096253156662,-0.032746702432632446,0.03415192663669586
1761505480713156600,6.563156494140625,0.010590197518467903,-0.055152229964733124,0.009676770307123661
1761505480723192600,6.573192626953125,-0.0031069722026586533,-0.0479784719645977,-0.019043557345867157
1761505480733228800,6.583228759765625,-0.013102693483233452,-0.01988377422094345,-0.041921962052583694
1761505480743264800,6.5932646484375,-0.02729840762913227,0.010186510160565376,-0.05988738313317299
1761505480753301500,6.603301513671875,-0.030806515365839005,0.032486509531736374,-0.05707976967096329
1761505480763337700,6.613337646484375,-0.026194985955953598,0.04213354364037514,-0.03188174217939377
1761505480773373700,6.623373779296875,-0.01166526973247528,0.03132261708378792,0.0006552322884090245
1761505480783409700,6.63340966796875,-0.0006403154693543911,-0.009344917722046375,0.017939681187272072
1761505480793445600,6.643445556640625,-0.0005989214405417442,-0.05302109941840172,0.026532543823122978
1761505480803483000,6.65348291015625,0.0009861919097602367,-0.0445605032145977,0.020614467561244965
1761505480813518800,6.663518798828125,-0.0034808022901415825,-0.013157857581973076,-0.0020917518995702267
1761505480823554800,6.673554931640625,-0.009553342126309872,0.022400669753551483,-0.025396276265382767
1761505480833590800,6.6835908203125,-0.014306878671050072,0.04425470903515816,-0.031809002161026
1761505480843626800,6.693626708984375,-0.009695615619421005,0.04707872495055199,-0.012050743214786053
1761505480853663700,6.703663818359375,-0.00037567177787423134,0.015451222658157349,0.008762586861848831
1761505480863699700,6.71369970703125,0.001395063940435648,-0.0032324506901204586,0.01952468603849411
1761505480873735700,6.723735595703125,0.0032733913976699114,-0.015908297151327133,0.00803501158952713
1761505480883771600,6.733771728515625,0.003492303192615509,-0.02815750613808632,-0.0209170114248991
1761505480893807600,6.7438076171875,0.0020200624130666256,-0.039538733661174774,-0.03992634266614914
1761505480903843600,6.753843505859375,-0.001539252232760191,-0.03278602287173271,-0.04335223138332367
1761505480913880600,6.763880615234375,0.0005117510445415974,-0.027109455317258835,-0.038262493908405304
1761505480923916500,6.77391650390625,0.000374864786863327,-0.013829870149493217,-0.02764233946800232
1761505480933952500,6.783952392578125,0.004517431370913982,-0.0016025444492697716,-0.008532527834177017
1761505480943988700,6.79398876953125,0.003643914358690381,0.010851195082068443,0.01019828300923109
1761505480954024700,6.804024658203125,0.006857608444988728,0.016055108979344368,0.017789576202630997
1761505480964061700,6.814061767578125,0.016796791926026344,-0.00032812473364174366,0.008611524477601051
1761505480974097700,6.82409765625,0.01872824691236019,-0.011521273292601109,-0.011590356007218361
1761505480984133600,6.834133544921875,0.016603844240307808,0.0034012175165116787,-0.022463776171207428
1761505480994169600,6.844169677734375,0.005959759466350079,0.02550000511109829,-0.02249661087989807
1761505481004205800,6.854205810546875,-0.014682400971651077,0.031549643725156784,-0.02905650995671749
1761505481014241800,6.86424169921875,-0.028055541217327118,0.028260143473744392,-0.03561783581972122
1761505481024278500,6.874278564453125,-0.03647459298372269,0.0263847466558218,-0.045626528561115265
1761505481034314800,6.884314697265625,-0.03885515406727791,0.0198044553399086,-0.04743369668722153
1761505481044350700,6.894350830078125,-0.041353996843099594,0.0064146146178245544,-0.037249770015478134
1761505481054386700,6.90438671875,-0.03905612602829933,0.004893924575299025,-0.003743600333109498
1761505481064422700,6.914422607421875,-0.039252933114767075,0.005056910216808319,0.021624606102705002
1761505481074458600,6.924458740234375,-0.03522104397416115,0.00813274271786213,0.03390837460756302
1761505481084496000,6.934495849609375,-0.019549936056137085,0.010747700929641724,0.030891545116901398
1761505481094531800,6.94453173828125,-0.007524736691266298,-0.0018047501798719168,0.015794290229678154
1761505481104567800,6.95456787109375,0.0012804726138710976,-0.01470909733325243,-0.008848206140100956
1761505481114603800,6.964603759765625,0.0018164152279496193,-0.025774070993065834,-0.0361076183617115
1761505481124639700,6.9746396484375,0.0015538274310529232,-0.02052444778382778,-0.0636974349617958
1761505481134676700,6.9846767578125,-0.007919855415821075,-0.011677912436425686,-0.07983169704675674
1761505481144712700,6.994712646484375,-0.023914268240332603,-0.0010692107025533915,-0.07643909007310867
1761505481154748700,7.004748779296875,-0.038400836288928986,0.007367304060608149,-0.04867275804281235
1761505481164784600,7.01478466796875,-0.035435937345027924,0.006028799340128899,-0.0014261502074077725
1761505481174820600,7.024820556640625,-0.022039838135242462,0.006770843639969826,0.04708724468946457
1761505481184856600,7.034856689453125,-0.008085408248007298,-0.0019704503938555717,0.0688314288854599
1761505481194893600,7.0448935546875,0.006570195779204369,-0.0042430683970451355,0.045399680733680725
1761505481204929500,7.054929443359375,0.00934813916683197,0.009080460295081139,0.009598805569112301
1761505481214965500,7.064965576171875,0.004628939554095268,0.025613371282815933,-0.022550314664840698
1761505481225001500,7.07500146484375,0.006879044696688652,0.026170238852500916,-0.04187607392668724
1761505481235037700,7.08503759765625,0.0016005258075892925,0.018788013607263565,-0.0317179337143898
1761505481245074000,7.095073974609375,-0.01494116522371769,0.013690191321074963,-0.011712800711393356
1761505481255110700,7.105110595703125,-0.014606538228690624,0.00810359138995409,-0.008890832774341106
1761505481265146600,7.115146728515625,-0.004761364310979843,0.014642717316746712,-0.021433787420392036
1761505481275182800,7.125182861328125,-0.0026249964721500874,-0.009995441883802414,-0.03779507800936699
1761505481285218800,7.13521875,-0.0011429470032453537,-0.029933197423815727,-0.028994660824537277
1761505481295254800,7.1452548828125,-0.0014776294119656086,-0.040452659130096436,-0.001102997688576579
1761505481305291800,7.155291748046875,-0.002819596789777279,-0.05384649708867073,0.01022262778133154
1761505481315327700,7.16532763671875,-0.0012347111478447914,-0.05627515912055969,0.0002266403753310442
1761505481325363700,7.17536376953125,0.01354370266199112,-0.02213529497385025,-0.013578919693827629
1761505481335399700,7.185399658203125,0.020605985075235367,0.010686996392905712,-0.02639721892774105
1761505481345435600,7.195435546875,0.016754522919654846,0.0279818307608366,-0.040260303765535355
1761505481355471600,7.2054716796875,0.016175303608179092,0.01848072186112404,-0.041324861347675323
1761505481365508900,7.2155087890625,0.01844112202525139,-0.0013566326815634966,-0.018339650705456734
1761505481375544800,7.225544921875,0.011648882180452347,-0.0353827066719532,0.012295585125684738
1761505481385580800,7.235580810546875,0.004773399326950312,-0.04306619241833687,0.03938792273402214
1761505481395616800,7.24561669921875,0.0029505593702197075,-0.030647126957774162,0.053425442427396774
1761505481405652700,7.25565283203125,-0.0006090216338634491,-0.005110076162964106,0.03799242526292801
1761505481415688700,7.265688720703125,-0.002008626703172922,0.02151314541697502,0.011784365400671959
1761505481425725700,7.2757255859375,-0.013259949162602425,0.03016921691596508,-0.01547095738351345
1761505481435761700,7.28576171875,-0.02119932696223259,0.016096418723464012,-0.026574552059173584
1761505481445797600,7.295797607421875,-0.01968425326049328,-0.00838096160441637,-0.011640609242022038
1761505481455833600,7.30583349609375,0.0016788248904049397,-0.024455800652503967,0.021308017894625664
1761505481465869600,7.31586962890625,0.022699687629938126,-0.04603859409689903,0.044915877282619476
1761505481475905500,7.325905517578125,0.03506835922598839,-0.057009708136320114,0.044070541858673096
1761505481485942500,7.335942626953125,0.03964553400874138,-0.027780182659626007,0.017156638205051422
1761505481495978500,7.345978515625,0.024617772549390793,0.015348624438047409,-0.02585405670106411
1761505481506014500,7.356014404296875,-0.0013243462890386581,0.05290558934211731,-0.050863802433013916
1761505481516050700,7.36605078125,-0.02696499228477478,0.06297526508569717,-0.05827617645263672
1761505481526086700,7.376086669921875,-0.043778061866760254,0.04700402170419693,-0.04735082760453224
1761505481536123000,7.386122802734375,-0.038327656686306,0.0217306986451149,-0.025187624618411064
1761505481546159900,7.396159912109375,-0.026823068037629128,-0.008805638179183006,-0.001355795538984239
1761505481556195800,7.40619580078125,-0.01283424161374569,-0.03595934808254242,0.0201392974704504
1761505481566231800,7.416231689453125,-0.00047557754442095757,-0.036715954542160034,0.026046454906463623
1761505481576267800,7.426267822265625,0.008752673864364624,-0.019989823922514915,0.024872737005352974
1761505481586303700,7.4363037109375,0.011142861098051071,0.003181807929649949,0.020113669335842133
1761505481596339700,7.446339599609375,-0.0009970632381737232,0.009923309087753296,0.02495437115430832
1761505481606376700,7.456376708984375,-0.006569993682205677,-0.00085423793643713,0.01821231283247471
1761505481616412700,7.46641259765625,0.0014963983558118343,-0.013232442550361156,0.004710666369646788
1761505481626448600,7.47644873046875,0.015243370085954666,-0.0000764261931180954,-0.011031811125576496
1761505481636484600,7.486484619140625,0.023370157927274704,0.01836683601140976,-0.024309173226356506
1761505481646520600,7.4965205078125,0.014581725932657719,0.017180928960442543,-0.03388376906514168
1761505481656556500,7.506556640625,0.009163057431578636,0.0084919398650527,-0.029770802706480026
1761505481666593800,7.51659375,0.0010784994810819626,-0.010417569428682327,-0.0122850202023983
1761505481676629800,7.526629638671875,-0.009969746693968773,-0.016999509185552597,0.014716570265591145
1761505481686665700,7.536665771484375,-0.015198595821857452,-0.010674234479665756,0.025745252147316933
1761505481696701700,7.54670166015625,-0.01999257318675518,0.006245436146855354,0.007027599029242992
1761505481706737700,7.556737548828125,-0.015050545334815979,0.03804011642932892,-0.01485932432115078
1761505481716773600,7.566773681640625,-0.003553111106157303,0.036415230482816696,-0.021051913499832153
1761505481726810600,7.576810546875,0.0037724461872130632,0.015268664807081223,-0.01032283715903759
1761505481736846600,7.5868466796875,0.019212273880839348,-0.015838848426938057,-0.0010477511677891016
1761505481746882600,7.596882568359375,0.0287993885576725,-0.041029952466487885,0.0017767974641174078
1761505481756918800,7.606918701171875,0.033301275223493576,-0.06127901002764702,-0.0144976656883955
1761505481766954800,7.616954833984375,0.024510446935892105,-0.0701231062412262,-0.03694785013794899
1761505481776990700,7.62699072265625,0.012308966368436813,-0.06027999147772789,-0.037733398377895355
1761505481787027700,7.63702783203125,-0.002871318720281124,-0.020557347685098648,-0.01826462522149086
1761505481797063700,7.647063720703125,-0.021203096956014633,0.016170604154467583,0.008418531157076359
1761505481807099600,7.657099609375,-0.0246159378439188,0.03903437405824661,0.017379269003868103
1761505481817135600,7.667135498046875,-0.015396565198898315,0.03575161099433899,0.011979765258729458
1761505481827171800,7.677171875,0.0029510168824344873,0.016470059752464294,-0.003778692102059722
1761505481837207800,7.687207763671875,0.017754025757312775,-0.011145378462970257,-0.013124256394803524
1761505481847244800,7.697244873046875,0.024208463728427887,-0.02906525507569313,-0.015809787437319756
1761505481857280800,7.70728076171875,0.019779924303293228,-0.029013892635703087,-0.010273540392518044
1761505481867316700,7.717316650390625,0.0030275769531726837,-0.009996259585022926,-0.005462007597088814
1761505481877352700,7.727352783203125,-0.018078770488500595,0.026055457070469856,-0.004846417810767889
1761505481887388700,7.737388671875,-0.031978607177734375,0.04889419674873352,-0.01401541568338871
1761505481897424600,7.747424560546875,-0.0352981761097908,0.059005219489336014,-0.02680143713951111
1761505481907461600,7.757461669921875,-0.0337093323469162,0.03722376003861427,-0.019867897033691406
1761505481917497600,7.76749755859375,-0.04044327512383461,0.021901436150074005,0.010891152545809746
1761505481927533600,7.777533447265625,-0.04760771244764328,0.010435462929308414,0.03887617960572243
1761505481937569500,7.787569580078125,-0.05294771119952202,0.018186084926128387,0.043861743062734604
1761505481947605500,7.79760546875,-0.06061521917581558,0.03949723392724991,0.014753125607967377
1761505481957641700,7.807641845703125,-0.06566043943166733,0.051562003791332245,-0.017720859497785568
1761505481967677700,7.817677734375,-0.059235829859972,0.059447359293699265,-0.05817827209830284
1761505481977714700,7.827714599609375,-0.051328979432582855,0.02505897544324398,-0.07772505283355713
1761505481987750700,7.837750732421875,-0.04015542194247246,-0.023184454068541527,-0.05832632631063461
1761505481997787000,7.847786865234375,-0.020859012380242348,-0.04015607759356499,-0.014092238619923592
1761505482007822800,7.85782275390625,-0.018133800476789474,-0.030937813222408295,0.02816387265920639
1761505482017858800,7.86785888671875,-0.019929710775613785,0.010153339244425297,0.03577898070216179
1761505482027894800,7.877894775390625,-0.020397894084453583,0.08062457293272018,0.01966073177754879
1761505482037931800,7.887931884765625,-0.021743837743997574,0.13911952078342438,-0.006359124556183815
1761505482047967700,7.8979677734375,-0.02876819297671318,0.1638355255126953,-0.020087452605366707
1761505482058003700,7.908003662109375,-0.0333283357322216,0.13152794539928436,-0.03374270349740982
1761505482068039700,7.918039794921875,-0.04005361720919609,0.09591082483530045,-0.038638658821582794
1761505482078075600,7.92807568359375,-0.04996753856539726,0.02615264058113098,-0.05827167257666588
1761505482088111600,7.938111572265625,-0.04332348331809044,-0.008283630013465881,-0.07224287837743759
1761505482098147600,7.948147705078125,-0.030364293605089188,-0.02662983350455761,-0.0722450390458107
1761505482108184600,7.9581845703125,-0.031671371310949326,-0.011933977715671062,-0.05900593847036362
1761505482118220500,7.968220458984375,-0.022442687302827835,0.011858075857162476,-0.03900953382253647
1761505482128256800,7.9782568359375,-0.011354881338775158,0.052237190306186676,-0.007497414015233517
1761505482138292700,7.988292724609375,-0.017772432416677475,0.07134202867746353,0.0229356586933136
1761505482148328700,7.99832861328125,-0.018590819090604782,0.0644814595580101,0.04589344188570976
1761505482158364700,8.00836474609375,-0.013475007377564907,0.046759553253650665,0.054709795862436295
1761505482168400600,8.018400634765625,-0.009351634420454502,0.009397001937031746,0.04590059071779251
1761505482178436900,8.028436767578125,-0.012151213362812996,-0.018899155780673027,0.027890074998140335
1761505482188472800,8.038472900390625,-0.013136051595211029,-0.011863616295158863,0.009539563208818436
1761505482198508800,8.0485087890625,-0.018733959645032883,-0.0012092776596546173,-0.01167416013777256
1761505482208544800,8.058544677734375,-0.029151976108551025,0.011843940243124962,-0.01920771226286888
1761505482218580700,8.068580810546875,-0.05189280956983566,0.05334213748574257,-0.010154705494642258
1761505482228616700,8.07861669921875,-0.07043639570474625,0.0686103105545044,-0.000474381260573864
1761505482238653700,8.08865380859375,-0.07014873623847961,0.08307994157075882,0.001070711063221097
1761505482248689700,8.098689697265625,-0.05720178037881851,0.1009359061717987,-0.0029139104299247265
1761505482258725600,8.1087255859375,-0.045407168567180634,0.07473279535770416,-0.017360229045152664
1761505482268761600,8.11876171875,-0.029786931350827217,0.011958359740674496,-0.03098922222852707
1761505482278797600,8.128797607421875,-0.02839258313179016,-0.016813956201076508,-0.04387599602341652
1761505482288833500,8.13883349609375,-0.08248644322156906,-0.0069240424782037735,-0.12891924381256104
1761505482298870800,8.148870849609375,-0.13401956856250763,0.13682885468006134,-0.3162868320941925
1761505482308906800,8.15890673828125,-0.15336823463439941,0.5659282803535461,-0.2952268123626709
1761505482318942700,8.168942626953125,-0.2131117284297943,0.32445281744003296,-0.06517259776592255
1761505482328978700,8.178978759765625,-0.1918884664773941,-0.16300846636295319,0.18296317756175995
1761505482339014700,8.1890146484375,-0.050466619431972504,-0.6918193101882935,0.3163153827190399
1761505482349051000,8.19905078125,0.06256406009197235,-0.7222512364387512,0.28136858344078064
1761505482359086800,8.2090869140625,0.07138684391975403,-0.4682343900203705,0.12002215534448624
1761505482369123600,8.21912353515625,0.02016599476337433,-0.10449772328138351,-0.06233406439423561
1761505482379159800,8.229159912109376,-0.04215134307742119,0.19112245738506317,-0.20399731397628784
1761505482389195800,8.23919580078125,-0.13330283761024475,0.3917500674724579,-0.29923543334007263
1761505482399231700,8.249231689453126,-0.2317415028810501,0.49973535537719727,-0.346891850233078
1761505482409267700,8.259267822265626,-0.27771642804145813,0.5810480117797852,-0.2937580645084381
1761505482419303700,8.2693037109375,-0.2664128243923187,0.5161390900611877,-0.20293883979320526
