time,seconds_elapsed,z,y,x
1761505708834869000,0.078868896484375,-1.0026092529296875,-0.0674591064453125,-0.2125244140625
1761505708844905700,0.08890576171875,-1.022705078125,-0.0680694580078125,-0.2164154052734375
1761505708854942000,0.09894189453125,-1.0205230712890625,-0.068695068359375,-0.210784912109375
1761505708864978000,0.10897802734375,-1.011016845703125,-0.06561279296875,-0.202056884765625
1761505708875014700,0.1190146484375,-1.0098419189453125,-0.0652923583984375,-0.19122314453125
1761505708885051000,0.12905078125,-1.0139617919921875,-0.0637664794921875,-0.1820831298828125
1761505708895086800,0.1390869140625,-1.0112762451171875,-0.063232421875,-0.18414306640625
1761505708905123800,0.149123779296875,-0.99530029296875,-0.0660552978515625,-0.191650390625
1761505708915160000,0.15916015625,-0.9759674072265625,-0.0701751708984375,-0.2025604248046875
1761505708925196000,0.169196044921875,-0.9778594970703125,-0.0742950439453125,-0.2101593017578125
1761505708935232800,0.179232666015625,-0.97344970703125,-0.0814056396484375,-0.2160797119140625
1761505708945269000,0.18926904296875,-0.9712066650390625,-0.0905303955078125,-0.2148284912109375
1761505708955305000,0.199304931640625,-0.980743408203125,-0.0973052978515625,-0.2158966064453125
1761505708965341700,0.209341796875,-0.992095947265625,-0.1043701171875,-0.228485107421875
1761505708975378000,0.2193779296875,-1.00347900390625,-0.11224365234375,-0.2529144287109375
1761505708985414000,0.229413818359375,-1.0028228759765625,-0.1097564697265625,-0.271575927734375
1761505708995449900,0.239449951171875,-0.98443603515625,-0.105865478515625,-0.2785491943359375
1761505709005486800,0.24948681640625,-0.9514923095703125,-0.1086883544921875,-0.2777862548828125
1761505709015523000,0.259523193359375,-0.927032470703125,-0.1115570068359375,-0.25518798828125
1761505709025559000,0.26955908203125,-0.9122161865234375,-0.110931396484375,-0.2186279296875
1761505709035595800,0.279595703125,-0.889801025390625,-0.1098785400390625,-0.1979522705078125
1761505709045632000,0.289632080078125,-0.864593505859375,-0.110076904296875,-0.1780548095703125
1761505709055668700,0.299668701171875,-0.864837646484375,-0.1116485595703125,-0.167572021484375
1761505709065704700,0.30970458984375,-0.861175537109375,-0.1228485107421875,-0.170196533203125
1761505709075741000,0.319740966796875,-0.8379058837890625,-0.1369476318359375,-0.1702423095703125
1761505709085777000,0.32977685546875,-0.803558349609375,-0.1483001708984375,-0.172332763671875
1761505709095814000,0.33981396484375,-0.7574920654296875,-0.15423583984375,-0.166656494140625
1761505709105849900,0.349849853515625,-0.710296630859375,-0.1553192138671875,-0.1546783447265625
1761505709115886000,0.359885986328125,-0.693939208984375,-0.16693115234375,-0.148712158203125
1761505709125922800,0.3699228515625,-0.6952056884765625,-0.1786346435546875,-0.1522979736328125
1761505709135958800,0.379958740234375,-0.696807861328125,-0.176849365234375,-0.15325927734375
1761505709145995000,0.3899951171875,-0.719879150390625,-0.162139892578125,-0.1567840576171875
1761505709156031700,0.40003173828125,-0.7452545166015625,-0.1485748291015625,-0.152069091796875
1761505709166067700,0.410067626953125,-0.7559051513671875,-0.1346893310546875,-0.1435699462890625
1761505709176104000,0.42010400390625,-0.7993621826171875,-0.1139984130859375,-0.1495361328125
1761505709186140700,0.430140625,-0.8901519775390625,-0.087371826171875,-0.1754302978515625
1761505709196176600,0.4401767578125,-1.004486083984375,-0.066162109375,-0.2135009765625
1761505709206213000,0.450213134765625,-1.13140869140625,-0.05462646484375,-0.2515869140625
1761505709216249900,0.460249755859375,-1.220001220703125,-0.04168701171875,-0.2766571044921875
1761505709226285800,0.470285888671875,-1.3046417236328125,-0.0340728759765625,-0.2917022705078125
1761505709236322000,0.480322021484375,-1.378814697265625,-0.0562744140625,-0.312713623046875
1761505709246358800,0.49035888671875,-1.4412078857421875,-0.0944061279296875,-0.343292236328125
1761505709256394800,0.500394775390625,-1.51507568359375,-0.1218414306640625,-0.381439208984375
1761505709266431000,0.510430908203125,-1.5949249267578125,-0.1420745849609375,-0.40234375
1761505709276467700,0.5204677734375,-1.679595947265625,-0.1480255126953125,-0.4190216064453125
1761505709286503700,0.530503662109375,-1.75579833984375,-0.12518310546875,-0.425933837890625
1761505709296540000,0.540539794921875,-1.797149658203125,-0.0937042236328125,-0.4208221435546875
1761505709306577000,0.550576904296875,-1.8098907470703125,-0.083038330078125,-0.4102783203125
1761505709316612900,0.56061279296875,-1.8095245361328125,-0.094818115234375,-0.4016571044921875
1761505709326648800,0.57064892578125,-1.7738494873046875,-0.1194305419921875,-0.3878021240234375
1761505709336685800,0.580685791015625,-1.7114105224609375,-0.1521759033203125,-0.3724212646484375
1761505709346721800,0.5907216796875,-1.641632080078125,-0.175079345703125,-0.3582763671875
1761505709356757800,0.6007578125,-1.5645294189453125,-0.1758575439453125,-0.359161376953125
1761505709366794000,0.6107939453125,-1.4590911865234375,-0.1459503173828125,-0.38330078125
1761505709376830700,0.620830810546875,-1.3322906494140625,-0.0858612060546875,-0.3894805908203125
1761505709386866700,0.63086669921875,-1.209136962890625,-0.0415802001953125,-0.3402099609375
1761505709396903000,0.64090283203125,-1.08843994140625,-0.0553436279296875,-0.2591400146484375
1761505709406940000,0.65093994140625,-0.9898529052734375,-0.0834808349609375,-0.183197021484375
1761505709416976000,0.660975830078125,-0.9304351806640625,-0.079315185546875,-0.1486358642578125
1761505709427011800,0.67101171875,-0.8833770751953125,-0.0570220947265625,-0.15625
1761505709437048800,0.681048828125,-0.8597412109375,-0.050689697265625,-0.1805419921875
1761505709447084800,0.691084716796875,-0.827911376953125,-0.0637054443359375,-0.218170166015625
1761505709457120800,0.701120849609375,-0.764862060546875,-0.06732177734375,-0.2493896484375
1761505709467157800,0.71115771484375,-0.6934051513671875,-0.0644378662109375,-0.2627410888671875
1761505709477193700,0.72119384765625,-0.6110076904296875,-0.0730438232421875,-0.2460174560546875
1761505709487230000,0.73122998046875,-0.5259857177734375,-0.0944671630859375,-0.2046051025390625
1761505709497266700,0.7412666015625,-0.446868896484375,-0.123260498046875,-0.15509033203125
1761505709507303000,0.751302978515625,-0.387847900390625,-0.156646728515625,-0.1134033203125
1761505709517339000,0.7613388671875,-0.350494384765625,-0.1791229248046875,-0.0793609619140625
1761505709527376000,0.7713759765625,-0.3158111572265625,-0.191253662109375,-0.0661163330078125
1761505709537411800,0.781411865234375,-0.296234130859375,-0.1996917724609375,-0.065032958984375
1761505709547447800,0.79144775390625,-0.3060760498046875,-0.194488525390625,-0.06451416015625
1761505709557484800,0.80148486328125,-0.3153533935546875,-0.1767730712890625,-0.0636444091796875
1761505709567520800,0.811520751953125,-0.3015899658203125,-0.1476593017578125,-0.0768585205078125
1761505709577556700,0.821556640625,-0.2820892333984375,-0.117767333984375,-0.0912933349609375
1761505709587593700,0.83159375,-0.2628173828125,-0.1068878173828125,-0.09014892578125
1761505709597629700,0.841629638671875,-0.241790771484375,-0.1131134033203125,-0.0724639892578125
1761505709607665700,0.851665771484375,-0.2264251708984375,-0.13018798828125,-0.04510498046875
1761505709617703000,0.861702880859375,-0.2289581298828125,-0.1422882080078125,-0.0177001953125
1761505709627739000,0.87173876953125,-0.2469329833984375,-0.1438751220703125,0.000152587890625
1761505709637774800,0.88177490234375,-0.264739990234375,-0.1400146484375,0.0161285400390625
1761505709647810800,0.891810791015625,-0.27569580078125,-0.137664794921875,0.0147857666015625
1761505709657847800,0.901847900390625,-0.3068695068359375,-0.1403350830078125,0.004058837890625
1761505709667883800,0.9118837890625,-0.3760986328125,-0.13580322265625,-0.011688232421875
1761505709677919700,0.921919677734375,-0.46795654296875,-0.121551513671875,-0.0478973388671875
1761505709687956700,0.931956787109375,-0.5450592041015625,-0.1014556884765625,-0.096710205078125
1761505709697992700,0.94199267578125,-0.597900390625,-0.0645751953125,-0.1364898681640625
1761505709708028700,0.952028564453125,-0.6849517822265625,-0.0331268310546875,-0.171783447265625
1761505709718066000,0.96206591796875,-0.8118896484375,-0.0154876708984375,-0.2144012451171875
1761505709728102000,0.972101806640625,-0.95391845703125,-0.0142669677734375,-0.2455291748046875
1761505709738137900,0.982137939453125,-1.199188232421875,-0.0435943603515625,-0.253204345703125
1761505709748174800,0.9921748046875,-1.5890350341796875,-0.0988616943359375,-0.2388763427734375
1761505709758210800,1.0022109375,-2.0339202880859375,-0.164642333984375,-0.188323974609375
1761505709768246800,1.012246826171875,-2.3892059326171875,-0.248291015625,-0.158538818359375
1761505709778283800,1.02228369140625,-2.5948638916015625,-0.3122711181640625,-0.1797332763671875
1761505709788319700,1.03231982421875,-2.66229248046875,-0.3082427978515625,-0.29608154296875
1761505709798355700,1.042355712890625,-2.6075286865234375,-0.241455078125,-0.4654998779296875
1761505709808393000,1.05239306640625,-2.4623870849609375,-0.158294677734375,-0.598297119140625
1761505709818428200,1.06242822265625,-2.237396240234375,-0.133758544921875,-0.6349639892578125
1761505709828464000,1.072464111328125,-2.0168304443359375,-0.192108154296875,-0.5576324462890625
1761505709838501000,1.082501220703125,-1.88702392578125,-0.294158935546875,-0.419830322265625
1761505709848537000,1.092537109375,-1.8227081298828125,-0.3643646240234375,-0.30499267578125
1761505709858573300,1.1025732421875,-1.7916412353515625,-0.3650054931640625,-0.2455291748046875
1761505709868610000,1.112610107421875,-1.748016357421875,-0.314666748046875,-0.2259979248046875
1761505709878646000,1.12264599609375,-1.6378021240234375,-0.242034912109375,-0.2473907470703125
1761505709888682200,1.13268212890625,-1.4676666259765625,-0.1482086181640625,-0.2825164794921875
1761505709898719000,1.142718994140625,-1.300811767578125,-0.086669921875,-0.2899322509765625
1761505709908755000,1.1527548828125,-1.14886474609375,-0.1033782958984375,-0.264892578125
1761505709918791200,1.162791259765625,-0.9807891845703125,-0.139892578125,-0.2342071533203125
1761505709928828200,1.172828125,-0.8333740234375,-0.14788818359375,-0.20733642578125
1761505709938864000,1.182864013671875,-0.7196197509765625,-0.141265869140625,-0.1952056884765625
1761505709948900000,1.192900146484375,-0.6427459716796875,-0.1240386962890625,-0.1959075927734375
1761505709958936300,1.202936279296875,-0.6070556640625,-0.1056365966796875,-0.168060302734375
1761505709968973000,1.21297314453125,-0.6094512939453125,-0.1018524169921875,-0.0977783203125
1761505709979009000,1.223009033203125,-0.60992431640625,-0.09423828125,-0.0241851806640625
1761505709989045200,1.233045166015625,-0.609130859375,-0.07684326171875,0.0344696044921875
1761505709999082000,1.24308203125,-0.608245849609375,-0.065826416015625,0.071533203125
1761505710009118200,1.2531181640625,-0.5793609619140625,-0.0625457763671875,0.06854248046875
1761505710019154200,1.263154296875,-0.5305023193359375,-0.046051025390625,0.0372467041015625
1761505710029191000,1.27319091796875,-0.46466064453125,-0.03125,0.004119873046875
1761505710039227100,1.28322705078125,-0.43145751953125,-0.035614013671875,-0.01470947265625
1761505710049263400,1.293263427734375,-0.4215087890625,-0.06488037109375,-0.0288848876953125
1761505710059300000,1.303300048828125,-0.3717803955078125,-0.1017913818359375,-0.042083740234375
1761505710069336000,1.313336181640625,-0.321990966796875,-0.1241607666015625,-0.0524444580078125
1761505710079372300,1.323372314453125,-0.2870025634765625,-0.130462646484375,-0.0646209716796875
1761505710089409000,1.333408935546875,-0.248809814453125,-0.1343231201171875,-0.0779571533203125
1761505710099445000,1.343445068359375,-0.2095184326171875,-0.1356353759765625,-0.0847015380859375
1761505710109481200,1.353481201171875,-0.176116943359375,-0.1357879638671875,-0.089141845703125
1761505710119518000,1.36351806640625,-0.147216796875,-0.1302642822265625,-0.09039306640625
1761505710129554000,1.373553955078125,-0.1218719482421875,-0.122406005859375,-0.0954742431640625
1761505710139590100,1.383590087890625,-0.1085205078125,-0.1263427734375,-0.1165771484375
1761505710149627100,1.393627197265625,-0.1243896484375,-0.1400604248046875,-0.14300537109375
1761505710159663000,1.4036630859375,-0.1766510009765625,-0.1487274169921875,-0.15673828125
1761505710169699000,1.413698974609375,-0.26220703125,-0.1514739990234375,-0.1649627685546875
1761505710179735300,1.4237353515625,-0.3677520751953125,-0.1446533203125,-0.178955078125
1761505710189772000,1.43377197265625,-0.4783172607421875,-0.1153564453125,-0.2159576416015625
1761505710199808000,1.44380810546875,-0.6112518310546875,-0.07275390625,-0.2703094482421875
1761505710209844200,1.45384423828125,-0.81024169921875,-0.0359954833984375,-0.30487060546875
1761505710219881000,1.463880859375,-1.0403900146484375,-0.01629638671875,-0.298492431640625
1761505710229917000,1.4739169921875,-1.2532958984375,-0.02099609375,-0.238739013671875
1761505710239953200,1.483953125,-1.425262451171875,-0.0617218017578125,-0.150054931640625
1761505710249990100,1.493990234375,-1.6472320556640625,-0.1236114501953125,-0.08837890625
1761505710260026000,1.504026123046875,-1.9712371826171875,-0.2068328857421875,-0.051116943359375
1761505710270062300,1.514062255859375,-2.3280487060546875,-0.2909088134765625,-0.04168701171875
1761505710280099000,1.52409912109375,-2.55841064453125,-0.3257293701171875,-0.0782928466796875
1761505710290135000,1.534135009765625,-2.6376190185546875,-0.2747802734375,-0.1270751953125
1761505710300171300,1.544171142578125,-2.56842041015625,-0.1801910400390625,-0.2028656005859375
1761505710310208000,1.5542080078125,-2.36956787109375,-0.12384033203125,-0.2904510498046875
1761505710320244000,1.564243896484375,-2.129425048828125,-0.1397247314453125,-0.361846923828125
1761505710330280200,1.5742802734375,-1.9291839599609375,-0.2054443359375,-0.4063720703125
1761505710340317200,1.584317138671875,-1.7900390625,-0.277862548828125,-0.4079132080078125
1761505710350353200,1.594353271484375,-1.7206268310546875,-0.332275390625,-0.34765625
1761505710360389000,1.60438916015625,-1.6912689208984375,-0.3874664306640625,-0.2495880126953125
1761505710370426000,1.614426025390625,-1.6655426025390625,-0.404876708984375,-0.1721343994140625
1761505710380462000,1.624462158203125,-1.604339599609375,-0.3420562744140625,-0.1544189453125
1761505710390498000,1.634498046875,-1.5109710693359375,-0.221160888671875,-0.1814117431640625
1761505710400535000,1.64453515625,-1.3711090087890625,-0.1101837158203125,-0.1956024169921875
1761505710410571000,1.654571044921875,-1.172698974609375,-0.0757904052734375,-0.159759521484375
1761505710420607000,1.66460693359375,-0.994232177734375,-0.1076507568359375,-0.1040802001953125
1761505710430643200,1.674643310546875,-0.8477630615234375,-0.154510498046875,-0.0848541259765625
1761505710440680000,1.684679931640625,-0.7259368896484375,-0.1565704345703125,-0.1025390625
1761505710450716000,1.6947158203125,-0.6647491455078125,-0.1212615966796875,-0.1384429931640625
1761505710460752100,1.704752197265625,-0.68182373046875,-0.0869903564453125,-0.165313720703125
1761505710470789000,1.7147890625,-0.6990966796875,-0.062957763671875,-0.1674346923828125
1761505710480825000,1.7248251953125,-0.6925811767578125,-0.054840087890625,-0.1511688232421875
1761505710490861000,1.734861083984375,-0.6665191650390625,-0.0623931884765625,-0.1449432373046875
1761505710500898000,1.74489794921875,-0.5987701416015625,-0.058685302734375,-0.1446990966796875
1761505710510934000,1.75493408203125,-0.5061798095703125,-0.0500640869140625,-0.1367034912109375
1761505710520970000,1.764969970703125,-0.4087066650390625,-0.0607147216796875,-0.1226348876953125
1761505710531007000,1.775007080078125,-0.334869384765625,-0.095611572265625,-0.0826416015625
1761505710541043000,1.78504296875,-0.30511474609375,-0.148162841796875,-0.0201416015625
1761505710551079000,1.795078857421875,-0.2984161376953125,-0.1995697021484375,0.04656982421875
1761505710561116200,1.8051162109375,-0.28692626953125,-0.2227935791015625,0.0907440185546875
1761505710571152100,1.815152099609375,-0.2668914794921875,-0.2079315185546875,0.0992889404296875
1761505710581188000,1.82518798828125,-0.229522705078125,-0.1594696044921875,0.0734405517578125
1761505710591225000,1.83522509765625,-0.1918182373046875,-0.0998992919921875,0.0241851806640625
1761505710601261000,1.845260986328125,-0.171539306640625,-0.052520751953125,-0.026947021484375
1761505710611297000,1.855297119140625,-0.1526031494140625,-0.027435302734375,-0.068145751953125
1761505710621333200,1.865333251953125,-0.1406097412109375,-0.0314788818359375,-0.0887908935546875
1761505710631370000,1.875369873046875,-0.14044189453125,-0.0619049072265625,-0.0977935791015625
1761505710641406000,1.885406005859375,-0.146514892578125,-0.1018524169921875,-0.09539794921875
1761505710651442200,1.895442138671875,-0.16778564453125,-0.133514404296875,-0.0831146240234375
1761505710661479200,1.905479248046875,-0.2141876220703125,-0.158782958984375,-0.0716400146484375
1761505710671515100,1.91551513671875,-0.28887939453125,-0.1818084716796875,-0.06842041015625
1761505710681551000,1.925551025390625,-0.3719329833984375,-0.2029266357421875,-0.0610809326171875
1761505710691588000,1.935588134765625,-0.4485321044921875,-0.189971923828125,-0.0748748779296875
1761505710701624000,1.9456240234375,-0.54052734375,-0.13348388671875,-0.1240997314453125
1761505710711660000,1.955659912109375,-0.670806884765625,-0.0726165771484375,-0.1927947998046875
1761505710721697000,1.965697021484375,-0.8800506591796875,-0.0272064208984375,-0.2641143798828125
1761505710731733000,1.97573291015625,-1.1234130859375,-0.0092926025390625,-0.319244384765625
1761505710741769000,1.98576904296875,-1.3380584716796875,-0.024810791015625,-0.3103485107421875
1761505710751805200,1.99580517578125,-1.54486083984375,-0.067138671875,-0.2527618408203125
1761505710761842200,2.00584228515625,-1.837646484375,-0.125885009765625,-0.1799774169921875
1761505710771878100,2.015878173828125,-2.0905609130859375,-0.2046966552734375,-0.1417236328125
1761505710781914000,2.0259140625,-2.289825439453125,-0.2555389404296875,-0.1767578125
1761505710791951000,2.035951171875,-2.45001220703125,-0.246124267578125,-0.2783660888671875
1761505710801987000,2.045987060546875,-2.49456787109375,-0.211395263671875,-0.3887176513671875
1761505710812023000,2.05602294921875,-2.4433746337890625,-0.1926422119140625,-0.4685821533203125
1761505710822060500,2.066060546875,-2.33563232421875,-0.1938934326171875,-0.495635986328125
1761505710832096500,2.076096435546875,-2.2380828857421875,-0.2007293701171875,-0.509307861328125
1761505710842132500,2.086132568359375,-2.1465301513671875,-0.2149810791015625,-0.512298583984375
1761505710852169700,2.096169677734375,-2.0433197021484375,-0.26519775390625,-0.4661407470703125
1761505710862205700,2.106205810546875,-1.9933929443359375,-0.346954345703125,-0.375701904296875
1761505710872241700,2.11624169921875,-1.9581756591796875,-0.4136810302734375,-0.2891998291015625
1761505710882277600,2.126277587890625,-1.9112091064453125,-0.4384002685546875,-0.25830078125
1761505710892314600,2.136314697265625,-1.7926177978515625,-0.38751220703125,-0.3075103759765625
1761505710902350600,2.1463505859375,-1.5467376708984375,-0.273681640625,-0.3597259521484375
1761505710912386600,2.156386474609375,-1.2756500244140625,-0.2055206298828125,-0.3386383056640625
1761505710922423600,2.166423583984375,-1.0050048828125,-0.2147979736328125,-0.2430419921875
1761505710932459500,2.17645947265625,-0.775634765625,-0.236328125,-0.13739013671875
1761505710942495500,2.18649560546875,-0.6194000244140625,-0.2382659912109375,-0.0587005615234375
1761505710952532500,2.196532470703125,-0.5233306884765625,-0.22430419921875,-0.0253448486328125
1761505710962568400,2.206568359375,-0.4694061279296875,-0.1991729736328125,-0.050933837890625
1761505710972604700,2.216604736328125,-0.427642822265625,-0.1750640869140625,-0.0919647216796875
1761505710982641700,2.2266416015625,-0.4093017578125,-0.1609649658203125,-0.1010589599609375
1761505710992677600,2.236677734375,-0.419097900390625,-0.1634063720703125,-0.0812225341796875
1761505711002713600,2.246713623046875,-0.4402923583984375,-0.1761322021484375,-0.0548858642578125
1761505711012749600,2.25674951171875,-0.4484405517578125,-0.178375244140625,-0.0435333251953125
1761505711022786600,2.26678662109375,-0.43170166015625,-0.1513671875,-0.0517425537109375
1761505711032822500,2.276822509765625,-0.434661865234375,-0.0939788818359375,-0.0775299072265625
1761505711042858500,2.2868583984375,-0.3983001708984375,-0.029144287109375,-0.1216888427734375
1761505711052895500,2.2968955078125,-0.3043670654296875,0.0072784423828125,-0.14276123046875
1761505711062931500,2.306931396484375,-0.222930908203125,0.0056915283203125,-0.12451171875
1761505711072967400,2.316967529296875,-0.1512603759765625,-0.0316925048828125,-0.08538818359375
1761505711083004700,2.327004638671875,-0.0977630615234375,-0.0794219970703125,-0.0343780517578125
1761505711093040600,2.33704052734375,-0.0597381591796875,-0.10614013671875,0.0169830322265625
1761505711103076600,2.34707666015625,-0.0443267822265625,-0.1165008544921875,0.0480499267578125
1761505711113113600,2.357113525390625,-0.0654754638671875,-0.13262939453125,0.0299224853515625
1761505711123149600,2.367149658203125,-0.0648193359375,-0.1527099609375,0.0307464599609375
1761505711133185500,2.377185546875,-0.06597900390625,-0.172943115234375,0.0245513916015625
1761505711143221500,2.387221435546875,-0.077423095703125,-0.199798583984375,0.0053863525390625
1761505711153258500,2.397258544921875,-0.17315673828125,-0.217315673828125,-0.0278778076171875
1761505711163294500,2.40729443359375,-0.31298828125,-0.24456787109375,-0.08099365234375
1761505711173330400,2.417330322265625,-0.4354705810546875,-0.2225494384765625,-0.161376953125
1761505711183367700,2.42736767578125,-0.5826568603515625,-0.1317291259765625,-0.1844940185546875
1761505711193403600,2.437403564453125,-0.641021728515625,-0.0876007080078125,-0.2165679931640625
1761505711203439600,2.447439697265625,-0.7400970458984375,-0.1175079345703125,-0.2342529296875
1761505711213476600,2.4574765625,-0.849822998046875,-0.1379241943359375,-0.22589111328125
1761505711223512600,2.4675126953125,-0.9925537109375,-0.1096038818359375,-0.216827392578125
1761505711233548500,2.477548583984375,-1.148345947265625,-0.056243896484375,-0.19903564453125
1761505711243584500,2.48758447265625,-1.3516693115234375,-0.024444580078125,-0.1580352783203125
1761505711253621500,2.49762158203125,-1.6466217041015625,-0.0710296630859375,-0.096466064453125
1761505711263657500,2.507657470703125,-1.8850555419921875,-0.175323486328125,-0.039794921875
1761505711273693400,2.517693359375,-2.0483245849609375,-0.263702392578125,-0.0320892333984375
1761505711283730700,2.527730712890625,-2.219757080078125,-0.2599639892578125,-0.1016082763671875
1761505711293766700,2.5377666015625,-2.341552734375,-0.1618499755859375,-0.2551727294921875
1761505711303802600,2.547802734375,-2.3562164306640625,-0.0531463623046875,-0.4100189208984375
1761505711313839600,2.557839599609375,-2.3416748046875,-0.0042572021484375,-0.51068115234375
1761505711323875600,2.56787548828125,-2.2992095947265625,-0.022125244140625,-0.524261474609375
1761505711333911600,2.57791162109375,-2.21063232421875,-0.074432373046875,-0.4872894287109375
1761505711343947800,2.58794775390625,-2.0966949462890625,-0.1187591552734375,-0.4345245361328125
1761505711353984500,2.597984619140625,-2.0001983642578125,-0.1630096435546875,-0.3703155517578125
1761505711364020500,2.6080205078125,-1.9246673583984375,-0.2268524169921875,-0.30535888671875
1761505711374056700,2.618056640625,-1.866546630859375,-0.2966156005859375,-0.2562103271484375
1761505711384093400,2.628093505859375,-1.7890472412109375,-0.342071533203125,-0.2571563720703125
1761505711394129400,2.63812939453125,-1.656646728515625,-0.3017120361328125,-0.3230743408203125
1761505711404165600,2.64816552734375,-1.4774932861328125,-0.2031402587890625,-0.4007568359375
1761505711414202600,2.65820263671875,-1.2401580810546875,-0.12774658203125,-0.420745849609375
1761505711424238600,2.668238525390625,-0.99078369140625,-0.09857177734375,-0.354705810546875
1761505711434274600,2.678274658203125,-0.7846527099609375,-0.0937347412109375,-0.2492523193359375
1761505711444310800,2.688310791015625,-0.6222991943359375,-0.0966339111328125,-0.1442413330078125
1761505711454347500,2.698347412109375,-0.52655029296875,-0.1016845703125,-0.0560455322265625
1761505711464383500,2.708383544921875,-0.502838134765625,-0.1217803955078125,0.002288818359375
1761505711474419700,2.718419677734375,-0.540435791015625,-0.1466827392578125,0.0291290283203125
1761505711484456400,2.72845654296875,-0.59173583984375,-0.161773681640625,0.0144195556640625
1761505711494492400,2.738492431640625,-0.6155853271484375,-0.1480865478515625,-0.041229248046875
1761505711504528600,2.748528564453125,-0.598480224609375,-0.1100006103515625,-0.13238525390625
1761505711514564600,2.758564697265625,-0.5484619140625,-0.0633697509765625,-0.203582763671875
1761505711524601600,2.7686015625,-0.479461669921875,-0.0412445068359375,-0.20416259765625
1761505711534637600,2.778637451171875,-0.402862548828125,-0.068115234375,-0.1440582275390625
1761505711544673800,2.788673828125,-0.329010009765625,-0.110321044921875,-0.07470703125
1761505711554710500,2.79871044921875,-0.260986328125,-0.1328887939453125,-0.02056884765625
1761505711564746500,2.80874658203125,-0.2180023193359375,-0.134552001953125,0.019073486328125
1761505711574782700,2.81878271484375,-0.2120513916015625,-0.133453369140625,0.0261688232421875
1761505711584818700,2.828818603515625,-0.22198486328125,-0.135833740234375,0.0176239013671875
1761505711594855400,2.83885546875,-0.2242584228515625,-0.1351470947265625,0.0094146728515625
1761505711604891600,2.8488916015625,-0.216705322265625,-0.12420654296875,-0.004058837890625
1761505711614927600,2.858927734375,-0.1989288330078125,-0.1051483154296875,-0.03228759765625
1761505711624964600,2.868964599609375,-0.17108154296875,-0.092193603515625,-0.056549072265625
1761505711635000800,2.879000732421875,-0.13983154296875,-0.09002685546875,-0.0578155517578125
1761505711645036800,2.889036865234375,-0.114990234375,-0.1015777587890625,-0.0309906005859375
1761505711655073500,2.899073486328125,-0.1132354736328125,-0.12799072265625,0.01190185546875
1761505711665109800,2.90910986328125,-0.1425933837890625,-0.1671600341796875,0.056182861328125
1761505711675145700,2.919145751953125,-0.220123291015625,-0.2117919921875,0.0838470458984375
1761505711685181700,2.929181640625,-0.36090087890625,-0.2481689453125,0.0740509033203125
1761505711695218700,2.93921875,-0.55126953125,-0.239990234375,0.0054473876953125
1761505711705254700,2.949254638671875,-0.7331390380859375,-0.1684417724609375,-0.0889129638671875
1761505711715290600,2.95929052734375,-0.89434814453125,-0.06488037109375,-0.162567138671875
1761505711725327600,2.96932763671875,-1.0856475830078125,0.0164947509765625,-0.203521728515625
1761505711735363800,2.97936376953125,-1.3065948486328125,0.041473388671875,-0.2333984375
1761505711745399800,2.98939990234375,-1.5624542236328125,0.02203369140625,-0.27508544921875
1761505711755435800,2.999435791015625,-1.8344268798828125,-0.009490966796875,-0.291259765625
1761505711765472800,3.00947265625,-2.0788116455078125,-0.0337982177734375,-0.267608642578125
1761505711775508700,3.0195087890625,-2.200103759765625,-0.0707550048828125,-0.22406005859375
1761505711785544700,3.029544677734375,-2.2026214599609375,-0.1080322265625,-0.1634979248046875
1761505711795581700,3.039581787109375,-2.1313629150390625,-0.125823974609375,-0.1337890625
1761505711805617700,3.04961767578125,-2.042388916015625,-0.1343994140625,-0.16302490234375
1761505711815652600,3.059652587890625,-2.0038604736328125,-0.1220855712890625,-0.227935791015625
1761505711825688600,3.0696884765625,-2.019775390625,-0.0873565673828125,-0.3025360107421875
1761505711835725800,3.079725830078125,-2.0225830078125,-0.0491790771484375,-0.3489532470703125
1761505711845761800,3.08976171875,-1.9510040283203125,-0.031890869140625,-0.330535888671875
1761505711855797800,3.0997978515625,-1.8958587646484375,-0.063934326171875,-0.2536163330078125
1761505711865834800,3.109834716796875,-1.9197845458984375,-0.1314239501953125,-0.1860198974609375
1761505711875870700,3.11987060546875,-2.00445556640625,-0.178619384765625,-0.16937255859375
1761505711885906700,3.12990673828125,-2.11700439453125,-0.170013427734375,-0.203155517578125
1761505711895942700,3.139942626953125,-2.108154296875,-0.12884521484375,-0.2679595947265625
1761505711905979600,3.149979736328125,-1.97344970703125,-0.07720947265625,-0.3178253173828125
1761505711916015600,3.160015625,-1.7487030029296875,-0.049957275390625,-0.3293304443359375
1761505711926051600,3.170051513671875,-1.4828948974609375,-0.0627288818359375,-0.2983856201171875
1761505711936088600,3.180088623046875,-1.20654296875,-0.091278076171875,-0.2528228759765625
1761505711946124800,3.190124755859375,-0.951019287109375,-0.1037750244140625,-0.226104736328125
1761505711956160800,3.200160888671875,-0.75146484375,-0.1085968017578125,-0.1993865966796875
1761505711966196700,3.21019677734375,-0.6183013916015625,-0.1316680908203125,-0.1633148193359375
1761505711976233700,3.220233642578125,-0.5550384521484375,-0.16522216796875,-0.1239013671875
1761505711986269700,3.230269775390625,-0.525970458984375,-0.1925506591796875,-0.0901031494140625
1761505711996305700,3.2403056640625,-0.49615478515625,-0.197265625,-0.0714569091796875
1761505712006342700,3.2503427734375,-0.470550537109375,-0.1868896484375,-0.0590972900390625
1761505712016378600,3.260378662109375,-0.4461669921875,-0.174224853515625,-0.0345306396484375
1761505712026414600,3.27041455078125,-0.4118194580078125,-0.1580352783203125,-0.0015411376953125
1761505712036450600,3.280450439453125,-0.365997314453125,-0.1430816650390625,0.0235748291015625
1761505712046487600,3.290487548828125,-0.3214569091796875,-0.13348388671875,0.0401763916015625
1761505712056523500,3.3005234375,-0.297119140625,-0.1313323974609375,0.0490570068359375
1761505712066559700,3.310559814453125,-0.269775390625,-0.1326904296875,0.050018310546875
1761505712076596700,3.3205966796875,-0.23681640625,-0.127593994140625,0.0362091064453125
1761505712086632700,3.3306328125,-0.210784912109375,-0.1236419677734375,0.011383056640625
1761505712096668700,3.340668701171875,-0.202239990234375,-0.1317901611328125,-0.0204010009765625
1761505712106704600,3.35070458984375,-0.207305908203125,-0.1362152099609375,-0.0552215576171875
1761505712116741600,3.36074169921875,-0.2119140625,-0.1174774169921875,-0.0890655517578125
1761505712126777600,3.370777587890625,-0.208221435546875,-0.0876922607421875,-0.11334228515625
1761505712136813600,3.3808134765625,-0.193939208984375,-0.07012939453125,-0.1126861572265625
1761505712146849500,3.390849609375,-0.1807708740234375,-0.071868896484375,-0.0909423828125
1761505712156886500,3.400886474609375,-0.1683349609375,-0.0862274169921875,-0.0670318603515625
1761505712166922500,3.410922607421875,-0.1687164306640625,-0.106292724609375,-0.041717529296875
1761505712176958500,3.42095849609375,-0.216064453125,-0.1406402587890625,-0.0212554931640625
1761505712186995700,3.43099560546875,-0.3137054443359375,-0.16595458984375,-0.0187835693359375
1761505712197031700,3.44103173828125,-0.43597412109375,-0.155975341796875,-0.0482025146484375
1761505712207067600,3.451067626953125,-0.5772552490234375,-0.100128173828125,-0.099090576171875
1761505712217103600,3.461103515625,-0.74798583984375,-0.02099609375,-0.1665496826171875
1761505712227140600,3.471140625,-0.9296417236328125,0.0468292236328125,-0.23065185546875
1761505712237176600,3.481176513671875,-1.1397552490234375,0.094818115234375,-0.2704925537109375
1761505712247212500,3.491212646484375,-1.38092041015625,0.1025543212890625,-0.2943267822265625
1761505712257249500,3.50124951171875,-1.6052093505859375,0.0539703369140625,-0.2867431640625
1761505712267285500,3.511285400390625,-1.816619873046875,-0.02685546875,-0.252960205078125
1761505712277321500,3.521321533203125,-1.9892120361328125,-0.0961456298828125,-0.2362823486328125
1761505712287357700,3.531357666015625,-2.1630401611328125,-0.1056060791015625,-0.255859375
1761505712297394700,3.541394775390625,-2.2802276611328125,-0.060516357421875,-0.279388427734375
1761505712307430700,3.5514306640625,-2.28228759765625,-0.0088043212890625,-0.3055419921875
1761505712317466600,3.561466552734375,-2.2177276611328125,0.016143798828125,-0.3127593994140625
1761505712327502800,3.5715029296875,-2.1208038330078125,0.011199951171875,-0.3087158203125
1761505712337539600,3.58153955078125,-1.9945220947265625,0.00091552734375,-0.32427978515625
1761505712347575600,3.591575439453125,-1.8638763427734375,-0.0098876953125,-0.325469970703125
1761505712357611800,3.60161181640625,-1.74554443359375,-0.0559844970703125,-0.2896881103515625
1761505712367648500,3.6116484375,-1.699951171875,-0.14288330078125,-0.2379302978515625
1761505712377684500,3.6216845703125,-1.710784912109375,-0.2291259765625,-0.205169677734375
1761505712387720700,3.631720703125,-1.73443603515625,-0.260955810546875,-0.2248077392578125
1761505712397756700,3.641756591796875,-1.689697265625,-0.225433349609375,-0.288543701171875
1761505712407793700,3.651793701171875,-1.6087646484375,-0.154327392578125,-0.3449859619140625
1761505712417829600,3.66182958984375,-1.4651336669921875,-0.1053619384765625,-0.3582000732421875
1761505712427865900,3.671865966796875,-1.2738189697265625,-0.0966033935546875,-0.326751708984375
1761505712437901800,3.68190185546875,-1.072906494140625,-0.1043243408203125,-0.272705078125
1761505712447938600,3.6919384765625,-0.8950653076171875,-0.107879638671875,-0.2152557373046875
1761505712457974800,3.701974853515625,-0.7626190185546875,-0.1156768798828125,-0.168426513671875
1761505712468010800,3.7120107421875,-0.6836395263671875,-0.134124755859375,-0.1321258544921875
1761505712478047500,3.722047607421875,-0.6408538818359375,-0.160125732421875,-0.10418701171875
1761505712488083700,3.732083740234375,-0.6137237548828125,-0.17852783203125,-0.09368896484375
1761505712498119700,3.74211962890625,-0.58978271484375,-0.18853759765625,-0.0967254638671875
1761505712508155600,3.75215576171875,-0.56060791015625,-0.189910888671875,-0.09912109375
1761505712518193000,3.76219287109375,-0.5290679931640625,-0.189208984375,-0.0834197998046875
1761505712528228900,3.772228759765625,-0.4867401123046875,-0.1860809326171875,-0.0489959716796875
1761505712538264800,3.782264892578125,-0.4126129150390625,-0.1705474853515625,-0.013824462890625
1761505712548300800,3.79230078125,-0.330535888671875,-0.1530609130859375,0.0118255615234375
1761505712558337800,3.802337890625,-0.267303466796875,-0.14080810546875,0.029937744140625
1761505712568373800,3.812373779296875,-0.217987060546875,-0.1324005126953125,0.038238525390625
1761505712578409700,3.82240966796875,-0.179840087890625,-0.1274871826171875,0.035888671875
1761505712588446700,3.83244677734375,-0.1624298095703125,-0.131256103515625,0.0289154052734375
1761505712598482700,3.842482666015625,-0.1694793701171875,-0.140533447265625,0.01910400390625
1761505712608518700,3.8525185546875,-0.1814422607421875,-0.1442108154296875,0.0008544921875
1761505712618554600,3.8625546875,-0.1904449462890625,-0.1385955810546875,-0.0164642333984375
1761505712628591900,3.872591796875,-0.2105560302734375,-0.1334381103515625,-0.0227508544921875
1761505712638627800,3.8826279296875,-0.231109619140625,-0.1377105712890625,-0.0212554931640625
1761505712648663800,3.892663818359375,-0.2562408447265625,-0.1443939208984375,-0.02001953125
1761505712658699800,3.90269970703125,-0.295013427734375,-0.14453125,-0.01959228515625
1761505712668736800,3.91273681640625,-0.3331146240234375,-0.145294189453125,-0.026641845703125
1761505712678772700,3.922772705078125,-0.382476806640625,-0.1448822021484375,-0.0448760986328125
1761505712688808700,3.93280859375,-0.4722747802734375,-0.1454620361328125,-0.06884765625
1761505712698844700,3.9428447265625,-0.58477783203125,-0.1291961669921875,-0.1003570556640625
1761505712708881700,3.952881591796875,-0.7090606689453125,-0.086700439453125,-0.1389007568359375
1761505712718917600,3.962917724609375,-0.8672332763671875,-0.043670654296875,-0.1676177978515625
1761505712728953600,3.97295361328125,-1.0473480224609375,-0.0243988037109375,-0.1759033203125
1761505712738990800,3.982990966796875,-1.2310028076171875,-0.0270843505859375,-0.1536102294921875
1761505712749026800,3.99302685546875,-1.4781036376953125,-0.0536346435546875,-0.1218719482421875
1761505712759062800,4.003062744140625,-1.7386932373046875,-0.078094482421875,-0.118316650390625
1761505712769097500,4.013097412109375,-1.975982666015625,-0.0950927734375,-0.124969482421875
1761505712779133400,4.023133544921875,-2.0991668701171875,-0.1183929443359375,-0.1415863037109375
1761505712789169700,4.033169677734375,-2.1429443359375,-0.1235809326171875,-0.1604461669921875
1761505712799206700,4.04320654296875,-2.120025634765625,-0.095733642578125,-0.192047119140625
1761505712809242600,4.05324267578125,-2.0376739501953125,-0.0411529541015625,-0.2525482177734375
1761505712819278600,4.063278564453125,-1.937896728515625,0.0123443603515625,-0.3222808837890625
1761505712829315000,4.073315185546875,-1.8480072021484375,0.022552490234375,-0.3642425537109375
1761505712839351800,4.083351806640625,-1.8036651611328125,-0.0354766845703125,-0.3587188720703125
1761505712849388000,4.093387939453125,-1.83740234375,-0.1464691162109375,-0.3208160400390625
1761505712859424000,4.103424072265625,-1.9084930419921875,-0.2461700439453125,-0.2971343994140625
1761505712869460200,4.113460205078125,-1.995361328125,-0.2438507080078125,-0.3383636474609375
1761505712879497000,4.1234970703125,-1.9973602294921875,-0.1572723388671875,-0.401031494140625
1761505712889533000,4.133532958984375,-1.8611602783203125,-0.081085205078125,-0.404937744140625
1761505712899569200,4.143569091796875,-1.6770172119140625,-0.059234619140625,-0.36431884765625
1761505712909605000,4.153605224609375,-1.460113525390625,-0.0769805908203125,-0.2933197021484375
1761505712919641900,4.163641845703125,-1.2372894287109375,-0.0880126953125,-0.221954345703125
1761505712929678000,4.173677978515625,-1.033843994140625,-0.08477783203125,-0.168975830078125
1761505712939714000,4.183714111328125,-0.8616790771484375,-0.092315673828125,-0.117156982421875
1761505712949750000,4.19375,-0.734039306640625,-0.116302490234375,-0.075958251953125
1761505712959787000,4.203787109375,-0.652252197265625,-0.146026611328125,-0.043243408203125
1761505712969823200,4.2138232421875,-0.6122283935546875,-0.1755218505859375,-0.0162506103515625
1761505712979859200,4.223859130859375,-0.600677490234375,-0.2046661376953125,-0.00201416015625
1761505712989895200,4.233895263671875,-0.574920654296875,-0.227386474609375,-0.00579833984375
1761505712999932200,4.24393212890625,-0.5318450927734375,-0.234100341796875,-0.0152740478515625
1761505713009968000,4.253968017578125,-0.4879150390625,-0.2291107177734375,-0.0236663818359375
1761505713020004000,4.264004150390625,-0.44622802734375,-0.22149658203125,-0.034515380859375
1761505713030041000,4.274041015625,-0.3916168212890625,-0.20684814453125,-0.042877197265625
1761505713040077000,4.2840771484375,-0.3391571044921875,-0.1955108642578125,-0.036895751953125
1761505713050113000,4.294113037109375,-0.309844970703125,-0.1915283203125,-0.018218994140625
1761505713060149000,4.30414892578125,-0.2824859619140625,-0.190399169921875,-0.0024261474609375
1761505713070186000,4.31418603515625,-0.2509307861328125,-0.184844970703125,0.006072998046875
1761505713080222000,4.324221923828125,-0.237823486328125,-0.1803131103515625,0.009674072265625
1761505713090258200,4.334258056640625,-0.235565185546875,-0.1719207763671875,0.00506591796875
1761505713100294100,4.344294189453125,-0.23431396484375,-0.1603240966796875,-0.008819580078125
1761505713110331100,4.3543310546875,-0.2365570068359375,-0.1531982421875,-0.0241851806640625
1761505713120367000,4.3643671875,-0.2453155517578125,-0.157196044921875,-0.0357513427734375
1761505713130403000,4.374403076171875,-0.2681732177734375,-0.1754608154296875,-0.0303497314453125
1761505713140439000,4.38443896484375,-0.2990875244140625,-0.19500732421875,-0.0160369873046875
1761505713150476000,4.39447607421875,-0.3408050537109375,-0.2079315185546875,-0.00799560546875
1761505713160512000,4.404511962890625,-0.4080047607421875,-0.210693359375,-0.014190673828125
1761505713170548000,4.4145478515625,-0.4970550537109375,-0.193145751953125,-0.0319366455078125
1761505713180584000,4.424583984375,-0.57794189453125,-0.1492156982421875,-0.0810546875
1761505713190621000,4.434620849609375,-0.6357269287109375,-0.077117919921875,-0.1352996826171875
1761505713200657000,4.444656982421875,-0.6930084228515625,-0.0147247314453125,-0.175628662109375
1761505713210693000,4.454693115234375,-0.8260040283203125,-0.004241943359375,-0.1885223388671875
1761505713220729000,4.46472900390625,-1.0230712890625,-0.050445556640625,-0.1618804931640625
1761505713230766000,4.47476611328125,-1.241943359375,-0.1194305419921875,-0.1048431396484375
1761505713240802000,4.484802001953125,-1.47283935546875,-0.1718292236328125,-0.0535736083984375
1761505713250838000,4.494838134765625,-1.7025299072265625,-0.1697998046875,-0.0676422119140625
1761505713260874000,4.5048740234375,-1.88665771484375,-0.127655029296875,-0.1429290771484375
1761505713270911000,4.514910888671875,-2.0363311767578125,-0.085906982421875,-0.2385406494140625
1761505713280947000,4.524947021484375,-2.1470794677734375,-0.0510101318359375,-0.33306884765625
1761505713290983000,4.53498291015625,-2.1860198974609375,-0.0267333984375,-0.4117279052734375
1761505713301020000,4.54502001953125,-2.1400299072265625,-0.0315399169921875,-0.46612548828125
1761505713311056000,4.555055908203125,-2.0348052978515625,-0.053466796875,-0.483367919921875
1761505713321091800,4.565091796875,-1.9161529541015625,-0.0687713623046875,-0.4703521728515625
1761505713331128000,4.575128173828125,-1.7979583740234375,-0.0610809326171875,-0.4458465576171875
1761505713341166000,4.585166015625,-1.691162109375,-0.063934326171875,-0.407257080078125
1761505713351202000,4.5952021484375,-1.6050872802734375,-0.0993499755859375,-0.35174560546875
1761505713361239000,4.605239013671875,-1.541259765625,-0.153656005859375,-0.2979278564453125
1761505713371275000,4.61527490234375,-1.48321533203125,-0.1947479248046875,-0.257659912109375
1761505713381311000,4.62531103515625,-1.43939208984375,-0.2047271728515625,-0.2534637451171875
1761505713391347000,4.635346923828125,-1.4174041748046875,-0.1792144775390625,-0.2700958251953125
1761505713401384200,4.64538427734375,-1.356231689453125,-0.14111328125,-0.2683868408203125
1761505713411420200,4.655420166015625,-1.2540740966796875,-0.113800048828125,-0.2418670654296875
1761505713421456100,4.6654560546875,-1.141021728515625,-0.105712890625,-0.20318603515625
1761505713431493000,4.6754931640625,-1.0248260498046875,-0.1104278564453125,-0.1666259765625
1761505713441529000,4.685529052734375,-0.920806884765625,-0.1223907470703125,-0.14471435546875
1761505713451565000,4.69556494140625,-0.8374786376953125,-0.1316680908203125,-0.136077880859375
1761505713461601000,4.70560107421875,-0.77667236328125,-0.1398162841796875,-0.128936767578125
1761505713471638000,4.715637939453125,-0.7281951904296875,-0.1539764404296875,-0.12652587890625
1761505713481674000,4.725674072265625,-0.679168701171875,-0.16510009765625,-0.1273040771484375
1761505713491710000,4.7357099609375,-0.626708984375,-0.1738739013671875,-0.128387451171875
1761505713501746000,4.745745849609375,-0.578216552734375,-0.1802978515625,-0.1281585693359375
1761505713511783200,4.755783203125,-0.5461578369140625,-0.1812744140625,-0.1194305419921875
1761505713521819100,4.765819091796875,-0.5377044677734375,-0.1873321533203125,-0.101104736328125
1761505713531855000,4.775855224609375,-0.52459716796875,-0.1946563720703125,-0.0728912353515625
1761505713541891000,4.78589111328125,-0.5094757080078125,-0.2028656005859375,-0.0233001708984375
1761505713551928000,4.795927978515625,-0.4993438720703125,-0.2095184326171875,0.01947021484375
1761505713561964000,4.805964111328125,-0.4685516357421875,-0.20806884765625,0.026763916015625
1761505713572000000,4.816,-0.4226226806640625,-0.191650390625,0.001129150390625
1761505713582036000,4.826035888671875,-0.3676300048828125,-0.1719970703125,-0.0330963134765625
1761505713592073000,4.836072998046875,-0.3165435791015625,-0.168182373046875,-0.0653839111328125
1761505713602109000,4.84610888671875,-0.2922210693359375,-0.1868743896484375,-0.0757904052734375
1761505713612145000,4.856144775390625,-0.3033294677734375,-0.220733642578125,-0.0532684326171875
1761505713622180900,4.866180908203125,-0.333526611328125,-0.2506561279296875,-0.0330810546875
1761505713632218000,4.876218017578125,-0.3632965087890625,-0.257720947265625,-0.034393310546875
1761505713642254000,4.886254150390625,-0.4193878173828125,-0.249267578125,-0.055206298828125
1761505713652290000,4.8962900390625,-0.50604248046875,-0.22540283203125,-0.0857391357421875
1761505713662326000,4.906325927734375,-0.624176025390625,-0.1957550048828125,-0.10589599609375
1761505713672363000,4.916363037109375,-0.794952392578125,-0.160797119140625,-0.0979156494140625
1761505713682399000,4.92639892578125,-0.9691162109375,-0.1128997802734375,-0.087310791015625
1761505713692435000,4.93643505859375,-1.1118316650390625,-0.064849853515625,-0.101837158203125
1761505713702471000,4.946470947265625,-1.202178955078125,-0.0199737548828125,-0.1466827392578125
1761505713712508000,4.9565078125,-1.21929931640625,0.0282745361328125,-0.21392822265625
1761505713722543900,4.9665439453125,-1.2261505126953125,0.0557861328125,-0.23577880859375
1761505713732579800,4.976579833984375,-1.27264404296875,0.037872314453125,-0.1873321533203125
1761505713742616000,4.986615966796875,-1.388427734375,-0.0218658447265625,-0.0830078125
1761505713752653000,4.996653076171875,-1.545745849609375,-0.0728607177734375,-0.004150390625
1761505713762689000,5.00668896484375,-1.7135772705078125,-0.0659637451171875,0.00787353515625
1761505713772725000,5.01672509765625,-1.8600921630859375,-0.014678955078125,-0.04705810546875
1761505713782762000,5.026761962890625,-1.9324493408203125,0.0327911376953125,-0.1509552001953125
1761505713792798000,5.0367978515625,-1.939971923828125,0.04083251953125,-0.2596282958984375
1761505713802834000,5.046833984375,-1.8789215087890625,0.00897216796875,-0.344696044921875
1761505713812870100,5.0568701171875,-1.773590087890625,-0.0219879150390625,-0.3898773193359375
1761505713822907000,5.066906982421875,-1.6567535400390625,-0.0561370849609375,-0.40618896484375
1761505713832942800,5.07694287109375,-1.56182861328125,-0.1087646484375,-0.3957977294921875
1761505713842979000,5.08697900390625,-1.50848388671875,-0.163604736328125,-0.3595123291015625
1761505713853015000,5.09701513671875,-1.4742584228515625,-0.1997222900390625,-0.3230743408203125
1761505713863051800,5.1070517578125,-1.4525146484375,-0.2019805908203125,-0.2826385498046875
1761505713873088000,5.117087890625,-1.4217071533203125,-0.1887359619140625,-0.2425384521484375
1761505713883124200,5.127124267578125,-1.3621063232421875,-0.1744842529296875,-0.2079315185546875
1761505713893160200,5.13716015625,-1.2532501220703125,-0.15850830078125,-0.19317626953125
1761505713903197000,5.147197021484375,-1.1290130615234375,-0.139068603515625,-0.1911163330078125
1761505713913233200,5.157233154296875,-1.0139312744140625,-0.1326751708984375,-0.1847686767578125
1761505713923269000,5.16726904296875,-0.913299560546875,-0.1444854736328125,-0.1822052001953125
1761505713933305000,5.17730517578125,-0.85595703125,-0.155609130859375,-0.1690521240234375
1761505713943342000,5.187342041015625,-0.8348846435546875,-0.139556884765625,-0.1292266845703125
1761505713953378000,5.1973779296875,-0.8050689697265625,-0.114898681640625,-0.0851898193359375
1761505713963414000,5.2074140625,-0.766754150390625,-0.1091766357421875,-0.038665771484375
1761505713973450000,5.217449951171875,-0.7208404541015625,-0.1256256103515625,-0.0107269287109375
1761505713983487000,5.227487060546875,-0.6807708740234375,-0.1536712646484375,0.0041656494140625
1761505713993523200,5.237523193359375,-0.6416473388671875,-0.18560791015625,0.02105712890625
1761505714003559200,5.24755908203125,-0.605804443359375,-0.2192840576171875,0.045196533203125
1761505714013595100,5.25759521484375,-0.5724639892578125,-0.2374420166015625,0.062103271484375
1761505714023632100,5.267632080078125,-0.52685546875,-0.2375335693359375,0.0519866943359375
1761505714033668000,5.277668212890625,-0.4738006591796875,-0.224945068359375,0.0277557373046875
1761505714043704000,5.2877041015625,-0.4286041259765625,-0.20941162109375,0.0081787109375
1761505714053740000,5.297739990234375,-0.40313720703125,-0.1980743408203125,-0.0102386474609375
1761505714063777000,5.307777099609375,-0.3860931396484375,-0.193939208984375,-0.0339202880859375
1761505714073813000,5.31781298828125,-0.36602783203125,-0.1941070556640625,-0.0469207763671875
1761505714083849000,5.327848876953125,-0.344940185546875,-0.205596923828125,-0.054351806640625
1761505714093885000,5.337885009765625,-0.32952880859375,-0.2255096435546875,-0.05780029296875
1761505714103922000,5.347921875,-0.334686279296875,-0.2472686767578125,-0.034515380859375
1761505714113958100,5.357958251953125,-0.3670501708984375,-0.2570037841796875,-0.0113983154296875
1761505714123994000,5.367994140625,-0.4219970703125,-0.2509307861328125,0.0019683837890625
1761505714134030000,5.378030029296875,-0.491912841796875,-0.236175537109375,0.0144195556640625
1761505714144067000,5.388067138671875,-0.5701446533203125,-0.21917724609375,0.0007781982421875
1761505714154103000,5.39810302734375,-0.6228485107421875,-0.1941375732421875,-0.0496826171875
1761505714164139000,5.408138916015625,-0.646942138671875,-0.16668701171875,-0.1027984619140625
1761505714174175000,5.418175048828125,-0.6937713623046875,-0.1421051025390625,-0.1284942626953125
1761505714184212000,5.4282119140625,-0.80133056640625,-0.1195526123046875,-0.141510009765625
1761505714194248000,5.438248046875,-0.9398345947265625,-0.0802459716796875,-0.1493072509765625
1761505714204284000,5.448283935546875,-1.1072845458984375,-0.0386199951171875,-0.150665283203125
1761505714214319900,5.45831982421875,-1.290069580078125,-0.0304412841796875,-0.1530609130859375
1761505714224356900,5.46835693359375,-1.467254638671875,-0.0659637451171875,-0.1144561767578125
1761505714234393000,5.47839306640625,-1.6199493408203125,-0.1226959228515625,-0.07830810546875
1761505714244429000,5.488428955078125,-1.7603607177734375,-0.147705078125,-0.0631866455078125
1761505714254466000,5.498466064453125,-1.884796142578125,-0.1206207275390625,-0.0631561279296875
1761505714264502000,5.508501953125,-1.968292236328125,-0.0561981201171875,-0.0773468017578125
1761505714274538000,5.5185380859375,-2.005340576171875,0.0052337646484375,-0.1014862060546875
1761505714284574000,5.528573974609375,-2.0250701904296875,0.02813720703125,-0.116241455078125
1761505714294610000,5.53860986328125,-2.0007781982421875,0.0150299072265625,-0.1347503662109375
1761505714304647000,5.54864697265625,-1.9406585693359375,-0.0000152587890625,-0.1753387451171875
1761505714314683000,5.558682861328125,-1.860321044921875,-0.0216064453125,-0.215118408203125
1761505714324718800,5.56871875,-1.783233642578125,-0.0817413330078125,-0.2376251220703125
1761505714334754800,5.5787548828125,-1.7367706298828125,-0.154266357421875,-0.2266082763671875
1761505714344791800,5.588791748046875,-1.734039306640625,-0.202392578125,-0.19879150390625
1761505714354828000,5.598828125,-1.7643585205078125,-0.2186431884765625,-0.1782073974609375
1761505714364864000,5.608864013671875,-1.740020751953125,-0.207489013671875,-0.171783447265625
1761505714374900200,5.618900146484375,-1.6359100341796875,-0.1770477294921875,-0.1715850830078125
1761505714384937000,5.62893701171875,-1.47845458984375,-0.1479339599609375,-0.15509033203125
1761505714394973000,5.638972900390625,-1.3115081787109375,-0.137908935546875,-0.1184234619140625
1761505714405009200,5.649009033203125,-1.13916015625,-0.144989013671875,-0.083099365234375
1761505714415045000,5.659045166015625,-0.978271484375,-0.160186767578125,-0.0713958740234375
1761505714425081900,5.669081787109375,-0.857025146484375,-0.180938720703125,-0.1072540283203125
1761505714435118000,5.6791181640625,-0.77239990234375,-0.2013092041015625,-0.1618499755859375
1761505714445154000,5.689154052734375,-0.698974609375,-0.1994171142578125,-0.1879119873046875
1761505714455190000,5.69918994140625,-0.6244049072265625,-0.1815338134765625,-0.1796875
1761505714465227000,5.70922705078125,-0.5460662841796875,-0.1729583740234375,-0.146820068359375
1761505714475263200,5.71926318359375,-0.475677490234375,-0.1823577880859375,-0.108245849609375
1761505714485299200,5.72929931640625,-0.4335174560546875,-0.209442138671875,-0.0590057373046875
1761505714495335200,5.739335205078125,-0.4217376708984375,-0.23760986328125,0.0070343017578125
1761505714505372200,5.7493720703125,-0.4326324462890625,-0.2532958984375,0.06329345703125
1761505714515408100,5.759408203125,-0.446044921875,-0.2423248291015625,0.08935546875
1761505714525444000,5.769444091796875,-0.451171875,-0.2122802734375,0.098541259765625
1761505714535480000,5.77947998046875,-0.4224700927734375,-0.1712799072265625,0.0819854736328125
1761505714545517000,5.78951708984375,-0.3756256103515625,-0.132720947265625,0.0501708984375
1761505714555553000,5.799552978515625,-0.3302764892578125,-0.108184814453125,0.0191650390625
1761505714565589000,5.809589111328125,-0.308074951171875,-0.10626220703125,-0.0034637451171875
1761505714575625000,5.819625,-0.302032470703125,-0.133544921875,-0.0094451904296875
1761505714585662200,5.829662109375,-0.3138580322265625,-0.1769561767578125,0.0041046142578125
1761505714595698200,5.8396982421875,-0.340118408203125,-0.2112884521484375,0.0145416259765625
1761505714605734100,5.849734130859375,-0.3679962158203125,-0.2227325439453125,0.0085296630859375
1761505714615770000,5.85977001953125,-0.3812103271484375,-0.2173004150390625,-0.010833740234375
1761505714625807000,5.86980712890625,-0.383331298828125,-0.2012939453125,-0.02630615234375
1761505714635843000,5.879843017578125,-0.3990325927734375,-0.1845855712890625,-0.026580810546875
1761505714645879000,5.889879150390625,-0.442352294921875,-0.1790008544921875,-0.0230255126953125
1761505714655915000,5.8999150390625,-0.5195770263671875,-0.1840667724609375,-0.016754150390625
1761505714665952000,5.909951904296875,-0.6425323486328125,-0.1906280517578125,0.0008392333984375
1761505714675988000,5.919988037109375,-0.759765625,-0.177093505859375,0.00177001953125
1761505714686024000,5.93002392578125,-0.863800048828125,-0.1529998779296875,-0.0090179443359375
1761505714696060000,5.940059814453125,-0.983367919921875,-0.1309356689453125,-0.031036376953125
1761505714706097200,5.95009716796875,-1.12469482421875,-0.103729248046875,-0.0415496826171875
1761505714716133000,5.960133056640625,-1.2908172607421875,-0.0953216552734375,-0.0338897705078125
1761505714726169000,5.970169189453125,-1.4646453857421875,-0.13299560546875,-0.024322509765625
1761505714736205000,5.980205078125,-1.65728759765625,-0.189849853515625,-0.0118560791015625
1761505714746241000,5.990240966796875,-1.8080596923828125,-0.230255126953125,0.010162353515625
1761505714756278000,6.000278076171875,-1.882568359375,-0.2137298583984375,-0.017578125
1761505714766314000,6.01031396484375,-1.9092559814453125,-0.1433563232421875,-0.107574462890625
1761505714776350000,6.020349853515625,-1.910125732421875,-0.082916259765625,-0.197540283203125
1761505714786386000,6.030385986328125,-1.91107177734375,-0.064483642578125,-0.2602081298828125
1761505714796423000,6.0404228515625,-1.9293212890625,-0.0664825439453125,-0.287078857421875
1761505714806459000,6.050458984375,-1.9230499267578125,-0.083709716796875,-0.2854156494140625
1761505714816494800,6.060494873046875,-1.93927001953125,-0.14788818359375,-0.2362518310546875
1761505714826531800,6.07053173828125,-1.945648193359375,-0.251251220703125,-0.16522216796875
1761505714836568800,6.08056884765625,-1.895751953125,-0.331634521484375,-0.1067352294921875
1761505714846604800,6.090604736328125,-1.77996826171875,-0.3410491943359375,-0.10540771484375
1761505714856640800,6.100640869140625,-1.6121673583984375,-0.2883758544921875,-0.146484375
1761505714866676700,6.1106767578125,-1.421966552734375,-0.21856689453125,-0.1824798583984375
1761505714876713700,6.120713623046875,-1.206878662109375,-0.15277099609375,-0.18524169921875
1761505714886749700,6.130749755859375,-0.9955596923828125,-0.118896484375,-0.16632080078125
1761505714896785700,6.14078564453125,-0.831085205078125,-0.12811279296875,-0.1381988525390625
1761505714906821600,6.150821533203125,-0.7206268310546875,-0.1597442626953125,-0.10986328125
1761505714916859000,6.16085888671875,-0.6532745361328125,-0.2021484375,-0.09088134765625
1761505714926894800,6.170894775390625,-0.6318817138671875,-0.246124267578125,-0.064788818359375
1761505714936930800,6.180930908203125,-0.645294189453125,-0.27301025390625,-0.0044097900390625
1761505714946966800,6.190966796875,-0.6700286865234375,-0.2706298828125,0.05718994140625
1761505714957003800,6.201003662109375,-0.669708251953125,-0.248687744140625,0.0833587646484375
1761505714967039700,6.211039794921875,-0.64495849609375,-0.2221527099609375,0.08349609375
1761505714977075700,6.22107568359375,-0.601531982421875,-0.196044921875,0.0596160888671875
1761505714987111700,6.231111572265625,-0.5439300537109375,-0.176483154296875,0.018280029296875
1761505714997148000,6.24114794921875,-0.506103515625,-0.1706085205078125,-0.01849365234375
1761505715007184600,6.2511845703125,-0.480621337890625,-0.1656036376953125,-0.02752685546875
1761505715017220600,6.261220703125,-0.42938232421875,-0.1571807861328125,-0.011688232421875
1761505715027256800,6.2712568359375,-0.3799896240234375,-0.148345947265625,-0.00189208984375
1761505715037292800,6.281292724609375,-0.3541412353515625,-0.1497955322265625,-0.0128936767578125
1761505715047329800,6.291329833984375,-0.348114013671875,-0.1603240966796875,-0.03082275390625
1761505715057366000,6.301365966796875,-0.3444671630859375,-0.1708831787109375,-0.03875732421875
1761505715067402000,6.311402099609375,-0.336181640625,-0.1810302734375,-0.02642822265625
1761505715077438000,6.32143798828125,-0.330810546875,-0.200103759765625,-0.0015106201171875
1761505715087475000,6.331474853515625,-0.336395263671875,-0.2266998291015625,0.0081329345703125
1761505715097511000,6.341510986328125,-0.3512420654296875,-0.246795654296875,-0.02020263671875
1761505715107547000,6.351546875,-0.35748291015625,-0.2426300048828125,-0.0444183349609375
1761505715117582800,6.361582763671875,-0.373748779296875,-0.2100677490234375,-0.071044921875
1761505715127618800,6.371618896484375,-0.4146728515625,-0.1803131103515625,-0.08843994140625
1761505715137655800,6.38165576171875,-0.492431640625,-0.1561279296875,-0.0616302490234375
1761505715147691800,6.39169189453125,-0.622314453125,-0.14044189453125,0.00360107421875
1761505715157727700,6.401727783203125,-0.743743896484375,-0.12530517578125,0.0292816162109375
1761505715167763700,6.411763671875,-0.849609375,-0.1271514892578125,0.0049591064453125
1761505715177801000,6.421801025390625,-0.9758453369140625,-0.1331634521484375,-0.0707550048828125
1761505715187837000,6.4318369140625,-1.1192626953125,-0.124542236328125,-0.15057373046875
1761505715197873000,6.441872802734375,-1.1938018798828125,-0.040191650390625,-0.127197265625
1761505715207908900,6.451908935546875,-1.2455902099609375,0.197662353515625,0.0189208984375
1761505715217945900,6.46194580078125,-1.578948974609375,0.0374755859375,0.28143310546875
1761505715227981800,6.47198193359375,-1.57366943359375,-0.323486328125,0.3441162109375
1761505715238017800,6.482017822265625,-1.3953704833984375,-0.4900054931640625,0.392669677734375
1761505715248053800,6.4920537109375,-1.477691650390625,-0.3088836669921875,0.179595947265625
1761505715258089700,6.50208984375,-1.6327362060546875,-0.0287322998046875,-0.151763916015625
1761505715268126700,6.512126708984375,-1.74371337890625,0.1134185791015625,-0.3050689697265625
1761505715278162700,6.52216259765625,-1.8936004638671875,0.119964599609375,-0.33416748046875
1761505715288198700,6.53219873046875,-2.02081298828125,0.064849853515625,-0.301361083984375
