time,seconds_elapsed,z,y,x
1761505708861214000,0.1052138671875,0.001415853388607502,-0.08066950738430023,0.02078874222934246
1761505708871250000,0.11525,-0.008110273629426956,-0.1047159880399704,0.04772874712944031
1761505708881287000,0.125286865234375,-0.012123353779315948,-0.11368022114038467,0.0740823894739151
1761505708891323000,0.135322998046875,0.005081199109554291,-0.12757766246795654,0.07773757725954056
1761505708901358800,0.14535888671875,0.04056820645928383,-0.08956190198659897,0.039367206394672394
1761505708911395800,0.155395751953125,0.06853033602237701,-0.010282795876264572,-0.01590031199157238
1761505708921431800,0.165431884765625,0.08613234013319016,0.01942114159464836,-0.06465931236743927
1761505708931467800,0.1754677734375,0.0969490334391594,0.006762870587408543,-0.08766236156225204
1761505708941505000,0.185505126953125,0.10089016705751419,-0.0545523464679718,-0.07918912172317505
1761505708951541000,0.195541015625,0.08136067539453506,-0.1559186428785324,-0.04909220337867737
1761505708961577000,0.205576904296875,0.05277885124087334,-0.22527441382408142,-0.002550986362621188
1761505708971614000,0.215614013671875,0.004715717397630215,-0.25011691451072693,0.060285232961177826
1761505708981650000,0.22564990234375,-0.05758652836084366,-0.2523975968360901,0.12636971473693848
1761505708991686000,0.235685791015625,-0.12600766122341156,-0.2674092948436737,0.18103668093681335
1761505709001723000,0.245722900390625,-0.19382479786872864,-0.27198439836502075,0.21799896657466888
1761505709011758800,0.2557587890625,-0.24125516414642334,-0.31361305713653564,0.20609650015830994
1761505709021794800,0.265794921875,-0.24067440629005432,-0.3388293981552124,0.1501167267560959
1761505709031832000,0.27583203125,-0.17087243497371674,-0.23977337777614594,0.11272594332695007
1761505709041868000,0.285867919921875,-0.05402572453022003,-0.0635194405913353,0.10142501443624496
1761505709051904000,0.295904052734375,0.06759285181760788,0.07122691720724106,0.11792196333408356
1761505709061941000,0.30594091796875,0.17258836328983307,0.144949808716774,0.17299897968769073
1761505709071977000,0.31597705078125,0.2488088309764862,0.17306426167488098,0.26847967505455017
1761505709082013000,0.326012939453125,0.30267515778541565,0.1321413666009903,0.3644322156906128
1761505709092050000,0.3360498046875,0.3458743095397949,0.05070296302437782,0.43868857622146606
1761505709102086000,0.3460859375,0.37454578280448914,-0.026064086705446243,0.48737648129463196
1761505709112121900,0.356121826171875,0.3845826983451843,-0.059537362307310104,0.52043616771698
1761505709122158800,0.366158935546875,0.3623025715351105,0.010583964176476002,0.5514793992042542
1761505709132195000,0.376195068359375,0.3170698583126068,0.1480688601732254,0.5643728375434875
1761505709142231000,0.38623095703125,0.26815879344940186,0.27384909987449646,0.5562622547149658
1761505709152268000,0.39626806640625,0.25282353162765503,0.3804573118686676,0.5348501801490784
1761505709162304000,0.406303955078125,0.2739424705505371,0.49125534296035767,0.49616849422454834
1761505709172340000,0.416340087890625,0.3057235777378082,0.5084103345870972,0.4560445249080658
1761505709182377000,0.426376953125,0.3146636188030243,0.38029077649116516,0.44791680574417114
1761505709192413000,0.436412841796875,0.2803482413291931,0.1441701203584671,0.4845464527606964
1761505709202449000,0.446448974609375,0.19777390360832214,-0.09509691596031189,0.5672528743743896
1761505709212484900,0.45648486328125,0.1033930853009224,-0.2193690687417984,0.6444701552391052
1761505709222521900,0.46652197265625,0.010113049298524857,-0.31145116686820984,0.6781870722770691
1761505709232557800,0.476557861328125,-0.06934475898742676,-0.33944231271743774,0.6388721466064453
1761505709242593800,0.48659375,-0.16236287355422974,-0.307325541973114,0.5639873147010803
1761505709252631000,0.496631103515625,-0.27002090215682983,-0.29310452938079834,0.4701652228832245
1761505709262667000,0.5066669921875,-0.36125242710113525,-0.26060524582862854,0.37495291233062744
1761505709272703000,0.516702880859375,-0.4116703271865845,-0.16343821585178375,0.29445087909698486
1761505709282740000,0.526739990234375,-0.39843621850013733,-0.0022358980495482683,0.23111684620380402
1761505709292776000,0.53677587890625,-0.3469301462173462,0.17532584071159363,0.21530060470104218
1761505709302812000,0.54681201171875,-0.31555840373039246,0.24812039732933044,0.21062040328979492
1761505709312849000,0.556848876953125,-0.33549243211746216,0.20232734084129333,0.1859225034713745
1761505709322884900,0.566884765625,-0.3787200450897217,0.15294945240020752,0.13969339430332184
1761505709332920800,0.5769208984375,-0.3994799256324768,0.09454421699047089,0.04260733351111412
1761505709342958000,0.5869580078125,-0.3824966251850128,-0.01587016135454178,-0.11583607643842697
1761505709352994000,0.596994140625,-0.3475301265716553,-0.09421849995851517,-0.3057945668697357
1761505709363030000,0.607030029296875,-0.36402904987335205,-0.0369429811835289,-0.4767248332500458
1761505709373067000,0.61706689453125,-0.4682910144329071,0.08212988078594208,-0.6358711123466492
1761505709383103000,0.62710302734375,-0.5281255841255188,0.1607629805803299,-0.8178427815437317
1761505709393139000,0.637138916015625,-0.4164121150970459,0.12710142135620117,-1.0212899446487427
1761505709403176000,0.647176025390625,-0.13834387063980103,-0.0015589173417538404,-1.2041410207748413
1761505709413212000,0.6572119140625,0.20899972319602966,-0.22946691513061523,-1.313624382019043
1761505709423248000,0.667247802734375,0.5151585340499878,-0.5257843732833862,-1.3345470428466797
1761505709433285000,0.67728515625,0.713602602481842,-0.808977484703064,-1.2638450860977173
1761505709443321000,0.687321044921875,0.7439531087875366,-0.9593572020530701,-1.1231558322906494
1761505709453357000,0.697357177734375,0.6235952377319336,-0.9828446507453918,-0.9771621823310852
1761505709463394000,0.70739404296875,0.42797112464904785,-0.9059069752693176,-0.8557997941970825
1761505709473430000,0.717429931640625,0.2516546845436096,-0.7433649301528931,-0.7661559581756592
1761505709483466000,0.727466064453125,0.16691651940345764,-0.5128639340400696,-0.7117832899093628
1761505709493503000,0.7375029296875,0.16641291975975037,-0.22876374423503876,-0.6918513774871826
1761505709503539000,0.7475390625,0.20185063779354095,0.065312460064888,-0.6761592030525208
1761505709513575000,0.757574951171875,0.23487676680088043,0.29915958642959595,-0.6538147330284119
1761505709523611000,0.76761083984375,0.2575298547744751,0.46880635619163513,-0.6131680011749268
1761505709533648000,0.77764794921875,0.24778403341770172,0.5640093088150024,-0.5222088098526001
1761505709543683800,0.787683837890625,0.19520992040634155,0.5572754144668579,-0.373445987701416
1761505709553720000,0.797719970703125,0.11476914584636688,0.49685972929000854,-0.17506152391433716
1761505709563757000,0.807757080078125,0.006561699789017439,0.41525983810424805,0.05047875642776489
1761505709573793000,0.81779296875,-0.10863759368658066,0.31861424446105957,0.2768900394439697
1761505709583829000,0.8278291015625,-0.22680290043354034,0.2220652997493744,0.4699455499649048
1761505709593866000,0.837865966796875,-0.3352705240249634,0.1430535614490509,0.5850170254707336
1761505709603902000,0.84790185546875,-0.4149905741214752,0.10595299303531647,0.6402194499969482
1761505709613938000,0.85793798828125,-0.44758525490760803,0.1474549025297165,0.6673154830932617
1761505709623975000,0.867974853515625,-0.4332069456577301,0.2365151196718216,0.7161427140235901
1761505709634011000,0.878010986328125,-0.3937796354293823,0.36839914321899414,0.8005691766738892
1761505709644046800,0.888046875,-0.3532949388027191,0.4949357807636261,0.9010595083236694
1761505709654083800,0.898083740234375,-0.33410099148750305,0.5383495688438416,0.9988316297531128
1761505709664120000,0.9081201171875,-0.3483944237232208,0.48894909024238586,1.091813325881958
1761505709674156000,0.918156005859375,-0.38966941833496094,0.378093957901001,1.172290563583374
1761505709684192800,0.92819287109375,-0.4608682096004486,0.3117511570453644,1.2003194093704224
1761505709694229000,0.93822900390625,-0.5343149304389954,0.2680470943450928,1.074295163154602
1761505709704265000,0.948264892578125,-0.6053364276885986,0.17658661305904388,0.7576192021369934
1761505709714302000,0.958302001953125,-0.6561450362205505,0.1140686497092247,0.30318617820739746
1761505709724338000,0.968337890625,-0.6457167863845825,0.1995377391576767,-0.18607905507087708
1761505709734374000,0.978373779296875,-0.5445113778114319,0.3584882616996765,-0.5808436870574951
1761505709744411000,0.988410888671875,-0.33310723304748535,0.4379192888736725,-0.7575288414955139
1761505709754447000,0.998447021484375,-0.05083559453487396,0.3170783519744873,-0.594275951385498
1761505709764483000,1.008483154296875,0.22925078868865967,0.12881243228912354,-0.09009724110364914
1761505709774519800,1.018519775390625,0.4307687282562256,-0.024872204288840294,0.6142944693565369
1761505709784556000,1.02855615234375,0.4276180863380432,-0.0862724706530571,1.3027276992797852
1761505709794592000,1.038592041015625,0.1890939176082611,-0.019473204389214516,1.781019926071167
1761505709804628000,1.0486279296875,-0.1785743087530136,0.1754322052001953,1.9186925888061523
1761505709814664200,1.058664306640625,-0.4862610101699829,0.46969205141067505,1.7027610540390015
1761505709824700200,1.0687001953125,-0.6159452199935913,0.707304835319519,1.2349917888641357
1761505709834736000,1.078736083984375,-0.5682072639465332,0.7530757784843445,0.6813320517539978
1761505709844773000,1.088773193359375,-0.42371514439582825,0.6098370552062988,0.1960979402065277
1761505709854809000,1.09880908203125,-0.26105859875679016,0.29516541957855225,-0.1639111042022705
1761505709864845000,1.108844970703125,-0.10390792787075043,-0.04168682172894478,-0.38563403487205505
1761505709874882300,1.11888232421875,-0.041503675282001495,-0.13447003066539764,-0.4819403290748596
1761505709884918300,1.128918212890625,-0.06952351331710815,-0.03760932758450508,-0.5189861059188843
1761505709894954200,1.138954345703125,-0.07800754904747009,0.04537050798535347,-0.5358644127845764
1761505709904991200,1.1489912109375,-0.022637393325567245,0.08434091508388519,-0.5350217819213867
1761505709915027200,1.159027099609375,0.05537751317024231,0.039521511644124985,-0.5749979615211487
1761505709925063200,1.169063232421875,0.10808414220809937,-0.13529254496097565,-0.6918543577194214
1761505709935100200,1.17910009765625,0.10532431304454803,-0.33742648363113403,-0.8546730875968933
1761505709945136000,1.18913623046875,0.05099891498684883,-0.5254784822463989,-1.0344690084457397
1761505709955172000,1.199172119140625,-0.005999123677611351,-0.7103269100189209,-1.2086544036865234
1761505709965209300,1.209209228515625,-0.01054089143872261,-0.855866551399231,-1.3496730327606201
1761505709975245300,1.219245361328125,0.08361570537090302,-0.9530612826347351,-1.4331942796707153
1761505709985281300,1.22928125,0.2803398668766022,-1.0272701978683472,-1.4458869695663452
1761505709995318300,1.239318359375,0.5311475992202759,-1.005547046661377,-1.3476674556732178
1761505710005354200,1.249354248046875,0.7502758502960205,-0.8613383769989014,-1.1612979173660278
1761505710015390200,1.25939013671875,0.8808189630508423,-0.6111016273498535,-0.9410195350646973
1761505710025427200,1.26942724609375,0.9179503917694092,-0.2869100570678711,-0.7177048325538635
1761505710035463200,1.279463134765625,0.8906335234642029,0.0008535727392882109,-0.46493253111839294
1761505710045499100,1.2894990234375,0.8449867367744446,0.22499555349349976,-0.1672496497631073
1761505710055536000,1.2995361328125,0.8042802810668945,0.4143710732460022,0.15013523399829865
1761505710065572000,1.309572021484375,0.7540695667266846,0.5037418007850647,0.4370449483394623
1761505710075608000,1.319608154296875,0.69178307056427,0.4600345492362976,0.6686139702796936
1761505710085645300,1.329645263671875,0.6290357112884521,0.31832700967788696,0.8243008852005005
1761505710095681300,1.339681396484375,0.5796868205070496,0.12455619871616364,0.9016247391700745
1761505710105717200,1.34971728515625,0.5423220992088318,-0.07741806656122208,0.9047279357910156
1761505710115753200,1.359753173828125,0.5096349716186523,-0.23679254949092865,0.8401428461074829
1761505710125790200,1.369790283203125,0.4673995077610016,-0.2998805046081543,0.7264257669448853
1761505710135826200,1.379826171875,0.3893284201622009,-0.24514535069465637,0.6020851731300354
1761505710145862100,1.389862060546875,0.26582518219947815,-0.10126656293869019,0.4822380840778351
1761505710155899100,1.399899169921875,0.1160692572593689,0.09374526888132095,0.4111008048057556
1761505710165935000,1.40993505859375,-0.043273910880088806,0.27718180418014526,0.3875690996646881
1761505710175971000,1.41997119140625,-0.20727775990962982,0.41848164796829224,0.3772887587547302
1761505710186008300,1.43000830078125,-0.39945340156555176,0.6125488877296448,0.33748316764831543
1761505710196044300,1.440044189453125,-0.6302126049995422,0.8593184947967529,0.2500084340572357
1761505710206080300,1.450080322265625,-0.8775277733802795,1.009406566619873,0.13056641817092896
1761505710216117200,1.4601171875,-1.0775822401046753,0.9874467849731445,-0.0023226540070027113
1761505710226153200,1.4701533203125,-1.1279548406600952,0.898847758769989,-0.15525522828102112
1761505710236189200,1.480189208984375,-0.9978053569793701,0.8139342069625854,-0.2791116535663605
1761505710246226200,1.49022607421875,-0.7207558155059814,0.6599392890930176,-0.33087146282196045
1761505710256262100,1.50026220703125,-0.34892234206199646,0.3352845311164856,-0.19899679720401764
1761505710266298000,1.510298095703125,0.04321834444999695,0.11285370588302612,0.22113308310508728
1761505710276335400,1.52033544921875,0.3796725273132324,0.19145718216896057,0.8689683079719543
1761505710286371300,1.530371337890625,0.5543028712272644,0.5277959108352661,1.549410104751587
1761505710296407300,1.5404072265625,0.5632678866386414,0.9242023825645447,2.007352828979492
1761505710306444300,1.5504443359375,0.4640970826148987,1.2149776220321655,2.096400260925293
1761505710316480300,1.560480224609375,0.3020717203617096,1.3003891706466675,1.8479679822921753
1761505710326516200,1.57051611328125,0.09547626972198486,1.1018731594085693,1.3836815357208252
1761505710336552200,1.58055224609375,-0.14110004901885986,0.7388252019882202,0.8493017554283142
1761505710346589200,1.590589111328125,-0.35219863057136536,0.3275972604751587,0.33685943484306335
1761505710356625200,1.600625244140625,-0.4477264881134033,0.003939309623092413,-0.05484496429562569
1761505710366661000,1.6106611328125,-0.439843088388443,-0.2349298745393753,-0.3109198212623596
1761505710376698000,1.620697998046875,-0.43528589606285095,-0.3258557617664337,-0.42102235555648804
1761505710386734300,1.630734375,-0.48610347509384155,-0.38014015555381775,-0.4268247187137604
1761505710396770300,1.640770263671875,-0.5012773871421814,-0.4335578382015228,-0.39002087712287903
1761505710406807300,1.650807373046875,-0.4005374312400818,-0.5933409929275513,-0.3922721743583679
1761505710416843300,1.66084326171875,-0.21877910196781158,-0.9258643388748169,-0.47964566946029663
1761505710426879200,1.670879150390625,-0.055880699306726456,-1.3026080131530762,-0.6455194354057312
1761505710436916200,1.680916259765625,0.024206146597862244,-1.6183819770812988,-0.8731398582458496
1761505710446952200,1.6909521484375,0.03310329094529152,-1.8390638828277588,-1.1052536964416504
1761505710456988200,1.70098828125,0.022174213081598282,-1.8899056911468506,-1.258755087852478
1761505710467025200,1.711025146484375,0.02190185897052288,-1.7411376237869263,-1.3056634664535522
1761505710477061000,1.72106103515625,0.06763392686843872,-1.4137417078018188,-1.2455220222473145
1761505710487097000,1.73109716796875,0.0874411016702652,-0.9197849035263062,-1.092899203300476
1761505710497134300,1.74113427734375,0.032955486327409744,-0.4114340543746948,-0.8966000080108643
1761505710507170300,1.75117041015625,-0.08364653587341309,0.01904085837304592,-0.7218796014785767
1761505710517206300,1.761206298828125,-0.22500820457935333,0.3394833207130432,-0.6037377715110779
1761505710527242200,1.7712421875,-0.33179906010627747,0.5380650758743286,-0.5098317265510559
1761505710537279200,1.781279296875,-0.36837679147720337,0.6248029470443726,-0.4105317294597626
1761505710547315200,1.791315185546875,-0.32896125316619873,0.6178444027900696,-0.28125402331352234
1761505710557351200,1.80135107421875,-0.21059121191501617,0.5305963158607483,-0.12541463971138
1761505710567388200,1.81138818359375,-0.05556590110063553,0.4091942310333252,0.039033230394124985
1761505710577424100,1.821424072265625,0.08094267547130585,0.30649635195732117,0.19303718209266663
1761505710587460000,1.831460205078125,0.159819096326828,0.22990581393241882,0.3251364529132843
1761505710597497300,1.841497314453125,0.20733493566513062,0.13679398596286774,0.4200555086135864
1761505710607533300,1.851533203125,0.22942648828029633,0.03406180813908577,0.47338372468948364
1761505710617569300,1.8615693359375,0.22927922010421753,-0.06485438346862793,0.49906912446022034
1761505710627606300,1.871606201171875,0.20829236507415771,-0.143151193857193,0.5190343856811523
1761505710637642200,1.881642333984375,0.1738840639591217,-0.21063517034053802,0.5244193077087402
1761505710647678200,1.89167822265625,0.12335197627544403,-0.309341162443161,0.4976038634777069
1761505710657715200,1.901715087890625,0.0618518590927124,-0.43615421652793884,0.44223567843437195
1761505710667751200,1.911751220703125,-0.006147371605038643,-0.4947130084037781,0.37086981534957886
1761505710677787100,1.921787109375,-0.0698230192065239,-0.37815576791763306,0.3259319067001343
1761505710687823000,1.931822998046875,-0.14962874352931976,-0.10964006185531616,0.2632625102996826
1761505710697860400,1.9418603515625,-0.2507026493549347,0.24159812927246094,0.1543293595314026
1761505710707896300,1.951896240234375,-0.38972026109695435,0.5798769593238831,0.03944173827767372
1761505710717932300,1.961932373046875,-0.576314389705658,0.7360873222351074,-0.05008335039019585
1761505710727969300,1.97196923828125,-0.7465776205062866,0.6995022296905518,-0.049038346856832504
1761505710738005200,1.982005126953125,-0.8445867300033569,0.535473644733429,0.025927238166332245
1761505710748041200,1.992041259765625,-0.8067572712898254,0.3112648129463196,0.09695608913898468
1761505710758078200,2.002078125,-0.6009886860847473,0.0011850042501464486,0.18337327241897583
1761505710768114200,2.0121142578125,-0.26098138093948364,-0.11918807774782181,0.340427041053772
1761505710778150100,2.022150146484375,0.03563803806900978,-0.15593011677265167,0.5647352933883667
1761505710788187100,2.032187255859375,0.17106051743030548,-0.21179193258285522,0.7875202894210815
1761505710798223000,2.04222314453125,0.15062181651592255,-0.19975364208221436,0.9382179379463196
1761505710808259300,2.05225927734375,0.06977134197950363,-0.09971901774406433,0.9357781410217285
1761505710818296600,2.062296630859375,-0.019391288980841637,0.025245018303394318,0.7753075361251831
1761505710828332500,2.07233251953125,-0.151737779378891,0.023648293688893318,0.48843449354171753
1761505710838368800,2.08236865234375,-0.30039942264556885,-0.03797592222690582,0.12901030480861664
1761505710848404700,2.09240478515625,-0.37211018800735474,-0.0702221542596817,-0.2393655627965927
1761505710858441500,2.10244140625,-0.32023391127586365,-0.10642649978399277,-0.5348874926567078
1761505710868477700,2.112477783203125,-0.17301657795906067,-0.1072579026222229,-0.6946275234222412
1761505710878513700,2.122513671875,-0.039317645132541656,-0.10845606029033661,-0.6764524579048157
1761505710888550400,2.13255029296875,-0.058430083096027374,0.03692137822508812,-0.49825048446655273
1761505710898586600,2.142586669921875,-0.24088111519813538,0.26367756724357605,-0.29787611961364746
1761505710908622800,2.152622802734375,-0.3948621153831482,0.34860092401504517,-0.22468574345111847
1761505710918659600,2.16265966796875,-0.38116389513015747,0.30342280864715576,-0.29714104533195496
1761505710928695600,2.172695556640625,-0.21369296312332153,0.14340679347515106,-0.4680391252040863
1761505710938731800,2.182731689453125,0.0271550714969635,-0.09236232191324234,-0.665574312210083
1761505710948768500,2.1927685546875,0.25262293219566345,-0.35932600498199463,-0.8522099852561951
1761505710958804500,2.202804443359375,0.3888705372810364,-0.6007335186004639,-1.0130525827407837
1761505710968840700,2.2128408203125,0.4201589524745941,-0.7379558086395264,-1.1300166845321655
1761505710978876700,2.222876708984375,0.3955555856227875,-0.7715047001838684,-1.1972929239273071
1761505710988913700,2.23291357421875,0.38612449169158936,-0.7456270456314087,-1.2267132997512817
1761505710998949600,2.24294970703125,0.42567455768585205,-0.6653287410736084,-1.1968187093734741
1761505711008985600,2.252985595703125,0.5005569458007812,-0.4466242790222168,-1.0628559589385986
1761505711019022600,2.263022705078125,0.5338770747184753,-0.10688294470310211,-0.8150117993354797
1761505711029058800,2.273058837890625,0.48331743478775024,0.24956531822681427,-0.44410520792007446
1761505711039094800,2.2830947265625,0.36047327518463135,0.584839940071106,0.003685337956994772
1761505711049131500,2.293131591796875,0.20162628591060638,0.8199988007545471,0.4354729950428009
1761505711059167700,2.303167724609375,0.07047386467456818,0.8765603303909302,0.7745937705039978
1761505711069203700,2.31320361328125,0.026553237810730934,0.7607088088989258,1.0001779794692993
1761505711079239700,2.32323974609375,0.06171788275241852,0.518000602722168,1.1078343391418457
1761505711089276700,2.333276611328125,0.16465984284877777,0.30082574486732483,1.0951510667800903
1761505711099312600,2.343312744140625,0.30837148427963257,0.08431847393512726,0.9836679697036743
1761505711109348600,2.3533486328125,0.43456417322158813,-0.19670474529266357,0.8133286237716675
1761505711119385600,2.363385498046875,0.5068972110748291,-0.4822147786617279,0.6028531193733215
1761505711129421800,2.373421875,0.5219201445579529,-0.7334870100021362,0.3787573575973511
1761505711139457800,2.383457763671875,0.48922449350357056,-0.938751757144928,0.15432877838611603
1761505711149494500,2.39349462890625,0.3754921853542328,-1.0455886125564575,0.009268968366086483
1761505711159530800,2.40353076171875,0.2572923004627228,-0.47265109419822693,-0.03780799359083176
1761505711169566700,2.413566650390625,0.15284541249275208,0.039107393473386765,0.0002143124584108591
1761505711179602700,2.423602783203125,-0.00432263407856226,0.3105982840061188,0.14313524961471558
1761505711189639700,2.4336396484375,-0.29872962832450867,0.5948478579521179,0.3002956509590149
1761505711199675600,2.443675537109375,-0.6174868941307068,0.7328296899795532,0.39597052335739136
1761505711209711600,2.453711669921875,-0.8557421565055847,0.8040347695350647,0.3533381223678589
1761505711219748600,2.46374853515625,-0.94148850440979,0.9515347480773926,0.19335617125034332
1761505711229784800,2.473784912109375,-0.881640613079071,1.0559406280517578,0.0014967829920351505
1761505711239820800,2.48382080078125,-0.7322508692741394,0.9130285978317261,-0.15285257995128632
1761505711249857800,2.49385791015625,-0.5181698203086853,0.398263543844223,-0.19006478786468506
1761505711259893800,2.503893798828125,-0.24571189284324646,-0.2479327917098999,-0.12271664291620255
1761505711269929700,2.5139296875,0.05301843583583832,-0.79861980676651,-0.0051199509762227535
1761505711279966700,2.523966796875,0.28607672452926636,-1.1466184854507446,0.16412366926670074
1761505711290002700,2.534002685546875,0.36537137627601624,-1.1130238771438599,0.4026349186897278
1761505711300038700,2.54403857421875,0.2971172034740448,-0.7242167592048645,0.6216431856155396
1761505711310074600,2.55407470703125,0.12306583672761917,-0.23013697564601898,0.7382745146751404
1761505711320111900,2.56411181640625,-0.04054040461778641,0.16169019043445587,0.7146943211555481
1761505711330147800,2.57414794921875,-0.12331518530845642,0.443776935338974,0.5631579160690308
1761505711340183800,2.584183837890625,-0.12406007945537567,0.5610414743423462,0.2994874119758606
1761505711350220800,2.594220703125,-0.04412558674812317,0.5237171649932861,-0.0023360135965049267
1761505711360256800,2.6042568359375,0.1234961673617363,0.35930395126342773,-0.2723909318447113
1761505711370292700,2.614292724609375,0.32901373505592346,0.13225339353084564,-0.4546143412590027
1761505711380328700,2.62432861328125,0.450609415769577,0.000023720785975456238,-0.5074219107627869
1761505711390365700,2.63436572265625,0.35332387685775757,0.05209224671125412,-0.4680159091949463
1761505711400401700,2.644401611328125,0.06597864627838135,0.2528461217880249,-0.3924340605735779
1761505711410437600,2.654437744140625,-0.25055813789367676,0.5876168608665466,-0.3683767318725586
1761505711420474600,2.664474609375,-0.44592416286468506,0.8789909482002258,-0.44751498103141785
1761505711430510600,2.674510498046875,-0.4766675531864166,0.971147358417511,-0.6334078311920166
1761505711440546800,2.684546875,-0.3739108145236969,0.857512354850769,-0.8616359233856201
1761505711450583800,2.694583740234375,-0.1818646937608719,0.5357629656791687,-1.0921821594238281
1761505711460619800,2.704619873046875,0.046024389564991,0.03719554468989372,-1.2770053148269653
1761505711470655700,2.71465576171875,0.265560507774353,-0.5365865230560303,-1.360407829284668
1761505711480691700,2.724691650390625,0.452240914106369,-1.017793893814087,-1.3120537996292114
1761505711490728700,2.734728759765625,0.5423216223716736,-1.2400553226470947,-1.1425364017486572
1761505711500764700,2.7447646484375,0.47380730509757996,-1.1457771062850952,-0.8818914294242859
1761505711510800600,2.754800537109375,0.2558780014514923,-0.8499977588653564,-0.6047782301902771
1761505711520837600,2.764837646484375,-0.009867939166724682,-0.49725621938705444,-0.3726235032081604
1761505711530873600,2.77487353515625,-0.20305003225803375,-0.16369125247001648,-0.21659521758556366
1761505711540909600,2.78490966796875,-0.26025259494781494,0.12214716523885727,-0.12798972427845
1761505711550945500,2.794945556640625,-0.20200632512569427,0.3345749080181122,-0.07812997698783875
1761505711560982800,2.804982666015625,-0.10244672000408173,0.4688544273376465,-0.04783518984913826
1761505711571018800,2.815018798828125,-0.0021825958974659443,0.506559431552887,-0.0058787004090845585
1761505711581054700,2.8250546875,0.08194293081760406,0.4714312255382538,0.06580933183431625
1761505711591091700,2.835091796875,0.13525299727916718,0.40405285358428955,0.1699123978614807
1761505711601127700,2.845127685546875,0.11870650947093964,0.33829569816589355,0.28639933466911316
1761505711611163600,2.85516357421875,0.046432286500930786,0.2548876404762268,0.38559138774871826
1761505711621200600,2.86520068359375,-0.057447776198387146,0.17841683328151703,0.4410754144191742
1761505711631236600,2.875236572265625,-0.14752192795276642,0.12249352782964706,0.4356640875339508
1761505711641272600,2.8852724609375,-0.19711585342884064,0.09775569289922714,0.36885735392570496
1761505711651308500,2.89530859375,-0.17033922672271729,0.05967766419053078,0.2581486701965332
1761505711661345800,2.905345703125,-0.09798593074083328,-0.01366499625146389,0.11475633829832077
1761505711671381800,2.9153818359375,-0.005472120828926563,-0.09496463090181351,-0.038410235196352005
1761505711681417700,2.925417724609375,0.05314565449953079,-0.09426501393318176,-0.14513374865055084
1761505711691454700,2.935454833984375,0.03637412190437317,-0.04013635218143463,-0.18719932436943054
1761505711701490700,2.94549072265625,-0.07232225686311722,-0.029643764719367027,-0.1835433393716812
1761505711711526700,2.955526611328125,-0.232761412858963,-0.10690916329622269,-0.17409874498844147
1761505711721562600,2.965562744140625,-0.34731194376945496,-0.3263437747955322,-0.15929929912090302
1761505711731599600,2.975599609375,-0.3821474611759186,-0.5061607360839844,-0.11176561564207077
1761505711741635600,2.985635498046875,-0.3291899561882019,-0.36738499999046326,0.02511952631175518
1761505711751671600,2.995671630859375,-0.2348044067621231,0.019224748015403748,0.25988516211509705
1761505711761708800,3.005708740234375,-0.17969349026679993,0.49761876463890076,0.5475805997848511
1761505711771744800,3.015744873046875,-0.17153580486774445,0.898881196975708,0.8246302008628845
1761505711781780700,3.02578076171875,-0.15243028104305267,1.0657447576522827,0.9903376698493958
1761505711791816700,3.035816650390625,-0.10014607757329941,0.9556276202201843,0.9879162311553955
1761505711801853700,3.045853759765625,-0.031945984810590744,0.7072755694389343,0.8426299095153809
1761505711811889700,3.0558896484375,-0.02947080507874489,0.4192934036254883,0.6457703113555908
1761505711821924600,3.065924560546875,-0.11721477657556534,0.0979132428765297,0.4388461410999298
1761505711831961600,3.075961669921875,-0.24424147605895996,-0.22643351554870605,0.17718449234962463
1761505711841997600,3.08599755859375,-0.3048582375049591,-0.45215904712677,-0.1946609765291214
1761505711852033500,3.096033447265625,-0.23775318264961243,-0.6210293173789978,-0.6299007534980774
1761505711862069500,3.106069580078125,-0.08480117470026016,-0.7321515679359436,-0.9979237914085388
1761505711872106800,3.116106689453125,0.08389778435230255,-0.8236801624298096,-1.1549162864685059
1761505711882142700,3.126142822265625,0.21084216237068176,-0.8573505282402039,-1.040727138519287
1761505711892178700,3.1361787109375,0.2751205265522003,-0.7036267518997192,-0.7316910624504089
1761505711902215700,3.146215576171875,0.2750883102416992,-0.34233996272087097,-0.3783199191093445
1761505711912251600,3.156251708984375,0.22954624891281128,0.11099226772785187,-0.12482821941375732
1761505711922287600,3.16628759765625,0.18794101476669312,0.5222961902618408,-0.026185527443885803
1761505711932323600,3.176323486328125,0.15045708417892456,0.788438081741333,-0.05514463037252426
1761505711942360600,3.186360595703125,0.10789258778095245,0.8508194088935852,-0.179448202252388
1761505711952396500,3.196396484375,0.05786619335412979,0.7112961411476135,-0.338919073343277
1761505711962432500,3.2064326171875,0.019364073872566223,0.4567808210849762,-0.4913613498210907
1761505711972469500,3.216469482421875,0.004492342937737703,0.1466294825077057,-0.5812825560569763
1761505711982505500,3.22650537109375,0.0019759221468120813,-0.13543201982975006,-0.6146106719970703
1761505711992541700,3.236541748046875,-0.006781119387596846,-0.33753731846809387,-0.5840147733688354
1761505712002577700,3.24657763671875,-0.02697347104549408,-0.4361264705657959,-0.5076332092285156
1761505712012614700,3.25661474609375,-0.04399506375193596,-0.42178580164909363,-0.3912678360939026
1761505712022650600,3.266650634765625,-0.041572652757167816,-0.31404444575309753,-0.24831119179725647
1761505712032686600,3.2766865234375,-0.017962133511900902,-0.1583951860666275,-0.10365840792655945
1761505712042723600,3.2867236328125,0.02182895503938198,-0.008642439730465412,0.02999073825776577
1761505712052759600,3.296759521484375,0.07919983565807343,0.1386660486459732,0.17686860263347626
1761505712062795500,3.30679541015625,0.15185460448265076,0.2533052861690521,0.3238809406757355
1761505712072831700,3.316831787109375,0.21179738640785217,0.2831658720970154,0.4470454752445221
1761505712082868500,3.326868408203125,0.24342934787273407,0.21803371608257294,0.5329830050468445
1761505712092904400,3.336904541015625,0.23710986971855164,0.11668401211500168,0.6131559610366821
1761505712102940700,3.346940673828125,0.18431617319583893,0.035023510456085205,0.7112151384353638
1761505712112977000,3.356976806640625,0.07822195440530777,-0.03054777719080448,0.8040342926979065
1761505712123013600,3.367013671875,-0.039755016565322876,-0.09218504279851913,0.8692668080329895
1761505712133049600,3.377049560546875,-0.1340402364730835,-0.12950001657009125,0.8807787299156189
1761505712143085800,3.3870859375,-0.19572970271110535,-0.12694737315177917,0.8309631943702698
1761505712153122600,3.39712255859375,-0.21134357154369354,-0.07303838431835175,0.7260900735855103
1761505712163158500,3.407158447265625,-0.19608205556869507,0.01177503913640976,0.5901764631271362
1761505712173194800,3.41719482421875,-0.1794283390045166,0.09797804057598114,0.46669283509254456
1761505712183230700,3.427230712890625,-0.19200937449932098,0.1417449712753296,0.3827641010284424
1761505712193267500,3.437267333984375,-0.2808387279510498,0.08826728910207748,0.3255007266998291
1761505712203303700,3.4473037109375,-0.4093807339668274,-0.0995127335190773,0.2600357234477997
1761505712213339600,3.457339599609375,-0.5254640579223633,-0.2831170856952667,0.1627286970615387
1761505712223376600,3.467376708984375,-0.5658913850784302,-0.33840563893318176,0.040957260876894
1761505712233412900,3.477412841796875,-0.5357088446617126,-0.36008477210998535,-0.05761585012078285
1761505712243448800,3.48744873046875,-0.49404898285865784,-0.3795487582683563,-0.09632836282253265
1761505712253484800,3.49748486328125,-0.4723318815231323,-0.4147627353668213,-0.11081849038600922
1761505712263521800,3.507521728515625,-0.4198090136051178,-0.3758861720561981,-0.12787923216819763
1761505712273557800,3.517557861328125,-0.3185184597969055,-0.08224799484014511,-0.11974357813596725
1761505712283593700,3.52759375,-0.19722825288772583,0.3234283924102783,-0.015512246638536453
1761505712293630700,3.537630615234375,-0.10090488940477371,0.66458660364151,0.19668516516685486
1761505712303666700,3.547666748046875,-0.04461845010519028,0.8717944025993347,0.4448124170303345
1761505712313702700,3.55770263671875,0.0036361885722726583,0.8227105736732483,0.6315551400184631
1761505712323738600,3.567738525390625,0.04713359847664833,0.5708099007606506,0.6953601837158203
1761505712333776000,3.57777587890625,0.06166741997003555,0.19271689653396606,0.5632954835891724
1761505712343811800,3.587811767578125,0.08598235249519348,-0.19655443727970123,0.243508979678154
1761505712353847800,3.597847900390625,0.16381767392158508,-0.5036253333091736,-0.17493300139904022
1761505712363883800,3.6078837890625,0.2805245816707611,-0.7620930671691895,-0.5788761973381042
1761505712373920800,3.617920654296875,0.39480307698249817,-0.9879894256591797,-0.8651530146598816
1761505712383956700,3.627956787109375,0.4268299639225006,-1.1148450374603271,-0.9521225094795227
1761505712393992700,3.63799267578125,0.34844425320625305,-1.0557410717010498,-0.8509160876274109
1761505712404029700,3.64802978515625,0.18394027650356293,-0.8602335453033447,-0.6417016386985779
1761505712414065700,3.658065673828125,0.04573351889848709,-0.5377039313316345,-0.43531325459480286
1761505712424101600,3.6681015625,-0.0016829967498779297,-0.18818214535713196,-0.30623942613601685
1761505712434137600,3.6781376953125,0.013281632214784622,0.0720234364271164,-0.2999938130378723
1761505712444174800,3.6881748046875,0.04767955094575882,0.23069563508033752,-0.3810015916824341
1761505712454210800,3.6982109375,0.07827160507440567,0.2891484797000885,-0.49498796463012695
1761505712464246800,3.708246826171875,0.09771881252527237,0.26631852984428406,-0.5876473188400269
1761505712474282800,3.71828271484375,0.1050247848033905,0.18386797606945038,-0.6373327970504761
1761505712484319700,3.72831982421875,0.0906173437833786,0.09430932998657227,-0.6329676508903503
1761505712494355700,3.738355712890625,0.061980072408914566,0.02843652293086052,-0.5712408423423767
1761505712504391700,3.7483916015625,-0.005858096294105053,0.019826523959636688,-0.4565954804420471
1761505712514427600,3.758427734375,-0.08158321678638458,0.0513358898460865,-0.31018656492233276
1761505712524464600,3.768464599609375,-0.12866416573524475,0.12441409379243851,-0.14294590055942535
1761505712534500600,3.77850048828125,-0.13567739725112915,0.24893160164356232,-0.006301084998995066
1761505712544536600,3.78853662109375,-0.10619620978832245,0.38584044575691223,0.10769818723201752
1761505712554573800,3.79857373046875,-0.057398632168769836,0.48280471563339233,0.20641708374023438
1761505712564609800,3.80860986328125,0.012979657389223576,0.5270006656646729,0.28958359360694885
1761505712574645800,3.818645751953125,0.07696647942066193,0.5352219343185425,0.365581214427948
1761505712584681700,3.828681640625,0.13699573278427124,0.48813992738723755,0.439147025346756
1761505712594718700,3.83871875,0.18071584403514862,0.38942480087280273,0.5037795901298523
1761505712604754700,3.848754638671875,0.1978761851787567,0.25127333402633667,0.5570028424263
1761505712614790700,3.858790771484375,0.18610885739326477,0.08181650936603546,0.5823627710342407
1761505712624826600,3.86882666015625,0.1511085331439972,-0.0644964948296547,0.5861106514930725
1761505712634863600,3.878863525390625,0.13003109395503998,-0.13865232467651367,0.5874523520469666
1761505712644899600,3.888899658203125,0.12110603600740433,-0.1609480381011963,0.5874416828155518
1761505712654935600,3.898935546875,0.11402341723442078,-0.1514076143503189,0.5832862854003906
1761505712664972800,3.908972900390625,0.09226007014513016,-0.10200837254524231,0.5697190761566162
1761505712675008800,3.9190087890625,0.03818316385149956,-0.00549990963190794,0.5334658622741699
1761505712685044700,3.929044677734375,-0.04465499520301819,0.13290882110595703,0.4839550256729126
1761505712695080700,3.939080810546875,-0.14357890188694,0.2979821264743805,0.4104563295841217
1761505712705117700,3.94911767578125,-0.2616956830024719,0.45876967906951904,0.268023818731308
1761505712715153700,3.959153564453125,-0.3572315573692322,0.5632331967353821,0.09117695689201355
1761505712725189600,3.969189697265625,-0.4018341898918152,0.5702543258666992,-0.06852003186941147
1761505712735225600,3.9792255859375,-0.38602712750434875,0.3866685926914215,-0.1599675565958023
1761505712745262600,3.9892626953125,-0.33629417419433594,0.07082808017730713,-0.10299696028232574
1761505712755298600,3.999298583984375,-0.2287326455116272,-0.1361401528120041,0.1546465903520584
1761505712765333800,4.009333740234375,-0.045450180768966675,-0.15987451374530792,0.5390952229499817
1761505712775369700,4.01936962890625,0.19654090702533722,0.06784160435199738,0.8911277055740356
1761505712785406500,4.029406494140625,0.4282122254371643,0.3127554953098297,1.1009876728057861
1761505712795442700,4.039442626953125,0.5772008299827576,0.42115771770477295,1.1481415033340454
1761505712805478700,4.049478759765625,0.6112552285194397,0.3291678726673126,1.0410875082015991
1761505712815514600,4.0595146484375,0.5658202171325684,0.05209420621395111,0.7723705768585205
1761505712825552000,4.0695517578125,0.4802401065826416,-0.30203938484191895,0.3692289888858795
1761505712835588000,4.079588134765625,0.4247799515724182,-0.7031091451644897,-0.10403433442115784
1761505712845624000,4.0896240234375,0.40783849358558655,-1.1300935745239258,-0.5644397139549255
1761505712855660800,4.099660888671875,0.3955124318599701,-1.4390504360198975,-0.9219955205917358
1761505712865697000,4.109697021484375,0.2920704483985901,-1.536897897720337,-1.068915605545044
1761505712875733000,4.11973291015625,0.11396081000566483,-1.2911598682403564,-1.000562310218811
1761505712885769000,4.12976904296875,-0.029323648661375046,-0.7475551962852478,-0.8208745718002319
1761505712895806000,4.139805908203125,-0.102988101541996,-0.1467036008834839,-0.6500182747840881
1761505712905842200,4.14984228515625,-0.11393369734287262,0.3711262047290802,-0.5497118830680847
1761505712915878100,4.159878173828125,-0.08774691820144653,0.6934393644332886,-0.5329937934875488
1761505712925914000,4.1699140625,-0.04217037931084633,0.8043466806411743,-0.57961505651474
1761505712935951000,4.179951171875,0.031759534031152725,0.7744830846786499,-0.6512773036956787
1761505712945987000,4.189987060546875,0.12925653159618378,0.6356815099716187,-0.7284786105155945
1761505712956023000,4.20002294921875,0.23913398385047913,0.41592541337013245,-0.7737736701965332
1761505712966059000,4.21005908203125,0.3290761411190033,0.1351962834596634,-0.7809823155403137
1761505712976096000,4.220095947265625,0.37606748938560486,-0.1569211632013321,-0.7227863073348999
1761505712986132000,4.230132080078125,0.3800566494464874,-0.3706528842449188,-0.6208053231239319
1761505712996168000,4.24016796875,0.3366791009902954,-0.45473790168762207,-0.5027051568031311
1761505713006204000,4.250203857421875,0.26289117336273193,-0.4131491780281067,-0.37459802627563477
1761505713016241200,4.2602412109375,0.18159693479537964,-0.2586464583873749,-0.25043001770973206
1761505713026277000,4.270277099609375,0.09201538562774658,-0.03488871827721596,-0.14712384343147278
1761505713036313000,4.28031298828125,0.01627129688858986,0.17617273330688477,-0.059792499989271164
1761505713046349000,4.29034912109375,-0.020465146750211716,0.31580013036727905,0.03097229078412056
1761505713056386000,4.300385986328125,-0.015467341057956219,0.3973921239376068,0.1271102875471115
1761505713066422000,4.310422119140625,0.004733002744615078,0.4339701235294342,0.21932384371757507
1761505713076458000,4.3204580078125,0.03342273458838463,0.4077787697315216,0.29825666546821594
1761505713086495000,4.330494873046875,0.05039346218109131,0.3347439765930176,0.34760981798171997
1761505713096531000,4.340531005859375,0.060031767934560776,0.2319284826517105,0.38052353262901306
1761505713106567000,4.35056689453125,0.05646659433841705,0.14719894528388977,0.40919700264930725
1761505713116603000,4.360602783203125,0.04520494490861893,0.09709940105676651,0.4460282027721405
1761505713126640000,4.37064013671875,0.03768843784928322,0.07870122045278549,0.49496936798095703
1761505713136676000,4.380676025390625,0.03487430512905121,0.07894983142614365,0.5342852473258972
1761505713146712000,4.390712158203125,0.013734666630625725,0.06768758594989777,0.5489648580551147
1761505713156748000,4.400748046875,-0.017171703279018402,0.062038734555244446,0.5650669932365417
1761505713166785000,4.410784912109375,-0.057922326028347015,0.15425920486450195,0.6072695851325989
1761505713176821000,4.420821044921875,-0.1282007247209549,0.2880379855632782,0.6708275675773621
1761505713186857000,4.43085693359375,-0.22719734907150269,0.3811703324317932,0.7131635546684265
1761505713196893000,4.440892822265625,-0.3437063694000244,0.369764506816864,0.6983668208122253
1761505713206930000,4.450929931640625,-0.4254195988178253,0.16601458191871643,0.6020668745040894
1761505713216966000,4.4609658203125,-0.409549355506897,-0.1660279482603073,0.4558371305465698
1761505713227001900,4.471001953125,-0.26046720147132874,-0.5357420444488525,0.2606753706932068
1761505713237037800,4.481037841796875,-0.0053812675178050995,-0.8290289044380188,0.05779511481523514
1761505713247075000,4.491074951171875,0.28626924753189087,-0.9217519164085388,-0.08339156955480576
1761505713257111000,4.501111083984375,0.5321164727210999,-0.807196319103241,-0.1135382130742073
1761505713267147000,4.51114697265625,0.6534056067466736,-0.5703384876251221,0.002300238935276866
1761505713277183000,4.521182861328125,0.6276346445083618,-0.3002970218658447,0.249232217669487
1761505713287220000,4.531219970703125,0.4895082116127014,-0.05332000181078911,0.5204904079437256
1761505713297256000,4.541255859375,0.3001686632633209,0.17620991170406342,0.706758975982666
1761505713307292000,4.5512919921875,0.10864664614200592,0.3318098783493042,0.7489548921585083
1761505713317328000,4.561327880859375,-0.051188260316848755,0.34928178787231445,0.6261150240898132
1761505713327364900,4.57136474609375,-0.17421084642410278,0.19860172271728516,0.3439054489135742
1761505713337402000,4.581402099609375,-0.23554670810699463,-0.015553711913526058,-0.020604580640792847
1761505713347438000,4.59143798828125,-0.22895033657550812,-0.18047873675823212,-0.3757118284702301
1761505713357475000,4.60147509765625,-0.17739534378051758,-0.2882344722747803,-0.6889811754226685
1761505713367511000,4.611510986328125,-0.11200354993343353,-0.3526635468006134,-0.9322758316993713
1761505713377547000,4.621547119140625,-0.07445839792490005,-0.3862910568714142,-1.0660849809646606
1761505713387583000,4.6315830078125,-0.08730895072221756,-0.3944152891635895,-1.0782359838485718
1761505713397620000,4.641619873046875,-0.09981492161750793,-0.3115001320838928,-0.9938645362854004
1761505713407656000,4.651656005859375,-0.06834887713193893,-0.21445909142494202,-0.89885413646698
1761505713417692000,4.66169189453125,0.013761498034000397,-0.18337900936603546,-0.8415971398353577
1761505713427728000,4.671727783203125,0.11298421770334244,-0.19481301307678223,-0.8308534026145935
1761505713437765000,4.68176513671875,0.19783014059066772,-0.23587115108966827,-0.849716305732727
1761505713447801000,4.691801025390625,0.2527351975440979,-0.29761412739753723,-0.8801378607749939
1761505713457837000,4.701837158203125,0.2809803783893585,-0.3330029547214508,-0.903110146522522
1761505713467873000,4.711873046875,0.2770492732524872,-0.3169845640659332,-0.912219226360321
1761505713477910000,4.721909912109375,0.2397613823413849,-0.23457147181034088,-0.9110901951789856
1761505713487946000,4.731946044921875,0.18463021516799927,-0.10499191284179688,-0.9006314277648926
1761505713497982000,4.74198193359375,0.114813432097435,0.02800583466887474,-0.8750985860824585
1761505713508018000,4.752017822265625,0.026773324236273766,0.15065132081508636,-0.8101661801338196
1761505713518055000,4.762054931640625,-0.05560413375496864,0.2753864824771881,-0.6697059273719788
1761505713528091000,4.7720908203125,-0.10716772824525833,0.39709800481796265,-0.4579550623893738
1761505713538126800,4.782126953125,-0.09614100307226181,0.5052985548973083,-0.18907430768013
1761505713548162800,4.792162841796875,-0.03133910149335861,0.5994024276733398,0.11694207042455673
1761505713558200000,4.802199951171875,0.06035865843296051,0.6699934005737305,0.4245857298374176
1761505713568236000,4.812236083984375,0.12169498205184937,0.6965523362159729,0.6923044919967651
1761505713578272000,4.82227197265625,0.11886312812566757,0.66000896692276,0.8827147483825684
1761505713588308000,4.832307861328125,0.04782996326684952,0.5635636448860168,0.976434588432312
1761505713598345000,4.842344970703125,-0.02727440744638443,0.41791293025016785,0.9814434051513672
1761505713608381000,4.852380859375,-0.06120201200246811,0.2507559061050415,0.9483733773231506
1761505713618417200,4.862417236328125,-0.04942204803228378,0.13442309200763702,0.8776540160179138
1761505713628454000,4.872453857421875,-0.017682496458292007,0.16391867399215698,0.7780552506446838
1761505713638489900,4.88248974609375,-0.02248905971646309,0.349135160446167,0.6821821928024292
1761505713648526000,4.892526123046875,-0.07136525213718414,0.6661613583564758,0.6060410737991333
1761505713658562000,4.90256201171875,-0.1383989453315735,0.9541066884994507,0.5999553799629211
1761505713668598800,4.912598876953125,-0.20024368166923523,1.0538606643676758,0.6816095113754272
1761505713678635000,4.922635009765625,-0.21773995459079742,0.9135559797286987,0.8183155059814453
1761505713688671200,4.932671142578125,-0.2296978235244751,0.6398179531097412,0.9851028919219971
1761505713698707200,4.942707275390625,-0.32073041796684265,0.4312629997730255,1.12639582157135
1761505713708744000,4.952743896484375,-0.47916266322135925,0.33919671177864075,1.1772135496139526
1761505713718780200,4.9627802734375,-0.6117539405822754,0.24942263960838318,1.083959698677063
1761505713728816000,4.972816162109375,-0.6193844079971313,0.11452075093984604,0.8651083111763
1761505713738852000,4.98285205078125,-0.42358899116516113,-0.12341926991939545,0.5903811454772949
1761505713748889000,4.99288916015625,-0.06762129813432693,-0.42406460642814636,0.3543526232242584
1761505713758925000,5.002925048828125,0.3269484043121338,-0.7689924240112305,0.22091259062290192
1761505713768961000,5.0129609375,0.6295793652534485,-1.0229251384735107,0.23320360481739044
1761505713778997000,5.0229970703125,0.7765790224075317,-1.1320818662643433,0.32664135098457336
1761505713789034000,5.033033935546875,0.7729951739311218,-1.0542399883270264,0.39791765809059143
1761505713799070200,5.0430703125,0.6615763306617737,-0.7618007659912109,0.37169572710990906
1761505713809106200,5.053106201171875,0.49430984258651733,-0.4088250994682312,0.1834307610988617
1761505713819142100,5.06314208984375,0.30030274391174316,-0.09832637012004852,-0.1364492028951645
1761505713829179100,5.07317919921875,0.13655084371566772,0.07453035563230515,-0.5231394171714783
1761505713839215000,5.083215087890625,0.018214041367173195,0.08365845680236816,-0.886722981929779
1761505713849251000,5.0932509765625,-0.06878983229398727,-0.03552066162228584,-1.1701083183288574
1761505713859287000,5.103287109375,-0.1474008411169052,-0.25669002532958984,-1.3123887777328491
1761505713869324000,5.113323974609375,-0.19550657272338867,-0.5044204592704773,-1.3192673921585083
1761505713879360000,5.123360107421875,-0.20520344376564026,-0.6577492952346802,-1.238480806350708
1761505713889396000,5.13339599609375,-0.21471253037452698,-0.640205442905426,-1.1466889381408691
1761505713899432000,5.143431884765625,-0.22948260605335236,-0.5571792125701904,-1.1165385246276855
1761505713909469000,5.153468994140625,-0.23790405690670013,-0.4365702271461487,-1.1475566625595093
1761505713919505200,5.163505126953125,-0.25949564576148987,-0.29296281933784485,-1.222050428390503
1761505713929541000,5.173541015625,-0.257392019033432,-0.14991110563278198,-1.269775390625
1761505713939577000,5.1835771484375,-0.19422730803489685,0.03335358574986458,-1.2482744455337524
1761505713949614000,5.193614013671875,-0.09148602932691574,0.2310517430305481,-1.1625635623931885
1761505713959650000,5.203650146484375,-0.00759601267054677,0.37420403957366943,-1.0280218124389648
1761505713969686000,5.21368603515625,0.03033432550728321,0.4552363157272339,-0.8768221735954285
1761505713979723000,5.223722900390625,0.044680118560791016,0.4690100848674774,-0.6979464292526245
1761505713989759000,5.233759033203125,0.06765548139810562,0.43734270334243774,-0.5034469962120056
1761505713999795000,5.243794921875,0.11455555260181427,0.3960602283477783,-0.2803680896759033
1761505714009831000,5.253830810546875,0.17967435717582703,0.3477795124053955,-0.04662112891674042
1761505714019868000,5.263867919921875,0.22623957693576813,0.29335498809814453,0.18793298304080963
1761505714029904100,5.273904052734375,0.2384626865386963,0.2654911279678345,0.40010541677474976
1761505714039940000,5.283940185546875,0.22025707364082336,0.267379492521286,0.5832799077033997
1761505714049976000,5.29397607421875,0.18784107267856598,0.2784787714481354,0.7261363863945007
1761505714060013000,5.304012939453125,0.150209441781044,0.24459253251552582,0.8050434589385986
1761505714070049000,5.314049072265625,0.1192302256822586,0.19179083406925201,0.835934042930603
1761505714080085000,5.3240849609375,0.09058890491724014,0.1821117252111435,0.8297138214111328
1761505714090121000,5.334120849609375,0.07005380094051361,0.22015178203582764,0.8240276575088501
1761505714100158000,5.344157958984375,0.07077635079622269,0.2954121530056,0.8256301283836365
1761505714110194000,5.35419384765625,0.08266283571720123,0.38081198930740356,0.8437947034835815
1761505714120230000,5.36422998046875,0.09284552931785583,0.44019263982772827,0.881406843662262
1761505714130265900,5.374265869140625,0.0893554538488388,0.46710094809532166,0.9621424674987793
1761505714140302800,5.384302734375,0.043368395417928696,0.49879369139671326,1.063576340675354
1761505714150339000,5.394339111328125,-0.04048602655529976,0.5572913289070129,1.1152054071426392
1761505714160375000,5.404375,-0.14157265424728394,0.6261512041091919,1.0715855360031128
1761505714170411000,5.414410888671875,-0.23343653976917267,0.6698728203773499,0.9356905817985535
1761505714180448000,5.424447998046875,-0.29741019010543823,0.6711491346359253,0.7678652405738831
1761505714190484000,5.43448388671875,-0.326282799243927,0.6021612882614136,0.6198701858520508
1761505714200520000,5.44452001953125,-0.33459216356277466,0.4556994140148163,0.535579264163971
1761505714210556000,5.454555908203125,-0.3510182499885559,0.2740180194377899,0.5072022080421448
1761505714220593000,5.464593017578125,-0.3537946343421936,0.08698417991399765,0.5306679606437683
1761505714230628900,5.47462890625,-0.32214322686195374,-0.01614752784371376,0.5533967018127441
1761505714240664800,5.484664794921875,-0.24507315456867218,-0.024860672652721405,0.5520756840705872
1761505714250701000,5.494701171875,-0.1354084461927414,0.010055232793092728,0.5095726847648621
1761505714260737800,5.50473779296875,0.001129921991378069,0.09418390691280365,0.49246126413345337
1761505714270774000,5.51477392578125,0.15844231843948364,0.14919975399971008,0.5308752655982971
1761505714280810200,5.524810302734375,0.31119516491889954,0.05684550479054451,0.5926638245582581
1761505714290846200,5.53484619140625,0.4141803979873657,-0.13305306434631348,0.5949952006340027
1761505714300883000,5.544883056640625,0.43818938732147217,-0.40617868304252625,0.4264788329601288
1761505714310919200,5.554919189453125,0.40350037813186646,-0.6604576110839844,0.06806503236293793
1761505714320955100,5.564955078125,0.32803434133529663,-0.7506071329116821,-0.3853681683540344
1761505714330991000,5.5749912109375,0.24501241743564606,-0.6812804937362671,-0.8358099460601807
1761505714341028000,5.585028076171875,0.15334759652614594,-0.5933331251144409,-1.178727149963379
1761505714351064000,5.59506396484375,0.06482545286417007,-0.5049512982368469,-1.326753854751587
1761505714361100000,5.60510009765625,-0.01028553955256939,-0.3775613307952881,-1.2593967914581299
1761505714371136000,5.615135986328125,-0.060075465589761734,-0.22316110134124756,-1.0526448488235474
1761505714381173000,5.625173095703125,-0.06692562252283096,-0.14919094741344452,-0.8106538653373718
1761505714391209200,5.635209228515625,-0.016151126474142075,-0.21468792855739594,-0.6110196113586426
1761505714401245200,5.6452451171875,0.08782719820737839,-0.35889244079589844,-0.48196321725845337
1761505714411281200,5.65528125,0.20016679167747498,-0.4810708165168762,-0.42196565866470337
1761505714421318100,5.665318115234375,0.22320722043514252,-0.5177732110023499,-0.40373021364212036
1761505714431354000,5.67535400390625,0.13195854425430298,-0.4509507119655609,-0.40815743803977966
1761505714441390000,5.68539013671875,-0.04285721108317375,-0.2883831262588501,-0.43793824315071106
1761505714451426000,5.695426025390625,-0.2341720461845398,-0.07459919899702072,-0.5009962916374207
1761505714461463000,5.705463134765625,-0.38840121030807495,0.1750098019838333,-0.5712611675262451
1761505714471499000,5.7154990234375,-0.505855917930603,0.4375511109828949,-0.6205064654350281
1761505714481535000,5.725534912109375,-0.5829657912254333,0.6506062150001526,-0.6352232694625854
1761505714491571000,5.735571044921875,-0.5946831703186035,0.7642648816108704,-0.593920886516571
1761505714501608000,5.74560791015625,-0.5419934988021851,0.7492201924324036,-0.49960219860076904
1761505714511644200,5.75564404296875,-0.452527791261673,0.6536795496940613,-0.34621983766555786
1761505714521680100,5.76568017578125,-0.3368396759033203,0.5159848928451538,-0.12332449853420258
1761505714531716000,5.775716064453125,-0.22062250971794128,0.4040599763393402,0.13993510603904724
1761505714541753000,5.785753173828125,-0.11055290699005127,0.3436387777328491,0.40524667501449585
1761505714551789000,5.7957890625,-0.02493014931678772,0.2956611216068268,0.6313588619232178
1761505714561825000,5.805824951171875,0.028557104989886284,0.22641603648662567,0.7978113293647766
1761505714571861000,5.815861083984375,0.05422145500779152,0.12518689036369324,0.906204879283905
1761505714581898000,5.82589794921875,0.06724582612514496,0.015044791623950005,0.9800975918769836
1761505714591934000,5.835933837890625,0.06484206020832062,-0.05966273322701454,1.0175923109054565
1761505714601970000,5.845969970703125,0.03314513713121414,-0.06035902723670006,1.0167452096939087
1761505714612006000,5.856005859375,0.00016827834770083427,0.08447565883398056,0.9848751425743103
1761505714622041900,5.866041748046875,-0.022595852613449097,0.3927226960659027,0.9404526948928833
1761505714632079000,5.8760791015625,-0.051656533032655716,0.7691099047660828,0.9022049307823181
1761505714642115000,5.886114990234375,-0.10831914097070694,1.0713210105895996,0.8708153367042542
1761505714652151000,5.896151123046875,-0.17007064819335938,1.1647273302078247,0.8484527468681335
1761505714662187000,5.90618701171875,-0.2036764919757843,1.019450068473816,0.8254176378250122
1761505714672224000,5.91622412109375,-0.18423008918762207,0.808202862739563,0.7707751989364624
1761505714682260000,5.926260009765625,-0.10822533816099167,0.7556926608085632,0.7146289944648743
1761505714692296000,5.9362958984375,-0.03624675050377846,0.8398687839508057,0.6789583563804626
1761505714702332000,5.946331787109375,-0.018038243055343628,0.8148648142814636,0.6508976817131042
1761505714712369000,5.956368896484375,-0.042566485702991486,0.5607364177703857,0.6236793994903564
1761505714722404900,5.96640478515625,-0.057821571826934814,0.15238289535045624,0.597141683101654
1761505714732440800,5.97644091796875,-0.0004269932396709919,-0.31329265236854553,0.5845057964324951
1761505714742477000,5.98647705078125,0.11897804588079453,-0.6664319634437561,0.555486261844635
1761505714752514000,5.99651416015625,0.21212264895439148,-0.8360625505447388,0.48881617188453674
1761505714762550000,6.006550048828125,0.22481763362884521,-0.8861203193664551,0.3680897057056427
1761505714772586000,6.0165859375,0.16633808612823486,-0.8017668128013611,0.1982407420873642
1761505714782622200,6.026622314453125,0.09380724281072617,-0.6301437616348267,0.005086998455226421
1761505714792659000,6.036658935546875,0.05224648863077164,-0.47951459884643555,-0.16971810162067413
1761505714802695000,6.04669482421875,0.03605179488658905,-0.41311249136924744,-0.323440819978714
1761505714812731100,6.056731201171875,0.01630871742963791,-0.553123950958252,-0.4790051281452179
1761505714822767600,6.066767578125,-0.0020622690208256245,-0.7000452876091003,-0.6059460639953613
1761505714832804900,6.076804931640625,-0.04529815539717674,-0.7112846374511719,-0.6917054653167725
1761505714842840800,6.0868408203125,-0.13216881453990936,-0.5791847705841064,-0.759307324886322
1761505714852876800,6.096876708984375,-0.23801322281360626,-0.39176905155181885,-0.8256663680076599
1761505714862912800,6.106912841796875,-0.309378057718277,-0.1876409351825714,-0.9129723906517029
1761505714872949000,6.116948974609375,-0.30434921383857727,0.0514984093606472,-1.0326199531555176
1761505714882985700,6.12698583984375,-0.25920841097831726,0.27989137172698975,-1.1878012418746948
1761505714893021700,6.137021728515625,-0.20138584077358246,0.4067060351371765,-1.3252675533294678
1761505714903058000,6.147057861328125,-0.16318944096565247,0.3476949632167816,-1.4395390748977661
1761505714913094000,6.157093994140625,-0.17461466789245605,0.1263955980539322,-1.530190110206604
1761505714923130600,6.167130615234375,-0.21853385865688324,-0.15648047626018524,-1.5765910148620605
1761505714933166800,6.177166748046875,-0.24334412813186646,-0.40076425671577454,-1.5458588600158691
1761505714943202800,6.187202880859375,-0.19952118396759033,-0.5781731009483337,-1.4368377923965454
1761505714953238800,6.19723876953125,-0.10072828829288483,-0.6716628670692444,-1.2708927392959595
1761505714963276000,6.207276123046875,0.016740303486585617,-0.6624424457550049,-1.0667179822921753
1761505714973312000,6.21731201171875,0.10659269243478775,-0.5271187424659729,-0.8742198348045349
1761505714983348000,6.227347900390625,0.1579127311706543,-0.30025699734687805,-0.7165974974632263
1761505714993384000,6.237384033203125,0.18283459544181824,0.01979849301278591,-0.5614281296730042
1761505715003421000,6.2474208984375,0.23012477159500122,0.34703147411346436,-0.3663007915019989
1761505715013457000,6.257456787109375,0.3061085045337677,0.6126428842544556,-0.12754255533218384
1761505715023492900,6.267492919921875,0.34529200196266174,0.758043110370636,0.14452652633190155
1761505715033528800,6.27752880859375,0.3063350319862366,0.7191939353942871,0.40411707758903503
1761505715043564800,6.287564697265625,0.21796102821826935,0.5055342316627502,0.6351807713508606
1761505715053601800,6.297601806640625,0.13779641687870026,0.17032934725284576,0.8047248125076294
1761505715063637800,6.3076376953125,0.12387900799512863,-0.11364377290010452,0.9060394167900085
1761505715073673700,6.317673828125,0.11732150614261627,-0.3212965428829193,0.9773511290550232
1761505715083709700,6.327709716796875,0.11332978308200836,-0.4442959427833557,0.9820212721824646
1761505715093747000,6.337746826171875,0.12425699830055237,-0.443752646446228,0.9133132696151733
1761505715103783000,6.347782958984375,0.1919047236442566,-0.08324702829122543,0.7547023296356201
1761505715113819000,6.35781884765625,0.21312560141086578,0.44581493735313416,0.6173931956291199
1761505715123854800,6.367854736328125,0.1683351993560791,1.1176440715789795,0.5191264152526855
1761505715133891800,6.377891845703125,0.06043563038110733,1.6674704551696777,0.47621649503707886
1761505715143927800,6.387927734375,-0.10954362899065018,1.8705989122390747,0.4933418035507202
1761505715153963800,6.3979638671875,-0.27677443623542786,1.691694974899292,0.5434550642967224
1761505715163999700,6.407999755859375,-0.3919515311717987,1.386892318725586,0.5581239461898804
1761505715174036700,6.41803662109375,-0.4085603356361389,1.2753407955169678,0.4087165892124176
1761505715184072700,6.42807275390625,-0.27107957005500793,1.5500684976577759,0.2623000144958496
1761505715194108700,6.438108642578125,-0.012129769660532475,1.8745123147964478,0.3062025010585785
1761505715204144600,6.44814453125,-0.1550368219614029,2.0964853763580322,1.3161935806274414
1761505715214180600,6.4581806640625,-0.434673547744751,0.7869088053703308,1.4329417943954468
1761505715224217900,6.4682177734375,-0.2513696551322937,-0.4867956042289734,0.9501985311508179
1761505715234253800,6.47825390625,0.13709656894207,-0.6708778142929077,0.4653671681880951
1761505715244289800,6.488289794921875,0.1678314208984375,-0.8609699606895447,-0.05170246213674545
1761505715254325800,6.49832568359375,-0.18127010762691498,-1.235226035118103,-0.510730504989624
1761505715264362800,6.50836279296875,-0.5558651685714722,-1.764518141746521,-0.9693476557731628
1761505715274398700,6.518398681640625,-0.7878270149230957,-2.120917320251465,-1.2401721477508545
1761505715284434700,6.5284345703125,-0.8852728605270386,-2.3004162311553955,-1.28437340259552
