time,seconds_elapsed,z,y,x
1761478784076404200,0.076404296875,-1.0352935791015625,0.008270263671875,-0.242950439453125
1761478784086441200,0.086441162109375,-1.0331268310546875,0.0099029541015625,-0.2219390869140625
1761478784096478200,0.096478271484375,-1.0143890380859375,0.007568359375,-0.2076568603515625
1761478784106514200,0.10651416015625,-0.98736572265625,0.0098724365234375,-0.201141357421875
1761478784116551400,0.116551513671875,-0.9671783447265625,0.0080718994140625,-0.19891357421875
1761478784126588400,0.12658837890625,-0.9540252685546875,-0.0022125244140625,-0.19659423828125
1761478784136625400,0.13662548828125,-0.9489593505859375,-0.013519287109375,-0.2031707763671875
1761478784146662100,0.146662109375,-0.954071044921875,-0.017822265625,-0.2232818603515625
1761478784156699400,0.156699462890625,-0.9595794677734375,-0.016448974609375,-0.239715576171875
1761478784166735400,0.1667353515625,-0.960693359375,-0.0193939208984375,-0.2410430908203125
1761478784176772400,0.1767724609375,-0.9648284912109375,-0.0213623046875,-0.2333526611328125
1761478784186809300,0.186809326171875,-0.9796142578125,-0.009918212890625,-0.224456787109375
1761478784196846300,0.196846435546875,-1.00341796875,0.0087890625,-0.2325439453125
1761478784206883000,0.206883056640625,-1.0208892822265625,0.0093536376953125,-0.2332305908203125
1761478784216920300,0.21692041015625,-1.0275115966796875,-0.0027923583984375,-0.225860595703125
1761478784226957300,0.226957275390625,-1.01422119140625,-0.00323486328125,-0.21881103515625
1761478784236993300,0.2369931640625,-1.0062713623046875,0.0000152587890625,-0.2080230712890625
1761478784247030300,0.2470302734375,-0.995697021484375,-0.0047607421875,-0.1976165771484375
1761478784257067300,0.2570673828125,-0.9875030517578125,-0.0132904052734375,-0.196380615234375
1761478784267104500,0.2671044921875,-0.9859161376953125,-0.0204620361328125,-0.2020263671875
1761478784277141200,0.277141357421875,-0.9842529296875,-0.0254974365234375,-0.209259033203125
1761478784287178200,0.28717822265625,-0.99285888671875,-0.0209808349609375,-0.2193756103515625
1761478784297214200,0.297214111328125,-0.9984283447265625,-0.011383056640625,-0.2241363525390625
1761478784307251200,0.307251220703125,-1.0034332275390625,-0.00341796875,-0.2157135009765625
1761478784317288400,0.317288330078125,-1.007965087890625,-0.0026397705078125,-0.20587158203125
1761478784327325700,0.32732568359375,-1.02001953125,0.0014190673828125,-0.2124176025390625
1761478784337362400,0.337362548828125,-1.0230560302734375,0.000335693359375,-0.219879150390625
1761478784347399400,0.3473994140625,-1.018951416015625,-0.0060272216796875,-0.21697998046875
1761478784357435400,0.357435302734375,-0.9982757568359375,-0.0068817138671875,-0.2142181396484375
1761478784367472600,0.36747265625,-0.9801788330078125,-0.0056915283203125,-0.214019775390625
1761478784377509600,0.377509521484375,-0.9752197265625,-0.009368896484375,-0.2125091552734375
1761478784387546600,0.387546630859375,-0.9725799560546875,-0.01239013671875,-0.2086029052734375
1761478784397583400,0.397583251953125,-0.972625732421875,-0.0116424560546875,-0.208251953125
1761478784407620600,0.40762060546875,-0.977935791015625,-0.0067291259765625,-0.21417236328125
1761478784417656600,0.417656494140625,-0.9803009033203125,-0.006561279296875,-0.2182159423828125
1761478784427693600,0.427693603515625,-0.97955322265625,-0.0067291259765625,-0.22174072265625
1761478784437730600,0.43773046875,-0.9766387939453125,-0.0058441162109375,-0.221221923828125
1761478784447767600,0.447767578125,-0.984710693359375,-0.0006103515625,-0.2193450927734375
1761478784457804500,0.457804443359375,-0.9955291748046875,0.008026123046875,-0.21356201171875
1761478784467841500,0.467841552734375,-1.0023956298828125,0.008636474609375,-0.19586181640625
1761478784477877500,0.47787744140625,-0.9985198974609375,0.0028839111328125,-0.1856536865234375
1761478784487914500,0.48791455078125,-0.9899139404296875,0.0012359619140625,-0.1870574951171875
1761478784497951500,0.497951416015625,-0.99114990234375,-0.0003662109375,-0.1953125
1761478784507988500,0.507988525390625,-0.9928741455078125,-0.00677490234375,-0.2093353271484375
1761478784518025700,0.518025634765625,-0.99176025390625,-0.01519775390625,-0.222259521484375
1761478784528062500,0.5280625,-0.9920501708984375,-0.0178375244140625,-0.2273406982421875
1761478784538098700,0.5380986328125,-0.9878997802734375,-0.0157470703125,-0.22784423828125
1761478784548135400,0.548135498046875,-0.9851531982421875,-0.0152740478515625,-0.2182159423828125
1761478784558172400,0.55817236328125,-0.9829559326171875,-0.007843017578125,-0.206573486328125
1761478784568209700,0.568209716796875,-0.988555908203125,0.00347900390625,-0.201416015625
1761478784578246700,0.57824658203125,-1.001861572265625,0.01275634765625,-0.1958770751953125
1761478784588282600,0.58828271484375,-1.013641357421875,0.01568603515625,-0.18438720703125
1761478784598319600,0.598319580078125,-1.0186767578125,0.0197601318359375,-0.17462158203125
1761478784608356400,0.6083564453125,-1.0138092041015625,0.020843505859375,-0.1735382080078125
1761478784618393600,0.6183935546875,-1.002777099609375,0.0133819580078125,-0.184173583984375
1761478784628430600,0.6284306640625,-0.9882659912109375,0.0059814453125,-0.206451416015625
1761478784638467600,0.638467529296875,-0.975677490234375,0.001129150390625,-0.2297515869140625
1761478784648503600,0.648503662109375,-0.9723968505859375,0.0050811767578125,-0.2349090576171875
1761478784658540500,0.65854052734375,-0.9778594970703125,0.013397216796875,-0.217742919921875
1761478784668577800,0.668577880859375,-0.987762451171875,0.0206756591796875,-0.1918792724609375
1761478784678614500,0.678614501953125,-0.998565673828125,0.023406982421875,-0.1760406494140625
1761478784688651500,0.688651611328125,-0.9993438720703125,0.024169921875,-0.180633544921875
1761478784698688500,0.6986884765625,-0.989776611328125,0.0219573974609375,-0.2023773193359375
1761478784708724500,0.708724365234375,-0.985321044921875,0.0154266357421875,-0.2185211181640625
1761478784718761500,0.718761474609375,-0.996734619140625,0.0149383544921875,-0.2285919189453125
1761478784728798700,0.728798828125,-1.015655517578125,0.0221405029296875,-0.2305145263671875
1761478784738835500,0.73883544921875,-1.03704833984375,0.0264739990234375,-0.2264404296875
1761478784748872400,0.74887255859375,-1.048614501953125,0.0323944091796875,-0.2226104736328125
1761478784758909400,0.758909423828125,-1.04815673828125,0.0348663330078125,-0.2226104736328125
1761478784768945400,0.7689453125,-1.034820556640625,0.0305328369140625,-0.221527099609375
1761478784778982700,0.778982666015625,-1.0185699462890625,0.021209716796875,-0.2255401611328125
1761478784789019600,0.78901953125,-0.997802734375,0.01043701171875,-0.23541259765625
1761478784799056600,0.799056640625,-0.9784393310546875,-0.003814697265625,-0.247222900390625
1761478784809093400,0.80909326171875,-0.9614410400390625,-0.018463134765625,-0.256866455078125
1761478784819130600,0.819130615234375,-0.941986083984375,-0.0361785888671875,-0.2626495361328125
1761478784829166600,0.82916650390625,-0.9332427978515625,-0.05718994140625,-0.26788330078125
1761478784839203600,0.83920361328125,-0.9306640625,-0.0739898681640625,-0.2764434814453125
1761478784849240600,0.849240478515625,-0.940216064453125,-0.07855224609375,-0.2854156494140625
1761478784859277600,0.859277587890625,-0.961761474609375,-0.0796356201171875,-0.2817230224609375
1761478784869314600,0.869314453125,-0.9753265380859375,-0.075653076171875,-0.267120361328125
1761478784879351600,0.8793515625,-0.993560791015625,-0.0535736083984375,-0.246551513671875
1761478784889387500,0.889387451171875,-1.0151824951171875,-0.0367431640625,-0.2288970947265625
1761478784899424500,0.899424560546875,-1.0291595458984375,-0.03350830078125,-0.208343505859375
1761478784909461500,0.90946142578125,-1.0287628173828125,-0.0486907958984375,-0.1867218017578125
1761478784919498500,0.91949853515625,-1.008819580078125,-0.059722900390625,-0.1782073974609375
1761478784929535700,0.92953564453125,-0.9800872802734375,-0.06109619140625,-0.17840576171875
1761478784939571700,0.93957177734375,-0.9528656005859375,-0.0648651123046875,-0.180023193359375
1761478784949608400,0.9496083984375,-0.93853759765625,-0.0682373046875,-0.1823883056640625
1761478784959645400,0.9596455078125,-0.9394989013671875,-0.0629730224609375,-0.1903076171875
1761478784969682400,0.969682373046875,-0.94537353515625,-0.052490234375,-0.1969757080078125
1761478784979719700,0.9797197265625,-0.9548187255859375,-0.042999267578125,-0.2044830322265625
1761478784989756700,0.989756591796875,-0.9627532958984375,-0.03497314453125,-0.214447021484375
1761478784999792600,0.999792724609375,-0.9653472900390625,-0.0270233154296875,-0.2225494384765625
1761478785009829600,1.00982958984375,-0.98193359375,-0.017181396484375,-0.2334442138671875
1761478785019866400,1.019866455078125,-0.994354248046875,0.0001068115234375,-0.2460784912109375
1761478785029903600,1.029903564453125,-0.9971466064453125,0.016265869140625,-0.248138427734375
1761478785039940600,1.039940673828125,-0.9954833984375,0.0202178955078125,-0.23980712890625
1761478785049977600,1.0499775390625,-0.99395751953125,0.017578125,-0.2318572998046875
1761478785060013600,1.060013671875,-0.998321533203125,0.0122833251953125,-0.2344818115234375
1761478785070050600,1.070050537109375,-0.997589111328125,0.000885009765625,-0.2496490478515625
1761478785080087600,1.080087646484375,-0.9979248046875,-0.0114898681640625,-0.267913818359375
1761478785090124500,1.09012451171875,-0.9911041259765625,-0.0186309814453125,-0.278472900390625
1761478785100161500,1.10016162109375,-0.980560302734375,-0.02099609375,-0.27294921875
1761478785110198500,1.110198486328125,-0.9756927490234375,-0.017608642578125,-0.2499542236328125
1761478785120234500,1.120234375,-0.97735595703125,-0.0059661865234375,-0.2214508056640625
1761478785130271700,1.130271728515625,-0.9827117919921875,0.0006866455078125,-0.2013397216796875
1761478785140308700,1.140308837890625,-0.9940643310546875,-0.0037689208984375,-0.199462890625
1761478785150345500,1.150345458984375,-1.001617431640625,-0.016998291015625,-0.205230712890625
1761478785160382500,1.160382568359375,-1.006103515625,-0.0302581787109375,-0.2053375244140625
1761478785170419500,1.17041943359375,-1.0034637451171875,-0.041107177734375,-0.199981689453125
1761478785180455400,1.180455322265625,-1.002105712890625,-0.0476837158203125,-0.18780517578125
1761478785190492700,1.19049267578125,-1.0023956298828125,-0.0412445068359375,-0.1693115234375
1761478785200529700,1.20052978515625,-1.00042724609375,-0.0347747802734375,-0.1442718505859375
1761478785210566400,1.21056640625,-0.9923248291015625,-0.0389404296875,-0.12286376953125
1761478785220603400,1.220603271484375,-0.9851226806640625,-0.0361480712890625,-0.118438720703125
1761478785230640600,1.230640625,-0.9771575927734375,-0.0285186767578125,-0.1319122314453125
1761478785240676600,1.240676513671875,-0.963348388671875,-0.0282135009765625,-0.150665283203125
1761478785250713600,1.250713623046875,-0.9522705078125,-0.0379486083984375,-0.164794921875
1761478785260750600,1.26075048828125,-0.9455718994140625,-0.0507049560546875,-0.176544189453125
1761478785270787600,1.27078759765625,-0.9483184814453125,-0.06060791015625,-0.192840576171875
1761478785280824600,1.280824462890625,-0.960174560546875,-0.0645751953125,-0.216339111328125
1761478785290861600,1.290861572265625,-0.9776763916015625,-0.0609588623046875,-0.23785400390625
1761478785300897500,1.3008974609375,-0.994781494140625,-0.057525634765625,-0.249481201171875
1761478785310934500,1.3109345703125,-1.005950927734375,-0.053802490234375,-0.2476806640625
1761478785320971500,1.320971435546875,-1.005126953125,-0.0496368408203125,-0.238800048828125
1761478785331009000,1.331009033203125,-0.995880126953125,-0.051239013671875,-0.22332763671875
1761478785341046000,1.3410458984375,-0.9923248291015625,-0.0511016845703125,-0.208770751953125
1761478785351082000,1.35108203125,-0.9936981201171875,-0.0496978759765625,-0.201385498046875
1761478785361119000,1.361118896484375,-0.9986572265625,-0.0483856201171875,-0.1953125
1761478785371156200,1.37115625,-1.0072021484375,-0.04803466796875,-0.19244384765625
1761478785381193200,1.381193115234375,-1.0178985595703125,-0.0474090576171875,-0.193878173828125
1761478785391230200,1.391230224609375,-1.0258941650390625,-0.0508575439453125,-0.2023773193359375
1761478785401267000,1.401266845703125,-1.024932861328125,-0.0603790283203125,-0.2139129638671875
1761478785411303200,1.41130322265625,-1.02093505859375,-0.0707855224609375,-0.225860595703125
1761478785421340200,1.421340087890625,-1.0117950439453125,-0.0833740234375,-0.2393798828125
1761478785431377200,1.431377197265625,-0.9903411865234375,-0.0973358154296875,-0.2506103515625
1761478785441414100,1.4414140625,-0.9642181396484375,-0.1021575927734375,-0.2580718994140625
1761478785451451100,1.451451171875,-0.9440765380859375,-0.0947113037109375,-0.2581024169921875
1761478785461488000,1.461488037109375,-0.9434967041015625,-0.076263427734375,-0.2479095458984375
1761478785471524400,1.4715244140625,-0.9532318115234375,-0.04541015625,-0.22119140625
1761478785481561000,1.48156103515625,-0.9662628173828125,-0.0109710693359375,-0.1790008544921875
1761478785491598000,1.49159814453125,-0.98968505859375,0.01715087890625,-0.1403961181640625
1761478785501635000,1.501635009765625,-1.0287322998046875,0.0378265380859375,-0.1222991943359375
1761478785511672300,1.51167236328125,-1.06268310546875,0.0503082275390625,-0.125946044921875
1761478785521709300,1.521709228515625,-1.08148193359375,0.0632171630859375,-0.144683837890625
1761478785531745300,1.531745361328125,-1.095123291015625,0.066162109375,-0.1605987548828125
1761478785541782000,1.541781982421875,-1.098297119140625,0.0577392578125,-0.17352294921875
1761478785551819000,1.551819091796875,-1.0908966064453125,0.05364990234375,-0.173797607421875
1761478785561856000,1.56185595703125,-1.083984375,0.0509185791015625,-0.176513671875
1761478785571893200,1.571893310546875,-1.0843658447265625,0.0450897216796875,-0.188018798828125
1761478785581929200,1.58192919921875,-1.0875244140625,0.0453338623046875,-0.1931304931640625
1761478785591966200,1.59196630859375,-1.0777587890625,0.046478271484375,-0.1944122314453125
1761478785602003200,1.602003173828125,-1.0648345947265625,0.05517578125,-0.194610595703125
1761478785612040000,1.6120400390625,-1.045928955078125,0.0596466064453125,-0.18994140625
1761478785622077200,1.6220771484375,-1.0321502685546875,0.0593719482421875,-0.1825103759765625
1761478785632114200,1.6321142578125,-1.0201416015625,0.0634002685546875,-0.1784820556640625
1761478785642150100,1.642150146484375,-1.005859375,0.072265625,-0.1719818115234375
1761478785652187100,1.652187255859375,-0.993499755859375,0.078216552734375,-0.1617431640625
1761478785662224100,1.66222412109375,-0.9864349365234375,0.083526611328125,-0.1484527587890625
1761478785672261000,1.67226123046875,-0.9829559326171875,0.0916748046875,-0.1427154541015625
1761478785682298000,1.682298095703125,-0.9747467041015625,0.1028900146484375,-0.14398193359375
1761478785692335000,1.692335205078125,-0.965728759765625,0.1006622314453125,-0.15020751953125
1761478785702371000,1.70237109375,-0.9522247314453125,0.089508056640625,-0.1641998291015625
1761478785712408000,1.712407958984375,-0.9383697509765625,0.081146240234375,-0.181427001953125
1761478785722445300,1.7224453125,-0.935455322265625,0.0849151611328125,-0.1852569580078125
1761478785732482300,1.732482421875,-0.9427032470703125,0.081146240234375,-0.18048095703125
1761478785742519000,1.74251904296875,-0.9535980224609375,0.0780029296875,-0.1776580810546875
1761478785752555000,1.752554931640625,-0.9658355712890625,0.08441162109375,-0.174560546875
1761478785762592000,1.762592041015625,-0.9734039306640625,0.0868988037109375,-0.1681976318359375
1761478785772629200,1.772629150390625,-0.9754486083984375,0.086883544921875,-0.1658477783203125
1761478785782666200,1.782666259765625,-0.9773101806640625,0.083984375,-0.170562744140625
1761478785792703200,1.792703125,-0.9763031005859375,0.07342529296875,-0.17999267578125
1761478785802740200,1.802740234375,-0.974395751953125,0.06085205078125,-0.1888427734375
1761478785812776200,1.812776123046875,-0.9661102294921875,0.0517578125,-0.198974609375
1761478785822813000,1.82281298828125,-0.9584808349609375,0.047088623046875,-0.2135772705078125
1761478785832850200,1.83285009765625,-0.9490203857421875,0.0466461181640625,-0.2244110107421875
1761478785842887200,1.84288720703125,-0.94097900390625,0.0447540283203125,-0.2286376953125
1761478785852924200,1.852924072265625,-0.9363861083984375,0.04132080078125,-0.2216644287109375
1761478785862961200,1.862961181640625,-0.9326324462890625,0.0356292724609375,-0.207672119140625
1761478785872997000,1.8729970703125,-0.92816162109375,0.0308990478515625,-0.1962127685546875
1761478785883034000,1.8830341796875,-0.935821533203125,0.032257080078125,-0.188690185546875
1761478785893071000,1.893071044921875,-0.9541778564453125,0.038848876953125,-0.1802978515625
1761478785903108000,1.903108154296875,-0.97747802734375,0.0487213134765625,-0.1572723388671875
1761478785913145000,1.91314501953125,-0.99951171875,0.0479583740234375,-0.1271514892578125
1761478785923181000,1.92318115234375,-1.02154541015625,0.0441741943359375,-0.1153411865234375
1761478785933218300,1.93321826171875,-1.03985595703125,0.0504608154296875,-0.117279052734375
1761478785943255300,1.94325537109375,-1.0499267578125,0.0593414306640625,-0.114837646484375
1761478785953292000,1.9532919921875,-1.058135986328125,0.06768798828125,-0.10662841796875
1761478785963329000,1.9633291015625,-1.0640106201171875,0.072052001953125,-0.0989532470703125
1761478785973366300,1.9733662109375,-1.06732177734375,0.0644073486328125,-0.09893798828125
1761478785983402200,1.98340234375,-1.062591552734375,0.0497589111328125,-0.103729248046875
1761478785993439200,1.993439208984375,-1.0582733154296875,0.04193115234375,-0.1148834228515625
1761478786003476200,2.003476318359375,-1.0526275634765625,0.0379638671875,-0.1320037841796875
1761478786013513200,2.01351318359375,-1.0471954345703125,0.034271240234375,-0.1508636474609375
1761478786023550000,2.023550048828125,-1.035430908203125,0.039581298828125,-0.1618194580078125
1761478786033586000,2.0335859375,-1.013916015625,0.0466461181640625,-0.1573944091796875
1761478786043623200,2.043623046875,-0.9886627197265625,0.0473480224609375,-0.1431427001953125
1761478786053660200,2.05366015625,-0.96533203125,0.0454559326171875,-0.12872314453125
1761478786063697200,2.063697265625,-0.948822021484375,0.039947509765625,-0.122100830078125
1761478786073734100,2.073734130859375,-0.939208984375,0.0312652587890625,-0.1319122314453125
1761478786083770000,2.08377001953125,-0.9417877197265625,0.0289764404296875,-0.1523590087890625
1761478786093807000,2.09380712890625,-0.953338623046875,0.029205322265625,-0.1580963134765625
1761478786103844000,2.103843994140625,-0.9615631103515625,0.02789306640625,-0.1536865234375
1761478786113881000,2.113881103515625,-0.965728759765625,0.0286712646484375,-0.153076171875
1761478786123918000,2.12391796875,-0.96893310546875,0.0319061279296875,-0.1551513671875
1761478786133955300,2.133955322265625,-0.9776153564453125,0.0345611572265625,-0.1507415771484375
1761478786143991300,2.1439912109375,-0.994903564453125,0.035919189453125,-0.140777587890625
1761478786154028300,2.1540283203125,-1.0059356689453125,0.0343475341796875,-0.1326904296875
1761478786164065000,2.16406494140625,-1.0047149658203125,0.0303802490234375,-0.128662109375
1761478786174102000,2.17410205078125,-0.994384765625,0.0264739990234375,-0.13018798828125
1761478786184139300,2.18413916015625,-0.9731903076171875,0.0267486572265625,-0.1392974853515625
1761478786194175200,2.19417529296875,-0.9508056640625,0.0221099853515625,-0.1466522216796875
1761478786204212200,2.204212158203125,-0.9407196044921875,0.0092315673828125,-0.14898681640625
1761478786214249200,2.214249267578125,-0.943603515625,0.0011749267578125,-0.1524200439453125
1761478786224286000,2.224285888671875,-0.9542083740234375,0.00299072265625,-0.152069091796875
1761478786234323000,2.234322998046875,-0.976715087890625,0.0023345947265625,-0.151397705078125
1761478786244360200,2.244360107421875,-1.0072021484375,-0.0020294189453125,-0.1613616943359375
1761478786254396200,2.254396240234375,-1.0277099609375,-0.0009613037109375,-0.1849365234375
1761478786264433200,2.26443310546875,-1.0377960205078125,0.00140380859375,-0.2111358642578125
1761478786274470100,2.27447021484375,-1.048828125,-0.00067138671875,-0.2157135009765625
1761478786284507100,2.284507080078125,-1.05419921875,-0.0023651123046875,-0.2005462646484375
1761478786294544100,2.294544189453125,-1.051239013671875,0.002105712890625,-0.1750946044921875
1761478786304580000,2.304580078125,-1.045867919921875,0.0069580078125,-0.145111083984375
1761478786314617000,2.3146171875,-1.0364837646484375,0.0103759765625,-0.1247711181640625
1761478786324654000,2.324654052734375,-1.0262298583984375,0.0128936767578125,-0.1214141845703125
1761478786334689800,2.334689697265625,-1.0158538818359375,0.014129638671875,-0.1215362548828125
1761478786344726800,2.344726806640625,-1.0115203857421875,0.00653076171875,-0.1251068115234375
1761478786354762800,2.3547626953125,-1.011688232421875,-0.001556396484375,-0.1330108642578125
1761478786364800000,2.364800048828125,-1.0115509033203125,-0.0066986083984375,-0.138214111328125
1761478786374837000,2.3748369140625,-1.0142669677734375,-0.0098876953125,-0.1514892578125
1761478786384874000,2.3848740234375,-1.01812744140625,-0.0086669921875,-0.165069580078125
1761478786394910700,2.39491064453125,-1.0189056396484375,-0.0063934326171875,-0.1722412109375
1761478786404946700,2.40494677734375,-1.02056884765625,-0.005889892578125,-0.1745452880859375
1761478786414984000,2.41498388671875,-1.020111083984375,-0.002532958984375,-0.1724700927734375
1761478786425021000,2.42502099609375,-1.01959228515625,-0.00189208984375,-0.1681365966796875
1761478786435058000,2.435057861328125,-1.0163116455078125,0.0003662109375,-0.171417236328125
1761478786445095000,2.445094970703125,-1.0139312744140625,0.0093994140625,-0.182861328125
1761478786455131000,2.455130859375,-1.0203094482421875,0.015533447265625,-0.1913604736328125
1761478786465168000,2.46516796875,-1.02593994140625,0.014129638671875,-0.195037841796875
1761478786475204900,2.475204833984375,-1.034759521484375,0.010101318359375,-0.20068359375
1761478786485241900,2.485241943359375,-1.0401153564453125,0.008544921875,-0.205078125
1761478786495278800,2.49527880859375,-1.0335845947265625,0.00872802734375,-0.2051849365234375
1761478786505314800,2.505314697265625,-1.019256591796875,0.0072479248046875,-0.2008056640625
1761478786515352000,2.51535205078125,-1.005767822265625,0.00677490234375,-0.19384765625
1761478786525389000,2.52538916015625,-1.00189208984375,0.016815185546875,-0.18756103515625
1761478786535425800,2.53542578125,-1.0028533935546875,0.029510498046875,-0.1726226806640625
1761478786545462800,2.545462890625,-1.009368896484375,0.0417938232421875,-0.1490478515625
1761478786555498800,2.555498779296875,-1.021942138671875,0.05621337890625,-0.130279541015625
1761478786565535700,2.56553564453125,-1.0501251220703125,0.0706634521484375,-0.1239013671875
1761478786575573000,2.575572998046875,-1.091339111328125,0.0801849365234375,-0.1276092529296875
1761478786585610000,2.58560986328125,-1.1360931396484375,0.086944580078125,-0.141326904296875
1761478786595647000,2.59564697265625,-1.1707000732421875,0.089141845703125,-0.1634063720703125
1761478786605683000,2.605682861328125,-1.184967041015625,0.08319091796875,-0.18804931640625
1761478786615719700,2.6157197265625,-1.1663970947265625,0.0667877197265625,-0.2125701904296875
1761478786625757000,2.6257568359375,-1.119781494140625,0.045379638671875,-0.2358245849609375
1761478786635794000,2.6357939453125,-1.061187744140625,0.02685546875,-0.2547760009765625
1761478786645831000,2.645830810546875,-1.001373291015625,0.010284423828125,-0.260162353515625
1761478786655867000,2.655866943359375,-0.9598388671875,-0.002685546875,-0.245208740234375
1761478786665903900,2.66590380859375,-0.943878173828125,-0.0075225830078125,-0.2218017578125
1761478786675940900,2.67594091796875,-0.9467315673828125,-0.00286865234375,-0.19976806640625
1761478786685977900,2.685977783203125,-0.9503326416015625,0.0005645751953125,-0.1814422607421875
1761478786696014800,2.696014892578125,-0.9540557861328125,0.004364013671875,-0.175384521484375
1761478786706050800,2.70605078125,-0.9497528076171875,0.005767822265625,-0.176605224609375
1761478786716087800,2.716087890625,-0.937774658203125,0.00567626953125,-0.185455322265625
1761478786726125000,2.726125,-0.9186248779296875,0.0028533935546875,-0.1949005126953125
1761478786736162000,2.736162109375,-0.904632568359375,-0.0008544921875,-0.197357177734375
1761478786746198800,2.74619873046875,-0.8973846435546875,0.002960205078125,-0.190765380859375
1761478786756235000,2.756235107421875,-0.9090728759765625,0.0087127685546875,-0.1896209716796875
1761478786766271700,2.766271728515625,-0.9344329833984375,0.0179595947265625,-0.1912384033203125
1761478786776308700,2.776308837890625,-0.9644927978515625,0.03179931640625,-0.1902008056640625
1761478786786346000,2.786345947265625,-0.995849609375,0.0440216064453125,-0.187774658203125
1761478786796382000,2.7963818359375,-1.0203704833984375,0.0518341064453125,-0.190216064453125
1761478786806419000,2.8064189453125,-1.0398406982421875,0.0635528564453125,-0.20428466796875
1761478786816456000,2.8164560546875,-1.04827880859375,0.0750732421875,-0.2201690673828125
1761478786826492700,2.82649267578125,-1.048431396484375,0.0787811279296875,-0.22564697265625
1761478786836530000,2.836530029296875,-1.03961181640625,0.076904296875,-0.2229766845703125
1761478786846566000,2.84656591796875,-1.0281982421875,0.0779571533203125,-0.2189178466796875
1761478786856603000,2.856602783203125,-1.0181732177734375,0.079498291015625,-0.2191619873046875
1761478786866640000,2.866639892578125,-1.0042877197265625,0.0822906494140625,-0.2289276123046875
1761478786876676900,2.8766767578125,-0.9899139404296875,0.0847625732421875,-0.239654541015625
1761478786886713900,2.8867138671875,-0.9825897216796875,0.0817108154296875,-0.2444000244140625
1761478786896750000,2.89675,-0.9837493896484375,0.0852813720703125,-0.2422332763671875
1761478786906786800,2.906786865234375,-0.987335205078125,0.0923004150390625,-0.2218170166015625
1761478786916823800,2.91682373046875,-1.00067138671875,0.095306396484375,-0.2008209228515625
1761478786926860800,2.92686083984375,-1.0081939697265625,0.0991363525390625,-0.1900482177734375
1761478786936896800,2.936896728515625,-1.0069427490234375,0.1031341552734375,-0.1931304931640625
1761478786946934000,2.94693408203125,-0.991058349609375,0.09783935546875,-0.2126312255859375
1761478786956971000,2.956970947265625,-0.96429443359375,0.093048095703125,-0.2414703369140625
1761478786967008000,2.967008056640625,-0.93609619140625,0.0856475830078125,-0.263580322265625
1761478786977044700,2.977044677734375,-0.9100799560546875,0.07476806640625,-0.275115966796875
1761478786987080700,2.987080810546875,-0.883819580078125,0.0626678466796875,-0.286468505859375
1761478786997118000,2.997117919921875,-0.86480712890625,0.043701171875,-0.3039703369140625
1761478787007155000,3.007155029296875,-0.853118896484375,0.021453857421875,-0.329071044921875
1761478787017192000,3.01719189453125,-0.85101318359375,0.0030364990234375,-0.3630218505859375
1761478787027228000,3.027227783203125,-0.8701171875,-0.0054473876953125,-0.3922882080078125
1761478787037265000,3.037264892578125,-0.897308349609375,0.001800537109375,-0.4142913818359375
1761478787047302000,3.047302001953125,-0.9229583740234375,0.0124664306640625,-0.4136962890625
1761478787057339000,3.0573388671875,-0.952362060546875,0.0210418701171875,-0.3948974609375
1761478787067375900,3.0673759765625,-0.9797210693359375,0.0162353515625,-0.3705291748046875
1761478787077411800,3.077411865234375,-1.005279541015625,0.012908935546875,-0.3517913818359375
1761478787087448800,3.08744873046875,-1.0296630859375,0.0194549560546875,-0.3343353271484375
1761478787097485800,3.09748583984375,-1.0515594482421875,0.0214691162109375,-0.31085205078125
1761478787107523000,3.107523193359375,-1.0669403076171875,0.025665283203125,-0.2838897705078125
1761478787117559800,3.117559814453125,-1.070770263671875,0.02783203125,-0.25567626953125
1761478787127595800,3.127595703125,-1.0506744384765625,0.0045928955078125,-0.2289276123046875
1761478787137632800,3.1376328125,-1.0258636474609375,-0.01409912109375,-0.2197265625
1761478787147669800,3.147669677734375,-1.0001373291015625,-0.01416015625,-0.2223052978515625
1761478787157707000,3.15770703125,-0.9757843017578125,-0.02154541015625,-0.2209014892578125
1761478787167743000,3.167742919921875,-0.95977783203125,-0.0335540771484375,-0.216156005859375
1761478787177780000,3.177780029296875,-0.945465087890625,-0.036468505859375,-0.2148590087890625
1761478787187817000,3.18781689453125,-0.9320831298828125,-0.02783203125,-0.220672607421875
1761478787197853700,3.197853759765625,-0.923065185546875,-0.022247314453125,-0.2290496826171875
1761478787207890000,3.207889892578125,-0.9155120849609375,-0.019012451171875,-0.2422637939453125
1761478787217927000,3.217927001953125,-0.9093475341796875,-0.01611328125,-0.2531890869140625
1761478787227964000,3.2279638671875,-0.9116973876953125,-0.008636474609375,-0.263946533203125
1761478787238001000,3.2380009765625,-0.9166107177734375,-0.0046539306640625,-0.2677764892578125
1761478787248038000,3.248037841796875,-0.9198150634765625,-0.0057220458984375,-0.2769927978515625
1761478787258073900,3.258073974609375,-0.9255828857421875,-0.0093841552734375,-0.297119140625
1761478787268111000,3.268111083984375,-0.9330902099609375,-0.0174560546875,-0.3194580078125
1761478787278147800,3.27814794921875,-0.9448394775390625,-0.0234375,-0.3331451416015625
1761478787288184800,3.288184814453125,-0.960723876953125,-0.028900146484375,-0.3322906494140625
1761478787298220800,3.298220703125,-0.9765167236328125,-0.035858154296875,-0.3253631591796875
1761478787308257800,3.3082578125,-0.981689453125,-0.04248046875,-0.3101806640625
1761478787318295000,3.318294921875,-0.983917236328125,-0.049774169921875,-0.298858642578125
1761478787328332000,3.32833203125,-0.9867706298828125,-0.0496063232421875,-0.296905517578125
1761478787338367700,3.33836767578125,-0.9916839599609375,-0.0481109619140625,-0.2893829345703125
1761478787348404700,3.34840478515625,-0.995819091796875,-0.051239013671875,-0.2791595458984375
1761478787358441500,3.35844140625,-0.9908599853515625,-0.0538482666015625,-0.26513671875
1761478787368478500,3.368478515625,-0.9862823486328125,-0.0495758056640625,-0.247833251953125
1761478787378515700,3.378515625,-0.98468017578125,-0.0550384521484375,-0.2403106689453125
1761478787388551700,3.3885517578125,-0.9903411865234375,-0.0716094970703125,-0.2487335205078125
1761478787398588700,3.398588623046875,-0.996124267578125,-0.07684326171875,-0.26922607421875
1761478787408625700,3.408625732421875,-1.00103759765625,-0.0759429931640625,-0.2780303955078125
1761478787418662700,3.41866259765625,-1.002105712890625,-0.07965087890625,-0.2740325927734375
1761478787428698600,3.42869873046875,-0.986785888671875,-0.0836334228515625,-0.262786865234375
1761478787438735600,3.438735595703125,-0.96539306640625,-0.0892791748046875,-0.2518157958984375
1761478787448772600,3.448772705078125,-0.949005126953125,-0.0940093994140625,-0.24566650390625
1761478787458809600,3.4588095703125,-0.9399871826171875,-0.0951690673828125,-0.248931884765625
1761478787468845600,3.468845458984375,-0.9242095947265625,-0.10443115234375,-0.2453765869140625
1761478787478882600,3.478882568359375,-0.910797119140625,-0.1080322265625,-0.2406158447265625
1761478787488919800,3.488919921875,-0.896148681640625,-0.1056976318359375,-0.237762451171875
1761478787498956800,3.498956787109375,-0.8990325927734375,-0.102142333984375,-0.2307586669921875
1761478787508992800,3.50899267578125,-0.9097442626953125,-0.1045989990234375,-0.2280120849609375
1761478787519029500,3.519029541015625,-0.9182891845703125,-0.1092681884765625,-0.23773193359375
1761478787529066500,3.52906640625,-0.9337005615234375,-0.1085205078125,-0.25408935546875
1761478787539103700,3.539103759765625,-0.9549560546875,-0.107940673828125,-0.2678680419921875
1761478787549140700,3.549140625,-0.9716949462890625,-0.110321044921875,-0.2847747802734375
1761478787559176700,3.5591767578125,-0.9818878173828125,-0.1154327392578125,-0.299041748046875
1761478787569213700,3.569213623046875,-0.9895782470703125,-0.12158203125,-0.313629150390625
1761478787579250700,3.579250732421875,-0.9892120361328125,-0.12890625,-0.332550048828125
1761478787589287700,3.58928759765625,-0.986602783203125,-0.1402587890625,-0.34649658203125
1761478787599323600,3.59932373046875,-0.986480712890625,-0.1509552001953125,-0.3586883544921875
1761478787609360600,3.609360595703125,-0.9822235107421875,-0.1399383544921875,-0.356048583984375
1761478787619397600,3.619397705078125,-0.9821624755859375,-0.1011962890625,-0.322784423828125
1761478787629434600,3.6294345703125,-0.9871978759765625,-0.056427001953125,-0.262725830078125
1761478787639470600,3.639470703125,-1.0064544677734375,-0.0197296142578125,-0.20684814453125
1761478787649507800,3.6495078125,-1.046478271484375,0.0113525390625,-0.182220458984375
1761478787659544800,3.659544921875,-1.1087646484375,0.0380401611328125,-0.1970367431640625
1761478787669581600,3.66958154296875,-1.178558349609375,0.053192138671875,-0.225616455078125
1761478787679617500,3.679617431640625,-1.2186279296875,0.074188232421875,-0.2434234619140625
1761478787689654500,3.689654541015625,-1.217254638671875,0.083282470703125,-0.2379913330078125
1761478787699691500,3.69969140625,-1.17041015625,0.083282470703125,-0.206817626953125
1761478787709728800,3.709728759765625,-1.110260009765625,0.0660400390625,-0.1820526123046875
1761478787719764700,3.7197646484375,-1.060394287109375,0.049468994140625,-0.1849822998046875
1761478787729801700,3.7298017578125,-1.021331787109375,0.03204345703125,-0.2082977294921875
1761478787739838700,3.739838623046875,-0.9895477294921875,0.0052642822265625,-0.235015869140625
1761478787749875500,3.74987548828125,-0.9651641845703125,-0.015594482421875,-0.2631378173828125
1761478787759911400,3.759911376953125,-0.9406280517578125,-0.0217742919921875,-0.285858154296875
1761478787769948700,3.76994873046875,-0.9217529296875,-0.0200653076171875,-0.29608154296875
1761478787779985700,3.779985595703125,-0.9105377197265625,-0.010223388671875,-0.2906951904296875
1761478787790022700,3.790022705078125,-0.903778076171875,0.008056640625,-0.26434326171875
1761478787800058600,3.80005859375,-0.908599853515625,0.026336669921875,-0.23199462890625
1761478787810095600,3.810095703125,-0.92279052734375,0.046875,-0.211761474609375
1761478787820132600,3.820132568359375,-0.92724609375,0.060302734375,-0.1904144287109375
1761478787830169600,3.830169677734375,-0.92333984375,0.066497802734375,-0.1697845458984375
1761478787840205600,3.84020556640625,-0.9151153564453125,0.0662384033203125,-0.1559295654296875
1761478787850242600,3.85024267578125,-0.9176788330078125,0.0643463134765625,-0.1548309326171875
1761478787860279600,3.860279541015625,-0.9280242919921875,0.0554046630859375,-0.1668853759765625
1761478787870316800,3.87031689453125,-0.94769287109375,0.0413360595703125,-0.1921539306640625
1761478787880352800,3.880352783203125,-0.9747161865234375,0.0366058349609375,-0.2266998291015625
1761478787890389800,3.8903896484375,-0.9971466064453125,0.039398193359375,-0.253326416015625
1761478787900426800,3.9004267578125,-1.015228271484375,0.037384033203125,-0.2688140869140625
1761478787910463500,3.91046337890625,-1.012847900390625,0.0305938720703125,-0.273040771484375
1761478787920499500,3.92049951171875,-1.009521484375,0.03607177734375,-0.2596588134765625
1761478787930536700,3.93053662109375,-0.9993743896484375,0.0444183349609375,-0.2362823486328125
1761478787940573700,3.94057373046875,-0.999267578125,0.04791259765625,-0.2190093994140625
1761478787950610700,3.950610595703125,-1.0083465576171875,0.0562286376953125,-0.2120513916015625
1761478787960646700,3.960646728515625,-1.02142333984375,0.0672454833984375,-0.2052154541015625
1761478787970683600,3.97068359375,-1.0291900634765625,0.079833984375,-0.19134521484375
1761478787980720600,3.980720703125,-1.024261474609375,0.0953369140625,-0.1647186279296875
1761478787990757600,3.990757568359375,-1.00665283203125,0.1022796630859375,-0.12994384765625
1761478788000793600,4.000793701171875,-0.984710693359375,0.1063690185546875,-0.1106414794921875
1761478788010828800,4.010828857421875,-0.9642486572265625,0.1104583740234375,-0.1122589111328125
1761478788020865800,4.02086572265625,-0.9493255615234375,0.10589599609375,-0.1217498779296875
1761478788030902500,4.030902587890625,-0.9423980712890625,0.095611572265625,-0.136688232421875
1761478788040938500,4.0409384765625,-0.9432220458984375,0.086029052734375,-0.1596832275390625
1761478788050975500,4.0509755859375,-0.94500732421875,0.0746917724609375,-0.1867828369140625
1761478788061012700,4.0610126953125,-0.9495697021484375,0.0592193603515625,-0.2206878662109375
1761478788071049700,4.0710498046875,-0.95416259765625,0.0480804443359375,-0.2497100830078125
1761478788081085700,4.081085693359375,-0.9652862548828125,0.0412750244140625,-0.269866943359375
1761478788091122700,4.091122802734375,-0.979400634765625,0.0411529541015625,-0.276763916015625
1761478788101159700,4.10115966796875,-0.989593505859375,0.04290771484375,-0.264801025390625
1761478788111196700,4.11119677734375,-0.99755859375,0.042816162109375,-0.2521209716796875
1761478788121232600,4.121232666015625,-1.0045318603515625,0.0474395751953125,-0.246612548828125
1761478788131269600,4.13126953125,-1.016448974609375,0.05291748046875,-0.2388916015625
1761478788141306600,4.141306640625,-1.0276031494140625,0.0547637939453125,-0.2242889404296875
1761478788151343600,4.151343505859375,-1.0299530029296875,0.0601348876953125,-0.2017364501953125
1761478788161379600,4.161379638671875,-1.0248260498046875,0.06854248046875,-0.1736602783203125
1761478788171416800,4.171416748046875,-1.022216796875,0.0793609619140625,-0.15203857421875
1761478788181453800,4.181453857421875,-1.018096923828125,0.07666015625,-0.146759033203125
1761478788191490600,4.191490478515625,-1.00933837890625,0.0599822998046875,-0.1511383056640625
1761478788201526500,4.201526611328125,-0.9990234375,0.0361175537109375,-0.1658172607421875
1761478788211563500,4.2115634765625,-0.994293212890625,0.01971435546875,-0.1832733154296875
1761478788221600500,4.2216005859375,-0.992584228515625,0.0102691650390625,-0.1883087158203125
1761478788231636500,4.231636474609375,-0.9975433349609375,0.0076141357421875,-0.180267333984375
1761478788241673700,4.241673828125,-1.0007171630859375,0.0075836181640625,-0.16558837890625
1761478788251710700,4.251710693359375,-1.0025177001953125,0.0099029541015625,-0.1576690673828125
1761478788261747700,4.261747802734375,-1.0050506591796875,0.0142669677734375,-0.1611785888671875
1761478788271783700,4.27178369140625,-1.0074462890625,0.01300048828125,-0.166351318359375
1761478788281820400,4.2818203125,-1.0024871826171875,0.0106658935546875,-0.1640777587890625
1761478788291857700,4.291857666015625,-0.994140625,0.00897216796875,-0.153778076171875
1761478788301894700,4.301894775390625,-0.9856414794921875,0.0079498291015625,-0.1416778564453125
1761478788311930600,4.3119306640625,-0.980316162109375,0.0081634521484375,-0.1390380859375
1761478788321967600,4.321967529296875,-0.9830780029296875,0.0078887939453125,-0.1483306884765625
1761478788332004600,4.332004638671875,-0.9910736083984375,0.005218505859375,-0.1577911376953125
1761478788342042000,4.3420419921875,-0.9963836669921875,0.003570556640625,-0.172760009765625
1761478788352078000,4.352078125,-1.0027618408203125,-0.0005950927734375,-0.18536376953125
1761478788362115300,4.362115234375,-1.0029144287109375,-0.0076751708984375,-0.1922149658203125
1761478788372152300,4.37215234375,-1.0007476806640625,-0.015655517578125,-0.1968841552734375
1761478788382188300,4.382188232421875,-0.995208740234375,-0.0221710205078125,-0.1995086669921875
1761478788392225300,4.392225341796875,-0.9894866943359375,-0.0254364013671875,-0.2021026611328125
1761478788402262300,4.40226220703125,-0.98590087890625,-0.0297698974609375,-0.1940155029296875
1761478788412299500,4.412299560546875,-0.981964111328125,-0.0237274169921875,-0.177001953125
1761478788422335500,4.42233544921875,-0.98101806640625,-0.0152130126953125,-0.155303955078125
1761478788432372200,4.432372314453125,-0.98431396484375,-0.0167236328125,-0.1399383544921875
1761478788442409200,4.4424091796875,-0.98486328125,-0.0152740478515625,-0.1439056396484375
1761478788452446200,4.4524462890625,-0.9770660400390625,-0.0170135498046875,-0.1594696044921875
1761478788462482200,4.462482177734375,-0.965667724609375,-0.024932861328125,-0.174957275390625
1761478788472519400,4.47251953125,-0.95977783203125,-0.02923583984375,-0.1937713623046875
1761478788482556400,4.482556396484375,-0.951629638671875,-0.0353851318359375,-0.215728759765625
1761478788492592400,4.49259228515625,-0.9465789794921875,-0.0491485595703125,-0.238525390625
1761478788502629400,4.50262939453125,-0.9497833251953125,-0.0609283447265625,-0.25579833984375
1761478788512666000,4.512666015625,-0.966278076171875,-0.0651702880859375,-0.264068603515625
1761478788522703400,4.522703369140625,-0.9987335205078125,-0.0583953857421875,-0.2591094970703125
1761478788532739300,4.5327392578125,-1.02960205078125,-0.0536346435546875,-0.244720458984375
1761478788542776300,4.5427763671875,-1.054351806640625,-0.0536651611328125,-0.2231903076171875
1761478788552813300,4.552813232421875,-1.0659332275390625,-0.06024169921875,-0.2106170654296875
1761478788562850300,4.562850341796875,-1.07110595703125,-0.0650634765625,-0.2037353515625
1761478788572886300,4.57288623046875,-1.0765380859375,-0.0648651123046875,-0.188873291015625
1761478788582923500,4.582923583984375,-1.0765533447265625,-0.06146240234375,-0.172393798828125
1761478788592960300,4.592960205078125,-1.0658416748046875,-0.0621490478515625,-0.1597747802734375
1761478788602996200,4.602996337890625,-1.0453033447265625,-0.0744171142578125,-0.15374755859375
1761478788613033200,4.613033203125,-1.0291748046875,-0.093414306640625,-0.158050537109375
1761478788623070200,4.6230703125,-1.01422119140625,-0.101165771484375,-0.168853759765625
1761478788633107500,4.633107421875,-1.0065460205078125,-0.0931243896484375,-0.1683349609375
1761478788643143400,4.643143310546875,-1.0013885498046875,-0.0849151611328125,-0.1453094482421875
1761478788653180400,4.653180419921875,-0.9976043701171875,-0.077880859375,-0.1199798583984375
1761478788663217400,4.663217529296875,-0.9969482421875,-0.0789337158203125,-0.096466064453125
1761478788673253400,4.67325341796875,-0.999053955078125,-0.0862579345703125,-0.100128173828125
1761478788683290400,4.683290283203125,-1.00006103515625,-0.09521484375,-0.1290435791015625
1761478788693327400,4.693327392578125,-1.0000152587890625,-0.107879638671875,-0.16552734375
1761478788703364400,4.7033642578125,-0.994476318359375,-0.1210784912109375,-0.20440673828125
1761478788713400300,4.713400390625,-0.9795684814453125,-0.129425048828125,-0.2296905517578125
1761478788723437300,4.723437255859375,-0.97125244140625,-0.1240692138671875,-0.2301483154296875
1761478788733474300,4.733474365234375,-0.96990966796875,-0.1021575927734375,-0.213348388671875
1761478788743511300,4.74351123046875,-0.9680023193359375,-0.0722808837890625,-0.1811065673828125
1761478788753547300,4.75354736328125,-0.9826507568359375,-0.044952392578125,-0.1427154541015625
1761478788763584300,4.763584228515625,-1.017486572265625,-0.0276031494140625,-0.1189117431640625
1761478788773621200,4.773621337890625,-1.0639495849609375,-0.0103607177734375,-0.114288330078125
1761478788783657200,4.7836572265625,-1.1097259521484375,0.009246826171875,-0.1208953857421875
1761478788793694200,4.793694091796875,-1.14398193359375,0.022674560546875,-0.133544921875
1761478788803731200,4.803731201171875,-1.14874267578125,0.0232391357421875,-0.1513671875
1761478788813768400,4.8137685546875,-1.1299896240234375,0.01947021484375,-0.17694091796875
1761478788823804400,4.823804443359375,-1.08013916015625,0.0006561279296875,-0.206451416015625
1761478788833841400,4.83384130859375,-1.009307861328125,-0.0337677001953125,-0.2486114501953125
1761478788843878100,4.843878173828125,-0.944061279296875,-0.0648040771484375,-0.2959442138671875
1761478788853914400,4.853914306640625,-0.90185546875,-0.0779571533203125,-0.330169677734375
1761478788863951000,4.863951171875,-0.8993072509765625,-0.084228515625,-0.3350372314453125
1761478788873988400,4.87398828125,-0.9365692138671875,-0.0796356201171875,-0.3217315673828125
1761478788884025300,4.884025390625,-0.9878387451171875,-0.055877685546875,-0.3074951171875
1761478788894061300,4.894061279296875,-1.0326690673828125,-0.027008056640625,-0.29510498046875
1761478788904098300,4.904098388671875,-1.0621490478515625,0.002166748046875,-0.2826385498046875
1761478788914135300,4.91413525390625,-1.06365966796875,0.01934814453125,-0.25958251953125
1761478788924172300,4.92417236328125,-1.0391845703125,0.022003173828125,-0.220489501953125
1761478788934208500,4.93420849609375,-0.997711181640625,0.038360595703125,-0.1431427001953125
1761478788944245200,4.944245361328125,-0.975860595703125,0.0684661865234375,-0.0873870849609375
1761478788954282200,4.9542822265625,-0.9688262939453125,0.036102294921875,-0.1175384521484375
1761478788964318200,4.964318115234375,-0.9321441650390625,-0.0205535888671875,-0.1786346435546875
1761478788974355200,4.974355224609375,-0.893402099609375,-0.0583648681640625,-0.269012451171875
1761478788984392400,4.984392333984375,-0.853118896484375,-0.1213531494140625,-0.376800537109375
1761478788994429400,4.994429443359375,-0.8433380126953125,-0.1483917236328125,-0.420928955078125
1761478789004465400,5.00446533203125,-0.8580474853515625,-0.09954833984375,-0.3918304443359375
1761478789014502400,5.01450244140625,-0.890838623046875,-0.0509796142578125,-0.3293609619140625
1761478789024539100,5.0245390625,-0.934539794921875,-0.028900146484375,-0.2503662109375
1761478789034575000,5.0345751953125,-0.9776763916015625,-0.0095977783203125,-0.1870880126953125
1761478789044612400,5.0446123046875,-1.0251617431640625,0.013214111328125,-0.161407470703125
1761478789054649300,5.0546494140625,-1.0587921142578125,0.0264434814453125,-0.1619720458984375
1761478789064686300,5.064686279296875,-1.0852813720703125,0.029815673828125,-0.1748199462890625
1761478789074722300,5.074722412109375,-1.09844970703125,0.03436279296875,-0.190277099609375
1761478789084759300,5.08475927734375,-1.0894775390625,0.0375823974609375,-0.2070159912109375
1761478789094796500,5.094796630859375,-1.0746612548828125,0.036285400390625,-0.2174072265625
1761478789104832500,5.10483251953125,-1.0561065673828125,0.0294036865234375,-0.2261199951171875
1761478789114869200,5.114869140625,-1.0320281982421875,0.025665283203125,-0.23419189453125
1761478789124906200,5.12490625,-1.008819580078125,0.0238800048828125,-0.247222900390625
1761478789134943200,5.134943115234375,-0.994659423828125,0.0266265869140625,-0.260223388671875
1761478789144979200,5.144979248046875,-0.9879608154296875,0.034637451171875,-0.262115478515625
1761478789155016400,5.155016357421875,-0.9845733642578125,0.0452117919921875,-0.246795654296875
1761478789165053400,5.165053466796875,-0.9903411865234375,0.05419921875,-0.2276611328125
1761478789175089400,5.17508935546875,-0.988861083984375,0.062957763671875,-0.2166900634765625
1761478789185126400,5.18512646484375,-0.9742279052734375,0.0686798095703125,-0.21563720703125
1761478789195163100,5.1951630859375,-0.95513916015625,0.0636138916015625,-0.2242889404296875
1761478789205200100,5.2052001953125,-0.9347991943359375,0.048980712890625,-0.2464447021484375
1761478789215236400,5.215236328125,-0.9256744384765625,0.03387451171875,-0.27398681640625
1761478789225273300,5.2252734375,-0.9254913330078125,0.0221710205078125,-0.3032989501953125
1761478789235310300,5.235310302734375,-0.9371490478515625,0.016510009765625,-0.3149871826171875
1761478789245346300,5.24534619140625,-0.9430084228515625,0.0093231201171875,-0.3144073486328125
1761478789255383300,5.25538330078125,-0.948455810546875,0.00994873046875,-0.322296142578125
1761478789265420300,5.265420166015625,-0.951202392578125,0.01416015625,-0.331207275390625
1761478789275457300,5.275457275390625,-0.942962646484375,0.015655517578125,-0.3405609130859375
1761478789285493200,5.2854931640625,-0.9495697021484375,0.016448974609375,-0.34173583984375
1761478789295530200,5.2955302734375,-0.972686767578125,0.0236663818359375,-0.33782958984375
1761478789305567200,5.305567138671875,-0.993865966796875,0.0381927490234375,-0.3306427001953125
1761478789315603200,5.315603271484375,-0.99139404296875,0.0176849365234375,-0.322723388671875
1761478789325640200,5.32564013671875,-0.971588134765625,-0.018035888671875,-0.3370208740234375
1761478789335678000,5.335677978515625,-0.942535400390625,-0.0299835205078125,-0.3595733642578125
1761478789345714700,5.345714599609375,-0.9085235595703125,-0.035675048828125,-0.3613433837890625
1761478789355751000,5.3557509765625,-0.8882293701171875,-0.0532073974609375,-0.34967041015625
1761478789365787600,5.36578759765625,-0.8771514892578125,-0.0677337646484375,-0.34881591796875
1761478789375824600,5.37582470703125,-0.872528076171875,-0.072021484375,-0.361572265625
1761478789385860600,5.385860595703125,-0.87677001953125,-0.077606201171875,-0.3746795654296875
1761478789395897900,5.39589794921875,-0.883148193359375,-0.0789947509765625,-0.3701629638671875
1761478789405934800,5.405934814453125,-0.898345947265625,-0.0661163330078125,-0.35052490234375
1761478789415971800,5.415971923828125,-0.927337646484375,-0.04376220703125,-0.3209991455078125
1761478789426007800,5.4260078125,-0.95880126953125,-0.029998779296875,-0.289031982421875
1761478789436044800,5.436044921875,-0.97857666015625,-0.027679443359375,-0.2672119140625
1761478789446081800,5.446081787109375,-0.9898834228515625,-0.0364837646484375,-0.2613372802734375
1761478789456117800,5.45611767578125,-0.9941558837890625,-0.0442352294921875,-0.2663116455078125
1761478789466154800,5.46615478515625,-0.9915618896484375,-0.0509033203125,-0.2736053466796875
1761478789476191700,5.476191650390625,-0.9888153076171875,-0.057586669921875,-0.27001953125
1761478789486227700,5.486227783203125,-0.985076904296875,-0.0675811767578125,-0.2628631591796875
1761478789496264700,5.4962646484375,-0.9933319091796875,-0.0749664306640625,-0.2635040283203125
1761478789506302000,5.506302001953125,-1.0049285888671875,-0.0797882080078125,-0.26513671875
1761478789516339000,5.5163388671875,-1.0003814697265625,-0.087890625,-0.2559051513671875
1761478789526375000,5.526375,-0.9886932373046875,-0.089752197265625,-0.245269775390625
1761478789536411600,5.53641162109375,-0.967041015625,-0.089874267578125,-0.231903076171875
1761478789546448600,5.54644873046875,-0.9510955810546875,-0.0942840576171875,-0.2117156982421875
1761478789556484600,5.556484619140625,-0.9479217529296875,-0.0958709716796875,-0.1927490234375
1761478789566521900,5.56652197265625,-0.9515228271484375,-0.0904388427734375,-0.1847991943359375
1761478789576558800,5.576558837890625,-0.96051025390625,-0.083770751953125,-0.1863861083984375
1761478789586595800,5.586595947265625,-0.983612060546875,-0.0751800537109375,-0.1966552734375
1761478789596631800,5.5966318359375,-0.999847412109375,-0.0697479248046875,-0.198516845703125
1761478789606668800,5.606668701171875,-0.9998626708984375,-0.06854248046875,-0.191497802734375
1761478789616705500,5.61670556640625,-0.9807281494140625,-0.07293701171875,-0.191375732421875
1761478789626741800,5.62674169921875,-0.9539337158203125,-0.09002685546875,-0.20880126953125
1761478789636778800,5.63677880859375,-0.9351806640625,-0.1049652099609375,-0.2350311279296875
1761478789646815700,5.646815673828125,-0.9297332763671875,-0.112884521484375,-0.2608642578125
1761478789656851700,5.656851806640625,-0.9417572021484375,-0.109039306640625,-0.280792236328125
1761478789666888700,5.666888671875,-0.9613037109375,-0.0975494384765625,-0.2841339111328125
1761478789676925700,5.67692578125,-0.970458984375,-0.09130859375,-0.2652435302734375
1761478789686963000,5.686962890625,-0.9697723388671875,-0.092681884765625,-0.242889404296875
1761478789696999000,5.6969990234375,-0.969879150390625,-0.0958251953125,-0.2428131103515625
1761478789707036000,5.707035888671875,-0.96881103515625,-0.10107421875,-0.2636871337890625
1761478789717072600,5.71707275390625,-0.970916748046875,-0.1118621826171875,-0.2915496826171875
1761478789727108600,5.727108642578125,-0.9940338134765625,-0.1160125732421875,-0.31744384765625
1761478789737145600,5.7371455078125,-1.019561767578125,-0.1126556396484375,-0.325164794921875
1761478789747182800,5.747182861328125,-1.03070068359375,-0.1117706298828125,-0.309356689453125
1761478789757218800,5.75721875,-1.027191162109375,-0.118377685546875,-0.28448486328125
1761478789767255800,5.767255859375,-1.028411865234375,-0.1303253173828125,-0.2610931396484375
1761478789777292800,5.777292724609375,-1.0388336181640625,-0.148590087890625,-0.260589599609375
1761478789787329800,5.787329833984375,-1.0492706298828125,-0.167572021484375,-0.2801361083984375
1761478789797365800,5.79736572265625,-1.0577392578125,-0.1729736328125,-0.31524658203125
1761478789807402800,5.80740283203125,-1.0554656982421875,-0.149017333984375,-0.33502197265625
1761478789817439700,5.817439697265625,-1.0540924072265625,-0.0972747802734375,-0.3212127685546875
1761478789827475700,5.827475830078125,-1.0475311279296875,-0.0460205078125,-0.272308349609375
1761478789837512700,5.8375126953125,-1.0426483154296875,-0.0170135498046875,-0.21685791015625
1761478789847549700,5.8475498046875,-1.051177978515625,0.009918212890625,-0.18780517578125
1761478789857585700,5.857585693359375,-1.06732177734375,0.037353515625,-0.177581787109375
1761478789867623000,5.867622802734375,-1.0822601318359375,0.0573272705078125,-0.194427490234375
1761478789877660000,5.877659912109375,-1.0908660888671875,0.0718841552734375,-0.2331085205078125
1761478789887696000,5.88769580078125,-1.075347900390625,0.0665435791015625,-0.272125244140625
1761478789897732600,5.897732666015625,-1.0355377197265625,0.04248046875,-0.30560302734375
1761478789907769600,5.90776953125,-0.97686767578125,-0.000213623046875,-0.3462677001953125
1761478789917806800,5.917806884765625,-0.926177978515625,-0.035980224609375,-0.381072998046875
1761478789927842800,5.9278427734375,-0.903350830078125,-0.069183349609375,-0.3817291259765625
1761478789937879800,5.9378798828125,-0.89764404296875,-0.0907440185546875,-0.3643646240234375
1761478789947916800,5.947916748046875,-0.90533447265625,-0.081298828125,-0.3541717529296875
1761478789957952800,5.957952880859375,-0.9289703369140625,-0.063629150390625,-0.344390869140625
1761478789967989800,5.96798974609375,-0.9569091796875,-0.051544189453125,-0.3217010498046875
1761478789978026800,5.97802685546875,-0.9845428466796875,-0.0324554443359375,-0.2881622314453125
1761478789988063000,5.98806298828125,-0.999237060546875,-0.001190185546875,-0.2479095458984375
1761478789998099700,5.998099609375,-0.998565673828125,0.0067596435546875,-0.2153778076171875
1761478790008136700,6.00813671875,-0.9918212890625,0.0135650634765625,-0.2019805908203125
1761478790018172700,6.018172607421875,-0.9774932861328125,0.02801513671875,-0.1915435791015625
1761478790028209700,6.028209716796875,-0.9736480712890625,0.0371246337890625,-0.1728668212890625
1761478790038247000,6.038246826171875,-0.9840240478515625,0.04248046875,-0.1554412841796875
1761478790048283000,6.048282958984375,-0.994384765625,0.04486083984375,-0.1407470703125
1761478790058320000,6.05831982421875,-0.993743896484375,0.038543701171875,-0.1326904296875
1761478790068356900,6.06835693359375,-0.99517822265625,0.02484130859375,-0.138214111328125
1761478790078393600,6.0783935546875,-0.99639892578125,0.012298583984375,-0.1546478271484375
1761478790088429600,6.0884296875,-0.9982147216796875,-0.005218505859375,-0.1896209716796875
1761478790098466800,6.098466796875,-0.9969482421875,-0.0175628662109375,-0.2428741455078125
1761478790108503800,6.10850390625,-0.993408203125,-0.0155029296875,-0.2925872802734375
1761478790118539800,6.118539794921875,-0.9900360107421875,-0.003936767578125,-0.3153228759765625
1761478790128576800,6.12857666015625,-0.9738311767578125,-0.0020904541015625,-0.3061370849609375
1761478790138613800,6.13861376953125,-0.966522216796875,0.0069580078125,-0.28192138671875
1761478790148649700,6.148649658203125,-0.96112060546875,0.0365447998046875,-0.2572479248046875
1761478790158687000,6.15868701171875,-0.9531097412109375,0.049163818359375,-0.2371826171875
1761478790168723700,6.1687236328125,-0.9507598876953125,0.0494384765625,-0.2364349365234375
1761478790178760000,6.178760009765625,-0.954010009765625,0.05255126953125,-0.2545013427734375
1761478790188796700,6.188796630859375,-0.9563140869140625,0.0512237548828125,-0.2716217041015625
1761478790198833700,6.198833740234375,-0.94635009765625,0.04437255859375,-0.288116455078125
1761478790208869600,6.20886962890625,-0.927978515625,0.0382537841796875,-0.2974700927734375
1761478790218907000,6.218906982421875,-0.9034881591796875,0.0341033935546875,-0.288055419921875
1761478790228944000,6.22894384765625,-0.884857177734375,0.034942626953125,-0.255706787109375
1761478790238979800,6.238979736328125,-0.8846282958984375,0.032501220703125,-0.21435546875
1761478790249016800,6.249016845703125,-0.90155029296875,0.024383544921875,-0.189483642578125
1761478790259053800,6.2590537109375,-0.925811767578125,0.023101806640625,-0.181976318359375
1761478790269089800,6.26908984375,-0.94927978515625,0.0258636474609375,-0.1784820556640625
1761478790279126800,6.279126708984375,-0.9709320068359375,0.024017333984375,-0.1743927001953125
1761478790289163800,6.289163818359375,-0.9987640380859375,0.0188446044921875,-0.1703643798828125
1761478790299200800,6.29920068359375,-1.0261993408203125,0.0127105712890625,-0.179046630859375
1761478790309236700,6.30923681640625,-1.0455169677734375,0.0087738037109375,-0.1895904541015625
1761478790319273700,6.319273681640625,-1.0446624755859375,-0.0059967041015625,-0.1919403076171875
1761478790329310700,6.329310791015625,-1.02777099609375,-0.0267333984375,-0.2024383544921875
1761478790339347200,6.33934716796875,-1.002777099609375,-0.0283050537109375,-0.216949462890625
1761478790349384200,6.34938427734375,-0.9834747314453125,-0.01324462890625,-0.2239532470703125
1761478790359421200,6.359421142578125,-0.97235107421875,-0.002288818359375,-0.208953857421875
1761478790369457200,6.36945703125,-0.973846435546875,-0.0008087158203125,-0.1861114501953125
1761478790379494100,6.379494140625,-0.9983978271484375,0.006622314453125,-0.174041748046875
1761478790389531100,6.38953125,-1.0288543701171875,0.0119476318359375,-0.16070556640625
1761478790399567000,6.399567138671875,-1.04949951171875,0.0075225830078125,-0.1434783935546875
1761478790409604000,6.40960400390625,-1.0643310546875,-0.0057525634765625,-0.143218994140625
1761478790419641300,6.419641357421875,-1.0662841796875,-0.01263427734375,-0.1716766357421875
1761478790429677300,6.42967724609375,-1.0471038818359375,-0.014404296875,-0.2037353515625
1761478790439714300,6.43971435546875,-1.0152435302734375,-0.0228271484375,-0.213897705078125
1761478790449751000,6.4497509765625,-0.981536865234375,-0.03271484375,-0.21142578125
1761478790459787000,6.459787109375,-0.94775390625,-0.0329742431640625,-0.205596923828125
1761478790469824000,6.469823974609375,-0.9311065673828125,-0.030853271484375,-0.2000732421875
1761478790479861200,6.479861328125,-0.936309814453125,-0.0294647216796875,-0.1973876953125
1761478790489897200,6.489897216796875,-0.9545135498046875,-0.031280517578125,-0.1977996826171875
1761478790499934200,6.499934326171875,-0.9735260009765625,-0.0305328369140625,-0.2054595947265625
1761478790509971200,6.50997119140625,-0.9796295166015625,-0.0313262939453125,-0.210235595703125
1761478790520007200,6.520007080078125,-0.982421875,-0.03387451171875,-0.2109375
1761478790530044200,6.530044189453125,-0.98040771484375,-0.0362091064453125,-0.210418701171875
1761478790540081200,6.5400810546875,-0.9698944091796875,-0.039093017578125,-0.2024688720703125
1761478790550117400,6.550117431640625,-0.9649810791015625,-0.0404052734375,-0.2030792236328125
1761478790560154000,6.560154052734375,-0.966522216796875,-0.0442047119140625,-0.2138671875
1761478790570191000,6.570191162109375,-0.9781951904296875,-0.0479736328125,-0.226226806640625
1761478790580227000,6.58022705078125,-0.989471435546875,-0.0525054931640625,-0.2347869873046875
1761478790590264000,6.59026416015625,-1.0041351318359375,-0.05145263671875,-0.237396240234375
1761478790600301000,6.600301025390625,-1.0151824951171875,-0.0430145263671875,-0.2308807373046875
1761478790610337300,6.610337158203125,-1.0115814208984375,-0.0439910888671875,-0.2186431884765625
1761478790620374300,6.620374267578125,-1.004150390625,-0.0509033203125,-0.2147216796875
1761478790630411300,6.630411376953125,-0.9971771240234375,-0.0487823486328125,-0.2140655517578125
1761478790640447200,6.640447265625,-0.99407958984375,-0.042877197265625,-0.21490478515625
1761478790650484000,6.65048388671875,-0.9939117431640625,-0.040863037109375,-0.2148895263671875
1761478790660521000,6.66052099609375,-1.002197265625,-0.0431671142578125,-0.22174072265625
1761478790670557200,6.67055712890625,-1.013214111328125,-0.0446319580078125,-0.23626708984375
1761478790680594200,6.68059423828125,-1.0210723876953125,-0.0483551025390625,-0.24505615234375
1761478790690631200,6.690631103515625,-1.01904296875,-0.0539703369140625,-0.24493408203125
1761478790700667100,6.700667236328125,-1.0143890380859375,-0.0556182861328125,-0.240875244140625
1761478790710704000,6.7107041015625,-1.00537109375,-0.0536041259765625,-0.231658935546875
1761478790720741000,6.7207412109375,-1.0029144287109375,-0.0528717041015625,-0.217376708984375
1761478790730777000,6.730777099609375,-0.999481201171875,-0.0457763671875,-0.19970703125
1761478790740814300,6.740814453125,-0.99078369140625,-0.0396575927734375,-0.1797637939453125
1761478790750851000,6.75085107421875,-0.9779205322265625,-0.0440826416015625,-0.1651458740234375
1761478790760887000,6.760886962890625,-0.9683074951171875,-0.052520751953125,-0.1644134521484375
1761478790770924000,6.770924072265625,-0.9712677001953125,-0.053253173828125,-0.17254638671875
1761478790780961000,6.7809609375,-0.985076904296875,-0.0516815185546875,-0.179046630859375
1761478790790997000,6.7909970703125,-1.00042724609375,-0.0526275634765625,-0.187347412109375
1761478790801034200,6.8010341796875,-1.0074005126953125,-0.0526123046875,-0.1974029541015625
1761478790811071200,6.8110712890625,-1.0104217529296875,-0.0590972900390625,-0.2084197998046875
1761478790821107200,6.821107177734375,-1.009674072265625,-0.066680908203125,-0.2152252197265625
1761478790831144200,6.831144287109375,-1.00823974609375,-0.0687408447265625,-0.2253875732421875
1761478790841181000,6.841180908203125,-1.009368896484375,-0.061370849609375,-0.23516845703125
1761478790851217200,6.851217041015625,-1.01617431640625,-0.0562744140625,-0.2371063232421875
1761478790861254100,6.861254150390625,-1.0417327880859375,-0.059814453125,-0.237060546875
1761478790871291100,6.871291015625,-1.07183837890625,-0.06573486328125,-0.23590087890625
1761478790881327000,6.8813271484375,-1.0837249755859375,-0.0662078857421875,-0.25048828125
1761478790891364000,6.891364013671875,-1.072601318359375,-0.0688629150390625,-0.279541015625
1761478790901401000,6.901401123046875,-1.04351806640625,-0.0777740478515625,-0.299652099609375
1761478790911437000,6.91143701171875,-1.0123748779296875,-0.0736846923828125,-0.296142578125
1761478790921474300,6.921474365234375,-0.9895477294921875,-0.0571746826171875,-0.2580718994140625
1761478790931511000,6.931510986328125,-0.9802398681640625,-0.041900634765625,-0.1872100830078125
1761478790941547300,6.94154736328125,-0.9893341064453125,-0.0234527587890625,-0.1260986328125
1761478790951584000,6.951583984375,-1.015838623046875,-0.00726318359375,-0.1021270751953125
1761478790961620000,6.961619873046875,-1.05029296875,0.0007781982421875,-0.1206207275390625
1761478790971657000,6.971656982421875,-1.08087158203125,0.0050201416015625,-0.162689208984375
1761478790981694200,6.981694091796875,-1.0963134765625,0.0063934326171875,-0.20672607421875
1761478790991730200,6.991730224609375,-1.0913543701171875,0.0069427490234375,-0.2374267578125
1761478791001767200,7.00176708984375,-1.0599517822265625,0.0041351318359375,-0.2504730224609375
1761478791011804200,7.01180419921875,-1.0136566162109375,-0.0020599365234375,-0.2600555419921875
1761478791021840100,7.021840087890625,-0.960601806640625,-0.005035400390625,-0.2736358642578125
1761478791031877000,7.031877197265625,-0.9225921630859375,-0.01593017578125,-0.29180908203125
1761478791041914000,7.0419140625,-0.9145050048828125,-0.018035888671875,-0.3096771240234375
1761478791051950300,7.051950439453125,-0.92462158203125,-0.0128326416015625,-0.316253662109375
1761478791061987000,7.061987060546875,-0.9395294189453125,-0.0098419189453125,-0.3158416748046875
1761478791072024000,7.072024169921875,-0.959136962890625,-0.0036773681640625,-0.3121337890625
1761478791082060000,7.08206005859375,-0.9771728515625,-0.0006256103515625,-0.3019561767578125
1761478791092097000,7.092096923828125,-0.9875030517578125,0.0004119873046875,-0.287994384765625
1761478791102134300,7.10213427734375,-0.9869232177734375,-0.0001373291015625,-0.2756500244140625
1761478791112170200,7.112170166015625,-0.9756317138671875,-0.0057373046875,-0.2616729736328125
1761478791122207200,7.122207275390625,-0.95526123046875,-0.0138397216796875,-0.2450103759765625
1761478791132244200,7.132244140625,-0.9351959228515625,-0.020660400390625,-0.232452392578125
1761478791142280200,7.1422802734375,-0.9212646484375,-0.03466796875,-0.227935791015625
1761478791152317000,7.15231689453125,-0.91595458984375,-0.0473785400390625,-0.2303924560546875
1761478791162353200,7.162353271484375,-0.926605224609375,-0.051666259765625,-0.2364959716796875
1761478791172390100,7.17239013671875,-0.9469451904296875,-0.0503387451171875,-0.239532470703125
1761478791182427100,7.18242724609375,-0.9722442626953125,-0.04254150390625,-0.23382568359375
1761478791192463000,7.192463134765625,-1.0052642822265625,-0.0270233154296875,-0.2277069091796875
1761478791202500000,7.2025,-1.0288238525390625,-0.0129852294921875,-0.2227783203125
1761478791212537000,7.212537109375,-1.0421905517578125,0.00115966796875,-0.219879150390625
1761478791222573000,7.222572998046875,-1.048736572265625,0.013671875,-0.2187347412109375
1761478791232610300,7.2326103515625,-1.039306640625,0.021240234375,-0.21136474609375
1761478791242647300,7.242647216796875,-1.0162811279296875,0.0261993408203125,-0.2064208984375
1761478791252683300,7.252683349609375,-0.9913482666015625,0.03375244140625,-0.2068634033203125
1761478791262720000,7.262719970703125,-0.9638214111328125,0.0354156494140625,-0.2086944580078125
1761478791272757000,7.272757080078125,-0.947265625,0.027923583984375,-0.22064208984375
1761478791282793000,7.28279296875,-0.942962646484375,0.0238494873046875,-0.24945068359375
1761478791292830200,7.292830322265625,-0.941162109375,0.029205322265625,-0.2789764404296875
1761478791302867200,7.3028671875,-0.9357757568359375,0.03863525390625,-0.3003387451171875
1761478791312903200,7.312903076171875,-0.9296722412109375,0.0439453125,-0.306976318359375
1761478791322940200,7.322940185546875,-0.930084228515625,0.045989990234375,-0.3082733154296875
1761478791332976000,7.33297607421875,-0.9397430419921875,0.050201416015625,-0.3123016357421875
1761478791343012600,7.3430126953125,-0.9603729248046875,0.05218505859375,-0.32135009765625
1761478791353049900,7.3530498046875,-0.97357177734375,0.0532684326171875,-0.331787109375
1761478791363085800,7.3630859375,-0.9817047119140625,0.0503082275390625,-0.3419952392578125
1761478791373122800,7.373122802734375,-0.98175048828125,0.0478668212890625,-0.3494873046875
1761478791383159600,7.38315966796875,-0.9761810302734375,0.046142578125,-0.3432159423828125
1761478791393195500,7.393195556640625,-0.957000732421875,0.035308837890625,-0.3291168212890625
1761478791403232500,7.403232421875,-0.9245147705078125,0.0183563232421875,-0.322265625
1761478791413269800,7.413269775390625,-0.9016265869140625,-0.0078582763671875,-0.3348541259765625
1761478791423305700,7.4233056640625,-0.890716552734375,-0.03533935546875,-0.360382080078125
1761478791433342700,7.4333427734375,-0.891998291015625,-0.0548858642578125,-0.3825531005859375
1761478791443378700,7.443378662109375,-0.90972900390625,-0.0516815185546875,-0.397796630859375
1761478791453415700,7.453415771484375,-0.9368438720703125,-0.0356597900390625,-0.398345947265625
1761478791463452700,7.46345263671875,-0.961944580078125,-0.0244903564453125,-0.3729400634765625
1761478791473488600,7.473488525390625,-0.9884490966796875,-0.0189361572265625,-0.33544921875
1761478791483525600,7.483525634765625,-1.014251708984375,-0.0033721923828125,-0.30517578125
1761478791493562600,7.493562744140625,-1.04052734375,0.00653076171875,-0.2712860107421875
1761478791503598600,7.5035986328125,-1.0634918212890625,0.0039215087890625,-0.24383544921875
1761478791513635600,7.513635498046875,-1.0638885498046875,0,-0.2402191162109375
1761478791523672600,7.523672607421875,-1.0527801513671875,-0.0087127685546875,-0.2556304931640625
1761478791533708500,7.53370849609375,-1.0314178466796875,-0.0201416015625,-0.2738800048828125
1761478791543745800,7.543745849609375,-0.998565673828125,-0.028900146484375,-0.2956695556640625
1761478791553782800,7.55378271484375,-0.97503662109375,-0.03076171875,-0.313629150390625
1761478791563818800,7.56381884765625,-0.9681549072265625,-0.0302276611328125,-0.3121490478515625
1761478791573855700,7.573855712890625,-0.967041015625,-0.0296783447265625,-0.2955169677734375
1761478791583891700,7.5838916015625,-0.9718170166015625,-0.0213470458984375,-0.2755279541015625
1761478791593928400,7.593928466796875,-0.9948883056640625,-0.0091705322265625,-0.2574462890625
1761478791603965700,7.603965576171875,-1.006561279296875,-0.003692626953125,-0.2448272705078125
1761478791614001700,7.614001708984375,-0.991546630859375,-0.005523681640625,-0.246307373046875
1761478791624038700,7.62403857421875,-0.9596710205078125,-0.0155792236328125,-0.2597503662109375
1761478791634075600,7.63407568359375,-0.9296417236328125,-0.0330963134765625,-0.27166748046875
1761478791644111600,7.644111572265625,-0.9028472900390625,-0.046234130859375,-0.281158447265625
1761478791654148600,7.654148681640625,-0.8846893310546875,-0.0476226806640625,-0.281280517578125
1761478791664185900,7.664185791015625,-0.8813629150390625,-0.04827880859375,-0.2651519775390625
1761478791674221800,7.674221923828125,-0.89642333984375,-0.053802490234375,-0.249298095703125
1761478791684258800,7.6842587890625,-0.917083740234375,-0.0565032958984375,-0.24517822265625
1761478791694294800,7.694294677734375,-0.94012451171875,-0.0603485107421875,-0.2421875
1761478791704331500,7.70433154296875,-0.9544830322265625,-0.0665130615234375,-0.24249267578125
1761478791714368500,7.714368408203125,-0.9627227783203125,-0.0690460205078125,-0.2514801025390625
1761478791724404500,7.724404541015625,-0.9643402099609375,-0.0687408447265625,-0.2488555908203125
1761478791734441700,7.734441650390625,-0.9667816162109375,-0.06280517578125,-0.23529052734375
1761478791744478700,7.744478759765625,-0.970428466796875,-0.05841064453125,-0.217498779296875
1761478791754514700,7.7545146484375,-0.9761810302734375,-0.0608673095703125,-0.199493408203125
1761478791764551700,7.7645517578125,-0.9828338623046875,-0.0569305419921875,-0.188751220703125
1761478791774587600,7.774587646484375,-0.9854583740234375,-0.05328369140625,-0.189697265625
1761478791784624600,7.784624755859375,-0.98699951171875,-0.060546875,-0.2009735107421875
1761478791794662000,7.794661865234375,-0.98992919921875,-0.0728302001953125,-0.22955322265625
1761478791804697900,7.80469775390625,-0.9916534423828125,-0.07965087890625,-0.26275634765625
1761478791814734600,7.814734619140625,-0.9898529052734375,-0.079864501953125,-0.2880096435546875
1761478791824771600,7.824771484375,-0.9736175537109375,-0.08465576171875,-0.2965850830078125
1761478791834807600,7.8348076171875,-0.94830322265625,-0.0809478759765625,-0.2870635986328125
1761478791844844500,7.844844482421875,-0.9288482666015625,-0.0706939697265625,-0.268096923828125
1761478791854880500,7.854880615234375,-0.9224700927734375,-0.06427001953125,-0.2516021728515625
1761478791864917800,7.864917724609375,-0.9345245361328125,-0.061126708984375,-0.243988037109375
1761478791874954800,7.874954833984375,-0.9494476318359375,-0.059417724609375,-0.25054931640625
1761478791884990700,7.88499072265625,-0.96221923828125,-0.061981201171875,-0.2714996337890625
1761478791895027700,7.89502783203125,-0.9660491943359375,-0.0770111083984375,-0.2969512939453125
1761478791905063700,7.905063720703125,-0.9762115478515625,-0.0902252197265625,-0.308319091796875
1761478791915100700,7.9151005859375,-0.98382568359375,-0.1031646728515625,-0.3193817138671875
1761478791925137700,7.9251376953125,-0.9866790771484375,-0.1243438720703125,-0.32958984375
1761478791935173600,7.935173583984375,-0.989593505859375,-0.143218994140625,-0.3435516357421875
1761478791945210600,7.945210693359375,-0.99334716796875,-0.1544036865234375,-0.360076904296875
1761478791955247600,7.95524755859375,-0.99237060546875,-0.1611480712890625,-0.3797149658203125
1761478791965283600,7.96528369140625,-0.99493408203125,-0.1597442626953125,-0.372467041015625
1761478791975320600,7.975320556640625,-0.9848175048828125,-0.13665771484375,-0.331207275390625
1761478791985356500,7.9853564453125,-0.9659271240234375,-0.0947113037109375,-0.2672119140625
1761478791995393800,7.995393798828125,-0.967071533203125,-0.081695556640625,-0.202850341796875
1761478792005430800,8.0054306640625,-0.9964141845703125,-0.076873779296875,-0.1781463623046875
1761478792015466800,8.015466796875,-1.035186767578125,-0.0410919189453125,-0.1941375732421875
1761478792025503700,8.025503662109376,-1.075286865234375,0.0070037841796875,-0.2097625732421875
1761478792035540500,8.03554052734375,-1.108673095703125,0.04779052734375,-0.2050323486328125
1761478792045576400,8.045576416015624,-1.1414337158203125,0.08642578125,-0.1974945068359375
1761478792055613700,8.05561376953125,-1.1598663330078125,0.1158905029296875,-0.1884307861328125
1761478792065649700,8.065649658203125,-1.17022705078125,0.1200408935546875,-0.192138671875
1761478792075686700,8.075686767578125,-1.1694488525390625,0.113861083984375,-0.2248077392578125
1761478792085723600,8.0857236328125,-1.161376953125,0.1057281494140625,-0.2534027099609375
1761478792095759600,8.095759521484375,-1.142913818359375,0.089263916015625,-0.2732086181640625
1761478792105796600,8.105796630859375,-1.101470947265625,0.06878662109375,-0.282806396484375
1761478792115833900,8.115833740234375,-1.0597076416015625,0.05322265625,-0.2843780517578125
1761478792125869800,8.125869873046875,-1.020263671875,0.035308837890625,-0.2960968017578125
1761478792135906800,8.13590673828125,-0.9832305908203125,0.012969970703125,-0.314605712890625
1761478792145942800,8.14594287109375,-0.9554595947265625,-0.0012359619140625,-0.324615478515625
1761478792155979500,8.1559794921875,-0.92156982421875,-0.0131988525390625,-0.3202972412109375
1761478792166016500,8.1660166015625,-0.8874969482421875,-0.012115478515625,-0.301544189453125
1761478792176052500,8.176052490234374,-0.856903076171875,-0.0032806396484375,-0.264739990234375
1761478792186089700,8.18608984375,-0.837066650390625,0.0180816650390625,-0.22454833984375
1761478792196125700,8.196125732421875,-0.8468780517578125,0.0529937744140625,-0.189300537109375
1761478792206162700,8.20616259765625,-0.891265869140625,0.0773468017578125,-0.1641845703125
1761478792216199700,8.21619970703125,-0.935394287109375,0.0956268310546875,-0.1385955810546875
1761478792226235600,8.226235595703125,-0.9629974365234375,0.10723876953125,-0.11639404296875
1761478792236272600,8.236272705078125,-0.9490203857421875,0.1480712890625,-0.1010284423828125
1761478792246309600,8.2463095703125,-0.992095947265625,0.02569580078125,-0.0598602294921875
1761478792256345900,8.256345947265626,-0.98895263671875,0.004180908203125,-0.1031646728515625
1761478792266382600,8.266382568359376,-1.013092041015625,0.0554656982421875,-0.2216949462890625
1761478792276418600,8.27641845703125,-1.0209503173828125,0.0519866943359375,-0.262939453125
1761478792286455600,8.28645556640625,-0.9944610595703125,0.0433197021484375,-0.266937255859375
1761478792296492500,8.296492431640624,-0.9747467041015625,0.051727294921875,-0.22998046875
