time,seconds_elapsed,z,y,x
1761478784081422300,0.08142236328125,0.022335132583975792,-0.014189322479069233,0.08324402570724487
1761478784091459300,0.091459228515625,0.025013474747538567,0.0170343779027462,0.120508573949337
1761478784101496300,0.101496337890625,0.021076522767543793,0.0426822155714035,0.12620054185390472
1761478784111533300,0.111533203125,0.019836554303765297,0.05366615951061249,0.10639861226081848
1761478784121570300,0.1215703125,0.021827800199389458,0.04213733226060867,0.060698501765728
1761478784131607300,0.131607177734375,0.02623240277171135,0.01637125015258789,0.006343649700284004
1761478784141643300,0.141643310546875,0.020132964476943016,0.0038104509003460407,-0.041975945234298706
1761478784151680300,0.15168017578125,0.01178981363773346,0.004222175572067499,-0.0659148320555687
1761478784161717500,0.161717529296875,0.0032349417451769114,0.002108957152813673,-0.09179729968309402
1761478784171754200,0.171754150390625,-0.009344233199954033,-0.025349032133817673,-0.12343671917915344
1761478784181791200,0.181791259765625,-0.019210979342460632,-0.05170394107699394,-0.15612594783306122
1761478784191828200,0.191828125,-0.031496405601501465,-0.00660650385543704,-0.1250079870223999
1761478784201864200,0.2018642578125,-0.04814249649643898,0.03534254431724548,-0.0741645097732544
1761478784211901400,0.2119013671875,-0.06338723003864288,0.046781089156866074,-0.04160017520189285
1761478784221938400,0.2219384765625,-0.07281641662120819,0.051238153129816055,-0.022473882883787155
1761478784231975400,0.231975341796875,-0.07595867663621902,0.03395184129476547,-0.01992630399763584
1761478784242012200,0.24201220703125,-0.06821926683187485,0.012149606831371784,-0.02708328329026699
1761478784252049200,0.252049072265625,-0.054730091243982315,-0.009185775183141232,-0.04610011726617813
1761478784262085000,0.262085205078125,-0.04325665906071663,-0.03491244465112686,-0.060691043734550476
1761478784272122400,0.272122314453125,-0.0359358973801136,-0.06227748841047287,-0.07725830376148224
1761478784282159400,0.282159423828125,-0.0391780287027359,-0.06768876314163208,-0.0794580727815628
1761478784292196400,0.2921962890625,-0.05128662288188934,-0.05619962140917778,-0.06784509122371674
1761478784302233300,0.3022333984375,-0.05380863696336746,-0.0498780757188797,-0.05570773780345917
1761478784312270300,0.312270263671875,-0.04469050467014313,-0.053046707063913345,-0.038846731185913086
1761478784322306300,0.322306396484375,-0.0432145819067955,-0.030975759029388428,-0.0018005631864070892
1761478784332343600,0.332343505859375,-0.05289996787905693,0.004097007215023041,0.03916710987687111
1761478784342380500,0.342380615234375,-0.0565575510263443,0.011268633417785168,0.05832908675074577
1761478784352417500,0.35241748046875,-0.05697353556752205,0.010129599831998348,0.05528802424669266
1761478784362454500,0.36245458984375,-0.05636926740407944,-0.00577852688729763,0.03945739567279816
1761478784372491500,0.372491455078125,-0.054550327360630035,-0.029467877000570297,0.014932077378034592
1761478784382527500,0.382527587890625,-0.04909324273467064,-0.04392697662115097,-0.01041349209845066
1761478784392564500,0.392564453125,-0.0474010705947876,-0.05806703120470047,-0.0305778831243515
1761478784402601500,0.4026015625,-0.04440261796116829,-0.06444183737039566,-0.04540662840008736
1761478784412638700,0.412638671875,-0.041600439697504044,-0.06133526191115379,-0.05182431638240814
1761478784422675700,0.42267578125,-0.047235157340765,-0.0576595664024353,-0.060017798095941544
1761478784432712400,0.43271240234375,-0.058338407427072525,-0.0490354523062706,-0.06654280424118042
1761478784442748700,0.442748779296875,-0.06560856848955154,-0.026804182678461075,-0.0644088163971901
1761478784452785400,0.452785400390625,-0.06792046129703522,0.019457321614027023,-0.04476960003376007
1761478784462822700,0.46282275390625,-0.05038674175739288,0.046605318784713745,-0.022720757871866226
1761478784472859600,0.472859619140625,-0.03280108794569969,0.0458601675927639,-0.019272763282060623
1761478784482896600,0.482896728515625,-0.02315591834485531,0.03271879628300667,-0.027337348088622093
1761478784492933600,0.49293359375,-0.012050004675984383,0.020926320925354958,-0.03476729989051819
1761478784502969600,0.502969482421875,-0.010298177599906921,0.011170895770192146,-0.03635001927614212
1761478784513006300,0.51300634765625,-0.01721520535647869,0.002936934120953083,-0.03587011620402336
1761478784523043600,0.523043701171875,-0.018221881240606308,-0.005800630897283554,-0.04349607974290848
1761478784533080600,0.53308056640625,-0.025356754660606384,-0.003171292133629322,-0.04092293232679367
1761478784543117600,0.54311767578125,-0.02418123558163643,-0.008185758255422115,-0.048702556639909744
1761478784553154600,0.553154541015625,-0.015845542773604393,-0.017487380653619766,-0.0570952445268631
1761478784563190500,0.5631904296875,-0.007643005810678005,-0.021190771833062172,-0.05958716198801994
1761478784573227500,0.5732275390625,0.006187854800373316,-0.02708434872329235,-0.05116092041134834
1761478784583264500,0.583264404296875,0.01894386298954487,-0.02468270994722843,-0.02737063728272915
1761478784593301500,0.593301513671875,0.04282176494598389,-0.008286425843834877,0.00487145408987999
1761478784603338500,0.60333837890625,0.06781846284866333,0.011683554388582706,0.026563700288534164
1761478784613375700,0.613375732421875,0.09478776156902313,0.02960050292313099,0.036313798278570175
1761478784623411700,0.62341162109375,0.09914682060480118,0.03449113294482231,0.0334615521132946
1761478784633448700,0.63344873046875,0.0823902115225792,0.028554413467645645,0.01264255866408348
1761478784643485400,0.6434853515625,0.049258891493082047,0.008672850206494331,-0.015336612239480019
1761478784653522400,0.6535224609375,0.04006033390760422,-0.014417288824915886,-0.030809311196208
1761478784663559700,0.6635595703125,0.05247678980231285,-0.01954813487827778,-0.033074330538511276
1761478784673596700,0.6735966796875,0.08799563348293304,-0.011090467683970928,-0.025798840448260307
1761478784683632600,0.683632568359375,0.12299463152885437,0.013435115106403828,-0.02160276286303997
1761478784693669600,0.693669677734375,0.13116255402565002,0.04668547958135605,-0.02899942733347416
1761478784703706600,0.70370654296875,0.12705568969249725,0.05501185357570648,-0.050094325095415115
1761478784713743400,0.713743408203125,0.11039920896291733,0.03389884531497955,-0.06954845041036606
1761478784723780600,0.723780517578125,0.08765022456645966,-0.014533136039972305,-0.06601976603269577
1761478784733816600,0.733816650390625,0.0782410055398941,-0.04926155507564545,-0.04040068760514259
1761478784743853600,0.743853515625,0.08619879931211472,-0.05433247983455658,0.009049953892827034
1761478784753890600,0.753890625,0.09819793701171875,-0.05847875773906708,0.06178826466202736
1761478784763927600,0.763927490234375,0.11033555865287781,-0.07805192470550537,0.10457168519496918
1761478784773964500,0.773964599609375,0.12902136147022247,-0.09790898859500885,0.14465013146400452
1761478784784001500,0.78400146484375,0.13719646632671356,-0.09424261003732681,0.171384796500206
1761478784794038500,0.79403857421875,0.13298308849334717,-0.08555164933204651,0.17203088104724884
1761478784804074500,0.804074462890625,0.1138160452246666,-0.07322467863559723,0.13954298198223114
1761478784814111500,0.814111572265625,0.08160218596458435,-0.06636810302734375,0.08279048651456833
1761478784824148700,0.824148681640625,0.04795287922024727,-0.06429776549339294,0.0019678096286952496
1761478784834185700,0.834185791015625,-0.0028881982434540987,-0.06245698779821396,-0.07980934530496597
1761478784844222500,0.844222412109375,-0.07609476894140244,-0.05048447847366333,-0.15891800820827484
1761478784854258400,0.854258544921875,-0.14999109506607056,-0.04139244556427002,-0.20320798456668854
1761478784864295400,0.86429541015625,-0.20844349265098572,-0.03356514871120453,-0.23596033453941345
1761478784874332700,0.874332763671875,-0.24630485475063324,-0.025462748482823372,-0.2411510944366455
1761478784884369700,0.88436962890625,-0.2531270682811737,0.005987851414829493,-0.20079222321510315
1761478784894406700,0.89440673828125,-0.23444606363773346,0.03954527899622917,-0.12344656884670258
1761478784904443400,0.904443359375,-0.19513700902462006,0.04954038932919502,-0.04831346869468689
1761478784914479600,0.914479736328125,-0.1580977588891983,0.0738915354013443,-0.0012207929976284504
1761478784924516600,0.9245166015625,-0.12006542086601257,0.11026179045438766,0.014960041269659996
1761478784934553600,0.9345537109375,-0.0834197923541069,0.16264723241329193,-0.020679978653788567
1761478784944590600,0.944590576171875,-0.052995309233665466,0.198094442486763,-0.06588287651538849
1761478784954627600,0.954627685546875,-0.027097132056951523,0.21077056229114532,-0.10744363814592361
1761478784964664600,0.96466455078125,0.008363923989236355,0.22767524421215057,-0.13438551127910614
1761478784974700500,0.974700439453125,0.04626762866973877,0.2220652848482132,-0.14085911214351654
1761478784984737500,0.984737548828125,0.07884208112955093,0.2240176498889923,-0.1367940604686737
1761478784994774500,0.9947744140625,0.09547911584377289,0.23620693385601044,-0.13617940247058868
1761478785004811500,1.0048115234375,0.0960192084312439,0.23377147316932678,-0.12442528456449509
1761478785014848500,1.0148486328125,0.06889970600605011,0.24027492105960846,-0.09467218071222305
1761478785024885800,1.0248857421875,0.040778856724500656,0.23532649874687195,-0.06856148689985275
1761478785034921700,1.034921630859375,0.03770929574966431,0.22099363803863525,-0.04976063221693039
1761478785044958500,1.04495849609375,0.04760906472802162,0.17816121876239777,-0.04066753387451172
1761478785054995500,1.054995361328125,0.056408945471048355,0.12447401881217957,-0.03224954754114151
1761478785065032400,1.065032470703125,0.04957367852330208,0.08385202288627625,-0.03007800690829754
1761478785075069700,1.075069580078125,0.00720571493729949,0.06555770337581635,-0.029699837788939476
1761478785085106700,1.085106689453125,-0.058822304010391235,0.06425701826810837,-0.04766978323459625
1761478785095142700,1.095142578125,-0.12302526086568832,0.07589955627918243,-0.08216730505228043
1761478785105179600,1.1051796875,-0.1649351567029953,0.08248449116945267,-0.12703119218349457
1761478785115216400,1.11521630859375,-0.17679953575134277,0.08386959880590439,-0.16465073823928833
1761478785125253600,1.125253662109375,-0.1662329137325287,0.07601699978113174,-0.1899305284023285
1761478785135290600,1.13529052734375,-0.15766818821430206,0.0627608522772789,-0.19280007481575012
1761478785145326600,1.14532666015625,-0.16688166558742523,0.04905915632843971,-0.18266701698303223
1761478785155363600,1.155363525390625,-0.17935298383235931,0.0419413261115551,-0.16600601375102997
1761478785165400600,1.165400634765625,-0.19214573502540588,0.040943972766399384,-0.14483201503753662
1761478785175437600,1.1754375,-0.1989799439907074,0.03690102696418762,-0.12612783908843994
1761478785185474600,1.185474609375,-0.19120511412620544,0.03666107356548309,-0.09346230328083038
1761478785195511600,1.195511474609375,-0.15989938378334045,0.03465118631720543,-0.05373460054397583
1761478785205547500,1.205547607421875,-0.10391467809677124,0.02918105386197567,-0.023813188076019287
1761478785215584500,1.21558447265625,-0.04601942375302315,0.03123648278415203,0.006160157732665539
1761478785225621500,1.22562158203125,0.002651443239301443,0.045164283365011215,0.027215907350182533
1761478785235658800,1.23565869140625,0.04206382855772972,0.05287999287247658,0.027354925870895386
1761478785245695500,1.245695556640625,0.0697798803448677,0.05804865434765816,-0.0004964132094755769
1761478785255732500,1.255732421875,0.09304045885801315,0.049743056297302246,-0.04297196865081787
1761478785265768400,1.2657685546875,0.10349203646183014,0.028384769335389137,-0.08413085341453552
1761478785275805400,1.275805419921875,0.09276162832975388,0.014150972478091717,-0.11420300602912903
1761478785285842700,1.2858427734375,0.05830405279994011,0.02111407369375229,-0.11905048787593842
1761478785295879700,1.295879638671875,0.0227402001619339,0.044490501284599304,-0.0990927591919899
1761478785305916700,1.305916748046875,-0.0051992894150316715,0.0685388445854187,-0.0579538457095623
1761478785315953400,1.315953369140625,-0.0252238642424345,0.09477683901786804,-0.015811188146471977
1761478785325989400,1.3259892578125,-0.038606248795986176,0.08940764516592026,0.001791242160834372
1761478785336027100,1.336027099609375,-0.03695455566048622,0.0630308985710144,0.003710049670189619
1761478785346064100,1.346064208984375,-0.04036446660757065,0.031259652227163315,0.008112254552543163
1761478785356101000,1.35610107421875,-0.04235704243183136,-0.009272061288356781,0.009664345532655716
1761478785366138000,1.36613818359375,-0.04126941040158272,-0.05049912631511688,0.020869329571723938
1761478785376175000,1.376175048828125,-0.04616270214319229,-0.08642756938934326,0.04579411819577217
1761478785386211000,1.386211181640625,-0.05028900131583214,-0.11092118918895721,0.09297601133584976
1761478785396248000,1.396248046875,-0.06356193125247955,-0.124189592897892,0.13909131288528442
1761478785406285000,1.40628515625,-0.07974356412887573,-0.13607794046401978,0.17825841903686523
1761478785416322300,1.416322265625,-0.10349123924970627,-0.13868118822574615,0.207807257771492
1761478785426359300,1.426359375,-0.11844222247600555,-0.1277576982975006,0.20412464439868927
1761478785436396000,1.43639599609375,-0.1330922693014145,-0.08808698505163193,0.15967221558094025
1761478785446432000,1.446431884765625,-0.14660115540027618,-0.02076227031648159,0.0862579196691513
1761478785456469000,1.456468994140625,-0.13755573332309723,0.06554971635341644,0.0013638047967106104
1761478785466506200,1.46650634765625,-0.10882262140512466,0.16720683872699738,-0.08266451954841614
1761478785476543200,1.476543212890625,-0.04854676127433777,0.2596006691455841,-0.16172444820404053
1761478785486580200,1.486580322265625,0.03442934527993202,0.3287142515182495,-0.21625986695289612
1761478785496616200,1.4966162109375,0.1243608370423317,0.3375585973262787,-0.22939243912696838
1761478785506653200,1.506653076171875,0.19804731011390686,0.3066752552986145,-0.20279519259929657
1761478785516690200,1.516690185546875,0.24315060675144196,0.2780188322067261,-0.1602381467819214
1761478785526727200,1.52672705078125,0.26068350672721863,0.25326448678970337,-0.11076086759567261
1761478785536764200,1.53676416015625,0.2562269866466522,0.23705142736434937,-0.06514784693717957
1761478785546801200,1.54680126953125,0.2505115866661072,0.2040058672428131,-0.033060215413570404
1761478785556837000,1.556837158203125,0.2583165168762207,0.1465660035610199,-0.011982627213001251
1761478785566874000,1.5668740234375,0.2582065165042877,0.0593930184841156,0.015980830416083336
1761478785576911000,1.5769111328125,0.2596917748451233,-0.02412211336195469,0.07285822927951813
1761478785586948000,1.586947998046875,0.2670018672943115,-0.07709292322397232,0.1321500539779663
1761478785596985000,1.596985107421875,0.2761884331703186,-0.1190803200006485,0.1881810873746872
1761478785607022000,1.60702197265625,0.29064834117889404,-0.13205070793628693,0.2369326502084732
1761478785617058000,1.61705810546875,0.3041641414165497,-0.13123205304145813,0.2714903652667999
1761478785627095300,1.62709521484375,0.3191438913345337,-0.13669393956661224,0.295166939496994
1761478785637132300,1.63713232421875,0.33339792490005493,-0.14587970077991486,0.30995920300483704
1761478785647169000,1.6471689453125,0.35146161913871765,-0.15312430262565613,0.3090561032295227
1761478785657206000,1.6572060546875,0.3656027317047119,-0.18110187351703644,0.29584017395973206
1761478785667243300,1.6672431640625,0.3856123983860016,-0.19569334387779236,0.2920960485935211
1761478785677279200,1.677279296875,0.4100301265716553,-0.1937505602836609,0.29180416464805603
1761478785687316200,1.687316162109375,0.4161263704299927,-0.19008071720600128,0.28188708424568176
1761478785697353200,1.697353271484375,0.40027764439582825,-0.17289455235004425,0.2542780935764313
1761478785707390000,1.707389892578125,0.3722798228263855,-0.14531831443309784,0.20719154179096222
1761478785717427200,1.71742724609375,0.3312285244464874,-0.14084739983081818,0.1522742211818695
1761478785727463200,1.727463134765625,0.3002053499221802,-0.1426980346441269,0.1054699644446373
1761478785737500200,1.737500244140625,0.27510905265808105,-0.1378966122865677,0.08194945752620697
1761478785747537200,1.747537109375,0.2590925395488739,-0.14435690641403198,0.07548117637634277
1761478785757574100,1.75757421875,0.24982820451259613,-0.15022358298301697,0.07354611903429031
1761478785767611100,1.767611083984375,0.24692615866661072,-0.13369281589984894,0.07734645158052444
1761478785777648000,1.777648193359375,0.24022112786769867,-0.114176906645298,0.08142109215259552
1761478785787684000,1.78768408203125,0.2203768491744995,-0.09944775700569153,0.08486322313547134
1761478785797721000,1.79772119140625,0.1937905102968216,-0.08871015906333923,0.08644088357686996
1761478785807758000,1.807758056640625,0.17335394024848938,-0.07578690350055695,0.08147728443145752
1761478785817795000,1.817795166015625,0.14391109347343445,-0.06477367132902145,0.07081824541091919
1761478785827832300,1.827832275390625,0.10060543566942215,-0.031860459595918655,0.046181607991456985
1761478785837868300,1.837868408203125,0.05506591498851776,0.01320954505354166,0.015209046192467213
1761478785847905300,1.8479052734375,0.012770922854542732,0.0696997195482254,-0.013569338247179985
1761478785857942000,1.85794189453125,-0.019887154921889305,0.12540452182292938,-0.05748007073998451
1761478785867979000,1.86797900390625,-0.0529596209526062,0.17713004350662231,-0.11703101545572281
1761478785878016300,1.878016357421875,-0.08072493970394135,0.20746104419231415,-0.17199227213859558
1761478785888053200,1.88805322265625,-0.10647264868021011,0.21414797008037567,-0.20588019490242004
1761478785898089200,1.898089111328125,-0.12048166990280151,0.1959785670042038,-0.22847551107406616
1761478785908126200,1.908126220703125,-0.11036938428878784,0.1648813635110855,-0.24006053805351257
1761478785918163000,1.918162841796875,-0.09159915894269943,0.13364700973033905,-0.23069898784160614
1761478785928200200,1.9282001953125,-0.09386657178401947,0.11554683744907379,-0.2195078581571579
1761478785938237200,1.9382373046875,-0.09775718301534653,0.10425476729869843,-0.20965681970119476
1761478785948274200,1.948274169921875,-0.08212336897850037,0.10788838565349579,-0.18245981633663177
1761478785958310100,1.95831005859375,-0.05277905985713005,0.10521190613508224,-0.14448554813861847
1761478785968347100,1.96834716796875,-0.01685328222811222,0.09587673097848892,-0.10505557805299759
1761478785978384400,1.97838427734375,0.0192586500197649,0.0749240443110466,-0.06979665905237198
1761478785988421000,1.988421142578125,0.0471254326403141,0.04524550959467888,-0.0364227220416069
1761478785998458000,1.9984580078125,0.061467088758945465,0.01853080652654171,0.002540922025218606
1761478786008494000,2.008494140625,0.06450149416923523,0.0007768440991640091,0.04950816556811333
1761478786018531000,2.018531005859375,0.055810533463954926,-0.0009139968897216022,0.09881366044282913
1761478786028568000,2.028568115234375,0.057491786777973175,-0.0031435952987521887,0.13576476275920868
1761478786038605300,2.038605224609375,0.0625869482755661,-0.02821246348321438,0.1436237394809723
1761478786048642000,2.04864208984375,0.0718744546175003,-0.05710216984152794,0.12112242728471756
1761478786058678300,2.05867822265625,0.08780255913734436,-0.07749985158443451,0.07542684674263
1761478786068715000,2.068715087890625,0.0930071696639061,-0.0844632163643837,0.024224113672971725
1761478786078752000,2.078751953125,0.06756279617547989,-0.09506925940513611,-0.024270452558994293
1761478786088789200,2.088789306640625,0.03603043779730797,-0.10834964364767075,-0.0585610494017601
1761478786098826200,2.098826171875,0.015632489696145058,-0.10719942301511765,-0.07866179198026657
1761478786108863200,2.10886328125,-0.006416886579245329,-0.10513333976268768,-0.09724852442741394
1761478786118899200,2.118899169921875,-0.031385887414216995,-0.10760661959648132,-0.12199621647596359
1761478786128936000,2.12893603515625,-0.0461491197347641,-0.11073184013366699,-0.14031051099300385
1761478786138973200,2.13897314453125,-0.04488518461585045,-0.11075793951749802,-0.13376711308956146
1761478786149010200,2.14901025390625,-0.04199538752436638,-0.09145162254571915,-0.10714935511350632
1761478786159047200,2.159047119140625,-0.029794912785291672,-0.056046489626169205,-0.07442576438188553
1761478786169083100,2.169083251953125,-0.014272146858274937,-0.018244517967104912,-0.05161099508404732
1761478786179120000,2.1791201171875,-0.0012301141396164894,0.0158292967826128,-0.04646869748830795
1761478786189157000,2.1891572265625,0.010631072334945202,0.0389372780919075,-0.07564256340265274
1761478786199194000,2.199194091796875,0.013621536083519459,0.05817968398332596,-0.12528841197490692
1761478786209231000,2.209231201171875,0.008175372146070004,0.07856165617704391,-0.18446198105812073
1761478786219267000,2.21926708984375,0.007256048731505871,0.10606198757886887,-0.23699310421943665
1761478786229304000,2.229303955078125,0.005124454386532307,0.12275521457195282,-0.269353449344635
1761478786239341300,2.23934130859375,-0.006859504152089357,0.12627698481082916,-0.2721252739429474
1761478786249378300,2.24937841796875,-0.036256808787584305,0.1289321482181549,-0.2599511444568634
1761478786259415000,2.2594150390625,-0.0858248919248581,0.1188821792602539,-0.23534034192562103
1761478786269451300,2.269451171875,-0.13894936442375183,0.09186707437038422,-0.20112885534763336
1761478786279488000,2.279488037109375,-0.18013408780097961,0.03393639624118805,-0.15904584527015686
1761478786289525000,2.28952490234375,-0.19996105134487152,-0.02605556882917881,-0.11440886557102203
1761478786299562200,2.299562255859375,-0.18539835512638092,-0.07124888151884079,-0.08092068135738373
1761478786309599200,2.30959912109375,-0.15406812727451324,-0.08313589543104172,-0.05705982446670532
1761478786319635200,2.31963525390625,-0.12022414803504944,-0.04711851105093956,-0.041979409754276276
1761478786329671000,2.3296708984375,-0.09431371837854385,-0.006617156323045492,-0.03846163675189018
1761478786339708000,2.3397080078125,-0.0716848373413086,0.015027418732643127,-0.043059319257736206
1761478786349745000,2.349744873046875,-0.05001150071620941,0.014376009814441204,-0.049250636249780655
1761478786359782000,2.359781982421875,-0.02364514209330082,0.0022895196452736855,-0.05120113492012024
1761478786369819000,2.36981884765625,-0.0008117315010167658,-0.030846329405903816,-0.04573419690132141
1761478786379854800,2.379854736328125,0.009534915909171104,-0.07313333451747894,-0.02912619337439537
1761478786389891800,2.389891845703125,0.024385500699281693,-0.10543401539325714,-0.0021899172570556402
1761478786399928800,2.3999287109375,0.037765223532915115,-0.12642371654510498,0.02955016866326332
1761478786409966000,2.409966064453125,0.04653128236532211,-0.14141252636909485,0.05609576031565666
1761478786420002800,2.4200029296875,0.0533100925385952,-0.16253431141376495,0.07235515862703323
1761478786430039000,2.4300390625,0.056287772953510284,-0.18395332992076874,0.07391790300607681
1761478786440075800,2.44007568359375,0.043720316141843796,-0.19873493909835815,0.06924352049827576
1761478786450112800,2.45011279296875,0.027345603331923485,-0.2140347957611084,0.06507673859596252
1761478786460150000,2.46014990234375,0.0011022823164239526,-0.22353509068489075,0.0747876912355423
1761478786470187000,2.47018701171875,-0.0332876481115818,-0.254454642534256,0.09721443057060242
1761478786480223000,2.480222900390625,-0.08274281769990921,-0.2869225740432739,0.13159264624118805
1761478786490260000,2.490260009765625,-0.12277678400278091,-0.31282368302345276,0.1554226130247116
1761478786500296700,2.500296630859375,-0.16352714598178864,-0.32988548278808594,0.1528739631175995
1761478786510333700,2.510333740234375,-0.19183947145938873,-0.3225306570529938,0.12231951951980591
1761478786520371000,2.520370849609375,-0.2121756374835968,-0.2888336777687073,0.08312498033046722
1761478786530407000,2.530406982421875,-0.22072811424732208,-0.21499645709991455,0.031124096363782883
1761478786540444000,2.54044384765625,-0.211375892162323,-0.1368902027606964,-0.029945116490125656
1761478786550481000,2.55048095703125,-0.1919715702533722,-0.09202180057764053,-0.11378062516450882
1761478786560518000,2.560517822265625,-0.1678137630224228,-0.09040872752666473,-0.19469624757766724
1761478786570555000,2.570554931640625,-0.14731888473033905,-0.11782517284154892,-0.2402333766222
1761478786580590800,2.5805908203125,-0.13201795518398285,-0.14756469428539276,-0.23115678131580353
1761478786590627800,2.5906279296875,-0.11731970310211182,-0.15842825174331665,-0.16293485462665558
1761478786600664800,2.600664794921875,-0.09900407493114471,-0.12817953526973724,-0.04440448060631752
1761478786610701800,2.610701904296875,-0.08629120886325836,-0.07984635978937149,0.09106279909610748
1761478786620739000,2.620739013671875,-0.07882770150899887,-0.04571742191910744,0.20046864449977875
1761478786630775000,2.630775146484375,-0.09227000921964645,-0.03990480676293373,0.26970818638801575
1761478786640812000,2.64081201171875,-0.11900574713945389,-0.06645465642213821,0.2864197790622711
1761478786650848800,2.650848876953125,-0.1443217545747757,-0.11490634828805923,0.2527398467063904
1761478786660885800,2.6608857421875,-0.16186240315437317,-0.18619969487190247,0.20850181579589844
1761478786670923000,2.670923095703125,-0.16723959147930145,-0.23829485476016998,0.18559329211711884
1761478786680959000,2.680958984375,-0.16775065660476685,-0.25819987058639526,0.17742618918418884
1761478786690996000,2.690995849609375,-0.16928888857364655,-0.26188912987709045,0.19181230664253235
1761478786701033000,2.701032958984375,-0.1767987459897995,-0.25152331590652466,0.20812897384166718
1761478786711069700,2.711069580078125,-0.18847723305225372,-0.21939121186733246,0.21860477328300476
1761478786721107000,2.72110693359375,-0.20320238173007965,-0.16918689012527466,0.1948794722557068
1761478786731143000,2.731142822265625,-0.21943329274654388,-0.1238178163766861,0.13426193594932556
1761478786741180000,2.741179931640625,-0.23583462834358215,-0.07495652884244919,0.0518173910677433
1761478786751217000,2.751216796875,-0.24666783213615417,-0.04054369777441025,-0.03033127449452877
1761478786761254000,2.76125390625,-0.24463345110416412,-0.003165699541568756,-0.08436921238899231
1761478786771289900,2.771289794921875,-0.23817580938339233,0.02105468511581421,-0.11510688066482544
1761478786781327000,2.7813271484375,-0.2243659943342209,0.04747004806995392,-0.11384747177362442
1761478786791363800,2.79136376953125,-0.21582071483135223,0.06935377418994904,-0.09474435448646545
1761478786801400800,2.80140087890625,-0.2153373509645462,0.10046881437301636,-0.056173257529735565
1761478786811437800,2.811437744140625,-0.2250877171754837,0.1285204291343689,-0.006415554787963629
1761478786821473800,2.821473876953125,-0.23465538024902344,0.13436846435070038,0.038229409605264664
1761478786831510800,2.8315107421875,-0.23215174674987793,0.12919659912586212,0.07009945809841156
1761478786841548000,2.841548095703125,-0.21469153463840485,0.12196611613035202,0.09574037045240402
1761478786851585000,2.8515849609375,-0.19016115367412567,0.09953271597623825,0.1259901523590088
1761478786861621800,2.861621826171875,-0.1686239093542099,0.07543670386075974,0.15605032444000244
1761478786871657700,2.87165771484375,-0.1646251678466797,0.045955508947372437,0.17663894593715668
1761478786881694700,2.88169482421875,-0.1662515550851822,-0.0011150655336678028,0.19473539292812347
1761478786891732000,2.89173193359375,-0.15757152438163757,-0.07281961292028427,0.2262464463710785
1761478786901769000,2.90176904296875,-0.11046446114778519,-0.16790378093719482,0.27050870656967163
1761478786911806000,2.911805908203125,-0.03558222949504852,-0.2853582501411438,0.3409176468849182
1761478786921842000,2.921842041015625,0.05001576244831085,-0.37799203395843506,0.4160805642604828
1761478786931879000,2.93187890625,0.11386984586715698,-0.4448099434375763,0.4810720980167389
1761478786941916000,2.941916015625,0.1572095900774002,-0.46395114064216614,0.5338724255561829
1761478786951953000,2.951952880859375,0.16503210365772247,-0.4668457508087158,0.55731600522995
1761478786961988900,2.96198876953125,0.1644217073917389,-0.4518263041973114,0.5437466502189636
1761478786972025900,2.97202587890625,0.1573030650615692,-0.4257233440876007,0.5012452602386475
1761478786982062800,2.982062744140625,0.1589752733707428,-0.37885117530822754,0.42200157046318054
1761478786992100000,2.99210009765625,0.16539481282234192,-0.31746238470077515,0.31318214535713196
1761478787002136800,3.00213671875,0.15668708086013794,-0.22401472926139832,0.1764884889125824
1761478787012173000,3.012173095703125,0.11753355711698532,-0.10219507664442062,0.023809725418686867
1761478787022209800,3.022209716796875,0.05740869790315628,0.015848737210035324,-0.11415506899356842
1761478787032246800,3.032246826171875,-0.023613983765244484,0.12250833958387375,-0.2268536537885666
1761478787042284000,3.042283935546875,-0.09081272780895233,0.21609501540660858,-0.31562453508377075
1761478787052320000,3.052320068359375,-0.14781156182289124,0.2852464020252228,-0.3792690336704254
1761478787062357000,3.06235693359375,-0.19105809926986694,0.32891425490379333,-0.42392677068710327
1761478787072394000,3.07239404296875,-0.2263292819261551,0.3458935022354126,-0.4427286982536316
1761478787082430700,3.0824306640625,-0.2687632739543915,0.3261922299861908,-0.41671279072761536
1761478787092467700,3.0924677734375,-0.2940177619457245,0.29468676447868347,-0.34837183356285095
1761478787102503700,3.102503662109375,-0.28520458936691284,0.2526322603225708,-0.2411782592535019
1761478787112541000,3.112541015625,-0.24993394315242767,0.2215030938386917,-0.11236675828695297
1761478787122578000,3.122577880859375,-0.18921999633312225,0.18713073432445526,0.0008122641011141241
1761478787132615000,3.132614990234375,-0.12592411041259766,0.13537034392356873,0.08352498710155487
1761478787142651000,3.14265087890625,-0.079107865691185,0.07032902538776398,0.13996082544326782
1761478787152687900,3.15268798828125,-0.022187061607837677,0.006080795545130968,0.16724252700805664
1761478787162724900,3.162724853515625,0.040566336363554,-0.07714591920375824,0.18914994597434998
1761478787172761900,3.172761962890625,0.10929186642169952,-0.15230059623718262,0.1958797574043274
1761478787182798800,3.182798828125,0.1734713912010193,-0.1936030238866806,0.1957726925611496
1761478787192834800,3.192834716796875,0.23008672893047333,-0.20879608392715454,0.18317727744579315
1761478787202871800,3.202871826171875,0.27157318592071533,-0.19733917713165283,0.15425828099250793
1761478787212909000,3.212908935546875,0.29190322756767273,-0.1772323101758957,0.10897628217935562
1761478787222946000,3.222946044921875,0.3039409816265106,-0.13483132421970367,0.06766372919082642
1761478787232982000,3.23298193359375,0.30555805563926697,-0.07307501137256622,0.027031883597373962
1761478787243018800,3.243018798828125,0.29502418637275696,-0.010819357819855213,-0.02539936639368534
1761478787253055700,3.2530556640625,0.2701108455657959,0.04663967341184616,-0.08352099359035492
1761478787263093000,3.263093017578125,0.22087112069129944,0.0935392752289772,-0.14723153412342072
1761478787273129000,3.27312890625,0.15619546175003052,0.1311018317937851,-0.19898366928100586
1761478787283166000,3.283166015625,0.10727585852146149,0.17115071415901184,-0.22873491048812866
1761478787293203000,3.293202880859375,0.06803763657808304,0.1929529458284378,-0.23050138354301453
1761478787303240000,3.303239990234375,0.05040698125958443,0.1707160770893097,-0.22470341622829437
1761478787313277000,3.31327685546875,0.04767670854926109,0.14268071949481964,-0.21194714307785034
1761478787323313000,3.32331298828125,0.04903518781065941,0.12106490880250931,-0.19504113495349884
1761478787333349600,3.333349609375,0.054965779185295105,0.09210488945245743,-0.16622598469257355
1761478787343386600,3.34338671875,0.050989147275686264,0.04710093140602112,-0.1243259459733963
1761478787353423600,3.353423583984375,0.05185680463910103,0.00635004136711359,-0.0951499491930008
1761478787363459600,3.36345947265625,0.07309524714946747,-0.02949530817568302,-0.0644221305847168
1761478787373496600,3.37349658203125,0.10094019770622253,-0.05504593998193741,-0.025602566078305244
1761478787383533800,3.383533935546875,0.11902625858783722,-0.07840852439403534,0.010094179771840572
1761478787393570600,3.393570556640625,0.11122772097587585,-0.09184949845075607,0.054663512855768204
1761478787403606500,3.4036064453125,0.08703077584505081,-0.11642914265394211,0.10335887968540192
1761478787413643500,3.4136435546875,0.06022872030735016,-0.12805810570716858,0.1508299857378006
1761478787423680500,3.423680419921875,0.0463203601539135,-0.1277742087841034,0.18651634454727173
1761478787433717800,3.4337177734375,0.04187580943107605,-0.1190430298447609,0.1956603080034256
1761478787443754800,3.443754638671875,0.043886762112379074,-0.0976349487900734,0.19260567426681519
1761478787453790700,3.453790771484375,0.040457144379615784,-0.07827562838792801,0.17887574434280396
1761478787463827700,3.46382763671875,0.04024435952305794,-0.05741642042994499,0.16051670908927917
1761478787473864400,3.473864501953125,0.03376302495598793,-0.055080562829971313,0.13203366100788116
1761478787483901700,3.483901611328125,0.018432537093758583,-0.04121694341301918,0.08238914608955383
1761478787493937700,3.493937744140625,0.02226961962878704,-0.04580850154161453,0.03646506741642952
1761478787503974700,3.503974609375,0.03713858127593994,-0.069114089012146,-0.020672786980867386
1761478787514011600,3.51401171875,0.02748914808034897,-0.05417082831263542,-0.06328336149454117
1761478787524048600,3.524048583984375,0.010319748893380165,-0.025416942313313484,-0.09471984952688217
1761478787534084600,3.534084716796875,-0.013864682987332344,-0.006149238906800747,-0.11021119356155396
1761478787544121900,3.544121826171875,-0.04360446706414223,0.0019526296528056264,-0.09996494650840759
1761478787554158600,3.55415869140625,-0.07114528119564056,0.002841326640918851,-0.07396503537893295
1761478787564195600,3.564195556640625,-0.08686059713363647,-0.0011241203173995018,-0.03935486450791359
1761478787574231600,3.5742314453125,-0.11186421662569046,0.007585481740534306,-0.008411061950027943
1761478787584268500,3.5842685546875,-0.14150573313236237,0.027946412563323975,0.0011976235546171665
1761478787594305800,3.594305908203125,-0.17995086312294006,0.07791849970817566,-0.010550911538302898
1761478787604342800,3.6043427734375,-0.20229610800743103,0.17077121138572693,-0.060204219073057175
1761478787614378800,3.614378662109375,-0.17878705263137817,0.2990066707134247,-0.14282426238059998
1761478787624415700,3.624415771484375,-0.10557036846876144,0.4537847936153412,-0.2469322830438614
1761478787634452500,3.634452392578125,0.01281566359102726,0.6048387885093689,-0.34422767162323
1761478787644489500,3.644489501953125,0.13930755853652954,0.6968855857849121,-0.42363250255584717
1761478787654525700,3.654525634765625,0.2034604400396347,0.7011642456054688,-0.44454655051231384
1761478787664562700,3.664562744140625,0.18282628059387207,0.6194294095039368,-0.3603246212005615
1761478787674599700,3.674599609375,0.11086952686309814,0.49381956458091736,-0.20673000812530518
1761478787684636700,3.68463671875,0.036618996411561966,0.3641204237937927,-0.029951507225632668
1761478787694673700,3.694673583984375,-0.002951048780232668,0.2358817756175995,0.114120714366436
1761478787704709600,3.704709716796875,0.006994526367634535,0.11984224617481232,0.21558955311775208
1761478787714746600,3.71474658203125,0.027229756116867065,-0.011511513963341713,0.2662636339664459
1761478787724783600,3.72478369140625,0.046313170343637466,-0.13902606070041656,0.29730224609375
1761478787734820600,3.734820556640625,0.0676613375544548,-0.22483950853347778,0.31508657336235046
1761478787744856600,3.744856689453125,0.09379120916128159,-0.2723156809806824,0.3117560148239136
1761478787754893600,3.7548935546875,0.11400087177753448,-0.27624037861824036,0.29511818289756775
1761478787764930800,3.764930908203125,0.12545885145664215,-0.233642578125,0.2687896490097046
1761478787774967600,3.774967529296875,0.13035720586776733,-0.18342149257659912,0.22556255757808685
1761478787785003800,3.785003662109375,0.12827834486961365,-0.13129544258117676,0.16542890667915344
1761478787795040500,3.79504052734375,0.13921195268630981,-0.06832845509052277,0.12132935971021652
1761478787805077500,3.805077392578125,0.15041640400886536,-0.0030485205352306366,0.10830969363451004
1761478787815114800,3.81511474609375,0.16297000646591187,0.042577553540468216,0.09560748189687729
1761478787825150700,3.825150634765625,0.18852463364601135,0.06055682152509689,0.062428757548332214
1761478787835187700,3.835187744140625,0.21321800351142883,0.051308728754520416,0.011144530028104782
1761478787845224700,3.845224609375,0.2401641309261322,0.028750954195857048,-0.04361538961529732
1761478787855261400,3.855261474609375,0.2703521251678467,0.001219461439177394,-0.0915411040186882
1761478787865297700,3.865297607421875,0.28167909383773804,-0.024874988943338394,-0.1237533688545227
1761478787875334700,3.875334716796875,0.27643877267837524,-0.024768462404608727,-0.12343218922615051
1761478787885371600,3.88537158203125,0.2581987977027893,0.005014998838305473,-0.09305351227521896
1761478787895407600,3.89540771484375,0.22712290287017822,0.049251701682806015,-0.04362950101494789
1761478787905444600,3.905444580078125,0.19202589988708496,0.09890606999397278,-0.0023433153983205557
1761478787915481600,3.915481689453125,0.15678322315216064,0.11422217637300491,0.014476411044597626
1761478787925518800,3.925518798828125,0.15069177746772766,0.11512206494808197,0.005607019178569317
1761478787935554800,3.935554931640625,0.1495700478553772,0.08471328765153885,-0.0009171926649287343
1761478787945591800,3.945591796875,0.14477822184562683,0.032169122248888016,0.0006301039247773588
1761478787955628500,3.955628662109375,0.13610590994358063,0.0004111920716241002,0.02641749195754528
1761478787965665500,3.96566552734375,0.1323726922273636,0.009069128893315792,0.07246167957782745
1761478787975701500,3.975701416015625,0.14986886084079742,0.04096154868602753,0.12107235938310623
1761478787985738800,3.98573876953125,0.19008685648441315,0.06287723034620285,0.1526891440153122
1761478787995775700,3.995775634765625,0.2384013831615448,0.06666238605976105,0.15551289916038513
1761478788005810700,4.005810791015625,0.2833094596862793,0.059657204896211624,0.1323111653327942
1761478788015847700,4.01584765625,0.31540587544441223,0.057323209941387177,0.09132006019353867
1761478788025883600,4.025883544921875,0.34239357709884644,0.04918192699551582,0.05073428526520729
1761478788035920600,4.035920654296875,0.3558867275714874,0.03067801706492901,0.007650729268789291
1761478788045957600,4.04595751953125,0.34818968176841736,0.021073592826724052,-0.022008629515767097
1761478788055994600,4.05599462890625,0.30914267897605896,0.013539510779082775,-0.05434180051088333
1761478788066030800,4.06603076171875,0.24799169600009918,0.006163886282593012,-0.07974942028522491
1761478788076067600,4.076067626953125,0.18107683956623077,0.009630256332457066,-0.09095440804958344
1761478788086104600,4.0861044921875,0.11304958909749985,0.03429538756608963,-0.0918060839176178
1761478788096141600,4.0961416015625,0.06349082291126251,0.060680922120809555,-0.08951470255851746
1761478788106177500,4.106177490234375,0.020562266930937767,0.05897516757249832,-0.09136001020669937
1761478788116214800,4.11621484375,-0.022723155096173286,0.04206409677863121,-0.09877052158117294
1761478788126251800,4.126251708984375,-0.06604133546352386,0.009792177006602287,-0.10100065171718597
1761478788136288800,4.136288818359375,-0.1142975464463234,-0.02804521657526493,-0.09398508816957474
1761478788146324700,4.14632470703125,-0.15812918543815613,-0.0474652536213398,-0.09355711191892624
1761478788156361500,4.156361572265625,-0.17710207402706146,-0.03652765229344368,-0.08763131499290466
1761478788166398500,4.1663984375,-0.18195702135562897,-0.02352849580347538,-0.0702587142586708
1761478788176434700,4.1764345703125,-0.1738165318965912,-0.01206784788519144,-0.056472864001989365
1761478788186471700,4.1864716796875,-0.16617326438426971,0.0035486621782183647,-0.05022881552577019
1761478788196508700,4.1965087890625,-0.16622333228588104,0.006969758775085211,-0.05590161681175232
1761478788206545700,4.206545654296875,-0.19080376625061035,-0.0009179916232824326,-0.07201799750328064
1761478788216581600,4.21658154296875,-0.21569740772247314,-0.02268773503601551,-0.09148117899894714
1761478788226618600,4.22661865234375,-0.23036928474903107,-0.03725123032927513,-0.1057080551981926
1761478788236655600,4.236655517578125,-0.2108246237039566,-0.020894097164273262,-0.11003462225198746
1761478788246692600,4.246692626953125,-0.1758008599281311,0.021529261022806168,-0.10673417150974274
1761478788256728600,4.256728515625,-0.15144065022468567,0.07524655014276505,-0.09080207347869873
1761478788266765600,4.266765625,-0.14552950859069824,0.11478676646947861,-0.06646930426359177
1761478788276802600,4.276802490234375,-0.142411470413208,0.11467678099870682,-0.044140029698610306
1761478788286838500,4.286838623046875,-0.13087785243988037,0.09006863832473755,-0.03020610474050045
1761478788296875800,4.296875732421875,-0.10207337141036987,0.037576936185359955,-0.03732074052095413
1761478788306912800,4.306912841796875,-0.07262732833623886,-0.01883494108915329,-0.0475214459002018
1761478788316949500,4.316949462890625,-0.059361860156059265,-0.06617476046085358,-0.05691415071487427
1761478788326985500,4.3269853515625,-0.05532237887382507,-0.07072503864765167,-0.06768796592950821
1761478788337023200,4.337023193359375,-0.05649816244840622,-0.03616200014948845,-0.06339335441589355
1761478788347060200,4.347060302734375,-0.061174407601356506,0.0006719155353493989,-0.05180886760354042
1761478788357097500,4.357097412109375,-0.06452732533216476,0.03406023234128952,-0.032994434237480164
1761478788367133400,4.367133544921875,-0.06461893767118454,0.06216723471879959,-0.0057252636179327965
1761478788377170400,4.37717041015625,-0.06577581912279129,0.07778774201869965,0.013998373411595821
1761478788387207200,4.387207275390625,-0.08210312575101852,0.09004094451665878,0.03377660736441612
1761478788397244200,4.397244140625,-0.10350242257118225,0.08388744294643402,0.044674262404441833
1761478788407280000,4.407280029296875,-0.11991441994905472,0.07226727157831192,0.052626460790634155
1761478788417317400,4.4173173828125,-0.114784374833107,0.055751413106918335,0.0697212889790535
1761478788427354400,4.427354248046875,-0.09220502525568008,0.03636253625154495,0.08758364617824554
1761478788437390300,4.437390380859375,-0.07105020433664322,0.013834322802722454,0.10863406956195831
1761478788447427300,4.44742724609375,-0.06808051466941833,-0.009726396761834621,0.1195429116487503
1761478788457464300,4.45746435546875,-0.08270792663097382,-0.019466109573841095,0.11005459725856781
1761478788467501300,4.467501220703125,-0.11593645811080933,-0.018756909295916557,0.07817762345075607
1761478788477537300,4.477537353515625,-0.16076864302158356,0.025783393532037735,0.035838957875967026
1761478788487574300,4.48757421875,-0.2117452770471573,0.08656072616577148,-0.031375765800476074
1761478788497611300,4.497611328125,-0.27256548404693604,0.13795733451843262,-0.10693923383951187
1761478788507648300,4.507648193359375,-0.3212515413761139,0.15071707963943481,-0.17022712528705597
1761478788517684200,4.517684326171875,-0.3490868806838989,0.13976003229618073,-0.19140590727329254
1761478788527721500,4.527721435546875,-0.3506610691547394,0.1074332520365715,-0.16683025658130646
1761478788537758500,4.537758544921875,-0.340709388256073,0.05187198519706726,-0.11618759483098984
1761478788547794400,4.54779443359375,-0.3422423005104065,-0.012836436741054058,-0.06370361149311066
1761478788557831200,4.5578310546875,-0.36239922046661377,-0.08099471777677536,-0.01786927878856659
1761478788567868200,4.5678681640625,-0.3796674311161041,-0.14239096641540527,0.034017886966466904
1761478788577905400,4.577905517578125,-0.38277560472488403,-0.184269979596138,0.0971025824546814
1761478788587941400,4.58794140625,-0.3703881800174713,-0.22282695770263672,0.15330806374549866
1761478788597978400,4.597978271484375,-0.34447988867759705,-0.26645031571388245,0.19181443750858307
1761478788608015400,4.608015380859375,-0.32095831632614136,-0.30967557430267334,0.2133791297674179
1761478788618052400,4.61805224609375,-0.30945026874542236,-0.31481093168258667,0.22990483045578003
1761478788628088300,4.62808837890625,-0.3121373951435089,-0.32089120149612427,0.24389629065990448
1761478788638125300,4.638125244140625,-0.3103882372379303,-0.3210960030555725,0.25453346967697144
1761478788648162300,4.648162353515625,-0.293980211019516,-0.3103456199169159,0.26177141070365906
1761478788658198300,4.6581982421875,-0.2531158924102783,-0.2985512614250183,0.260087251663208
1761478788668235300,4.6682353515625,-0.20642134547233582,-0.28977349400520325,0.2662825584411621
1761478788678272300,4.678272216796875,-0.1737198680639267,-0.2940654456615448,0.272350549697876
1761478788688309200,4.688309326171875,-0.16198357939720154,-0.31011340022087097,0.28441494703292847
1761478788698345500,4.698345458984375,-0.18573497235774994,-0.3296407461166382,0.28979161381721497
1761478788708382500,4.708382568359375,-0.24092605710029602,-0.33599478006362915,0.27117452025413513
1761478788718419200,4.718419189453125,-0.29852837324142456,-0.33894744515419006,0.2379302680492401
1761478788728455400,4.728455322265625,-0.3359769582748413,-0.2932760715484619,0.18679039180278778
1761478788738492200,4.7384921875,-0.33953121304512024,-0.19805662333965302,0.11073530465364456
1761478788748529200,4.748529052734375,-0.30754315853118896,-0.10535172373056412,0.013305685482919216
1761478788758566400,4.75856640625,-0.25147005915641785,-0.06998573988676071,-0.07275942713022232
1761478788768602400,4.768602294921875,-0.18803727626800537,-0.10884605348110199,-0.12724582850933075
1761478788778639400,4.778639404296875,-0.13137772679328918,-0.17084737122058868,-0.12728817760944366
1761478788788676400,4.78867626953125,-0.06790447980165482,-0.20128783583641052,-0.06296618282794952
1761478788798713000,4.798713134765625,0.012734437361359596,-0.14578676223754883,0.0453813299536705
1761478788808749300,4.808749267578125,0.09187479317188263,-0.05625608190894127,0.1732359677553177
1761478788818786300,4.818786376953125,0.16315270960330963,0.0260624922811985,0.266774982213974
1761478788828823300,4.8288232421875,0.22320805490016937,0.08864118903875351,0.292856365442276
1761478788838859300,4.838859375,0.24695119261741638,0.11569464206695557,0.24005387723445892
1761478788848896300,4.848896240234375,0.2261923849582672,0.10496795922517776,0.11465494334697723
1761478788858933200,4.858933349609375,0.17899717390537262,0.04300445690751076,-0.030599987134337425
1761478788868970500,4.868970458984375,0.11936074495315552,-0.03136910870671272,-0.1281992495059967
1761478788879006500,4.87900634765625,0.054069358855485916,-0.0938497930765152,-0.1643093079328537
1761478788889043500,4.88904345703125,-0.014636467210948467,-0.11726004630327225,-0.1430293321609497
1761478788899080200,4.899080078125,-0.07928257435560226,-0.10447394102811813,-0.07328007370233536
1761478788909116200,4.9091162109375,-0.13154204189777374,-0.058950137346982956,0.026280606165528297
1761478788919153200,4.919153076171875,-0.14359498023986816,-0.019183814525604248,0.10971105098724365
1761478788929190400,4.9291904296875,0.056341301649808884,0.04837711900472641,0.16633757948875427
1761478788939227400,4.939227294921875,0.2338513731956482,0.07220654934644699,0.20672255754470825
1761478788949263400,4.949263427734375,0.30805957317352295,-0.0065559037029743195,0.2546634376049042
1761478788959300400,4.95930029296875,0.3145427703857422,-0.05312127619981766,0.2546807527542114
1761478788969337300,4.96933740234375,0.22849255800247192,-0.0495997779071331,0.19079898297786713
1761478788979374300,4.979374267578125,-0.0352565236389637,-0.02202673815190792,0.025654762983322144
1761478788989410300,4.989410400390625,-0.27102112770080566,0.005792108830064535,-0.13993766903877258
1761478788999447300,4.999447265625,-0.4208928942680359,0.06716838479042053,-0.26272404193878174
1761478789009484300,5.009484375,-0.4925905168056488,0.13134177029132843,-0.35003525018692017
1761478789019520300,5.019520263671875,-0.4768288731575012,0.19270740449428558,-0.3820951581001282
1761478789029557200,5.02955712890625,-0.3889365792274475,0.20945042371749878,-0.3743099570274353
1761478789039594500,5.039594482421875,-0.2949269711971283,0.17943473160266876,-0.3354421854019165
1761478789049631200,5.04963134765625,-0.2233811616897583,0.15576216578483582,-0.2674626111984253
1761478789059667500,5.05966748046875,-0.17605945467948914,0.13124190270900726,-0.18405558168888092
1761478789069704200,5.0697041015625,-0.15694300830364227,0.11239418387413025,-0.09402289986610413
1761478789079741200,5.0797412109375,-0.14934980869293213,0.11450447142124176,-0.004747883416712284
1761478789089777200,5.089777099609375,-0.13436447083950043,0.10177243500947952,0.06436008214950562
1761478789099814400,5.099814453125,-0.1052614375948906,0.07223264873027802,0.12692706286907196
1761478789109851400,5.109851318359375,-0.06392598897218704,0.03732127323746681,0.17173101007938385
1761478789119888400,5.119888427734375,-0.024687502533197403,0.006401972845196724,0.1987554430961609
1761478789129924400,5.12992431640625,-0.0010040117194876075,-0.034032534807920456,0.2241646647453308
1761478789139961300,5.13996142578125,0.025673937052488327,-0.08551862835884094,0.24520283937454224
1761478789149998300,5.149998291015625,0.05734558030962944,-0.1423289179801941,0.25962013006210327
1761478789160034300,5.160034423828125,0.10902475565671921,-0.19833731651306152,0.29055699706077576
1761478789170071300,5.1700712890625,0.1776570826768875,-0.22329594194889069,0.32805511355400085
1761478789180108300,5.1801083984375,0.2529859244823456,-0.22250764071941376,0.3455941379070282
1761478789190145300,5.190145263671875,0.3289424777030945,-0.1957274228334427,0.33463791012763977
1761478789200181200,5.20018115234375,0.38672348856925964,-0.1733936220407486,0.2945067286491394
1761478789210218200,5.21021826171875,0.41398918628692627,-0.17862699925899506,0.2400277704000473
1761478789220255500,5.22025537109375,0.41293323040008545,-0.20534196496009827,0.17796920239925385
1761478789230291500,5.23029150390625,0.3956011235713959,-0.26097726821899414,0.1351679414510727
1761478789240328200,5.240328125,0.3793446719646454,-0.29666683077812195,0.10004963725805283
1761478789250365200,5.250365234375,0.34979262948036194,-0.29761970043182373,0.07067842781543732
1761478789260402200,5.260402099609375,0.3134537935256958,-0.2728741466999054,0.03327353298664093
1761478789270438100,5.270438232421875,0.2749601900577545,-0.19159899652004242,-0.008657670579850674
1761478789280475400,5.280475341796875,0.24712403118610382,-0.12744557857513428,-0.05293085798621178
1761478789290512400,5.290512451171875,0.20775452256202698,-0.09579789638519287,-0.06362397968769073
1761478789300548400,5.30054833984375,0.17626211047172546,-0.08131163567304611,-0.014012488536536694
1761478789310585300,5.31058544921875,0.17123912274837494,-0.05258012190461159,0.04446014389395714
1761478789320622000,5.3206220703125,0.14103834331035614,-0.059729110449552536,0.07296129316091537
1761478789330659300,5.330659423828125,0.08079417794942856,-0.09906692802906036,0.06405195593833923
1761478789340695800,5.34069580078125,0.03181465342640877,-0.1331932097673416,0.017241038382053375
1761478789350732800,5.35073291015625,0.007002249360084534,-0.14826031029224396,-0.039865389466285706
1761478789360769800,5.360769775390625,-0.016150740906596184,-0.12906397879123688,-0.1084071695804596
1761478789370805800,5.3708056640625,-0.04585244134068489,-0.05320329964160919,-0.1754453182220459
1761478789380842800,5.3808427734375,-0.0892672911286354,0.0405476912856102,-0.2454736828804016
1761478789390879700,5.390879638671875,-0.12392700463533401,0.11782969534397125,-0.3276468515396118
1761478789400916000,5.400916015625,-0.15010161697864532,0.1739685982465744,-0.3993908166885376
1761478789410952700,5.41095263671875,-0.157800555229187,0.19215399026870728,-0.435455322265625
1761478789420989700,5.42098974609375,-0.1421384960412979,0.1929875612258911,-0.43342068791389465
1761478789431026700,5.431026611328125,-0.11218272894620895,0.19807447493076324,-0.4078463315963745
1761478789441062700,5.441062744140625,-0.09024600684642792,0.18664337694644928,-0.37115010619163513
1761478789451100000,5.451099853515625,-0.07976886630058289,0.16288772225379944,-0.3425235152244568
1761478789461137000,5.461136962890625,-0.08389490097761154,0.12837475538253784,-0.3200818598270416
1761478789471172900,5.4711728515625,-0.08529385924339294,0.08127461373806,-0.30515989661216736
1761478789481209900,5.4812099609375,-0.07350058108568192,0.044504351913928986,-0.28520137071609497
1761478789491246600,5.49124658203125,-0.06646104902029037,0.000720118754543364,-0.24763669073581696
1761478789501283800,5.501283935546875,-0.07267393916845322,-0.01492435485124588,-0.1915782243013382
1761478789511319800,5.51131982421875,-0.0851106345653534,0.013623400591313839,-0.13469550013542175
1761478789521356800,5.521356689453125,-0.09585249423980713,0.04529744014143944,-0.09454061836004257
1761478789531393800,5.531393798828125,-0.09986267983913422,0.059609800577163696,-0.0910193920135498
1761478789541429800,5.5414296875,-0.07791876792907715,0.04487692564725876,-0.1201503723859787
1761478789551466800,5.551466796875,-0.032468728721141815,0.015444203279912472,-0.13726891577243805
1761478789561504000,5.56150390625,0.018245583400130272,0.0004620584368240088,-0.14621180295944214
1761478789571540700,5.571540771484375,0.0720430314540863,-0.006660299375653267,-0.1437678188085556
1761478789581576700,5.58157666015625,0.11402936279773712,0.006161223165690899,-0.10535811632871628
1761478789591613700,5.59161376953125,0.1568111777305603,0.022713035345077515,-0.03027241863310337
1761478789601650700,5.601650634765625,0.2066011130809784,0.018701782450079918,0.04897712916135788
1761478789611686700,5.611686767578125,0.25496944785118103,0.0012815131340175867,0.10802127420902252
1761478789621723600,5.6217236328125,0.2883225977420807,-0.01702558808028698,0.1230929046869278
1761478789631761000,5.631760986328125,0.2990759313106537,-0.042812444269657135,0.10267923772335052
1761478789641796900,5.641796875,0.28648796677589417,-0.048283908516168594,0.06833112239837646
1761478789651833900,5.651833740234375,0.2559683918952942,-0.0259863268584013,0.05150739848613739
1761478789661870600,5.66187060546875,0.23047848045825958,0.01067741122096777,0.05760550498962402
1761478789671906800,5.67190673828125,0.23441623151302338,0.0484229251742363,0.07042703032493591
1761478789681943600,5.681943603515625,0.2612830102443695,0.07541779428720474,0.08085516840219498
1761478789691980800,5.691980712890625,0.2885037064552307,0.08647417277097702,0.0755232498049736
1761478789702017800,5.702017822265625,0.27619510889053345,0.0837649405002594,0.06083831563591957
1761478789712053800,5.7120537109375,0.22176514565944672,0.08873359858989716,0.03753219544887543
1761478789722090800,5.7220908203125,0.1250055879354477,0.0856320783495903,0.03357367217540741
1761478789732127700,5.732127685546875,0.03160799294710159,0.08353111147880554,0.06602802127599716
1761478789742163700,5.742163818359375,-0.028553614392876625,0.05428827181458473,0.11191748082637787
1761478789752201000,5.752200927734375,-0.06572495400905609,-0.024476047605276108,0.1455036699771881
1761478789762237700,5.76223779296875,-0.07521379739046097,-0.1427672654390335,0.153635635972023
1761478789772273700,5.772273681640625,-0.08400595188140869,-0.2210540920495987,0.16330929100513458
1761478789782310700,5.782310546875,-0.10405796021223068,-0.24652455747127533,0.18933051824569702
1761478789792347600,5.79234765625,-0.13256044685840607,-0.19945397973060608,0.21278683841228485
1761478789802385000,5.802385009765625,-0.15667350590229034,-0.044561609625816345,0.22150655090808868
1761478789812420900,5.8124208984375,-0.14123807847499847,0.14544907212257385,0.201625794172287
1761478789822457900,5.822457763671875,-0.0706709772348404,0.344820499420166,0.17220132052898407
1761478789832494800,5.832494873046875,0.03747307136654854,0.48538482189178467,0.12871110439300537
1761478789842530800,5.84253076171875,0.1305396407842636,0.4996204674243927,0.08233535289764404
1761478789852567600,5.852567626953125,0.21650834381580353,0.4405936300754547,0.06620991230010986
1761478789862604800,5.862604736328125,0.2786785066127777,0.34552836418151855,0.09748181700706482
1761478789872640800,5.872640869140625,0.2871819734573364,0.24846281111240387,0.176632821559906
1761478789882677800,5.882677734375,0.24566222727298737,0.16565100848674774,0.2844381332397461
1761478789892714800,5.89271484375,0.18865513801574707,0.11369913816452026,0.3576044738292694
1761478789902750700,5.902750732421875,0.09594863653182983,0.08188208192586899,0.3621155917644501
1761478789912787700,5.91278759765625,-0.02659991942346096,0.04355014115571976,0.30513620376586914
1761478789922825000,5.922824951171875,-0.1141798347234726,-0.03189907595515251,0.21770675480365753
1761478789932861700,5.93286181640625,-0.1410231739282608,-0.1129707619547844,0.12281966209411621
1761478789942898000,5.94289794921875,-0.1324712187051773,-0.14468874037265778,0.04067099839448929
1761478789952934700,5.9529345703125,-0.1135776937007904,-0.11754100769758224,-0.025969015434384346
1761478789962971600,5.9629716796875,-0.0818815529346466,-0.037763092666864395,-0.05919860675930977
1761478789973007600,5.973007568359375,-0.04747537523508072,0.044439900666475296,-0.051897019147872925
1761478789983044900,5.983044921875,-0.00481313094496727,0.0942644476890564,-0.012808739207684994
1761478789993081900,5.993081787109375,0.03479180112481117,0.11903823912143707,0.020613664761185646
1761478790003117800,6.003117919921875,0.04309314116835594,0.1299382895231247,0.021743377670645714
1761478790013154800,6.01315478515625,0.023420903831720352,0.13982288539409637,-0.008704009465873241
1761478790023191800,6.02319189453125,0.0030421288684010506,0.1753675639629364,-0.050031740218400955
1761478790033227800,6.033227783203125,0.005376921966671944,0.20756863057613373,-0.07350218296051025
1761478790043264800,6.0432646484375,0.04866713657975197,0.22236329317092896,-0.06693562120199203
1761478790053301800,6.0533017578125,0.11821532249450684,0.2168271243572235,-0.03960227221250534
1761478790063337700,6.063337646484375,0.19882307946681976,0.18034394085407257,-0.0041524008847773075
1761478790073374700,6.073374755859375,0.28099384903907776,0.1179165169596672,0.04038763791322708
1761478790083411700,6.08341162109375,0.3417373597621918,0.04032771661877632,0.08786726742982864
1761478790093449000,6.093448974609375,0.36683952808380127,-0.021380389109253883,0.13324806094169617
1761478790103485000,6.10348486328125,0.356548011302948,-0.04073278233408928,0.17752045392990112
1761478790113522000,6.11352197265625,0.33172547817230225,-0.024087758734822273,0.2226192206144333
1761478790123558700,6.12355859375,0.30997970700263977,-0.005257878918200731,0.24960316717624664
1761478790133594600,6.1335947265625,0.29235249757766724,-0.02136068232357502,0.2562485635280609
1761478790143631600,6.143631591796875,0.29058894515037537,-0.058574628084897995,0.2607881724834442
1761478790153668900,6.1536689453125,0.3141044080257416,-0.08641611784696579,0.25538623332977295
1761478790163704800,6.163704833984375,0.3154090940952301,-0.11738841235637665,0.240177720785141
1761478790173741800,6.173741943359375,0.2717564105987549,-0.1343676596879959,0.2190449982881546
1761478790183778800,6.18377880859375,0.19989420473575592,-0.1292751580476761,0.20267029106616974
1761478790193814800,6.193814697265625,0.12062681466341019,-0.11905235797166824,0.1834859400987625
1761478790203851800,6.203851806640625,0.0298409853130579,-0.1107424944639206,0.14485439658164978
1761478790213888800,6.213888671875,-0.050040531903505325,-0.09118609875440598,0.08154359459877014
1761478790223925000,6.223925048828125,-0.09093283861875534,-0.05336708575487137,0.002426938619464636
1761478790233961700,6.233961669921875,-0.09775878489017487,-0.015050321817398071,-0.09538350999355316
1761478790243998700,6.243998779296875,-0.08052413910627365,0.03961079195141792,-0.1716471165418625
1761478790254034700,6.25403466796875,-0.05970514193177223,0.09722961485385895,-0.22880041599273682
1761478790264071700,6.26407177734375,-0.04799362272024155,0.13889797031879425,-0.26982828974723816
1761478790274109000,6.27410888671875,-0.035772379487752914,0.16313113272190094,-0.2885785400867462
1761478790284146000,6.28414599609375,-0.01944746822118759,0.1446826159954071,-0.28177550435066223
1761478790294182000,6.294181884765625,0.0035752938129007816,0.1064489483833313,-0.24166348576545715
1761478790304219000,6.304218994140625,0.012064918875694275,0.07525400817394257,-0.17882195115089417
1761478790314255600,6.314255615234375,0.024513598531484604,0.06277763098478317,-0.12035463750362396
1761478790324291600,6.32429150390625,0.02985296957194805,0.07589476555585861,-0.0873761847615242
1761478790334328600,6.33432861328125,0.017645306885242462,0.09707381576299667,-0.09592066705226898
1761478790344366000,6.344365966796875,-0.015222362242639065,0.1315431147813797,-0.13974778354167938
1761478790354402000,6.354402099609375,-0.048830922693014145,0.17305247485637665,-0.2106379270553589
1761478790364439300,6.364439208984375,-0.06730420887470245,0.200448140501976,-0.2812812030315399
1761478790374476300,6.374476318359375,-0.07612193375825882,0.16771788895130157,-0.32527902722358704
1761478790384512300,6.38451220703125,-0.06813697516918182,0.10099958628416061,-0.3291512727737427
1761478790394549200,6.39454931640625,-0.029636988416314125,0.04915076866745949,-0.29440075159072876
1761478790404586000,6.4045859375,0.014213557355105877,0.01661865785717964,-0.22183732688426971
1761478790414622000,6.4146220703125,0.037694383412599564,0.0068054418079555035,-0.13330478966236115
1761478790424659200,6.4246591796875,0.041847847402095795,0.03243330866098404,-0.046239133924245834
1761478790434696200,6.4346962890625,0.034141458570957184,0.03935379907488823,0.014687865972518921
1761478790444732200,6.444732177734375,0.02923724800348282,0.01571664586663246,0.023500798270106316
1761478790454769200,6.45476904296875,0.018930813297629356,-0.020369453355669975,-0.010999920777976513
1761478790464806100,6.46480615234375,0.009577525779604912,-0.05951818823814392,-0.07558716833591461
1761478790474842000,6.474842041015625,-0.003581951605156064,-0.07196207344532013,-0.13890701532363892
1761478790484879400,6.48487939453125,-0.015382152050733566,-0.060980528593063354,-0.17086787521839142
1761478790494916000,6.494916015625,-0.027937091886997223,-0.035164378583431244,-0.17777319252490997
1761478790504952300,6.504952392578125,-0.04207528010010719,-0.010850783437490463,-0.16442462801933289
1761478790514989000,6.514989013671875,-0.05337347462773323,-0.014660702086985111,-0.14394758641719818
1761478790525026000,6.525026123046875,-0.06884697824716568,-0.02183445915579796,-0.12532596290111542
1761478790535062000,6.53506201171875,-0.07263185828924179,-0.037528201937675476,-0.12690575420856476
1761478790545099300,6.545099365234375,-0.07622206956148148,-0.05542996898293495,-0.1521863341331482
1761478790555136300,6.55513623046875,-0.08267011493444443,-0.06452226638793945,-0.17573800683021545
1761478790565172200,6.565172119140625,-0.09332515299320221,-0.07700397074222565,-0.1951788067817688
1761478790575209200,6.575209228515625,-0.11148205399513245,-0.06919052451848984,-0.1971980184316635
1761478790585246200,6.58524609375,-0.13207387924194336,-0.050434410572052,-0.18778401613235474
1761478790595282200,6.5952822265625,-0.14225514233112335,-0.02611016295850277,-0.1581915020942688
1761478790605319200,6.605319091796875,-0.14620274305343628,0.005742840468883514,-0.1290394812822342
1761478790615356200,6.615356201171875,-0.15535150468349457,0.005973470397293568,-0.1217099204659462
1761478790625392000,6.62539208984375,-0.15737657248973846,-0.0044168527238070965,-0.12424232065677643
1761478790635429000,6.63542919921875,-0.16245149075984955,-0.016446352005004883,-0.12861469388008118
1761478790645466000,6.645466064453125,-0.1702212691307068,-0.04831879585981369,-0.1405581831932068
1761478790655502000,6.655502197265625,-0.18582206964492798,-0.06676651537418365,-0.150425985455513
1761478790665539000,6.6655390625,-0.2168620079755783,-0.0615571029484272,-0.14576812088489532
1761478790675576300,6.675576416015625,-0.25438380241394043,-0.052149221301078796,-0.13553225994110107
1761478790685612300,6.6856123046875,-0.29167020320892334,-0.04140043631196022,-0.1247565820813179
1761478790695649000,6.69564892578125,-0.32202598452568054,-0.04097965732216835,-0.1137143149971962
1761478790705686000,6.70568603515625,-0.3399154841899872,-0.04054209962487221,-0.1006227508187294
1761478790715722000,6.715721923828125,-0.3389895260334015,-0.058527491986751556,-0.07802262902259827
1761478790725759000,6.725759033203125,-0.32118600606918335,-0.07968417555093765,-0.05013347417116165
1761478790735796200,6.735796142578125,-0.28641313314437866,-0.08959459513425827,-0.020921792834997177
1761478790745832200,6.745832275390625,-0.24548086524009705,-0.1013263538479805,-0.011750399135053158
1761478790755869200,6.755869140625,-0.2174534946680069,-0.1022757738828659,-0.023212378844618797
1761478790765906200,6.76590625,-0.19378039240837097,-0.09261941909790039,-0.03472229465842247
1761478790775942100,6.775942138671875,-0.16736556589603424,-0.08449970185756683,-0.04055248573422432
1761478790785979100,6.785979248046875,-0.13974352180957794,-0.07890386879444122,-0.032405342906713486
1761478790796016000,6.79601611328125,-0.11076859384775162,-0.07618398219347,-0.009187373332679272
1761478790806052000,6.806052001953125,-0.0921163409948349,-0.06697797030210495,0.023993749171495438
1761478790816089000,6.816089111328125,-0.08070869743824005,-0.07676375657320023,0.05155054107308388
1761478790826126000,6.8261259765625,-0.08930777758359909,-0.09575821459293365,0.06589779257774353
1761478790836162000,6.836162109375,-0.11842650920152664,-0.11399474740028381,0.07903862744569778
1761478790846199000,6.846198974609375,-0.16185282170772552,-0.15098153054714203,0.0916295200586319
1761478790856236300,6.856236328125,-0.2063923180103302,-0.21834592521190643,0.10679861903190613
1761478790866272300,6.866272216796875,-0.23807354271411896,-0.2738608419895172,0.16189143061637878
1761478790876309200,6.876309326171875,-0.2600955069065094,-0.2902542054653168,0.2370026856660843
1761478790886346000,6.886345947265625,-0.29513177275657654,-0.3059769570827484,0.30180805921554565
1761478790896382200,6.89638232421875,-0.3571788966655731,-0.3335513472557068,0.3422098159790039
1761478790906419000,6.9064189453125,-0.4341767430305481,-0.3620612621307373,0.3331207036972046
1761478790916456200,6.916456298828125,-0.494072824716568,-0.3794064521789551,0.28294914960861206
1761478790926492200,6.9264921875,-0.4984864890575409,-0.3650858402252197,0.1944003701210022
1761478790936529200,6.936529052734375,-0.4461692273616791,-0.34035810828208923,0.10187017172574997
1761478790946565000,6.946565185546875,-0.3671015799045563,-0.3413251042366028,0.024176709353923798
1761478790956602000,6.95660205078125,-0.2954084873199463,-0.3641398847103119,-0.017728131264448166
1761478790966639000,6.96663916015625,-0.25629064440727234,-0.37425827980041504,-0.0179318618029356
1761478790976675000,6.976675048828125,-0.22608347237110138,-0.3309571444988251,0.020186228677630424
1761478790986712300,6.98671240234375,-0.19392472505569458,-0.26114290952682495,0.08470290154218674
1761478790996749000,6.9967490234375,-0.15715819597244263,-0.1458839625120163,0.15758030116558075
1761478791006785300,7.006785400390625,-0.10333997011184692,-0.04074103757739067,0.19515404105186462
1761478791016822000,7.016822021484375,-0.053049370646476746,0.03237871080636978,0.17204925417900085
1761478791026859000,7.02685888671875,-0.01537362951785326,0.0850517749786377,0.10410882532596588
1761478791036895000,7.03689501953125,-0.010490191169083118,0.09321197122335434,0.013450827449560165
1761478791046932200,7.04693212890625,-0.03976605460047722,0.08479371666908264,-0.06900250166654587
1761478791056969200,7.05696923828125,-0.08338650315999985,0.07497970014810562,-0.12358931452035904
1761478791067005200,7.067005126953125,-0.14192810654640198,0.04306571185588837,-0.158347025513649
1761478791077042200,7.077042236328125,-0.19495004415512085,-0.0008149272762238979,-0.16218091547489166
1761478791087079200,7.0870791015625,-0.24626463651657104,-0.03212997317314148,-0.14580407738685608
1761478791097115100,7.097115234375,-0.2902882993221283,-0.054431814700365067,-0.1056491956114769
1761478791107152100,7.107152099609375,-0.32863593101501465,-0.04922587051987648,-0.06829702854156494
1761478791117189000,7.117189208984375,-0.3425285816192627,-0.03735216706991196,-0.04629106447100639
1761478791127225000,7.12722509765625,-0.33768269419670105,-0.025840917602181435,-0.0554020069539547
1761478791137262000,7.137261962890625,-0.3181963562965393,-0.0070643010549247265,-0.08018778264522552
1761478791147299000,7.147299072265625,-0.2985304892063141,0.011185542680323124,-0.11135901510715485
1761478791157335000,7.1573349609375,-0.28538328409194946,0.013155482709407806,-0.15957874059677124
1761478791167372300,7.167372314453125,-0.2761024236679077,0.013754960149526596,-0.19637776911258698
1761478791177408300,7.177408203125,-0.2582552433013916,0.02750486135482788,-0.20176561176776886
1761478791187445200,7.1874453125,-0.22790347039699554,0.036248818039894104,-0.17549645900726318
1761478791197482000,7.19748193359375,-0.20305778086185455,0.03831543028354645,-0.11918790638446808
1761478791207518200,7.207518310546875,-0.1763039231300354,0.040643833577632904,-0.05223177745938301
1761478791217555000,7.217554931640625,-0.15735021233558655,0.03924886882305145,0.026320820674300194
1761478791227592200,7.22759228515625,-0.12782667577266693,0.03471430391073227,0.10545505583286285
1761478791237628200,7.237628173828125,-0.09494275599718094,0.027705397456884384,0.16309252381324768
1761478791247665200,7.2476650390625,-0.048646364361047745,0.003174221608787775,0.1932261884212494
1761478791257702100,7.2577021484375,0.009905627928674221,-0.0243197213858366,0.19829577207565308
1761478791267738000,7.267738037109375,0.07139401882886887,-0.0467107817530632,0.18277114629745483
1761478791277775000,7.277775146484375,0.11250683665275574,-0.050266899168491364,0.1678510457277298
1761478791287812400,7.287812255859375,0.1356976479291916,-0.041729602962732315,0.14988777041435242
1761478791297848300,7.297848388671875,0.1508808583021164,-0.023924507200717926,0.12381888180971146
1761478791307885000,7.307885009765625,0.1631721407175064,-0.013875335454940796,0.09927278757095337
1761478791317921300,7.31792138671875,0.19018805027008057,-0.029442043974995613,0.06794549524784088
1761478791327958000,7.3279580078125,0.208238422870636,-0.07191067188978195,0.04309260845184326
1761478791337994500,7.337994384765625,0.2137916535139084,-0.10440097749233246,0.03585120663046837
1761478791348030500,7.348030517578125,0.20381012558937073,-0.1167476549744606,0.043646279722452164
1761478791358067700,7.358067626953125,0.1879403442144394,-0.10528407990932465,0.05210820958018303
1761478791368104700,7.368104736328125,0.1630118191242218,-0.07622606307268143,0.057979412376880646
1761478791378140700,7.378140625,0.13749846816062927,-0.05526192486286163,0.06172221899032593
1761478791388177700,7.388177734375,0.13795414566993713,-0.030009297654032707,0.05088821426033974
1761478791398214700,7.398214599609375,0.14391855895519257,0.000019707391402334906,0.0065465825609862804
1761478791408250600,7.408250732421875,0.13229705393314362,0.017018664628267288,-0.06931302696466446
1761478791418287900,7.418287841796875,0.09136852622032166,0.024633441120386124,-0.15925383567810059
1761478791428324600,7.42832470703125,0.028006333857774734,0.04525909200310707,-0.26067793369293213
1761478791438360600,7.438360595703125,-0.049549710005521774,0.0809188187122345,-0.34783652424812317
1761478791448397600,7.4483974609375,-0.13190902769565582,0.13979332149028778,-0.41586431860923767
1761478791458433500,7.45843359375,-0.18878349661827087,0.22448290884494781,-0.45743173360824585
1761478791468470500,7.468470458984375,-0.20579177141189575,0.29553738236427307,-0.4821775555610657
1761478791478507800,7.4785078125,-0.20617234706878662,0.36464133858680725,-0.4803359806537628
1761478791488543700,7.488543701171875,-0.18925940990447998,0.3843708336353302,-0.4302038550376892
1761478791498580700,7.498580810546875,-0.1461164653301239,0.3443600535392761,-0.35352078080177307
1761478791508617700,7.50861767578125,-0.09578564763069153,0.28956788778305054,-0.2747465968132019
1761478791518653700,7.51865380859375,-0.060926735401153564,0.21683163940906525,-0.198244109749794
1761478791528690700,7.528690673828125,-0.037571076303720474,0.15302976965904236,-0.14244875311851501
1761478791538727700,7.538727783203125,-0.03332999348640442,0.1279611587524414,-0.11972613632678986
1761478791548763600,7.548763671875,-0.0489150770008564,0.11010520160198212,-0.12577949464321136
1761478791558800600,7.558800537109375,-0.06426287442445755,0.061768826097249985,-0.13458923995494843
1761478791568836600,7.568836669921875,-0.0653156265616417,0.009436910971999168,-0.1433241367340088
1761478791578873600,7.57887353515625,-0.046835947781801224,-0.03538515418767929,-0.13652828335762024
1761478791588910600,7.58891064453125,-0.017680194228887558,-0.06907946616411209,-0.09715504199266434
1761478791598946600,7.598946533203125,0.03338432312011719,-0.07176420092582703,-0.028928320854902267
1761478791608983800,7.60898388671875,0.06837506592273712,-0.053351905196905136,0.03500086069107056
1761478791619020800,7.619020751953125,0.08356679975986481,-0.0224994495511055,0.06084683910012245
1761478791629056800,7.629056884765625,0.08545311540365219,-0.006668555550277233,0.046607449650764465
1761478791639093800,7.63909375,0.06551802158355713,-0.004822718445211649,0.00897005945444107
1761478791649129700,7.649129638671875,0.04278608039021492,-0.02226429246366024,-0.040472593158483505
1761478791659166500,7.65916650390625,0.027187146246433258,-0.05413727089762688,-0.09995109587907791
1761478791669203700,7.66920361328125,0.03165646269917488,-0.06642882525920868,-0.14331507682800293
1761478791679239700,7.67923974609375,0.04551315680146217,-0.06493798643350601,-0.1662885695695877
1761478791689276700,7.689276611328125,0.05422302335500717,-0.0564986951649189,-0.16912883520126343
1761478791699313700,7.699313720703125,0.06528552621603012,-0.02815520577132702,-0.1577422320842743
1761478791709349600,7.709349609375,0.06301944702863693,0.0040765004232525826,-0.13669313490390778
1761478791719386600,7.71938671875,0.05163709446787834,0.03483521193265915,-0.11739027500152588
1761478791729424000,7.729423828125,0.0417674221098423,0.055337026715278625,-0.09715823829174042
1761478791739459800,7.7394599609375,0.043843887746334076,0.05757274851202965,-0.06737344712018967
1761478791749496600,7.74949658203125,0.07164888828992844,0.03843367472290993,-0.028383171185851097
1761478791759532800,7.75953271484375,0.11726111173629761,-0.013912353664636612,0.014272945001721382
1761478791769569500,7.769569580078125,0.16862070560455322,-0.0746111199259758,0.05993683636188507
1761478791779606500,7.7796064453125,0.2147218883037567,-0.1255672425031662,0.10014151781797409
1761478791789642500,7.789642578125,0.23482875525951385,-0.16186480224132538,0.1419169306755066
1761478791799679700,7.7996796875,0.23584821820259094,-0.16958343982696533,0.19142748415470123
1761478791809716700,7.809716796875,0.2124241143465042,-0.15849563479423523,0.24114976823329926
1761478791819752700,7.819752685546875,0.178406223654747,-0.12874147295951843,0.2670450210571289
1761478791829789700,7.829789794921875,0.14791277050971985,-0.09079967439174652,0.25891146063804626
1761478791839825700,7.83982568359375,0.1383882313966751,-0.044809550046920776,0.21149148046970367
1761478791849862700,7.849862548828125,0.14474520087242126,-0.001463406952098012,0.15134930610656738
1761478791859899600,7.859899658203125,0.15772731602191925,0.04011865705251694,0.11162559688091278
1761478791869935900,7.869935791015625,0.17232303321361542,0.0689777359366417,0.09307455271482468
1761478791879972600,7.87997265625,0.15876515209674835,0.085188128054142,0.07499168813228607
1761478791890009600,7.890009521484375,0.12813906371593475,0.11986541748046875,0.05410371348261833
1761478791900045600,7.900045654296875,0.07328672707080841,0.1296836882829666,0.03927603363990784
1761478791910082600,7.91008251953125,0.014332599937915802,0.12136877328157425,0.038360971957445145
1761478791920118500,7.920118408203125,-0.05489121004939079,0.10392346978187561,0.04433896765112877
1761478791930155800,7.93015576171875,-0.13245205581188202,0.07150747627019882,0.05505792424082756
1761478791940192800,7.94019287109375,-0.21337832510471344,0.03946112468838692,0.06718196719884872
1761478791950228700,7.950228759765625,-0.2917815148830414,0.05582065507769585,0.08615698665380478
1761478791960265700,7.960265625,-0.3414191007614136,0.08664248138666153,0.10670167952775955
1761478791970302500,7.970302490234375,-0.33080774545669556,0.16028794646263123,0.08715194463729858
1761478791980338700,7.980338623046875,-0.2710626721382141,0.3179052770137787,0.020845627412199974
1761478791990375700,7.990375732421875,-0.1664656698703766,0.482452392578125,-0.0821092501282692
1761478792000411600,8.00041162109375,-0.04861653968691826,0.5676857829093933,-0.17442800104618073
1761478792010448600,8.01044873046875,0.03947363793849945,0.5865721702575684,-0.2282337099313736
1761478792020485600,8.020485595703125,0.10555971413850784,0.5742275714874268,-0.24005547165870667
1761478792030521600,8.030521484375,0.17226816713809967,0.5740105509757996,-0.23086383938789368
1761478792040558600,8.04055859375,0.21470963954925537,0.5965427756309509,-0.185390904545784
1761478792050595800,8.050595947265625,0.2624585032463074,0.6368491649627686,-0.12306174635887146
1761478792060631800,8.0606318359375,0.2956140637397766,0.6295939087867737,-0.0665702372789383
1761478792070668800,8.070668701171876,0.2684799134731293,0.5741572976112366,0.010730940848588943
1761478792080704800,8.080704833984376,0.2006835639476776,0.4310363531112671,0.11506080627441406
1761478792090741800,8.09074169921875,0.12315814942121506,0.22305625677108765,0.23755955696105957
1761478792100778500,8.100778564453124,0.056541040539741516,0.028861742466688156,0.3396260142326355
1761478792110814500,8.110814453125,0.014731275849044323,-0.1280011087656021,0.4039245545864105
1761478792120851700,8.120851806640625,0.0025326660834252834,-0.21004857122898102,0.44342803955078125
1761478792130887700,8.1308876953125,0.005771602503955364,-0.2565532326698303,0.452862024307251
1761478792140924700,8.140924560546875,0.00871972180902958,-0.28012219071388245,0.44487279653549194
1761478792150961700,8.150961669921875,0.009069927968084812,-0.2808047831058502,0.406497985124588
1761478792160997600,8.16099755859375,-0.015063904225826263,-0.25934261083602905,0.33988940715789795
1761478792171034600,8.17103466796875,-0.021262411028146744,-0.2563646733760834,0.24350586533546448
1761478792181072000,8.18107177734375,-0.020604344084858894,-0.237732395529747,0.1454607993364334
1761478792191107800,8.19110791015625,-0.002569684060290456,-0.2260216772556305,0.05796130374073982
1761478792201144600,8.20114453125,0.013308614492416382,-0.2062375843524933,0.002671416848897934
1761478792211180800,8.211180908203126,0.023376429453492165,-0.12569400668144226,-0.02503850683569908
1761478792221217500,8.221217529296876,0.06833431869745255,0.02930915355682373,0.031134484335780144
1761478792231254500,8.231254638671874,0.09313633292913437,0.20440080761909485,0.11927526444196701
1761478792241290500,8.24129052734375,0.1710367202758789,0.0150990579277277,-0.07037775963544846
1761478792251327700,8.25132763671875,0.19391833245754242,0.11952666193246841,-0.06791353970766068
1761478792261363700,8.26136376953125,0.16808061301708221,0.2092704027891159,0.004601409658789635
1761478792271400700,8.271400634765625,0.10447607189416885,0.18167871236801147,0.060571469366550446
1761478792281437700,8.281437744140625,0.07280789315700531,0.18732009828090668,0.13562440872192383
1761478792291473700,8.2914736328125,0.048468731343746185,0.12972576916217804,0.16663292050361633
1761478792301510700,8.3015107421875,0.08755754679441452,-0.0149800144135952,0.13589578866958618
