time,seconds_elapsed,z,y,x
1761505183336177400,0.077177490234375,-1.014495849609375,0.03289794921875,-0.2500762939453125
1761505183346212400,0.08721240234375,-1.022979736328125,0.030059814453125,-0.25213623046875
1761505183356248300,0.097248291015625,-1.0224761962890625,0.022491455078125,-0.2493896484375
1761505183366283500,0.107283447265625,-1.0067138671875,0.013641357421875,-0.246734619140625
1761505183376318500,0.117318359375,-1.000213623046875,0.00537109375,-0.24603271484375
1761505183386354400,0.1273544921875,-0.99822998046875,-0.0079193115234375,-0.242828369140625
1761505183396389400,0.137389404296875,-0.9891815185546875,-0.02655029296875,-0.2371063232421875
1761505183406424600,0.147424560546875,-0.98712158203125,-0.0378570556640625,-0.234588623046875
1761505183416460500,0.15746044921875,-1.0001983642578125,-0.030120849609375,-0.2463226318359375
1761505183426495500,0.16749560546875,-1.0011444091796875,-0.0266876220703125,-0.255157470703125
1761505183436530400,0.177530517578125,-1.0033416748046875,-0.0356292724609375,-0.2540435791015625
1761505183446565400,0.1875654296875,-0.990814208984375,-0.047271728515625,-0.2507781982421875
1761505183456601300,0.197601318359375,-0.9830780029296875,-0.053253173828125,-0.245330810546875
1761505183466636500,0.207636474609375,-0.9827117919921875,-0.060211181640625,-0.24261474609375
1761505183476671500,0.21767138671875,-0.97637939453125,-0.0599212646484375,-0.2342681884765625
1761505183486707500,0.22770751953125,-0.96551513671875,-0.060546875,-0.2162322998046875
1761505183496742400,0.237742431640625,-0.973907470703125,-0.0660247802734375,-0.197296142578125
1761505183506777600,0.247777587890625,-0.99749755859375,-0.065155029296875,-0.1951751708984375
1761505183516813600,0.2578134765625,-1.01556396484375,-0.054290771484375,-0.2083282470703125
1761505183526848500,0.2678486328125,-1.032470703125,-0.038360595703125,-0.2252044677734375
1761505183536883500,0.277883544921875,-1.063323974609375,-0.032073974609375,-0.242401123046875
1761505183546919400,0.28791943359375,-1.0810699462890625,-0.0419921875,-0.261383056640625
1761505183556954400,0.297954345703125,-1.077667236328125,-0.074371337890625,-0.283966064453125
1761505183566989300,0.3079892578125,-1.057525634765625,-0.1188812255859375,-0.3249969482421875
1761505183577025500,0.318025634765625,-1.0483856201171875,-0.1544952392578125,-0.3780517578125
1761505183587060500,0.328060546875,-1.0453948974609375,-0.182830810546875,-0.414093017578125
1761505183597095400,0.338095458984375,-1.0408477783203125,-0.1894683837890625,-0.4179534912109375
1761505183607131400,0.34813134765625,-1.0344085693359375,-0.16815185546875,-0.3957977294921875
1761505183617166600,0.35816650390625,-1.0080718994140625,-0.1385040283203125,-0.3547210693359375
1761505183627201500,0.368201416015625,-0.9906768798828125,-0.1169586181640625,-0.3033599853515625
1761505183637237500,0.378237548828125,-0.9897003173828125,-0.101409912109375,-0.251922607421875
1761505183647272400,0.3882724609375,-0.979034423828125,-0.079620361328125,-0.2151336669921875
1761505183657307400,0.398307373046875,-0.9507598876953125,-0.0533447265625,-0.18927001953125
1761505183667343400,0.40834326171875,-0.92529296875,-0.0330047607421875,-0.1781005859375
1761505183677378300,0.41837841796875,-0.926422119140625,-0.01702880859375,-0.189697265625
1761505183687413500,0.42841357421875,-0.941741943359375,-0.0110931396484375,-0.20245361328125
1761505183697449500,0.438449462890625,-0.9310150146484375,-0.0199737548828125,-0.20684814453125
1761505183707484400,0.448484375,-0.910675048828125,-0.032470703125,-0.210784912109375
1761505183717519600,0.45851953125,-0.906158447265625,-0.0354766845703125,-0.227142333984375
1761505183727555600,0.4685556640625,-0.891326904296875,-0.036865234375,-0.242584228515625
1761505183737590500,0.478590576171875,-0.874725341796875,-0.0381927490234375,-0.2514801025390625
1761505183747625500,0.48862548828125,-0.861724853515625,-0.0424041748046875,-0.25250244140625
1761505183757661400,0.498661376953125,-0.86279296875,-0.0473480224609375,-0.253448486328125
1761505183767696400,0.5086962890625,-0.87664794921875,-0.049224853515625,-0.2579803466796875
1761505183777731300,0.5187314453125,-0.899658203125,-0.0478668212890625,-0.2613067626953125
1761505183787767300,0.528767333984375,-0.93023681640625,-0.0466461181640625,-0.260986328125
1761505183797802500,0.538802490234375,-0.9625701904296875,-0.0464630126953125,-0.253997802734375
1761505183807837400,0.54883740234375,-0.985748291015625,-0.0490570068359375,-0.24224853515625
1761505183817872600,0.55887255859375,-0.9922332763671875,-0.0533599853515625,-0.228973388671875
1761505183827908600,0.56890869140625,-0.9740142822265625,-0.0604705810546875,-0.218170166015625
1761505183837943600,0.578943603515625,-0.949920654296875,-0.069305419921875,-0.2181549072265625
1761505183847978200,0.588978271484375,-0.93084716796875,-0.084625244140625,-0.2312469482421875
1761505183858014500,0.599014404296875,-0.9169769287109375,-0.1031951904296875,-0.2491912841796875
1761505183868049400,0.60904931640625,-0.9270782470703125,-0.12579345703125,-0.2697601318359375
1761505183878084400,0.61908447265625,-0.9465179443359375,-0.147064208984375,-0.287811279296875
1761505183888120300,0.629120361328125,-0.9764862060546875,-0.164581298828125,-0.310302734375
1761505183898155500,0.639155517578125,-1.0006866455078125,-0.1730194091796875,-0.337310791015625
1761505183908190500,0.6491904296875,-1.0016021728515625,-0.1845703125,-0.3578033447265625
1761505183918226400,0.659226318359375,-0.9942626953125,-0.1984100341796875,-0.3674468994140625
1761505183928261600,0.66926171875,-0.9942779541015625,-0.205474853515625,-0.372467041015625
1761505183938296600,0.679296630859375,-0.9965057373046875,-0.2101287841796875,-0.3732452392578125
1761505183948332500,0.68933251953125,-0.9832000732421875,-0.2085418701171875,-0.3587799072265625
1761505183958367200,0.6993671875,-0.962158203125,-0.2037200927734375,-0.33575439453125
1761505183968402400,0.70940234375,-0.947479248046875,-0.1956634521484375,-0.31878662109375
1761505183978438400,0.7194384765625,-0.9431610107421875,-0.1787872314453125,-0.30816650390625
1761505183988473300,0.729473388671875,-0.943084716796875,-0.1634674072265625,-0.2944183349609375
1761505183998508500,0.739508544921875,-0.9442901611328125,-0.1551361083984375,-0.2788238525390625
1761505184008544500,0.74954443359375,-0.9728851318359375,-0.143402099609375,-0.2745208740234375
1761505184018579500,0.759579345703125,-0.982666015625,-0.13623046875,-0.2710723876953125
1761505184028614400,0.769614501953125,-0.9780426025390625,-0.1311798095703125,-0.2497406005859375
1761505184038650600,0.779650634765625,-0.9650726318359375,-0.130828857421875,-0.2267303466796875
1761505184048685600,0.789685546875,-0.948822021484375,-0.130706787109375,-0.2152862548828125
1761505184058720300,0.79972021484375,-0.9226226806640625,-0.13507080078125,-0.2121734619140625
1761505184068756200,0.809756103515625,-0.8979644775390625,-0.1431427001953125,-0.2061920166015625
1761505184078791400,0.81979150390625,-0.880279541015625,-0.15228271484375,-0.2069244384765625
1761505184088826400,0.829826416015625,-0.887603759765625,-0.14935302734375,-0.2182769775390625
1761505184098862300,0.8398623046875,-0.9058074951171875,-0.14520263671875,-0.2314453125
1761505184108897500,0.8498974609375,-0.9004364013671875,-0.153106689453125,-0.2332611083984375
1761505184118932500,0.859932373046875,-0.9055328369140625,-0.1589508056640625,-0.2321929931640625
1761505184128968400,0.869968505859375,-0.9236907958984375,-0.153900146484375,-0.238555908203125
1761505184139003400,0.88000341796875,-0.9349212646484375,-0.1477203369140625,-0.24005126953125
1761505184149038600,0.89003857421875,-0.94378662109375,-0.1456298828125,-0.243438720703125
1761505184159074600,0.900074462890625,-0.9376678466796875,-0.1513824462890625,-0.2447967529296875
1761505184169110300,0.9101103515625,-0.935394287109375,-0.157989501953125,-0.245758056640625
1761505184179145200,0.920145263671875,-0.933929443359375,-0.16552734375,-0.249176025390625
1761505184189181400,0.930181396484375,-0.93780517578125,-0.1728668212890625,-0.2564544677734375
1761505184199216400,0.94021630859375,-0.943572998046875,-0.1732025146484375,-0.26739501953125
1761505184209251300,0.950251220703125,-0.958526611328125,-0.1672515869140625,-0.2826995849609375
1761505184219287300,0.960287353515625,-0.9782867431640625,-0.16693115234375,-0.3011474609375
1761505184229322500,0.970322509765625,-0.990203857421875,-0.168365478515625,-0.308990478515625
1761505184239357200,0.980357177734375,-1.003204345703125,-0.165069580078125,-0.3088226318359375
1761505184249393200,0.99039306640625,-1.0044097900390625,-0.16943359375,-0.2968597412109375
1761505184259428400,1.000428466796875,-0.9992218017578125,-0.176849365234375,-0.284881591796875
1761505184269463300,1.01046337890625,-0.98529052734375,-0.1792144775390625,-0.2822265625
1761505184279499300,1.020499267578125,-0.9633331298828125,-0.17596435546875,-0.284942626953125
1761505184289534200,1.0305341796875,-0.9397430419921875,-0.174591064453125,-0.2851104736328125
1761505184299569400,1.0405693359375,-0.9260406494140625,-0.1738433837890625,-0.2866058349609375
1761505184309605400,1.05060546875,-0.9102935791015625,-0.1717071533203125,-0.28533935546875
1761505184319640300,1.060640380859375,-0.9047088623046875,-0.1719512939453125,-0.2812957763671875
1761505184329675500,1.070675537109375,-0.909393310546875,-0.17852783203125,-0.2759246826171875
1761505184339711500,1.08071142578125,-0.9165191650390625,-0.183837890625,-0.2748870849609375
1761505184349746200,1.09074609375,-0.9289093017578125,-0.1801605224609375,-0.2818603515625
1761505184359781400,1.100781494140625,-0.9445953369140625,-0.17529296875,-0.292388916015625
1761505184369817300,1.1108173828125,-0.940643310546875,-0.174224853515625,-0.2919769287109375
1761505184379852300,1.120852294921875,-0.93585205078125,-0.1739349365234375,-0.290618896484375
1761505184389887200,1.13088720703125,-0.935028076171875,-0.17388916015625,-0.290374755859375
1761505184399923200,1.140923095703125,-0.9334716796875,-0.1744537353515625,-0.293212890625
1761505184409958400,1.15095849609375,-0.9276275634765625,-0.1909332275390625,-0.2899169921875
1761505184419993300,1.160993408203125,-0.928436279296875,-0.2095794677734375,-0.2865142822265625
1761505184430029300,1.171029296875,-0.9366455078125,-0.2152862548828125,-0.2939910888671875
1761505184440064500,1.181064453125,-0.948516845703125,-0.2129669189453125,-0.3021087646484375
1761505184450099200,1.19109912109375,-0.9557342529296875,-0.2120513916015625,-0.305084228515625
1761505184460135200,1.20113525390625,-0.9576873779296875,-0.2103271484375,-0.3051605224609375
1761505184470170400,1.21117041015625,-0.9568023681640625,-0.2127532958984375,-0.2993011474609375
1761505184480205300,1.221205322265625,-0.9652862548828125,-0.214813232421875,-0.2951812744140625
1761505184490241300,1.2312412109375,-0.9706573486328125,-0.215087890625,-0.2965240478515625
1761505184500276200,1.241276123046875,-0.9691619873046875,-0.2148895263671875,-0.297760009765625
1761505184510311400,1.2513115234375,-0.9710235595703125,-0.2154541015625,-0.3001861572265625
1761505184520347400,1.261347412109375,-0.962646484375,-0.2203369140625,-0.2982177734375
1761505184530382300,1.27138232421875,-0.94207763671875,-0.22100830078125,-0.2923736572265625
1761505184540417500,1.28141748046875,-0.914459228515625,-0.2138824462890625,-0.2958984375
1761505184550453500,1.29145361328125,-0.9241485595703125,-0.1950225830078125,-0.314910888671875
1761505184560488200,1.30148828125,-0.9727325439453125,-0.1985626220703125,-0.320770263671875
1761505184570523100,1.311523193359375,-1.0128326416015625,-0.226043701171875,-0.3037567138671875
1761505184580559400,1.321559326171875,-1.046234130859375,-0.2335662841796875,-0.3030242919921875
1761505184590594300,1.33159423828125,-1.049774169921875,-0.2327880859375,-0.3123626708984375
1761505184600629200,1.341629150390625,-1.0340576171875,-0.219482421875,-0.3328094482421875
1761505184610665200,1.351665283203125,-1.022674560546875,-0.2022705078125,-0.3524627685546875
1761505184620700400,1.361700439453125,-1.022491455078125,-0.1831817626953125,-0.3602294921875
1761505184630735400,1.3717353515625,-1.026763916015625,-0.1709442138671875,-0.3480377197265625
1761505184640771300,1.381771240234375,-1.0360260009765625,-0.167022705078125,-0.3167724609375
1761505184650806500,1.391806640625,-1.039398193359375,-0.1615142822265625,-0.2778472900390625
1761505184660841200,1.40184130859375,-1.032135009765625,-0.147674560546875,-0.2460784912109375
1761505184670877200,1.411877197265625,-1.0089111328125,-0.13018798828125,-0.218841552734375
1761505184680912400,1.421912353515625,-0.98016357421875,-0.1140289306640625,-0.200775146484375
1761505184690947300,1.431947265625,-0.9658050537109375,-0.095367431640625,-0.201385498046875
1761505184700983300,1.4419833984375,-0.9617919921875,-0.0824127197265625,-0.2063751220703125
1761505184711018200,1.452018310546875,-0.9564666748046875,-0.0794219970703125,-0.210693359375
1761505184721053400,1.462053466796875,-0.9421844482421875,-0.0785369873046875,-0.21258544921875
1761505184731089400,1.47208935546875,-0.930084228515625,-0.0726165771484375,-0.2135772705078125
1761505184741124400,1.482124267578125,-0.9273223876953125,-0.0646820068359375,-0.2154083251953125
1761505184751159600,1.49215966796875,-0.9217681884765625,-0.0570068359375,-0.2149200439453125
1761505184761195500,1.502195556640625,-0.9183502197265625,-0.0525665283203125,-0.2084197998046875
1761505184771230200,1.512230224609375,-0.92059326171875,-0.047027587890625,-0.2042999267578125
1761505184781265200,1.52226513671875,-0.92462158203125,-0.044708251953125,-0.20159912109375
1761505184791301400,1.53230126953125,-0.9433441162109375,-0.041259765625,-0.2032470703125
1761505184801336300,1.54233642578125,-0.970367431640625,-0.03472900390625,-0.203582763671875
1761505184811372300,1.552372314453125,-0.9935760498046875,-0.030517578125,-0.2061920166015625
1761505184821407200,1.5624072265625,-1.0024871826171875,-0.022125244140625,-0.209075927734375
1761505184831442400,1.5724423828125,-1.0222625732421875,-0.0127716064453125,-0.2172393798828125
1761505184841478400,1.582478515625,-1.037567138671875,-0.0055694580078125,-0.220794677734375
1761505184851513300,1.592513427734375,-1.035888671875,-0.0052337646484375,-0.214508056640625
1761505184861548500,1.602548583984375,-1.0288238525390625,-0.0101776123046875,-0.20819091796875
1761505184871584500,1.61258447265625,-1.015350341796875,-0.0171356201171875,-0.2083892822265625
1761505184881619200,1.622619140625,-1.0018157958984375,-0.0225372314453125,-0.212860107421875
1761505184891654100,1.632654052734375,-0.9903106689453125,-0.0259552001953125,-0.2165069580078125
1761505184901690400,1.6426904296875,-0.980224609375,-0.02886962890625,-0.2188873291015625
1761505184911725300,1.652725341796875,-0.9813995361328125,-0.0303497314453125,-0.221160888671875
1761505184921760300,1.66276025390625,-0.985992431640625,-0.032073974609375,-0.2253265380859375
1761505184931796200,1.672796142578125,-0.98260498046875,-0.034454345703125,-0.22259521484375
1761505184941831400,1.68283154296875,-0.97802734375,-0.03411865234375,-0.2150726318359375
1761505184951866400,1.692866455078125,-0.9883270263671875,-0.0306854248046875,-0.2077178955078125
1761505184961902300,1.70290234375,-1.0012359619140625,-0.0254058837890625,-0.2064971923828125
1761505184971937500,1.7129375,-0.996185302734375,-0.020294189453125,-0.19927978515625
1761505184981972200,1.72297216796875,-0.9841461181640625,-0.016204833984375,-0.1891632080078125
1761505184992008200,1.73300830078125,-0.965362548828125,-0.01434326171875,-0.1802520751953125
1761505185002043100,1.743043212890625,-0.9636077880859375,-0.012542724609375,-0.1802825927734375
1761505185012078300,1.753078369140625,-0.9669189453125,-0.0087738037109375,-0.191253662109375
1761505185022114300,1.7631142578125,-0.9664459228515625,-0.005615234375,-0.2017974853515625
1761505185032149200,1.773149169921875,-0.9696502685546875,-0.0050201416015625,-0.207763671875
1761505185042184400,1.783184326171875,-0.975189208984375,-0.0015869140625,-0.2093505859375
1761505185052220400,1.793220458984375,-0.994110107421875,0.003997802734375,-0.2149200439453125
1761505185062255400,1.80325537109375,-1.0054473876953125,0.0086669921875,-0.2154083251953125
1761505185072290300,1.813290283203125,-1.012603759765625,0.011444091796875,-0.2066650390625
1761505185082326500,1.823326416015625,-1.0113372802734375,0.005706787109375,-0.1945343017578125
1761505185092361200,1.833361328125,-1.0091400146484375,0.0003204345703125,-0.1843109130859375
1761505185102396200,1.843396240234375,-1.0206298828125,0.0016021728515625,-0.1860504150390625
1761505185112432000,1.85343212890625,-1.021636962890625,0.00408935546875,-0.1902923583984375
1761505185122467300,1.86346728515625,-1.0117645263671875,0.0076141357421875,-0.1835479736328125
1761505185132502300,1.873502197265625,-0.99700927734375,0.0122222900390625,-0.174774169921875
1761505185142538200,1.883538330078125,-0.9874114990234375,0.013214111328125,-0.163177490234375
1761505185152573400,1.893573486328125,-0.9886322021484375,0.0086517333984375,-0.1543121337890625
1761505185162608400,1.9036083984375,-0.9977874755859375,0.003662109375,-0.14703369140625
1761505185172643800,1.913643798828125,-1.011260986328125,0.0006866455078125,-0.1453857421875
1761505185182679000,1.923678955078125,-1.0279998779296875,0.000762939453125,-0.1427764892578125
1761505185192713700,1.933713623046875,-1.0345001220703125,-0.000518798828125,-0.1369171142578125
1761505185202749700,1.943749755859375,-1.0312347412109375,-0.0063629150390625,-0.1275177001953125
1761505185212784600,1.95378466796875,-1.0222015380859375,-0.01361083984375,-0.11907958984375
1761505185222820900,1.96382080078125,-1.0050811767578125,-0.0179290771484375,-0.110321044921875
1761505185232855800,1.973855712890625,-0.9961700439453125,-0.0189666748046875,-0.1090545654296875
1761505185242890800,1.983890869140625,-0.991729736328125,-0.016815185546875,-0.112823486328125
1761505185252926700,1.9939267578125,-0.9861602783203125,-0.0168609619140625,-0.1216583251953125
1761505185262962000,2.0039619140625,-0.9940032958984375,-0.0164031982421875,-0.1353759765625
1761505185272996900,2.013996826171875,-0.9987030029296875,-0.0166778564453125,-0.1480255126953125
1761505185283032800,2.02403271484375,-0.9953765869140625,-0.0184173583984375,-0.1509246826171875
1761505185293068000,2.034068115234375,-0.9964599609375,-0.0208892822265625,-0.148040771484375
1761505185303102700,2.044102783203125,-1.00604248046875,-0.0235443115234375,-0.1461029052734375
1761505185313138700,2.054138671875,-1.023834228515625,-0.0264892578125,-0.150787353515625
1761505185323174000,2.064173828125,-1.0345458984375,-0.0276641845703125,-0.1535797119140625
1761505185333208800,2.074208740234375,-1.03631591796875,-0.0259552001953125,-0.15765380859375
1761505185343244800,2.084244873046875,-1.0272369384765625,-0.0221405029296875,-0.15936279296875
1761505185353279700,2.09427978515625,-1.011993408203125,-0.018341064453125,-0.158538818359375
1761505185363315000,2.10431494140625,-1.0032958984375,-0.01763916015625,-0.1611480712890625
1761505185373351000,2.114350830078125,-1.00653076171875,-0.0194091796875,-0.16583251953125
1761505185383385900,2.1243857421875,-1.01025390625,-0.0224151611328125,-0.1732635498046875
1761505185393421000,2.134421142578125,-1.01031494140625,-0.0281982421875,-0.1804351806640625
1761505185403457000,2.14445703125,-1.0151519775390625,-0.0339813232421875,-0.1866912841796875
1761505185413491700,2.15449169921875,-1.0209503173828125,-0.04388427734375,-0.187652587890625
1761505185423526700,2.164526611328125,-1.016021728515625,-0.0557098388671875,-0.1866912841796875
1761505185433563000,2.17456298828125,-1.010223388671875,-0.065216064453125,-0.1875
1761505185443597800,2.184597900390625,-0.9938201904296875,-0.069549560546875,-0.1862335205078125
1761505185453632800,2.1946328125,-0.9702911376953125,-0.0724029541015625,-0.18267822265625
1761505185463668700,2.204668701171875,-0.9437408447265625,-0.0723724365234375,-0.1746368408203125
1761505185473704000,2.214703857421875,-0.9303436279296875,-0.06964111328125,-0.1702117919921875
1761505185483739000,2.22473876953125,-0.9168548583984375,-0.067779541015625,-0.1668853759765625
1761505185493774800,2.23477490234375,-0.909637451171875,-0.065277099609375,-0.16412353515625
1761505185503810000,2.24481005859375,-0.91729736328125,-0.0597076416015625,-0.1611480712890625
1761505185513844700,2.2548447265625,-0.959442138671875,-0.057769775390625,-0.1691436767578125
1761505185523880700,2.264880615234375,-0.998321533203125,-0.055816650390625,-0.17462158203125
1761505185533915600,2.27491552734375,-1.029083251953125,-0.0529022216796875,-0.1736297607421875
1761505185543950800,2.284950927734375,-1.0687103271484375,-0.0465850830078125,-0.17620849609375
1761505185553986800,2.29498681640625,-1.0919189453125,-0.040618896484375,-0.178070068359375
1761505185564021800,2.305021728515625,-1.0985870361328125,-0.041015625,-0.1783599853515625
1761505185574057000,2.315056884765625,-1.083648681640625,-0.041839599609375,-0.1795196533203125
1761505185584093000,2.325093017578125,-1.056884765625,-0.04132080078125,-0.17901611328125
1761505185594128000,2.3351279296875,-1.0367279052734375,-0.0465850830078125,-0.182647705078125
1761505185604162800,2.345162841796875,-1.0166473388671875,-0.055633544921875,-0.1852874755859375
1761505185614199000,2.355198974609375,-1.0037078857421875,-0.067138671875,-0.1872711181640625
1761505185624233700,2.365233642578125,-0.9879150390625,-0.0755462646484375,-0.1862640380859375
1761505185634269700,2.375269775390625,-0.9736785888671875,-0.081756591796875,-0.186309814453125
1761505185644304600,2.3853046875,-0.9703216552734375,-0.0861663818359375,-0.183990478515625
1761505185654339800,2.39533984375,-0.971588134765625,-0.089111328125,-0.1839447021484375
1761505185664374800,2.405374755859375,-0.964385986328125,-0.089019775390625,-0.1798553466796875
1761505185674410800,2.41541064453125,-0.96575927734375,-0.0872650146484375,-0.173980712890625
1761505185684446000,2.425446044921875,-0.9696502685546875,-0.089752197265625,-0.1649932861328125
1761505185694481000,2.43548095703125,-0.9804534912109375,-0.0901336669921875,-0.159332275390625
1761505185704516900,2.445516845703125,-0.99853515625,-0.089752197265625,-0.1631927490234375
1761505185714551800,2.4555517578125,-1.00457763671875,-0.0898590087890625,-0.1638641357421875
1761505185724588000,2.465588134765625,-1.0112152099609375,-0.092498779296875,-0.1630401611328125
1761505185734622700,2.475622802734375,-1.01556396484375,-0.096893310546875,-0.161651611328125
1761505185744657700,2.48565771484375,-1.0172271728515625,-0.09844970703125,-0.166534423828125
1761505185754693600,2.495693603515625,-1.0096435546875,-0.09844970703125,-0.1686859130859375
1761505185764728800,2.505728759765625,-1.00103759765625,-0.0997314453125,-0.1693115234375
1761505185774763800,2.515763671875,-0.9934539794921875,-0.1012115478515625,-0.1725311279296875
1761505185784799700,2.5257998046875,-0.9911956787109375,-0.099365234375,-0.180145263671875
1761505185794835000,2.5358349609375,-0.99261474609375,-0.0940399169921875,-0.1879119873046875
1761505185804870000,2.545869873046875,-0.9956207275390625,-0.087066650390625,-0.188629150390625
1761505185814905900,2.55590576171875,-1.00537109375,-0.0791015625,-0.1826934814453125
1761505185824940800,2.56594091796875,-1.01031494140625,-0.0703277587890625,-0.173583984375
1761505185834975700,2.575975830078125,-1.01251220703125,-0.0615386962890625,-0.1625518798828125
1761505185845011700,2.58601171875,-1.0254364013671875,-0.05633544921875,-0.1533966064453125
1761505185855046700,2.596046630859375,-1.0238189697265625,-0.058197021484375,-0.143798828125
1761505185865081900,2.606081787109375,-1.013092041015625,-0.060943603515625,-0.1386260986328125
1761505185875117800,2.616117919921875,-1.008544921875,-0.0633087158203125,-0.13720703125
1761505185885152800,2.62615283203125,-1.00189208984375,-0.0667266845703125,-0.13714599609375
1761505185895188000,2.63618798828125,-0.995208740234375,-0.0686492919921875,-0.1416168212890625
1761505185905224000,2.646223876953125,-0.99163818359375,-0.069427490234375,-0.1492462158203125
1761505185915259000,2.6562587890625,-0.98773193359375,-0.0715484619140625,-0.1568450927734375
1761505185925293800,2.6662939453125,-0.985870361328125,-0.072998046875,-0.1616973876953125
1761505185935329800,2.676329833984375,-0.9888153076171875,-0.074066162109375,-0.1654205322265625
1761505185945364700,2.68636474609375,-0.9883270263671875,-0.07452392578125,-0.1643524169921875
1761505185955399700,2.696399658203125,-0.9864654541015625,-0.07904052734375,-0.1587677001953125
1761505185965435600,2.706435546875,-0.9853363037109375,-0.0848846435546875,-0.1533203125
1761505185975470800,2.716470947265625,-0.982666015625,-0.08770751953125,-0.150177001953125
1761505185985505800,2.726505859375,-0.9875946044921875,-0.0872039794921875,-0.149566650390625
1761505185995541800,2.736541748046875,-0.9989471435546875,-0.0872344970703125,-0.15228271484375
1761505186005577000,2.746576904296875,-0.998626708984375,-0.0866851806640625,-0.1548614501953125
1761505186015612000,2.75661181640625,-0.9973907470703125,-0.089752197265625,-0.15447998046875
1761505186025647900,2.76664794921875,-1.0076751708984375,-0.0936431884765625,-0.1551666259765625
1761505186035682800,2.776682861328125,-1.014251708984375,-0.09747314453125,-0.1560516357421875
1761505186045717800,2.7867177734375,-1.009613037109375,-0.1001739501953125,-0.15380859375
1761505186055753700,2.796753662109375,-1.0037689208984375,-0.1035614013671875,-0.1479644775390625
1761505186065788700,2.80678857421875,-0.9990997314453125,-0.1097869873046875,-0.1451416015625
1761505186075823900,2.816823974609375,-0.9984588623046875,-0.1159820556640625,-0.1451416015625
1761505186085859800,2.82685986328125,-0.996795654296875,-0.11993408203125,-0.1491241455078125
1761505186095894800,2.836894775390625,-0.998199462890625,-0.122589111328125,-0.15625
1761505186105929700,2.8469296875,-1.00177001953125,-0.1236724853515625,-0.16455078125
1761505186115966000,2.856966064453125,-0.99908447265625,-0.125518798828125,-0.1697845458984375
1761505186126001000,2.8670009765625,-0.9967803955078125,-0.121368408203125,-0.1725311279296875
1761505186136035800,2.877035888671875,-0.9906768798828125,-0.1112823486328125,-0.1756134033203125
1761505186146071800,2.88707177734375,-0.983551025390625,-0.0915679931640625,-0.18048095703125
1761505186156106800,2.897106689453125,-0.9891510009765625,-0.0643157958984375,-0.189300537109375
1761505186166141700,2.9071416015625,-1.0059967041015625,-0.0469512939453125,-0.190948486328125
1761505186176177700,2.917177734375,-1.0341033935546875,-0.0468292236328125,-0.1826934814453125
1761505186186212900,2.927212890625,-1.0757904052734375,-0.05914306640625,-0.1662139892578125
1761505186196247800,2.937247802734375,-1.1216888427734375,-0.0748138427734375,-0.14996337890625
1761505186206283800,2.94728369140625,-1.160491943359375,-0.0798797607421875,-0.1378173828125
1761505186216318700,2.957318603515625,-1.174835205078125,-0.076324462890625,-0.1270599365234375
1761505186226354000,2.96735400390625,-1.1551971435546875,-0.0738677978515625,-0.1155548095703125
1761505186236390000,2.977389892578125,-1.107025146484375,-0.0734405517578125,-0.1053924560546875
1761505186246424800,2.9874248046875,-1.0540771484375,-0.07244873046875,-0.098114013671875
1761505186256459800,2.997459716796875,-1.005859375,-0.07550048828125,-0.0949554443359375
1761505186266495700,3.007495849609375,-0.973297119140625,-0.07904052734375,-0.0858154296875
1761505186276530700,3.01753076171875,-0.9484100341796875,-0.08575439453125,-0.0811920166015625
1761505186286566000,3.02756591796875,-0.9530487060546875,-0.0904693603515625,-0.08709716796875
1761505186296601900,3.037601806640625,-0.978546142578125,-0.085601806640625,-0.1113739013671875
1761505186306636800,3.04763671875,-1.0100250244140625,-0.0698394775390625,-0.1482086181640625
1761505186316671700,3.057671630859375,-1.0311126708984375,-0.054473876953125,-0.1848602294921875
1761505186326707700,3.067707763671875,-1.037994384765625,-0.04473876953125,-0.2132110595703125
1761505186336743000,3.077742919921875,-1.0431671142578125,-0.0386962890625,-0.2335357666015625
1761505186346777900,3.08777783203125,-1.0387725830078125,-0.036529541015625,-0.246124267578125
1761505186356813800,3.097813720703125,-1.0292205810546875,-0.0378265380859375,-0.245819091796875
1761505186366848800,3.107848876953125,-1.0156097412109375,-0.0368499755859375,-0.240814208984375
1761505186376883700,3.1178837890625,-1.00872802734375,-0.03485107421875,-0.2379913330078125
1761505186386919700,3.127919677734375,-1.01129150390625,-0.0276641845703125,-0.2350921630859375
1761505186396955000,3.137954833984375,-1.01019287109375,-0.022125244140625,-0.2266693115234375
1761505186406989800,3.14798974609375,-1.0079803466796875,-0.0186920166015625,-0.2160797119140625
1761505186417025800,3.15802587890625,-1.0065460205078125,-0.0181732177734375,-0.2061614990234375
1761505186427060700,3.168060791015625,-1.013214111328125,-0.014190673828125,-0.206329345703125
1761505186437096000,3.178095947265625,-1.009002685546875,-0.0104522705078125,-0.2125396728515625
1761505186447132000,3.1881318359375,-0.9973297119140625,-0.0083465576171875,-0.215606689453125
1761505186457166800,3.198166748046875,-0.978973388671875,-0.0108642578125,-0.2183837890625
1761505186467201800,3.208201904296875,-0.9600372314453125,-0.020538330078125,-0.2212066650390625
1761505186477238000,3.218238037109375,-0.942657470703125,-0.030120849609375,-0.227325439453125
1761505186487272700,3.228272705078125,-0.930908203125,-0.0370941162109375,-0.23858642578125
1761505186497308000,3.238307861328125,-0.9275665283203125,-0.0398101806640625,-0.2559051513671875
1761505186507344000,3.24834375,-0.9263153076171875,-0.0350799560546875,-0.2729034423828125
1761505186517378800,3.25837890625,-0.92816162109375,-0.028717041015625,-0.28924560546875
1761505186527413800,3.268413818359375,-0.9306640625,-0.02362060546875,-0.3055572509765625
1761505186537449700,3.27844970703125,-0.92767333984375,-0.019500732421875,-0.3169403076171875
1761505186547485000,3.28848486328125,-0.9287567138671875,-0.0142364501953125,-0.3227386474609375
1761505186557520000,3.298519775390625,-0.9437103271484375,-0.0046234130859375,-0.3226318359375
1761505186567555800,3.308555908203125,-0.955718994140625,0.0066070556640625,-0.3197784423828125
1761505186577590800,3.3185908203125,-0.96429443359375,0.015045166015625,-0.3198394775390625
1761505186587625700,3.328625732421875,-0.9684906005859375,0.0212554931640625,-0.320709228515625
1761505186597661700,3.33866162109375,-0.977752685546875,0.0226593017578125,-0.325408935546875
1761505186607697000,3.34869677734375,-0.986602783203125,0.0183563232421875,-0.320648193359375
1761505186617731800,3.35873193359375,-0.9941864013671875,0.0107574462890625,-0.307342529296875
1761505186627767800,3.368767822265625,-1.001495361328125,0.001007080078125,-0.2947235107421875
1761505186637802800,3.378802734375,-1.0153656005859375,-0.00128173828125,-0.296173095703125
1761505186647838000,3.388837890625,-1.01007080078125,0.00262451171875,-0.3029022216796875
1761505186657874000,3.3988740234375,-0.99420166015625,0.0062255859375,-0.30718994140625
1761505186667908900,3.408908935546875,-0.9691314697265625,0.0027618408203125,-0.3113555908203125
1761505186677943800,3.41894384765625,-0.948974609375,-0.00830078125,-0.31365966796875
1761505186687980000,3.42897998046875,-0.93890380859375,-0.01934814453125,-0.3144989013671875
1761505186698014700,3.4390146484375,-0.93817138671875,-0.03460693359375,-0.3179931640625
1761505186708049700,3.449049560546875,-0.951812744140625,-0.0340728759765625,-0.3279571533203125
1761505186718086000,3.4590859375,-0.9624481201171875,-0.0202178955078125,-0.334320068359375
1761505186728120800,3.469120849609375,-0.97161865234375,-0.0233612060546875,-0.3311004638671875
1761505186738155800,3.47915576171875,-0.98974609375,-0.0302734375,-0.3256988525390625
1761505186748191700,3.489191650390625,-1.0145721435546875,-0.0382080078125,-0.3309173583984375
1761505186758227000,3.49922705078125,-1.0273895263671875,-0.0481719970703125,-0.33502197265625
1761505186768262000,3.509261962890625,-1.0318450927734375,-0.0581817626953125,-0.3384857177734375
1761505186778297900,3.5192978515625,-1.012237548828125,-0.0715484619140625,-0.33770751953125
1761505186788333000,3.5293330078125,-0.9817047119140625,-0.088592529296875,-0.3330841064453125
1761505186798367700,3.53936767578125,-0.9593963623046875,-0.101715087890625,-0.32232666015625
1761505186808403700,3.54940380859375,-0.94451904296875,-0.11346435546875,-0.305999755859375
1761505186818438700,3.559438720703125,-0.937896728515625,-0.1186370849609375,-0.295074462890625
1761505186828473900,3.569473876953125,-0.9515838623046875,-0.1200714111328125,-0.289215087890625
1761505186838509800,3.579509765625,-0.9649505615234375,-0.119781494140625,-0.283905029296875
1761505186848544800,3.589544677734375,-0.969696044921875,-0.12017822265625,-0.281768798828125
1761505186858580000,3.599580078125,-0.9625701904296875,-0.1222381591796875,-0.2787628173828125
1761505186868616000,3.609615966796875,-0.9519500732421875,-0.1225433349609375,-0.2722625732421875
1761505186878651000,3.61965087890625,-0.9485015869140625,-0.1228790283203125,-0.273773193359375
1761505186888685800,3.629685791015625,-0.945465087890625,-0.1189422607421875,-0.283843994140625
1761505186898722000,3.63972216796875,-0.944183349609375,-0.112060546875,-0.2973785400390625
1761505186908756700,3.6497568359375,-0.9427032470703125,-0.1126861572265625,-0.30499267578125
1761505186918791700,3.659791748046875,-0.9510955810546875,-0.1141357421875,-0.3076171875
1761505186928827600,3.66982763671875,-0.95184326171875,-0.1182403564453125,-0.3057098388671875
1761505186938862800,3.67986279296875,-0.9567718505859375,-0.118072509765625,-0.309417724609375
1761505186948897800,3.689897705078125,-0.9721527099609375,-0.1117095947265625,-0.319671630859375
1761505186958933800,3.699933837890625,-0.9878692626953125,-0.1116180419921875,-0.3333740234375
1761505186968969000,3.709968994140625,-1.0027008056640625,-0.1193389892578125,-0.3463592529296875
1761505186979004000,3.72000390625,-1.006317138671875,-0.134979248046875,-0.35577392578125
1761505186989039900,3.730039794921875,-1.0108795166015625,-0.1544036865234375,-0.3676605224609375
1761505186999074800,3.74007470703125,-1.0110931396484375,-0.1740570068359375,-0.376708984375
1761505187009109800,3.75010986328125,-1.000091552734375,-0.1900177001953125,-0.38165283203125
1761505187019145700,3.760145751953125,-0.978912353515625,-0.2052154541015625,-0.382354736328125
1761505187029180700,3.7701806640625,-0.9591522216796875,-0.21136474609375,-0.3839111328125
1761505187039215900,3.7802158203125,-0.9459991455078125,-0.2098846435546875,-0.380645751953125
1761505187049251800,3.790251953125,-0.9443359375,-0.200469970703125,-0.3748779296875
1761505187059286800,3.800286865234375,-0.935455322265625,-0.1881561279296875,-0.3632659912109375
1761505187069322000,3.810322021484375,-0.9295806884765625,-0.1777801513671875,-0.3421630859375
1761505187079358000,3.82035791015625,-0.93511962890625,-0.163848876953125,-0.3175201416015625
1761505187089393000,3.830392822265625,-0.932464599609375,-0.1468505859375,-0.296722412109375
1761505187099427800,3.840427734375,-0.92529296875,-0.1310272216796875,-0.26885986328125
1761505187109463800,3.8504638671875,-0.897674560546875,-0.1301727294921875,-0.2394256591796875
1761505187119498800,3.860498779296875,-0.8550567626953125,-0.140106201171875,-0.21807861328125
1761505187129533700,3.87053369140625,-0.8254241943359375,-0.15234375,-0.206146240234375
1761505187139569000,3.88056884765625,-0.82012939453125,-0.155975341796875,-0.2039031982421875
1761505187149604900,3.89060498046875,-0.8207855224609375,-0.158233642578125,-0.209686279296875
1761505187159639800,3.900639892578125,-0.8167724609375,-0.1604766845703125,-0.2246551513671875
1761505187169675500,3.910675537109375,-0.8080902099609375,-0.161163330078125,-0.2425537109375
1761505187179710700,3.920710693359375,-0.796173095703125,-0.1636505126953125,-0.25445556640625
1761505187189745700,3.93074560546875,-0.7979888916015625,-0.170867919921875,-0.258056640625
1761505187199780600,3.940780517578125,-0.8081207275390625,-0.1837158203125,-0.2533111572265625
1761505187209816600,3.950816650390625,-0.8315887451171875,-0.2008819580078125,-0.2403564453125
1761505187219851800,3.960851806640625,-0.86859130859375,-0.2193756103515625,-0.2279815673828125
1761505187229886700,3.97088671875,-0.8993682861328125,-0.237335205078125,-0.2254638671875
1761505187239922700,3.980922607421875,-0.9111480712890625,-0.2557373046875,-0.239715576171875
1761505187249958000,3.9909580078125,-0.912109375,-0.2725830078125,-0.257598876953125
1761505187259992600,4.00099267578125,-0.923583984375,-0.2874908447265625,-0.2650299072265625
1761505187270027500,4.011027587890625,-0.939727783203125,-0.2886505126953125,-0.26605224609375
1761505187280062700,4.021062744140625,-0.9500885009765625,-0.280609130859375,-0.2664642333984375
1761505187290097700,4.03109765625,-0.969390869140625,-0.27044677734375,-0.263946533203125
1761505187300132900,4.0411328125,-0.991180419921875,-0.26416015625,-0.25665283203125
1761505187310168800,4.0511689453125,-0.9862060546875,-0.2685394287109375,-0.2447509765625
1761505187320203800,4.061203857421875,-0.9745635986328125,-0.27783203125,-0.2257080078125
1761505187330238500,4.071238525390625,-0.966583251953125,-0.286224365234375,-0.2057342529296875
1761505187340274700,4.081274658203125,-0.950836181640625,-0.290130615234375,-0.1927032470703125
1761505187350309600,4.0913095703125,-0.932464599609375,-0.2780914306640625,-0.186248779296875
1761505187360344600,4.101344482421875,-0.9109649658203125,-0.2679901123046875,-0.1776275634765625
1761505187370380500,4.111380615234375,-0.888580322265625,-0.255218505859375,-0.15997314453125
1761505187380415700,4.121415771484375,-0.880615234375,-0.2329559326171875,-0.155242919921875
1761505187390450700,4.13145068359375,-0.8780670166015625,-0.212066650390625,-0.1478424072265625
1761505187400486700,4.141486572265625,-0.8748931884765625,-0.20233154296875,-0.1466827392578125
1761505187410521900,4.15152197265625,-0.879547119140625,-0.2018890380859375,-0.1521148681640625
1761505187420556800,4.161556884765625,-0.8936004638671875,-0.2099151611328125,-0.1633758544921875
1761505187430592800,4.1715927734375,-0.913604736328125,-0.226409912109375,-0.17413330078125
1761505187440627700,4.181627685546875,-0.945098876953125,-0.2396697998046875,-0.185638427734375
1761505187450662700,4.19166259765625,-0.9663238525390625,-0.2415008544921875,-0.20220947265625
1761505187460698600,4.20169873046875,-0.9927215576171875,-0.2321929931640625,-0.2161712646484375
1761505187470733600,4.211733642578125,-1.024810791015625,-0.2273406982421875,-0.2288970947265625
1761505187480768800,4.221768798828125,-1.0338897705078125,-0.2293243408203125,-0.2390289306640625
1761505187490804700,4.2318046875,-1.020965576171875,-0.2319488525390625,-0.246307373046875
1761505187500839700,4.241839599609375,-1.0017547607421875,-0.2303924560546875,-0.2564849853515625
1761505187510874600,4.25187451171875,-0.97332763671875,-0.227142333984375,-0.2588958740234375
1761505187520910800,4.261910888671875,-0.9516448974609375,-0.22393798828125,-0.2521514892578125
1761505187530945800,4.27194580078125,-0.9369659423828125,-0.2220611572265625,-0.244903564453125
1761505187540980700,4.281980712890625,-0.9261627197265625,-0.224945068359375,-0.2339324951171875
1761505187551016700,4.2920166015625,-0.9256744384765625,-0.22711181640625,-0.23114013671875
1761505187561051600,4.3020517578125,-0.9272613525390625,-0.229949951171875,-0.2406005859375
1761505187571086600,4.312086669921875,-0.9214324951171875,-0.2269134521484375,-0.2522735595703125
1761505187581122600,4.32212255859375,-0.9243011474609375,-0.226348876953125,-0.2617950439453125
1761505187591157800,4.33215771484375,-0.92236328125,-0.2325897216796875,-0.267791748046875
1761505187601192700,4.342192626953125,-0.9242706298828125,-0.2490081787109375,-0.2652435302734375
1761505187611228700,4.352228759765625,-0.9274139404296875,-0.2536163330078125,-0.2697601318359375
1761505187621263600,4.362263671875,-0.9270782470703125,-0.2386474609375,-0.291168212890625
1761505187631298800,4.372298828125,-0.927764892578125,-0.215850830078125,-0.3344573974609375
1761505187641334800,4.382334716796875,-0.9505157470703125,-0.2026519775390625,-0.37896728515625
1761505187651369700,4.39236962890625,-1.00384521484375,-0.2142791748046875,-0.4046630859375
1761505187661404700,4.40240478515625,-1.0707855224609375,-0.23272705078125,-0.409088134765625
1761505187671440600,4.412440673828125,-1.145263671875,-0.2478485107421875,-0.40740966796875
1761505187681475600,4.4224755859375,-1.2308197021484375,-0.2570343017578125,-0.4168853759765625
1761505187691510800,4.4325107421875,-1.2489776611328125,-0.260467529296875,-0.4278564453125
1761505187701546800,4.442546630859375,-1.2153472900390625,-0.223907470703125,-0.4410247802734375
1761505187711581700,4.452581787109375,-1.1981201171875,-0.1526031494140625,-0.4309234619140625
1761505187721616600,4.46261669921875,-1.1850433349609375,-0.1103515625,-0.3604583740234375
1761505187731651800,4.47265185546875,-1.1523895263671875,-0.123077392578125,-0.2631683349609375
1761505187741687800,4.482687744140625,-1.1084747314453125,-0.14337158203125,-0.1946563720703125
1761505187751722800,4.49272265625,-1.0536651611328125,-0.140838623046875,-0.1757354736328125
1761505187761757700,4.5027578125,-0.980133056640625,-0.1231689453125,-0.1886749267578125
1761505187771793700,4.512793701171875,-0.9098052978515625,-0.1089630126953125,-0.206298828125
1761505187781828600,4.52282861328125,-0.8617095947265625,-0.10577392578125,-0.2251129150390625
1761505187791863600,4.532863525390625,-0.837890625,-0.1044158935546875,-0.2347564697265625
1761505187801899800,4.542899658203125,-0.83660888671875,-0.098785400390625,-0.2385406494140625
1761505187811934700,4.552934814453125,-0.840911865234375,-0.09393310546875,-0.2253875732421875
1761505187821969700,4.5629697265625,-0.849151611328125,-0.0916748046875,-0.2005462646484375
1761505187832005600,4.573005615234375,-0.87939453125,-0.084442138671875,-0.1788787841796875
1761505187842041900,4.583041748046875,-0.915313720703125,-0.07574462890625,-0.168670654296875
1761505187852076800,4.593076904296875,-0.937896728515625,-0.0689849853515625,-0.1666717529296875
1761505187862112800,4.60311279296875,-0.9685821533203125,-0.06024169921875,-0.164825439453125
1761505187872147700,4.613147705078125,-1.01025390625,-0.0524139404296875,-0.168426513671875
1761505187882182700,4.6231826171875,-1.030426025390625,-0.050537109375,-0.172332763671875
1761505187892218600,4.633218505859375,-1.0405120849609375,-0.051025390625,-0.1736602783203125
1761505187902253600,4.643253662109375,-1.036163330078125,-0.0564422607421875,-0.1697845458984375
1761505187912288800,4.653288818359375,-1.0239715576171875,-0.0619354248046875,-0.1663055419921875
1761505187922324700,4.66332470703125,-1.00970458984375,-0.06500244140625,-0.1674346923828125
1761505187932359700,4.673359619140625,-0.994964599609375,-0.0642242431640625,-0.17413330078125
1761505187942394600,4.68339453125,-0.984375,-0.0644683837890625,-0.1766815185546875
1761505187952429800,4.693429931640625,-0.981536865234375,-0.064849853515625,-0.1712799072265625
1761505187962465800,4.7034658203125,-0.9872894287109375,-0.06317138671875,-0.1619415283203125
1761505187972500700,4.713500732421875,-0.9942626953125,-0.0562744140625,-0.1535797119140625
1761505187982535700,4.72353564453125,-0.9979248046875,-0.0490264892578125,-0.1456298828125
1761505187992571600,4.733571533203125,-1.0004730224609375,-0.04052734375,-0.138671875
1761505188002606600,4.743606689453125,-1.0005645751953125,-0.039306640625,-0.1347198486328125
1761505188012641800,4.753641845703125,-1.0020599365234375,-0.0391082763671875,-0.1352386474609375
1761505188022677800,4.763677734375,-1.0093536376953125,-0.036834716796875,-0.139739990234375
1761505188032712700,4.773712646484375,-1.017822265625,-0.0305023193359375,-0.1479644775390625
1761505188042747600,4.78374755859375,-1.0211639404296875,-0.025238037109375,-0.157196044921875
1761505188052783600,4.79378369140625,-1.01849365234375,-0.0253143310546875,-0.16717529296875
1761505188062818800,4.80381884765625,-1.0134735107421875,-0.022979736328125,-0.17730712890625
1761505188072853800,4.813853759765625,-1.0089263916015625,-0.0207061767578125,-0.188323974609375
1761505188082889700,4.8238896484375,-1.0027008056640625,-0.01776123046875,-0.1927642822265625
1761505188092924700,4.833924560546875,-0.9930572509765625,-0.0128021240234375,-0.1884002685546875
1761505188102959600,4.843959716796875,-0.9902496337890625,-0.0128326416015625,-0.1789093017578125
1761505188112995600,4.85399560546875,-0.9991607666015625,-0.0169219970703125,-0.16650390625
1761505188123030800,4.86403076171875,-1.007415771484375,-0.02239990234375,-0.1531982421875
1761505188133065700,4.874065673828125,-1.0085906982421875,-0.0271759033203125,-0.1467132568359375
1761505188143101700,4.884101806640625,-1.010986328125,-0.02557373046875,-0.149658203125
1761505188153136600,4.89413671875,-1.0186614990234375,-0.0139312744140625,-0.166748046875
1761505188163171800,4.904171875,-1.0098114013671875,-0.0053253173828125,-0.1760711669921875
1761505188173207600,4.91420751953125,-0.9915924072265625,-0.0023956298828125,-0.175323486328125
1761505188183242500,4.924242431640625,-0.96527099609375,-0.0020294189453125,-0.170166015625
1761505188193277700,4.934277587890625,-0.9574737548828125,-0.0059356689453125,-0.166473388671875
1761505188203313700,4.944313720703125,-0.964080810546875,-0.01495361328125,-0.166290283203125
1761505188213348600,4.9543486328125,-0.97723388671875,-0.0258026123046875,-0.16064453125
1761505188223383600,4.964383544921875,-0.9933624267578125,-0.03448486328125,-0.157257080078125
1761505188233419800,4.974419677734375,-1.0062103271484375,-0.03924560546875,-0.1591033935546875
1761505188243454500,4.984454345703125,-1.011505126953125,-0.0431671142578125,-0.1635284423828125
1761505188253489400,4.994489501953125,-1.00201416015625,-0.04986572265625,-0.1606292724609375
1761505188263525400,5.004525390625,-0.9860382080078125,-0.0584564208984375,-0.154693603515625
1761505188273560600,5.014560546875,-0.9791412353515625,-0.0613250732421875,-0.14727783203125
1761505188283595500,5.024595458984375,-0.971954345703125,-0.063995361328125,-0.1417388916015625
1761505188293631500,5.034631591796875,-0.9603118896484375,-0.0675201416015625,-0.131134033203125
1761505188303666700,5.044666748046875,-0.9487762451171875,-0.0728607177734375,-0.117645263671875
1761505188313701600,5.05470166015625,-0.9387969970703125,-0.0779876708984375,-0.1092987060546875
1761505188323737600,5.064737548828125,-0.9433746337890625,-0.076171875,-0.111907958984375
1761505188333772500,5.0747724609375,-0.96478271484375,-0.073944091796875,-0.1191864013671875
1761505188343807500,5.084807373046875,-0.9986724853515625,-0.0727386474609375,-0.1259002685546875
1761505188353843700,5.09484375,-1.030120849609375,-0.06768798828125,-0.1378631591796875
1761505188363878400,5.10487841796875,-1.0412139892578125,-0.0599822998046875,-0.1409454345703125
1761505188373913600,5.11491357421875,-1.044219970703125,-0.0608673095703125,-0.13409423828125
1761505188383949600,5.124949462890625,-1.0402679443359375,-0.06829833984375,-0.119842529296875
1761505188393984500,5.134984619140625,-1.0327606201171875,-0.0767822265625,-0.103363037109375
1761505188404019700,5.145019775390625,-1.0308837890625,-0.08197021484375,-0.088470458984375
1761505188414055700,5.1550556640625,-1.03533935546875,-0.082275390625,-0.0841064453125
1761505188424090600,5.165090576171875,-1.0412750244140625,-0.0751953125,-0.0937042236328125
1761505188434125600,5.17512548828125,-1.053741455078125,-0.062530517578125,-0.108367919921875
1761505188444161500,5.18516162109375,-1.0535125732421875,-0.0525665283203125,-0.12261962890625
1761505188454196700,5.19519677734375,-1.0420074462890625,-0.0474853515625,-0.130950927734375
1761505188464231400,5.2052314453125,-1.0334930419921875,-0.0468597412109375,-0.131622314453125
1761505188474267400,5.215267333984375,-1.020233154296875,-0.05255126953125,-0.1244964599609375
1761505188484302600,5.225302490234375,-1.0116119384765625,-0.061370849609375,-0.11669921875
1761505188494337500,5.235337646484375,-1.00543212890625,-0.0681610107421875,-0.1173248291015625
1761505188504373500,5.24537353515625,-0.99627685546875,-0.0793914794921875,-0.122314453125
1761505188514408700,5.25540869140625,-0.9837188720703125,-0.0903778076171875,-0.1282806396484375
1761505188524443600,5.265443603515625,-0.9712371826171875,-0.097412109375,-0.1310882568359375
1761505188534479600,5.275479736328125,-0.95721435546875,-0.102447509765625,-0.1337890625
1761505188544514600,5.2855146484375,-0.955078125,-0.1069488525390625,-0.13494873046875
1761505188554549500,5.295549560546875,-0.9597625732421875,-0.1135406494140625,-0.1353759765625
1761505188564585700,5.305585693359375,-0.96832275390625,-0.11920166015625,-0.132354736328125
1761505188574620400,5.315620361328125,-0.9835205078125,-0.1230926513671875,-0.1337127685546875
1761505188584655600,5.325655517578125,-0.9945220947265625,-0.1248626708984375,-0.1371307373046875
1761505188594691600,5.335691650390625,-1.0060577392578125,-0.1315460205078125,-0.139617919921875
1761505188604726500,5.3457265625,-1.009429931640625,-0.1394805908203125,-0.139739990234375
1761505188614761500,5.355761474609375,-1.0072021484375,-0.147125244140625,-0.136383056640625
1761505188624797700,5.365797607421875,-1.00384521484375,-0.1511077880859375,-0.13433837890625
1761505188634832600,5.37583251953125,-0.999786376953125,-0.1498565673828125,-0.1402130126953125
1761505188644867600,5.38586767578125,-0.9938812255859375,-0.1478118896484375,-0.146514892578125
1761505188654903600,5.395903564453125,-0.988739013671875,-0.1515960693359375,-0.1495361328125
1761505188664938800,5.405938720703125,-0.98870849609375,-0.156005859375,-0.1534423828125
1761505188674973400,5.415973388671875,-0.99346923828125,-0.1574859619140625,-0.16119384765625
1761505188685009400,5.426009521484375,-1.0040435791015625,-0.1590118408203125,-0.1690521240234375
1761505188695044600,5.436044677734375,-1.01849365234375,-0.158355712890625,-0.1757965087890625
1761505188705079600,5.44607958984375,-1.028533935546875,-0.1591339111328125,-0.1794891357421875
1761505188715115500,5.456115478515625,-1.038818359375,-0.1576995849609375,-0.1812591552734375
1761505188725150500,5.466150390625,-1.0319061279296875,-0.15521240234375,-0.1768035888671875
1761505188735185700,5.476185546875,-1.012939453125,-0.15460205078125,-0.1716461181640625
1761505188745221600,5.4862216796875,-0.9931793212890625,-0.155975341796875,-0.1715240478515625
1761505188755256600,5.496256591796875,-0.97967529296875,-0.1583251953125,-0.1689605712890625
1761505188765291800,5.506291748046875,-0.9754791259765625,-0.1638946533203125,-0.1635589599609375
1761505188775326500,5.516326416015625,-0.979827880859375,-0.1661224365234375,-0.1598358154296875
1761505188785362400,5.526362548828125,-0.9884490966796875,-0.16363525390625,-0.1578369140625
1761505188795397600,5.536397705078125,-0.9939422607421875,-0.1601104736328125,-0.15631103515625
1761505188805433600,5.54643359375,-1.00244140625,-0.155853271484375,-0.154937744140625
1761505188815468500,5.556468505859375,-1.020751953125,-0.1490020751953125,-0.156707763671875
1761505188825503500,5.56650341796875,-1.031463623046875,-0.142852783203125,-0.156036376953125
1761505188835538700,5.57653857421875,-1.029205322265625,-0.1382293701171875,-0.147613525390625
1761505188845574700,5.58657470703125,-1.0097503662109375,-0.13714599609375,-0.13836669921875
1761505188855609600,5.596609619140625,-0.9858551025390625,-0.139556884765625,-0.131439208984375
1761505188865644500,5.60664453125,-0.9708404541015625,-0.1421051025390625,-0.1267547607421875
1761505188875680800,5.6166806640625,-0.9659423828125,-0.1422119140625,-0.1239471435546875
1761505188885715500,5.626715576171875,-0.969146728515625,-0.1402435302734375,-0.1240997314453125
1761505188895750400,5.63675048828125,-0.969696044921875,-0.1375274658203125,-0.1292877197265625
1761505188905786600,5.64678662109375,-0.9619598388671875,-0.1303863525390625,-0.1380157470703125
1761505188915821600,5.656821533203125,-0.9593353271484375,-0.1198883056640625,-0.1451416015625
1761505188925856500,5.6668564453125,-0.95428466796875,-0.1090240478515625,-0.1488494873046875
1761505188935892500,5.676892578125,-0.976043701171875,-0.1056671142578125,-0.145599365234375
1761505188945927700,5.686927734375,-1.0016021728515625,-0.10321044921875,-0.1371917724609375
1761505188955962600,5.696962646484375,-1.0261688232421875,-0.09869384765625,-0.1348724365234375
1761505188965998600,5.70699853515625,-1.043701171875,-0.0959930419921875,-0.129608154296875
1761505188976033800,5.71703369140625,-1.0306549072265625,-0.096343994140625,-0.119720458984375
1761505188986068500,5.727068359375,-1.006195068359375,-0.09521484375,-0.11651611328125
1761505188996104400,5.7371044921875,-0.9732666015625,-0.099273681640625,-0.1146392822265625
1761505189006139400,5.747139404296875,-0.95037841796875,-0.1084136962890625,-0.1170196533203125
1761505189016174600,5.757174560546875,-0.9475555419921875,-0.1146087646484375,-0.1233367919921875
1761505189026210600,5.76721044921875,-0.9560699462890625,-0.115478515625,-0.1270599365234375
1761505189036245500,5.77724560546875,-0.9761810302734375,-0.1111907958984375,-0.1245269775390625
1761505189046280700,5.78728076171875,-0.9989166259765625,-0.10791015625,-0.1211700439453125
1761505189056316700,5.797316650390625,-1.009185791015625,-0.11041259765625,-0.118621826171875
1761505189066351600,5.8073515625,-1.0110931396484375,-0.1128997802734375,-0.117828369140625
1761505189076386800,5.81738671875,-1.0058746337890625,-0.115020751953125,-0.120208740234375
1761505189086422800,5.8274228515625,-0.99395751953125,-0.118896484375,-0.1208343505859375
1761505189096457500,5.83745751953125,-0.992889404296875,-0.124664306640625,-0.1204376220703125
1761505189106492400,5.847492431640625,-0.9951171875,-0.1320648193359375,-0.11859130859375
1761505189116528400,5.8575283203125,-1.006256103515625,-0.141754150390625,-0.1172943115234375
1761505189126563600,5.8675634765625,-1.01422119140625,-0.146270751953125,-0.1218719482421875
1761505189136598500,5.8775986328125,-1.021881103515625,-0.15179443359375,-0.1262359619140625
1761505189146634500,5.887634521484375,-1.0250091552734375,-0.1598052978515625,-0.12939453125
1761505189156669700,5.897669677734375,-1.017578125,-0.160675048828125,-0.134521484375
1761505189166704600,5.90770458984375,-1.0190887451171875,-0.141632080078125,-0.1562652587890625
1761505189176740600,5.91774072265625,-1.0107269287109375,-0.1067047119140625,-0.1826019287109375
1761505189186775800,5.92777587890625,-1.0022125244140625,-0.07769775390625,-0.1903533935546875
1761505189196810800,5.937810791015625,-1.0161590576171875,-0.0750885009765625,-0.177093505859375
1761505189206846700,5.9478466796875,-1.055938720703125,-0.1022796630859375,-0.1517181396484375
1761505189216881700,5.957881591796875,-1.11737060546875,-0.1223602294921875,-0.1363525390625
1761505189226916900,5.967916748046875,-1.166351318359375,-0.11383056640625,-0.135650634765625
1761505189236952800,5.977952880859375,-1.182525634765625,-0.090301513671875,-0.1404571533203125
1761505189246987500,5.987987548828125,-1.1780242919921875,-0.07611083984375,-0.1419219970703125
1761505189257022700,5.998022705078125,-1.1515045166015625,-0.0825347900390625,-0.133148193359375
1761505189267058700,6.00805859375,-1.1132049560546875,-0.0958099365234375,-0.11798095703125
1761505189277093600,6.01809375,-1.080108642578125,-0.0992889404296875,-0.11383056640625
1761505189287128600,6.028128662109375,-1.042572021484375,-0.093292236328125,-0.1203155517578125
1761505189297164800,6.038164794921875,-1.006622314453125,-0.0870361328125,-0.12969970703125
1761505189307199700,6.04819970703125,-0.976837158203125,-0.0836639404296875,-0.1385650634765625
1761505189317234700,6.058234619140625,-0.9495086669921875,-0.087066650390625,-0.14495849609375
1761505189327270000,6.068269775390625,-0.94146728515625,-0.091217041015625,-0.1544342041015625
1761505189337305900,6.078305908203125,-0.9407196044921875,-0.0928955078125,-0.1657562255859375
1761505189347340500,6.088340576171875,-0.946380615234375,-0.0895233154296875,-0.1825103759765625
1761505189357375700,6.098375732421875,-0.9588165283203125,-0.07867431640625,-0.2033843994140625
1761505189367411700,6.10841162109375,-0.9679412841796875,-0.0712432861328125,-0.221099853515625
1761505189377446700,6.11844677734375,-0.9811248779296875,-0.0667877197265625,-0.237213134765625
1761505189387481600,6.128481689453125,-0.998931884765625,-0.0646514892578125,-0.2549591064453125
1761505189397517600,6.138517578125,-1.01324462890625,-0.0570068359375,-0.2734832763671875
1761505189407552800,6.148552734375,-1.0225677490234375,-0.0511627197265625,-0.2981719970703125
1761505189417587700,6.158587646484375,-1.0187225341796875,-0.040924072265625,-0.3151702880859375
1761505189427623700,6.168623779296875,-0.997406005859375,-0.0328826904296875,-0.3192596435546875
1761505189437659000,6.178658935546875,-0.9644775390625,-0.0291748046875,-0.309722900390625
1761505189447693600,6.188693603515625,-0.94024658203125,-0.0303497314453125,-0.28887939453125
1761505189457729800,6.198729736328125,-0.9202880859375,-0.0295257568359375,-0.25982666015625
1761505189467764700,6.2087646484375,-0.9086456298828125,-0.029083251953125,-0.228973388671875
1761505189477799700,6.218799560546875,-0.90899658203125,-0.0283355712890625,-0.2007293701171875
1761505189487835600,6.228835693359375,-0.927642822265625,-0.0291748046875,-0.1778106689453125
1761505189497870600,6.23887060546875,-0.9523162841796875,-0.027984619140625,-0.1640472412109375
1761505189507905800,6.24890576171875,-0.9734039306640625,-0.0250396728515625,-0.161163330078125
1761505189517941800,6.258941650390625,-0.9823760986328125,-0.0192718505859375,-0.161956787109375
1761505189527976700,6.268976806640625,-0.9727630615234375,-0.0147552490234375,-0.1623687744140625
1761505189538012000,6.279011962890625,-0.9542236328125,-0.0092620849609375,-0.162628173828125
1761505189548048000,6.2890478515625,-0.935089111328125,-0.008392333984375,-0.1619720458984375
1761505189558082600,6.29908251953125,-0.9351654052734375,-0.0110931396484375,-0.1599578857421875
1761505189568117500,6.309117431640625,-0.955596923828125,-0.0119781494140625,-0.1608123779296875
1761505189578152700,6.319152587890625,-0.988555908203125,-0.0112762451171875,-0.16357421875
1761505189588188700,6.329188720703125,-1.0224761962890625,-0.01068115234375,-0.167694091796875
1761505189598223600,6.3392236328125,-1.0508270263671875,-0.011444091796875,-0.1703643798828125
1761505189608258800,6.3492587890625,-1.0641632080078125,-0.0140380859375,-0.1772918701171875
1761505189618294800,6.359294677734375,-1.0694732666015625,-0.01690673828125,-0.1885528564453125
1761505189628329700,6.369329833984375,-1.06646728515625,-0.0202484130859375,-0.200592041015625
1761505189638364700,6.37936474609375,-1.05792236328125,-0.021240234375,-0.217376708984375
1761505189648401000,6.38940087890625,-1.044281005859375,-0.01629638671875,-0.23809814453125
1761505189658435600,6.399435546875,-1.028594970703125,-0.013824462890625,-0.2523956298828125
1761505189668470500,6.409470458984375,-1.021636962890625,-0.016357421875,-0.260498046875
1761505189678506500,6.419506591796875,-1.01580810546875,-0.021087646484375,-0.26397705078125
1761505189688541700,6.429541748046875,-1.0115509033203125,-0.0170440673828125,-0.2686767578125
1761505189698576600,6.43957666015625,-1.00079345703125,-0.0063018798828125,-0.2804107666015625
1761505189708612600,6.449612548828125,-1.0001678466796875,0.006103515625,-0.2849273681640625
1761505189718647800,6.459647705078125,-1.014739990234375,0.0113372802734375,-0.2879791259765625
1761505189728682800,6.469682861328125,-1.0242156982421875,0.01153564453125,-0.2850341796875
1761505189738718700,6.47971875,-1.0348968505859375,0.0083465576171875,-0.2843780517578125
1761505189748753700,6.489753662109375,-1.036407470703125,0.0029144287109375,-0.2872467041015625
1761505189758788600,6.49978857421875,-1.037200927734375,-0.0045928955078125,-0.2896728515625
1761505189768824800,6.509824951171875,-1.034423828125,-0.0151519775390625,-0.2881622314453125
1761505189778859500,6.519859619140625,-1.030975341796875,-0.025909423828125,-0.2855377197265625
1761505189788894700,6.529894775390625,-1.01568603515625,-0.03387451171875,-0.2773284912109375
1761505189798930700,6.5399306640625,-0.98828125,-0.0404052734375,-0.2627410888671875
1761505189808965600,6.549965576171875,-0.9663543701171875,-0.0448150634765625,-0.250030517578125
1761505189819000800,6.560000732421875,-0.9532470703125,-0.0493316650390625,-0.2455291748046875
1761505189829036800,6.570036865234375,-0.9435272216796875,-0.0554046630859375,-0.242401123046875
1761505189839071700,6.58007177734375,-0.9458465576171875,-0.061065673828125,-0.2353668212890625
1761505189849106700,6.590106689453125,-0.9549713134765625,-0.0720062255859375,-0.2316131591796875
1761505189859141600,6.6001416015625,-0.973968505859375,-0.0806732177734375,-0.233062744140625
1761505189869177600,6.610177490234375,-0.9899139404296875,-0.0859375,-0.2380218505859375
1761505189879212500,6.620212646484375,-0.99346923828125,-0.0852813720703125,-0.2372283935546875
1761505189889247700,6.630247802734375,-0.9865570068359375,-0.0873260498046875,-0.2321929931640625
1761505189899283700,6.64028369140625,-0.9638214111328125,-0.0951385498046875,-0.2257843017578125
1761505189909318700,6.650318603515625,-0.94696044921875,-0.10003662109375,-0.220367431640625
1761505189919353600,6.660353515625,-0.9384613037109375,-0.103179931640625,-0.21978759765625
1761505189929389800,6.670389892578125,-0.9388427734375,-0.1080322265625,-0.219451904296875
1761505189939424800,6.6804248046875,-0.9474334716796875,-0.115631103515625,-0.2173614501953125
1761505189949459700,6.690459716796875,-0.956329345703125,-0.1198883056640625,-0.2152862548828125
1761505189959495700,6.70049560546875,-0.9638671875,-0.1185760498046875,-0.2173614501953125
1761505189969530600,6.710530517578125,-0.98236083984375,-0.1107330322265625,-0.2238006591796875
1761505189979565600,6.720565673828125,-0.99273681640625,-0.10247802734375,-0.231964111328125
1761505189989601500,6.7306015625,-0.990447998046875,-0.0924072265625,-0.235198974609375
1761505189999636700,6.74063671875,-0.978485107421875,-0.0874176025390625,-0.2305450439453125
1761505190009671700,6.750671630859375,-0.965545654296875,-0.084381103515625,-0.22821044921875
1761505190019707600,6.760707763671875,-0.95928955078125,-0.0789031982421875,-0.233184814453125
1761505190029742600,6.77074267578125,-0.961639404296875,-0.0766754150390625,-0.2417144775390625
1761505190039777800,6.78077783203125,-0.96160888671875,-0.0787506103515625,-0.2530670166015625
1761505190049812700,6.790812744140625,-0.9495086669921875,-0.0810699462890625,-0.2581939697265625
1761505190059848700,6.8008486328125,-0.9366302490234375,-0.0828399658203125,-0.2519989013671875
1761505190069883600,6.810883544921875,-0.9290313720703125,-0.0921173095703125,-0.236297607421875
1761505190079918600,6.820918701171875,-0.927978515625,-0.1058197021484375,-0.2213592529296875
1761505190089954600,6.83095458984375,-0.9398040771484375,-0.1160125732421875,-0.2176971435546875
1761505190099989800,6.84098974609375,-0.9488067626953125,-0.12200927734375,-0.220123291015625
1761505190110024700,6.851024658203125,-0.9510650634765625,-0.127899169921875,-0.22064208984375
1761505190120060700,6.861060791015625,-0.9381103515625,-0.133819580078125,-0.2195587158203125
1761505190130095600,6.871095703125,-0.9167938232421875,-0.137786865234375,-0.2172393798828125
1761505190140130800,6.881130859375,-0.897979736328125,-0.14056396484375,-0.2159271240234375
1761505190150166800,6.891166748046875,-0.8872528076171875,-0.143707275390625,-0.215484619140625
1761505190160201700,6.90120166015625,-0.8893585205078125,-0.1477508544921875,-0.2197265625
1761505190170236700,6.911236572265625,-0.897430419921875,-0.150482177734375,-0.22149658203125
1761505190180273200,6.921273193359375,-0.922637939453125,-0.152679443359375,-0.2180938720703125
1761505190190308000,6.93130810546875,-0.94708251953125,-0.15924072265625,-0.214752197265625
1761505190200342800,6.9413427734375,-0.95294189453125,-0.1655120849609375,-0.21142578125
1761505190210379000,6.95137890625,-0.95355224609375,-0.1690673828125,-0.2153472900390625
1761505190220414000,6.9614140625,-0.9486541748046875,-0.1718292236328125,-0.2231903076171875
1761505190230449000,6.971448974609375,-0.94110107421875,-0.1757659912109375,-0.235809326171875
1761505190240484900,6.98148486328125,-0.9379425048828125,-0.1781158447265625,-0.248809814453125
1761505190250520000,6.99152001953125,-0.9453125,-0.1813812255859375,-0.252105712890625
1761505190260555000,7.001554931640625,-0.9615325927734375,-0.19805908203125,-0.247344970703125
1761505190270591000,7.011591064453125,-0.9814605712890625,-0.2110595703125,-0.2439422607421875
1761505190280626200,7.021626220703125,-0.9719390869140625,-0.2256011962890625,-0.2404327392578125
1761505190290661000,7.0316611328125,-0.9778594970703125,-0.234649658203125,-0.2342681884765625
1761505190300695800,7.04169580078125,-0.9976806640625,-0.236572265625,-0.222900390625
1761505190310731800,7.051731689453125,-0.9964141845703125,-0.245147705078125,-0.216552734375
1761505190320767000,7.06176708984375,-0.9896240234375,-0.2535858154296875,-0.217132568359375
1761505190330802000,7.071802001953125,-0.9874725341796875,-0.2615814208984375,-0.2141571044921875
1761505190340838000,7.081837890625,-1.0014801025390625,-0.268157958984375,-0.2081146240234375
1761505190350873000,7.091873046875,-1.019256591796875,-0.26983642578125,-0.2032623291015625
1761505190360908000,7.101907958984375,-1.0230560302734375,-0.26971435546875,-0.1951751708984375
1761505190370944000,7.111944091796875,-1.0069732666015625,-0.2725067138671875,-0.18145751953125
1761505190380979000,7.12197900390625,-0.9853668212890625,-0.277679443359375,-0.1631011962890625
1761505190391014100,7.13201416015625,-0.9529571533203125,-0.280059814453125,-0.145782470703125
1761505190401050000,7.142050048828125,-0.9224090576171875,-0.2786407470703125,-0.1248931884765625
1761505190411084800,7.152084716796875,-0.9033203125,-0.2758941650390625,-0.10638427734375
1761505190421120000,7.1621201171875,-0.8910980224609375,-0.275238037109375,-0.089630126953125
1761505190431156000,7.172156005859375,-0.89581298828125,-0.27569580078125,-0.0794677734375
1761505190441191000,7.18219091796875,-0.9068450927734375,-0.27301025390625,-0.080963134765625
1761505190451226000,7.19222607421875,-0.9089813232421875,-0.267242431640625,-0.09222412109375
1761505190461261000,7.202260986328125,-0.922698974609375,-0.2545013427734375,-0.1204376220703125
1761505190471297000,7.212297119140625,-0.9374237060546875,-0.2470245361328125,-0.1435699462890625
1761505190481332000,7.22233203125,-0.9502716064453125,-0.2529754638671875,-0.15020751953125
1761505190491367200,7.2323671875,-0.962554931640625,-0.2500762939453125,-0.142333984375
1761505190501403100,7.242403076171875,-0.963409423828125,-0.24267578125,-0.1424713134765625
1761505190511437800,7.252437744140625,-0.9546051025390625,-0.238494873046875,-0.14801025390625
1761505190521473000,7.26247314453125,-0.962646484375,-0.2320556640625,-0.158447265625
1761505190531509000,7.272509033203125,-0.98956298828125,-0.223846435546875,-0.16729736328125
1761505190541544000,7.2825439453125,-1.026031494140625,-0.2135162353515625,-0.17657470703125
1761505190551579000,7.292578857421875,-1.061126708984375,-0.192108154296875,-0.1877288818359375
1761505190561615000,7.302614990234375,-1.082855224609375,-0.161407470703125,-0.206512451171875
1761505190571650000,7.312650146484375,-1.094390869140625,-0.1365966796875,-0.222137451171875
1761505190581685000,7.32268505859375,-1.126220703125,-0.124237060546875,-0.2293701171875
1761505190591721000,7.332720947265625,-1.1562347412109375,-0.11309814453125,-0.2291717529296875
1761505190601756200,7.342756103515625,-1.181671142578125,-0.1042022705078125,-0.245391845703125
1761505190611790800,7.352790771484375,-1.20263671875,-0.092529296875,-0.270599365234375
1761505190621826000,7.362825927734375,-1.1894378662109375,-0.072601318359375,-0.2974853515625
1761505190631862000,7.372862060546875,-1.170501708984375,-0.062255859375,-0.311676025390625
1761505190641897000,7.38289697265625,-1.1275634765625,-0.08209228515625,-0.302947998046875
1761505190651932000,7.392931884765625,-1.081451416015625,-0.11883544921875,-0.2699737548828125
1761505190661968000,7.4029677734375,-1.05364990234375,-0.1507415771484375,-0.232025146484375
1761505190672003000,7.413003173828125,-1.03472900390625,-0.169403076171875,-0.202117919921875
1761505190682038000,7.4230380859375,-1.0236968994140625,-0.173095703125,-0.1838531494140625
1761505190692074000,7.433073974609375,-1.0133819580078125,-0.167388916015625,-0.1748809814453125
1761505190702109200,7.443109130859375,-0.991973876953125,-0.1640167236328125,-0.1661376953125
1761505190712144000,7.453143798828125,-0.97412109375,-0.16607666015625,-0.156524658203125
1761505190722179800,7.463179931640625,-0.958251953125,-0.1650848388671875,-0.1520233154296875
1761505190732215000,7.473215087890625,-0.9371795654296875,-0.1586151123046875,-0.1468963623046875
1761505190742250000,7.48325,-0.91900634765625,-0.1531829833984375,-0.144012451171875
1761505190752286000,7.493285888671875,-0.9160614013671875,-0.151397705078125,-0.143157958984375
1761505190762321000,7.50332080078125,-0.9214935302734375,-0.1509246826171875,-0.1378936767578125
1761505190772356000,7.513356201171875,-0.9202117919921875,-0.1517486572265625,-0.1342926025390625
1761505190782391000,7.52339111328125,-0.9233856201171875,-0.1474456787109375,-0.130828857421875
1761505190792427000,7.533427001953125,-0.9262847900390625,-0.144073486328125,-0.133758544921875
1761505190802462200,7.543462158203125,-0.9519195556640625,-0.1388702392578125,-0.1430816650390625
1761505190812497000,7.553496826171875,-0.98040771484375,-0.1377410888671875,-0.1536712646484375
1761505190822532900,7.563532958984375,-0.9914093017578125,-0.1393280029296875,-0.1605377197265625
1761505190832567800,7.57356787109375,-1.0006866455078125,-0.139404296875,-0.16607666015625
1761505190842603000,7.58360302734375,-1.00836181640625,-0.142547607421875,-0.171722412109375
1761505190852639000,7.593638916015625,-1.013763427734375,-0.14300537109375,-0.1784210205078125
1761505190862674000,7.603673828125,-1.0196685791015625,-0.1381683349609375,-0.180938720703125
1761505190872709000,7.613709228515625,-1.021453857421875,-0.1320037841796875,-0.180023193359375
1761505190882745000,7.6237451171875,-1.015899658203125,-0.1238250732421875,-0.1773529052734375
1761505190892780000,7.633780029296875,-1.0159759521484375,-0.1153411865234375,-0.17340087890625
1761505190902815000,7.64381494140625,-1.0137481689453125,-0.104949951171875,-0.166259765625
1761505190912850000,7.653849853515625,-1.00567626953125,-0.09808349609375,-0.1533050537109375
1761505190922886000,7.663885986328125,-0.9981231689453125,-0.0959014892578125,-0.13543701171875
1761505190932920800,7.6739208984375,-0.9887237548828125,-0.0951385498046875,-0.1242218017578125
1761505190942956000,7.6839560546875,-0.97674560546875,-0.0936126708984375,-0.1177215576171875
1761505190952992000,7.693991943359375,-0.9717254638671875,-0.09259033203125,-0.11798095703125
1761505190963027000,7.70402685546875,-0.97027587890625,-0.0906524658203125,-0.12066650390625
1761505190973062100,7.714062255859375,-0.9661712646484375,-0.0876007080078125,-0.125274658203125
1761505190983098000,7.72409814453125,-0.961090087890625,-0.0800323486328125,-0.1305084228515625
1761505190993133000,7.734133056640625,-0.9576416015625,-0.0697174072265625,-0.1349029541015625
1761505191003168000,7.74416796875,-0.9563446044921875,-0.061676025390625,-0.13555908203125
1761505191013204200,7.754204345703125,-0.96124267578125,-0.05670166015625,-0.1302947998046875
1761505191023239000,7.764239013671875,-0.9809722900390625,-0.0523834228515625,-0.12322998046875
1761505191033273900,7.77427392578125,-1.0043487548828125,-0.0524749755859375,-0.1174163818359375
1761505191043309000,7.78430908203125,-1.016357421875,-0.0541534423828125,-0.10931396484375
1761505191053345000,7.794344970703125,-1.017608642578125,-0.054168701171875,-0.1065673828125
1761505191063380000,7.8043798828125,-1.009429931640625,-0.053924560546875,-0.1088714599609375
1761505191073415200,7.814415283203125,-0.9922027587890625,-0.0567474365234375,-0.1147308349609375
1761505191083451100,7.824451171875,-0.970611572265625,-0.0568695068359375,-0.1215667724609375
1761505191093486000,7.834486083984375,-0.9515838623046875,-0.055877685546875,-0.1232757568359375
1761505191103520800,7.844520751953125,-0.9471893310546875,-0.055633544921875,-0.1219482421875
1761505191113557000,7.854556884765625,-0.9582672119140625,-0.05645751953125,-0.121368408203125
1761505191123592000,7.864592041015625,-0.971527099609375,-0.057586669921875,-0.121307373046875
1761505191133627000,7.874626953125,-0.990386962890625,-0.0604248046875,-0.1259002685546875
1761505191143662800,7.884662841796875,-1.01104736328125,-0.064239501953125,-0.1346282958984375
1761505191153698000,7.894697998046875,-1.021820068359375,-0.0730133056640625,-0.1377410888671875
1761505191163733000,7.90473291015625,-1.0081634521484375,-0.08245849609375,-0.1334075927734375
1761505191173769000,7.91476904296875,-0.9791107177734375,-0.088623046875,-0.12359619140625
1761505191183804200,7.92480419921875,-0.9455108642578125,-0.0912017822265625,-0.1168365478515625
1761505191193838800,7.9348388671875,-0.9311981201171875,-0.0930328369140625,-0.112701416015625
1761505191203873800,7.944873779296875,-0.9363250732421875,-0.09747314453125,-0.1147613525390625
1761505191213909800,7.95490966796875,-0.9585113525390625,-0.1007843017578125,-0.12286376953125
1761505191223945000,7.964945068359375,-0.9830474853515625,-0.100799560546875,-0.1345367431640625
1761505191233980000,7.97497998046875,-0.998016357421875,-0.10186767578125,-0.1401824951171875
1761505191244015900,7.985015869140625,-1.0056915283203125,-0.1037445068359375,-0.1392669677734375
1761505191254051000,7.995051025390625,-1.00531005859375,-0.10894775390625,-0.135040283203125
1761505191264085000,8.0050849609375,-1.01153564453125,-0.1140289306640625,-0.13372802734375
1761505191274121000,8.015120849609374,-1.01617431640625,-0.1202850341796875,-0.13848876953125
1761505191284156000,8.025156005859374,-1.022430419921875,-0.126434326171875,-0.1469573974609375
1761505191294190800,8.03519091796875,-1.0296630859375,-0.1317291259765625,-0.15625
1761505191304226800,8.045226806640626,-1.0238800048828125,-0.1357421875,-0.15838623046875
1761505191314262000,8.055261962890626,-1.00927734375,-0.1359710693359375,-0.1544036865234375
1761505191324297000,8.065296875,-1.0046234130859375,-0.1366424560546875,-0.1624755859375
1761505191334333000,8.0753330078125,-0.9986572265625,-0.1360321044921875,-0.1664581298828125
1761505191344367900,8.085367919921875,-0.9951629638671875,-0.1317291259765625,-0.1620941162109375
1761505191354403000,8.095403076171875,-0.9984283447265625,-0.1291961669921875,-0.1483154296875
1761505191364438000,8.10543798828125,-1.0037841796875,-0.1319732666015625,-0.132568359375
1761505191374474000,8.115473876953125,-1.0002288818359375,-0.1373748779296875,-0.1217041015625
1761505191384509000,8.125509033203125,-0.99359130859375,-0.141754150390625,-0.11676025390625
1761505191394543900,8.1355439453125,-0.9862060546875,-0.1433868408203125,-0.1172027587890625
1761505191404579800,8.145579833984375,-0.9810943603515625,-0.146148681640625,-0.119476318359375
1761505191414615000,8.155614990234374,-0.97137451171875,-0.15142822265625,-0.1229095458984375
1761505191424650000,8.16564990234375,-0.9602813720703125,-0.1559600830078125,-0.12750244140625
1761505191434686000,8.17568603515625,-0.9564666748046875,-0.1590728759765625,-0.1308746337890625
1761505191444721000,8.185720947265626,-0.964569091796875,-0.1605682373046875,-0.1392974853515625
1761505191454756000,8.195756103515626,-0.973175048828125,-0.162078857421875,-0.146881103515625
1761505191464792000,8.2057919921875,-0.9831390380859375,-0.1670379638671875,-0.142181396484375
1761505191474827000,8.215826904296875,-0.98333740234375,-0.1761932373046875,-0.1314849853515625
1761505191484862000,8.225862060546875,-0.9778900146484375,-0.18365478515625,-0.123992919921875
1761505191494897000,8.23589697265625,-0.972137451171875,-0.1899261474609375,-0.1220855712890625
1761505191504932900,8.245932861328125,-0.962554931640625,-0.195037841796875,-0.1230010986328125
1761505191514967800,8.2559677734375,-0.9529876708984375,-0.19610595703125,-0.123443603515625
1761505191525003000,8.2660029296875,-0.9523468017578125,-0.1976776123046875,-0.126739501953125
1761505191535039000,8.2760390625,-0.95745849609375,-0.19879150390625,-0.1289215087890625
1761505191545074000,8.286073974609375,-0.9784698486328125,-0.1977386474609375,-0.133758544921875
1761505191555109000,8.296109130859374,-1.0015716552734375,-0.1972198486328125,-0.1391754150390625
1761505191565145000,8.30614501953125,-1.0159912109375,-0.1959075927734375,-0.1437225341796875
1761505191575180000,8.316179931640624,-1.028839111328125,-0.1974639892578125,-0.1440277099609375
1761505191585215000,8.326215087890626,-1.0316009521484375,-0.19793701171875,-0.1416473388671875
1761505191595250000,8.33625,-1.0306549072265625,-0.1962738037109375,-0.1360015869140625
1761505191605286000,8.346285888671876,-1.0356597900390625,-0.19586181640625,-0.1331787109375
1761505191615320800,8.35632080078125,-1.034332275390625,-0.1986541748046875,-0.1319122314453125
1761505191625356000,8.36635595703125,-1.03607177734375,-0.20062255859375,-0.1284637451171875
1761505191635392000,8.37639208984375,-1.0318145751953125,-0.1985931396484375,-0.12860107421875
1761505191645427000,8.386427001953125,-1.0224609375,-0.191986083984375,-0.1335906982421875
1761505191655462100,8.396462158203125,-1.011322021484375,-0.1830596923828125,-0.140716552734375
1761505191665498000,8.406498046875,-1.004486083984375,-0.1753082275390625,-0.1501922607421875
1761505191675533000,8.416532958984375,-1.0064239501953125,-0.1690826416015625,-0.1533660888671875
1761505191685567700,8.426567626953124,-1.013671875,-0.1706085205078125,-0.1528167724609375
1761505191695604000,8.43660400390625,-1.0140228271484375,-0.1782684326171875,-0.1472625732421875
1761505191705639000,8.446638916015624,-1.0170135498046875,-0.1815185546875,-0.144317626953125
1761505191715673900,8.456673828125,-1.0276947021484375,-0.182830810546875,-0.1393585205078125
1761505191725709000,8.466708984375,-1.025909423828125,-0.1834259033203125,-0.144927978515625
1761505191735745000,8.4767451171875,-1.019561767578125,-0.1817169189453125,-0.1484527587890625
1761505191745780000,8.486780029296876,-1.0030517578125,-0.1820831298828125,-0.1423187255859375
1761505191755815000,8.49681494140625,-0.9827880859375,-0.1853179931640625,-0.136688232421875
1761505191765851100,8.50685107421875,-0.97369384765625,-0.1860504150390625,-0.1348114013671875
1761505191775886000,8.516885986328125,-0.9708709716796875,-0.1812286376953125,-0.1374359130859375
1761505191785920800,8.526920654296875,-0.9800872802734375,-0.1728668212890625,-0.13555908203125
1761505191795956700,8.536956787109375,-0.9780120849609375,-0.1661529541015625,-0.132415771484375
1761505191805992000,8.546991943359375,-0.97125244140625,-0.161590576171875,-0.1298828125
1761505191816027000,8.55702685546875,-0.968292236328125,-0.1594390869140625,-0.1248779296875
1761505191826062000,8.56706201171875,-0.9737701416015625,-0.1578369140625,-0.1169586181640625
1761505191836098000,8.57709814453125,-0.9800262451171875,-0.16241455078125,-0.1157379150390625
1761505191846133000,8.587133056640624,-0.9853515625,-0.16680908203125,-0.12249755859375
1761505191856168000,8.59716796875,-0.9884796142578125,-0.1703338623046875,-0.145355224609375
1761505191866204000,8.607203857421876,-0.9951629638671875,-0.1734771728515625,-0.176849365234375
1761505191876239000,8.617239013671876,-1.00262451171875,-0.1743621826171875,-0.1899566650390625
1761505191886273800,8.627273681640625,-0.997528076171875,-0.16754150390625,-0.182342529296875
1761505191896309800,8.637309814453126,-0.998138427734375,-0.151947021484375,-0.163818359375
1761505191906345000,8.647344970703125,-0.9929962158203125,-0.13482666015625,-0.129913330078125
1761505191916380000,8.6573798828125,-0.976104736328125,-0.127410888671875,-0.1034393310546875
1761505191926416000,8.667415771484375,-0.962799072265625,-0.1327667236328125,-0.099700927734375
1761505191936451000,8.677451171875,-0.96441650390625,-0.1514892578125,-0.10821533203125
1761505191946486000,8.687486083984375,-0.9737548828125,-0.173797607421875,-0.1179656982421875
1761505191956521000,8.69752099609375,-0.9501953125,-0.1739044189453125,-0.122222900390625
1761505191966557000,8.707556884765625,-0.904754638671875,-0.1237030029296875,-0.110565185546875
1761505191976592100,8.717592041015624,-0.956634521484375,-0.0207977294921875,-0.100830078125
1761505191986626800,8.727626708984374,-1.10736083984375,-0.1495361328125,-0.011962890625
1761505191996662800,8.737662841796874,-1.119873046875,-0.2725677490234375,0.00885009765625
1761505192006698000,8.747697998046876,-1.0730133056640625,-0.2744903564453125,-0.006103515625
1761505192016733000,8.75773291015625,-1.0111236572265625,-0.2081146240234375,-0.0600738525390625
1761505192026769000,8.767768798828126,-0.9838409423828125,-0.1540069580078125,-0.125579833984375
1761505192036803800,8.777803955078125,-1.0143280029296875,-0.13739013671875,-0.14813232421875
1761505192046839000,8.787839111328125,-1.0645294189453125,-0.0645294189453125,-0.163421630859375
