time,seconds_elapsed,z,y,x
1761505183362519600,0.10351953125,-0.07131009548902512,-0.1219644621014595,0.2290666550397873
1761505183372555500,0.113555419921875,-0.08837989717721939,-0.10230394452810287,0.2343711405992508
1761505183382590500,0.123590576171875,-0.09301551431417465,-0.12179455161094666,0.23783911764621735
1761505183392625400,0.13362548828125,-0.09152548015117645,-0.13711145520210266,0.2272610366344452
1761505183402661600,0.14366162109375,-0.09919190406799316,-0.14676053822040558,0.21297812461853027
1761505183412696300,0.1536962890625,-0.13009043037891388,-0.13849888741970062,0.20626989006996155
1761505183422731500,0.1637314453125,-0.19157706201076508,-0.10233422368764877,0.21324290335178375
1761505183432767500,0.173767578125,-0.24020159244537354,-0.07705257087945938,0.21770156919956207
1761505183442802400,0.183802490234375,-0.2829214632511139,-0.06273770332336426,0.2055174559354782
1761505183452837400,0.19383740234375,-0.32460206747055054,-0.07037458568811417,0.1828257292509079
1761505183462873300,0.203873291015625,-0.37075525522232056,-0.08373741805553436,0.1708240956068039
1761505183472908500,0.213908447265625,-0.4074046015739441,-0.09837548434734344,0.1486828476190567
1761505183482943500,0.223943603515625,-0.41552120447158813,-0.11680767685174942,0.10337064415216446
1761505183492979500,0.2339794921875,-0.39832624793052673,-0.1440533995628357,0.07309503108263016
1761505183503014700,0.2440146484375,-0.3764893114566803,-0.16095732152462006,0.05565587431192398
1761505183513049300,0.25404931640625,-0.36064669489860535,-0.14275993406772614,0.06077287346124649
1761505183523084300,0.264084228515625,-0.3507046699523926,-0.13001807034015656,0.07487117499113083
1761505183533120500,0.27412060546875,-0.3449290692806244,-0.1469310075044632,0.14239563047885895
1761505183543155500,0.284155517578125,-0.3257051706314087,-0.15895675122737885,0.23779909312725067
1761505183553190400,0.2941904296875,-0.274837464094162,-0.14284169673919678,0.2994494140148163
1761505183563226400,0.304226318359375,-0.24210712313652039,-0.08146172016859055,0.32510653138160706
1761505183573261600,0.314261474609375,-0.2866125702857971,-0.05610336735844612,0.34613433480262756
1761505183583296500,0.324296630859375,-0.37336742877960205,-0.049111612141132355,0.37190911173820496
1761505183593332500,0.33433251953125,-0.46254366636276245,-0.03791408613324165,0.399701863527298
1761505183603367400,0.344367431640625,-0.5328664779663086,-0.022009529173374176,0.4287618398666382
1761505183613402400,0.35440234375,-0.541129469871521,0.0044737448915839195,0.44577357172966003
1761505183623438300,0.364438232421875,-0.4869219660758972,-0.00619924534112215,0.4627068340778351
1761505183633473300,0.374473388671875,-0.38242191076278687,-0.059874460101127625,0.4975596070289612
1761505183643508500,0.384508544921875,-0.247763991355896,-0.10403646528720856,0.5349904894828796
1761505183653544400,0.39454443359375,-0.08463473618030548,-0.1217012107372284,0.5152732729911804
1761505183663579400,0.404579345703125,0.07819747179746628,-0.08278384804725647,0.44995197653770447
1761505183673614600,0.414614501953125,0.19329211115837097,0.0062842415645718575,0.41262510418891907
1761505183683650600,0.424650634765625,0.24314860999584198,0.047353677451610565,0.42926478385925293
1761505183693685500,0.434685546875,0.27737554907798767,0.06620405614376068,0.425485759973526
1761505183703720400,0.444720458984375,0.28840208053588867,0.04891521856188774,0.4032202959060669
1761505183713756700,0.454756591796875,0.27458372712135315,0.015187080949544907,0.3665464520454407
1761505183723791400,0.464791259765625,0.22988379001617432,0.005894089583307505,0.3168346583843231
1761505183733826300,0.474826416015625,0.17484956979751587,-0.0057830726727843285,0.2405071258544922
1761505183743862300,0.4848623046875,0.11745170503854752,-0.01522842701524496,0.13584457337856293
1761505183753897500,0.4948974609375,0.07489146292209625,-0.014509906060993671,0.03183029592037201
1761505183763932400,0.504932373046875,0.03870458900928497,0.017766861245036125,-0.058788347989320755
1761505183773967600,0.514967529296875,0.017763620242476463,0.0641053318977356,-0.10957510024309158
1761505183784003600,0.525003662109375,0.006245412398129702,0.10702691227197647,-0.12082318216562271
1761505183794038500,0.53503857421875,0.004365487024188042,0.12227776646614075,-0.07970743626356125
1761505183804073200,0.5450732421875,0.024076569825410843,0.11777934432029724,0.0017486209981143475
1761505183814109400,0.555109375,0.07230108976364136,0.0911107137799263,0.09608817100524902
1761505183824144400,0.565144287109375,0.14771530032157898,0.05808943510055542,0.15906308591365814
1761505183834179300,0.575179443359375,0.2427038699388504,0.006051535718142986,0.1787760704755783
1761505183844215300,0.58521533203125,0.3273125886917114,-0.04729517549276352,0.1530173122882843
1761505183854250500,0.59525048828125,0.38363897800445557,-0.09360329061746597,0.09842544049024582
1761505183864285400,0.605285400390625,0.40712085366249084,-0.1299315094947815,0.044114354997873306
1761505183874321400,0.6153212890625,0.41726669669151306,-0.14495627582073212,0.011935112997889519
1761505183884356600,0.625356689453125,0.40588924288749695,-0.1531042456626892,0.011917290277779102
1761505183894391600,0.6353916015625,0.3706769049167633,-0.12494345009326935,0.04442649707198143
1761505183904427500,0.645427490234375,0.32144489884376526,-0.06577876955270767,0.07659894227981567
1761505183914462500,0.65546240234375,0.2694280445575714,-0.01467137411236763,0.09516889601945877
1761505183924497400,0.665497314453125,0.204463928937912,-0.006821146234869957,0.12237592786550522
1761505183934533400,0.675533447265625,0.1325037181377411,-0.017397889867424965,0.16550634801387787
1761505183944568300,0.685568359375,0.0690566673874855,-0.026461560279130936,0.19569852948188782
1761505183954603500,0.695603515625,0.021289411932229996,-0.05237598344683647,0.19262097775936127
1761505183964639500,0.705639404296875,-0.0013248184695839882,-0.06574955582618713,0.16697977483272552
1761505183974674400,0.71567431640625,-0.020005295053124428,-0.06933869421482086,0.15301202237606049
1761505183984709400,0.72570947265625,-0.03964823856949806,-0.07155124843120575,0.14436793327331543
1761505183994745600,0.73574560546875,-0.04134983941912651,-0.09671324491500854,0.13826198875904083
1761505184004780500,0.745780517578125,-0.04212186112999916,-0.10298337042331696,0.16860125958919525
1761505184014815200,0.755815185546875,-0.04271041974425316,-0.052421387284994125,0.23451556265354156
1761505184024851500,0.7658515625,-0.0369301475584507,-0.01262311078608036,0.2877417802810669
1761505184034886400,0.775886474609375,-0.010981103405356407,0.006808376871049404,0.3238814175128937
1761505184044921300,0.78592138671875,0.02799772098660469,0.02497699484229088,0.34153497219085693
1761505184054957300,0.795957275390625,0.05580991134047508,0.05685956031084061,0.32597118616104126
1761505184064992500,0.805992431640625,0.08919587731361389,0.0746658518910408,0.27697500586509705
1761505184075027500,0.81602734375,0.12198232114315033,0.09005013853311539,0.2068805992603302
1761505184085063400,0.8260634765625,0.1281627118587494,0.07663927972316742,0.17158088088035583
1761505184095098400,0.836098388671875,0.12126992642879486,0.05702297389507294,0.16756856441497803
1761505184105133600,0.846133544921875,0.12834583222866058,0.06982798129320145,0.14341691136360168
1761505184115169500,0.85616943359375,0.14290772378444672,0.08692813664674759,0.1097087487578392
1761505184125204500,0.86620458984375,0.15778334438800812,0.1207718551158905,0.09647390246391296
1761505184135239400,0.876239501953125,0.173389732837677,0.13584429025650024,0.08984236419200897
1761505184145275400,0.886275390625,0.19947588443756104,0.12787017226219177,0.07934825867414474
1761505184155310300,0.896310302734375,0.22507207095623016,0.12450579553842545,0.0608384944498539
1761505184165345500,0.906345458984375,0.2607634663581848,0.1010473370552063,0.028790278360247612
1761505184175382300,0.91638232421875,0.2949046492576599,0.06905291974544525,-0.008006083779036999
1761505184185417500,0.92641748046875,0.3138571083545685,0.04602201655507088,-0.03674677759408951
1761505184195452200,0.9364521484375,0.3225161135196686,0.028972189873456955,-0.05840626731514931
1761505184205488000,0.946488037109375,0.31590697169303894,0.011018754914402962,-0.06353946030139923
1761505184215523300,0.9565234375,0.2946797013282776,0.022642120718955994,-0.03742450848221779
1761505184225558300,0.966558349609375,0.27010735869407654,0.04421607032418251,0.00141989067196846
1761505184235594200,0.97659423828125,0.2479754388332367,0.05948956310749054,0.060608379542827606
1761505184245629200,0.986629150390625,0.24290958046913147,0.0966913104057312,0.12931384146213531
1761505184255664400,0.996664306640625,0.24622175097465515,0.13225597143173218,0.19163314998149872
1761505184265700400,1.006700439453125,0.24947969615459442,0.15593861043453217,0.2321513444185257
1761505184275735300,1.0167353515625,0.24853827059268951,0.16007369756698608,0.24822166562080383
1761505184285770500,1.0267705078125,0.2460305243730545,0.13906694948673248,0.2432761937379837
1761505184295806500,1.036806396484375,0.2378903180360794,0.11050987243652344,0.21622006595134735
1761505184305841200,1.046841064453125,0.23017562925815582,0.10614202171564102,0.16207797825336456
1761505184315876400,1.05687646484375,0.22808238863945007,0.10158002376556396,0.10253847390413284
1761505184325912300,1.066912353515625,0.2358742505311966,0.09538998454809189,0.05602618306875229
1761505184335947300,1.076947265625,0.2438456267118454,0.08703378587961197,0.023508988320827484
1761505184345982200,1.086982177734375,0.22083774209022522,0.05241581052541733,0.010430817492306232
1761505184356018400,1.097018310546875,0.18739670515060425,0.025381796061992645,0.024576731026172638
1761505184366053400,1.107053466796875,0.17642880976200104,0.04196995869278908,0.030257396399974823
1761505184376088300,1.11708837890625,0.1884777545928955,0.060072265565395355,0.023302285000681877
1761505184386124300,1.127124267578125,0.20784054696559906,0.08284426480531693,0.012802603654563427
1761505184396159500,1.137159423828125,0.19679108262062073,0.07708624005317688,0.011391394771635532
1761505184406194200,1.147194091796875,0.1893661469221115,0.0604512058198452,-0.009330227971076965
1761505184416230400,1.15723046875,0.184883251786232,0.031076274812221527,-0.03838025778532028
1761505184426265300,1.167265380859375,0.16560381650924683,0.023336566984653473,-0.05625002458691597
1761505184436300300,1.17730029296875,0.13638894259929657,0.02476934902369976,-0.05961040034890175
1761505184446336300,1.187336181640625,0.10911954194307327,0.021303296089172363,-0.05413764342665672
1761505184456371200,1.19737109375,0.08803077042102814,0.01294629741460085,-0.03288428485393524
1761505184466406400,1.207406494140625,0.07509922236204147,-0.013136543333530426,-0.012709120288491249
1761505184476442400,1.2174423828125,0.060949575155973434,-0.06002575531601906,0.016571003943681717
1761505184486477300,1.227477294921875,0.04151151329278946,-0.08616955578327179,0.06129006668925285
1761505184496512500,1.237512451171875,0.01991487294435501,-0.09676893055438995,0.09282109886407852
1761505184506548500,1.247548583984375,0.0007413392886519432,-0.08216884732246399,0.11488896608352661
1761505184516583200,1.257583251953125,-0.010811453685164452,-0.04342197999358177,0.0969696193933487
1761505184526618400,1.267618408203125,0.003057217225432396,0.03173716366291046,0.0021305440459400415
1761505184536654300,1.277654296875,0.028250453993678093,0.1764346957206726,-0.15258127450942993
1761505184546689300,1.287689208984375,0.0030965197365731,0.25107303261756897,-0.2875860035419464
1761505184556724200,1.29772412109375,-0.0014172717928886414,0.21697765588760376,-0.3506792187690735
1761505184566760200,1.30776025390625,0.04143926873803139,0.1552988886833191,-0.32645678520202637
1761505184576795400,1.31779541015625,0.06545032560825348,0.06021951138973236,-0.2540920376777649
1761505184586830300,1.327830322265625,0.07095731794834137,0.04379915073513985,-0.20690013468265533
1761505184596866300,1.3378662109375,0.03463073447346687,0.10798293352127075,-0.2100653052330017
1761505184606901500,1.347901611328125,-0.05156806483864784,0.18881945312023163,-0.23261003196239471
1761505184616936200,1.357936279296875,-0.15823911130428314,0.23850072920322418,-0.2516956031322479
1761505184626972400,1.367972412109375,-0.24959497153759003,0.2652847170829773,-0.2429572492837906
1761505184637007400,1.37800732421875,-0.3048068583011627,0.26166361570358276,-0.21152076125144958
1761505184647042300,1.388042236328125,-0.29976579546928406,0.24226818978786469,-0.1540008783340454
1761505184657078300,1.398078369140625,-0.24640512466430664,0.2191154807806015,-0.09311462193727493
1761505184667113200,1.40811328125,-0.1330433338880539,0.22968731820583344,-0.059717949479818344
1761505184677148400,1.4181484375,0.00002391170710325241,0.2605176568031311,-0.05229039490222931
1761505184687184400,1.428184326171875,0.10451094061136246,0.2659253180027008,-0.04676388204097748
1761505184697219300,1.43821923828125,0.1675114929676056,0.2502749562263489,-0.0326286219060421
1761505184707254500,1.448254638671875,0.2071530818939209,0.23506036400794983,-0.016951413825154305
1761505184717290500,1.45829052734375,0.2227136641740799,0.24099549651145935,-0.017933320254087448
1761505184727325400,1.468325439453125,0.21892870962619781,0.2505175769329071,-0.03136178106069565
1761505184737360100,1.478360107421875,0.19707001745700836,0.24832525849342346,-0.054931290447711945
1761505184747396400,1.488396240234375,0.1672765612602234,0.24833163619041443,-0.09118461608886719
1761505184757431300,1.498431396484375,0.15500177443027496,0.22148244082927704,-0.13848954439163208
1761505184767467300,1.50846728515625,0.15071743726730347,0.18442803621292114,-0.1879711002111435
1761505184777502200,1.518502197265625,0.1532096266746521,0.13357150554656982,-0.2371271848678589
1761505184787537400,1.528537353515625,0.1514168679714203,0.07407215237617493,-0.2723831236362457
1761505184797573400,1.538573486328125,0.15359480679035187,0.01082873996347189,-0.2783493995666504
1761505184807608300,1.5486083984375,0.16765373945236206,-0.019711406901478767,-0.271043986082077
1761505184817643500,1.5586435546875,0.1904011219739914,-0.004276790656149387,-0.26578155159950256
1761505184827679500,1.568679443359375,0.2102912813425064,0.047257132828235626,-0.23924866318702698
1761505184837714400,1.57871435546875,0.22899626195430756,0.12390423566102982,-0.19271525740623474
1761505184847749000,1.5887490234375,0.2520295977592468,0.18509157001972198,-0.13678395748138428
1761505184857785300,1.598785400390625,0.2721431255340576,0.20847944915294647,-0.10277032852172852
1761505184867820300,1.6088203125,0.2867280840873718,0.2128254771232605,-0.08028683066368103
1761505184877855200,1.618855224609375,0.29258227348327637,0.19489175081253052,-0.0811781957745552
1761505184887891200,1.62889111328125,0.28651657700538635,0.1611783653497696,-0.09203945845365524
1761505184897926400,1.638926513671875,0.2759630084037781,0.1269354522228241,-0.10981979221105576
1761505184907961300,1.64896142578125,0.25347474217414856,0.0917939767241478,-0.12108016759157181
1761505184917997300,1.658997314453125,0.21657505631446838,0.07988511770963669,-0.12229297310113907
1761505184928032500,1.669032470703125,0.17709968984127045,0.10769842565059662,-0.11933773010969162
1761505184938067500,1.6790673828125,0.13963647186756134,0.1387127935886383,-0.11756513267755508
1761505184948103400,1.689103515625,0.10925817489624023,0.14737068116664886,-0.10737154632806778
1761505184958138000,1.69913818359375,0.09107597172260284,0.18705284595489502,-0.06878447532653809
1761505184968173300,1.70917333984375,0.08347996324300766,0.2040153592824936,-0.029222218319773674
1761505184978209300,1.719209228515625,0.0902092382311821,0.1838831901550293,-0.00306251784786582
1761505184988244200,1.729244140625,0.10730060189962387,0.1399172693490982,0.0014066167641431093
1761505184998279400,1.739279541015625,0.12226729840040207,0.07441335916519165,0.001134707941673696
1761505185008315400,1.7493154296875,0.11957622319459915,0.023137789219617844,0.004534067120403051
1761505185018350300,1.759350341796875,0.0916665643453598,-0.01370704360306263,-0.003899631556123495
1761505185028385300,1.76938525390625,0.05796530842781067,-0.053295813500881195,-0.026470329612493515
1761505185038421500,1.77942138671875,0.022976431995630264,-0.06688911467790604,-0.06333780288696289
1761505185048456400,1.78945654296875,-0.002763977274298668,-0.032676372677087784,-0.08941430598497391
1761505185058491100,1.7994912109375,-0.02738862857222557,0.04384796321392059,-0.10398712009191513
1761505185068527000,1.809527099609375,-0.04024713113903999,0.09775335341691971,-0.1056215837597847
1761505185078562300,1.819562255859375,-0.05159566178917885,0.13029399514198303,-0.10128382593393326
1761505185088597200,1.82959716796875,-0.06585397571325302,0.13099120557308197,-0.09032230079174042
1761505185098633200,1.83963330078125,-0.07772954553365707,0.10120481997728348,-0.06115376576781273
1761505185108668400,1.84966845703125,-0.09390254318714142,0.07975861430168152,-0.022362936288118362
1761505185118703400,1.859703369140625,-0.1214848980307579,0.03169574961066246,-0.007754698861390352
1761505185128739300,1.8697392578125,-0.14338190853595734,-0.020711718127131462,-0.025663208216428757
1761505185138774300,1.879774169921875,-0.15127073228359222,-0.04837130755186081,-0.0775117576122284
1761505185148809500,1.8898095703125,-0.14205798506736755,-0.024055184796452522,-0.13599702715873718
1761505185158845400,1.899845458984375,-0.12182913720607758,0.031653352081775665,-0.177627831697464
1761505185168879900,1.9098798828125,-0.10355988144874573,0.09604462236166,-0.1889122575521469
1761505185178915800,1.919915771484375,-0.09505507349967957,0.15343840420246124,-0.17249546945095062
1761505185188950800,1.92995068359375,-0.08781995624303818,0.19945724308490753,-0.13276956975460052
1761505185198985700,1.93998583984375,-0.07022711634635925,0.21836888790130615,-0.08690780401229858
1761505185209021000,1.95002099609375,-0.039629220962524414,0.2046717405319214,-0.044797632843256
1761505185219057000,1.960056884765625,0.002379747573286295,0.16381831467151642,-0.01780569553375244
1761505185229091800,1.970091796875,0.04752504453063011,0.0984593853354454,-0.0014630433870479465
1761505185239127800,1.9801279296875,0.08903653919696808,0.03033466264605522,0.009641272947192192
1761505185249163000,1.9901630859375,0.1114250048995018,-0.04011377692222595,0.011604391038417816
1761505185259197700,2.00019775390625,0.1211434155702591,-0.0889606848359108,0.0011208574287593365
1761505185269233700,2.010233642578125,0.1223975196480751,-0.08018689602613449,-0.005485869012773037
1761505185279268900,2.020268798828125,0.12017111480236053,-0.04288346692919731,-0.02768092043697834
1761505185289303800,2.0303037109375,0.1161838099360466,-0.008677824400365353,-0.05871717631816864
1761505185299339800,2.04033984375,0.11524797230958939,0.02242550067603588,-0.06920737028121948
1761505185309374700,2.050374755859375,0.10799463838338852,0.053581662476062775,-0.04206588491797447
1761505185319410000,2.060409912109375,0.09716489166021347,0.07794985175132751,0.007328028790652752
1761505185329446000,2.07044580078125,0.08525305986404419,0.09448530524969101,0.062440939247608185
1761505185339480800,2.080480712890625,0.07148637622594833,0.08300921320915222,0.10335321724414825
1761505185349516000,2.09051611328125,0.06362050026655197,0.05360877141356468,0.11961337924003601
1761505185359552000,2.100552001953125,0.07116284221410751,0.012865602970123291,0.11054904013872147
1761505185369586700,2.110586669921875,0.0904143750667572,-0.019397394731640816,0.10418236255645752
1761505185379621600,2.12062158203125,0.11382462084293365,-0.02651788853108883,0.1053091511130333
1761505185389657900,2.130657958984375,0.11280974000692368,-0.02252301201224327,0.10029292106628418
1761505185399692800,2.14069287109375,0.10703227669000626,-0.028743356466293335,0.09773468971252441
1761505185409727700,2.150727783203125,0.09827593713998795,-0.005181628279387951,0.10179052501916885
1761505185419763700,2.160763671875,0.09108912944793701,0.04595505818724632,0.1189359575510025
1761505185429799000,2.170798828125,0.07938999682664871,0.1076807901263237,0.13556328415870667
1761505185439833900,2.180833740234375,0.06600414961576462,0.15660306811332703,0.1427498310804367
1761505185449869800,2.190869873046875,0.056902676820755005,0.18487490713596344,0.13397713005542755
1761505185459905000,2.200905029296875,0.04876459017395973,0.1749706119298935,0.09610352665185928
1761505185469939700,2.210939697265625,0.041853807866573334,0.1309533566236496,0.03619808703660965
1761505185479976000,2.220975830078125,0.03863085061311722,0.06795388460159302,-0.04453457519412041
1761505185490010600,2.2310107421875,0.04016337916254997,0.004989570938050747,-0.14534026384353638
1761505185500045800,2.2410458984375,0.04967885464429855,-0.04811625927686691,-0.2559623718261719
1761505185510081800,2.251081787109375,0.05507126450538635,-0.09636040031909943,-0.3241012990474701
1761505185520116700,2.26111669921875,0.0569613054394722,-0.10508492588996887,-0.3403673768043518
1761505185530152000,2.27115185546875,0.055757179856300354,-0.10042247176170349,-0.31972020864486694
1761505185540188000,2.28118798828125,0.05725467577576637,-0.09852177649736404,-0.2582017183303833
1761505185550222800,2.291222900390625,0.06779379397630692,-0.07350952923297882,-0.15901237726211548
1761505185560257800,2.3012578125,0.08739146590232849,-0.034830041229724884,-0.058668460696935654
1761505185570294000,2.3112939453125,0.10731936991214752,-0.00002729124389588833,0.021380260586738586
1761505185580329000,2.321328857421875,0.11909373849630356,0.004772523883730173,0.06160810589790344
1761505185590363600,2.33136376953125,0.119660384953022,0.0022929885890334845,0.07022862136363983
1761505185600399600,2.341399658203125,0.11032494157552719,0.004324447829276323,0.0668591856956482
1761505185610434800,2.351434814453125,0.08949779719114304,0.004301169887185097,0.054948076605796814
1761505185620469800,2.3614697265625,0.06678368896245956,0.00578188756480813,0.03531605005264282
1761505185630505700,2.371505615234375,0.03990354388952255,0.007525940891355276,0.012002202682197094
1761505185640541000,2.381541015625,0.00494342902675271,-0.005194914061576128,-0.005538442172110081
1761505185650576000,2.391575927734375,-0.028564509004354477,-0.010320035740733147,-0.023724470287561417
1761505185660611800,2.40161181640625,-0.04993557929992676,-0.0033601305913180113,-0.0406978614628315
1761505185670646800,2.411646728515625,-0.06354079395532608,-0.009618666023015976,-0.06261956691741943
1761505185680681700,2.421681640625,-0.06480845808982849,-0.023161638528108597,-0.07143596559762955
1761505185690718000,2.431718017578125,-0.056003402918577194,-0.0473083071410656,-0.07564236223697662
1761505185700752600,2.441752685546875,-0.046186190098524094,-0.062096308916807175,-0.054421763867139816
1761505185710788600,2.45178857421875,-0.04778435826301575,-0.060965556651353836,-0.029935821890830994
1761505185720823800,2.46182373046875,-0.049760155379772186,-0.07102352380752563,-0.00237050442956388
1761505185730858800,2.471858642578125,-0.04710836336016655,-0.07664816826581955,0.021849097684025764
1761505185740894700,2.481894775390625,-0.042392171919345856,-0.055249400436878204,0.042363960295915604
1761505185750930000,2.491929931640625,-0.03319369629025459,-0.029136255383491516,0.05211963504552841
1761505185760964900,2.50196484375,-0.026718750596046448,-0.009550835937261581,0.04422842338681221
1761505185771000800,2.512000732421875,-0.028534218668937683,-0.0057192640379071236,0.026357419788837433
1761505185781035800,2.522035888671875,-0.046242907643318176,-0.015330079011619091,-0.0004851134726777673
1761505185791071000,2.532071044921875,-0.0697130411863327,-0.007777036167681217,-0.021243160590529442
1761505185801107000,2.54210693359375,-0.09512892365455627,-0.0015955730341374874,-0.042512498795986176
1761505185811141600,2.5521416015625,-0.11982635408639908,0.0000922058243304491,-0.05380338057875633
1761505185821176800,2.5621767578125,-0.13682503998279572,0.015300986357033253,-0.05296342074871063
1761505185831212800,2.572212890625,-0.1353914439678192,0.031051717698574066,-0.04368066042661667
1761505185841247700,2.582247802734375,-0.11711655557155609,0.020200934261083603,-0.022425439208745956
1761505185851283000,2.592282958984375,-0.08851564675569534,0.029152460396289825,-0.0034857168793678284
1761505185861319000,2.60231884765625,-0.045738887041807175,0.03139297664165497,0.013063699007034302
1761505185871353900,2.612353759765625,0.0015844120644032955,0.018649697303771973,0.02759372442960739
1761505185881388800,2.622388916015625,0.036496058106422424,0.0015721762320026755,0.037481773644685745
1761505185891424800,2.6324248046875,0.0544726587831974,-0.011407538317143917,0.0442400798201561
1761505185901460000,2.6424599609375,0.054363202303647995,-0.022557927295565605,0.038928668946027756
1761505185911494700,2.65249462890625,0.03523915261030197,-0.028426017612218857,0.02628062292933464
1761505185921530600,2.662530517578125,0.004918530583381653,-0.027649439871311188,0.011498747393488884
1761505185931565800,2.67256591796875,-0.03148668259382248,-0.033136989921331406,0.0004999726079404354
1761505185941600800,2.682600830078125,-0.06630085408687592,-0.03232605382800102,-0.0004883265355601907
1761505185951636700,2.69263671875,-0.08828938752412796,-0.05222785845398903,-0.0029648225754499435
1761505185961672000,2.702671875,-0.10435224324464798,-0.08476290106773376,-0.0066343918442726135
1761505185971707000,2.712706787109375,-0.11663684993982315,-0.11938023567199707,-0.007251177914440632
1761505185981742800,2.722742919921875,-0.12552781403064728,-0.14066581428050995,-0.008711921982467175
1761505185991777800,2.73277783203125,-0.13002698123455048,-0.1415071338415146,-0.0021107466891407967
1761505186001813000,2.74281298828125,-0.12480878829956055,-0.11534371227025986,-0.00005079165566712618
1761505186011849000,2.752848876953125,-0.1162199079990387,-0.10076284408569336,-0.0021078346762806177
1761505186021883600,2.762883544921875,-0.11150664836168289,-0.10643298178911209,0.009243356995284557
1761505186031918800,2.7729189453125,-0.1129034012556076,-0.10454384982585907,0.0351104773581028
1761505186041954800,2.782954833984375,-0.1125531941652298,-0.09810751676559448,0.05044921860098839
1761505186051989800,2.79298974609375,-0.10458630323410034,-0.08863425999879837,0.04721464216709137
1761505186062024700,2.803024658203125,-0.09270434081554413,-0.05767074599862099,0.0431264229118824
1761505186072061000,2.81306103515625,-0.07795234024524689,-0.031147927045822144,0.044102638959884644
1761505186082095900,2.823095947265625,-0.06650953739881516,-0.02812683768570423,0.04148661717772484
1761505186092130800,2.833130859375,-0.07109370827674866,-0.04511154443025589,0.04274455085396767
1761505186102166800,2.843166748046875,-0.09929951280355453,-0.058501653373241425,0.05514422804117203
1761505186112202000,2.853201904296875,-0.14373454451560974,-0.06085016205906868,0.06776269525289536
1761505186122236700,2.863236572265625,-0.20201915502548218,-0.07100638747215271,0.06682579964399338
1761505186132272600,2.873272705078125,-0.2647135257720947,-0.08930294960737228,0.040701329708099365
1761505186142307800,2.883307861328125,-0.3364787697792053,-0.1292189359664917,-0.030537161976099014
1761505186152342800,2.8933427734375,-0.40726885199546814,-0.19797632098197937,-0.14361268281936646
1761505186162378800,2.903378662109375,-0.45514610409736633,-0.25348806381225586,-0.2692353129386902
1761505186172414000,2.9134140625,-0.4682275056838989,-0.26954391598701477,-0.38452625274658203
1761505186182449000,2.923448974609375,-0.4468710720539093,-0.2548251450061798,-0.4616498053073883
1761505186192484900,2.93348486328125,-0.41217225790023804,-0.18313053250312805,-0.47240012884140015
1761505186202519800,2.943519775390625,-0.3735170066356659,-0.0836995467543602,-0.4077228605747223
1761505186212555000,2.953554931640625,-0.3409332036972046,-0.0009026194456964731,-0.28955742716789246
1761505186222591000,2.963591064453125,-0.2955305874347687,0.07167224586009979,-0.16640911996364594
1761505186232625700,2.973625732421875,-0.23316772282123566,0.12189893424510956,-0.07233639806509018
1761505186242660900,2.983660888671875,-0.1509293168783188,0.12079745531082153,-0.02214779332280159
1761505186252696800,2.99369677734375,-0.07482756674289703,0.07196961343288422,-0.011857547797262669
1761505186262731800,3.003731689453125,0.003214234719052911,-0.032057978212833405,-0.017833149060606956
1761505186272766700,3.0137666015625,0.07654331624507904,-0.17363183200359344,-0.05553080886602402
1761505186282803000,3.023802978515625,0.13446733355522156,-0.3322158753871918,-0.09169521182775497
1761505186292838000,3.033837890625,0.16328862309455872,-0.44086676836013794,-0.10599682480096817
1761505186302872800,3.043872802734375,0.15978895127773285,-0.486369252204895,-0.09469330310821533
1761505186312908800,3.05390869140625,0.13040220737457275,-0.4690091013908386,-0.0751282274723053
1761505186322944000,3.063944091796875,0.08421739935874939,-0.40895748138427734,-0.0584709569811821
1761505186332978700,3.073978759765625,0.026529990136623383,-0.32727962732315063,-0.044413529336452484
1761505186343014700,3.0840146484375,-0.029969237744808197,-0.23144684731960297,-0.03531457111239433
1761505186353049900,3.0940498046875,-0.07920805364847183,-0.14451102912425995,-0.03591679036617279
1761505186363084800,3.104084716796875,-0.10932814329862595,-0.07034917920827866,-0.04427006095647812
1761505186373120800,3.114120849609375,-0.13832546770572662,-0.022434676066040993,-0.04842246323823929
1761505186383155700,3.12415576171875,-0.16257061064243317,0.0069162892177701,-0.03200913593173027
1761505186393191000,3.13419091796875,-0.16915510594844818,0.02253817766904831,-0.006210844963788986
1761505186403227000,3.144226806640625,-0.14637283980846405,0.02350916713476181,0.01940556988120079
1761505186413261800,3.15426171875,-0.0905008390545845,0.0052864085882902145,0.052440520375967026
1761505186423297000,3.164297119140625,-0.017658591270446777,-0.014363992027938366,0.09759148955345154
1761505186433333000,3.1743330078125,0.069195456802845,-0.01050669513642788,0.15331494808197021
1761505186443367700,3.18436767578125,0.16371451318264008,-0.0032828706316649914,0.2074469029903412
1761505186453403000,3.19440283203125,0.2490442395210266,-0.01635041832923889,0.2495509386062622
1761505186463438800,3.20443896484375,0.3164307177066803,-0.04972461983561516,0.28287747502326965
1761505186473473800,3.214473876953125,0.36365440487861633,-0.0792250707745552,0.3039516806602478
1761505186483508700,3.2245087890625,0.3973636329174042,-0.09833671152591705,0.31150147318840027
1761505186493544700,3.234544677734375,0.41289153695106506,-0.1136273592710495,0.31932565569877625
1761505186503580000,3.244579833984375,0.40397316217422485,-0.12176225334405899,0.32585999369621277
1761505186513614800,3.25461474609375,0.3757937550544739,-0.15036898851394653,0.32682180404663086
1761505186523650800,3.26465087890625,0.3303202986717224,-0.17137174308300018,0.3188011646270752
1761505186533686000,3.27468603515625,0.2773168683052063,-0.17909592390060425,0.2994367480278015
1761505186543720700,3.284720703125,0.2272673100233078,-0.1866377294063568,0.2592003643512726
1761505186553756700,3.294756591796875,0.18792283535003662,-0.18752989172935486,0.22565598785877228
1761505186563792000,3.3047919921875,0.1561867892742157,-0.1758464127779007,0.20073732733726501
1761505186573826800,3.314826904296875,0.13727319240570068,-0.16119344532489777,0.17603923380374908
1761505186583862800,3.32486279296875,0.13048399984836578,-0.15600134432315826,0.15009978413581848
1761505186593897700,3.334897705078125,0.12524190545082092,-0.1390262097120285,0.14041639864444733
1761505186603933000,3.344932861328125,0.10935269296169281,-0.1284172385931015,0.14641331136226654
1761505186613969000,3.354968994140625,0.10268140584230423,-0.13207624852657318,0.15771660208702087
1761505186624003800,3.36500390625,0.10704019665718079,-0.14880035817623138,0.18114496767520905
1761505186634039000,3.3750390625,0.12449014186859131,-0.13187839090824127,0.228458434343338
1761505186644075000,3.385074951171875,0.14509794116020203,-0.08266691118478775,0.2884640097618103
1761505186654109700,3.395109619140625,0.15569579601287842,-0.04508664086461067,0.32411375641822815
1761505186664144600,3.40514453125,0.14157705008983612,-0.02930927835404873,0.3256128430366516
1761505186674180900,3.415180908203125,0.11077962070703506,-0.033784110099077225,0.3057181239128113
1761505186684215800,3.4252158203125,0.07066015899181366,-0.05855124071240425,0.26646819710731506
1761505186694250800,3.435250732421875,0.0278162844479084,-0.09233777970075607,0.22503644227981567
1761505186704286700,3.44528662109375,-0.023715347051620483,-0.14946924149990082,0.19205400347709656
1761505186714322000,3.455322021484375,-0.05450263246893883,-0.18648681044578552,0.16841141879558563
1761505186724356900,3.46535693359375,-0.055924493819475174,-0.2195717990398407,0.14864224195480347
1761505186734392800,3.475392822265625,-0.04303360730409622,-0.24930433928966522,0.14183112978935242
1761505186744428000,3.485427978515625,-0.036365851759910583,-0.2371627390384674,0.1746615171432495
1761505186754462700,3.495462646484375,-0.04165104776620865,-0.18983495235443115,0.23746132850646973
1761505186764498700,3.505498779296875,-0.06224926561117172,-0.147851824760437,0.3072012662887573
1761505186774533600,3.51553369140625,-0.08837750554084778,-0.0984935462474823,0.3544049561023712
1761505186784568800,3.52556884765625,-0.12107712775468826,-0.06347324699163437,0.3681756258010864
1761505186794604800,3.535604736328125,-0.16155706346035004,-0.05522274225950241,0.3546501696109772
1761505186804639700,3.5456396484375,-0.19197754561901093,-0.04753419756889343,0.3154052793979645
1761505186814675000,3.555675048828125,-0.19782204926013947,-0.029584944248199463,0.27743151783943176
1761505186824711000,3.5657109375,-0.2040621042251587,-0.03359459713101387,0.2675357460975647
1761505186834745900,3.575745849609375,-0.20450259745121002,-0.056775256991386414,0.2813638746738434
1761505186844780800,3.58578076171875,-0.1933538019657135,-0.07212305814027786,0.30539998412132263
1761505186854817000,3.595817138671875,-0.17158807814121246,-0.06720510870218277,0.32705026865005493
1761505186864851700,3.605851806640625,-0.14568404853343964,-0.06874387711286545,0.32525634765625
1761505186874886700,3.61588671875,-0.1282729059457779,-0.08260922878980637,0.3214404284954071
1761505186884922600,3.625922607421875,-0.1328844428062439,-0.10922885686159134,0.3178994953632355
1761505186894957800,3.635957763671875,-0.14423079788684845,-0.14111587405204773,0.29703885316848755
1761505186904992800,3.64599267578125,-0.14768491685390472,-0.17253132164478302,0.27265363931655884
1761505186915028700,3.65602880859375,-0.15155430138111115,-0.22426952421665192,0.2558884620666504
1761505186925064000,3.66606396484375,-0.14148063957691193,-0.26580631732940674,0.22085297107696533
1761505186935099000,3.676098876953125,-0.12255529314279556,-0.27963876724243164,0.19567781686782837
1761505186945134800,3.686134765625,-0.10191207379102707,-0.2672012746334076,0.1811761111021042
1761505186955169800,3.696169677734375,-0.0740903690457344,-0.23821745812892914,0.18227191269397736
1761505186965204700,3.706204833984375,-0.05599285662174225,-0.19512058794498444,0.19872598350048065
1761505186975240700,3.71624072265625,-0.05401553958654404,-0.14597290754318237,0.22870135307312012
1761505186985275600,3.726275634765625,-0.05931256338953972,-0.10568700730800629,0.2627040445804596
1761505186995310800,3.736310791015625,-0.08136928081512451,-0.09026357531547546,0.2952020764350891
1761505187005346800,3.746346923828125,-0.11534562706947327,-0.07192851603031158,0.3180277645587921
1761505187015381800,3.7563818359375,-0.15459902584552765,-0.05718125402927399,0.3169603645801544
1761505187025417000,3.7664169921875,-0.20436790585517883,-0.05442115291953087,0.295772522687912
1761505187035453000,3.776452880859375,-0.25360938906669617,-0.04673644155263901,0.26828932762145996
1761505187045487900,3.78648779296875,-0.2939315140247345,-0.02473287656903267,0.2660650312900543
1761505187055522800,3.796522705078125,-0.3353821635246277,0.019337618723511696,0.26849284768104553
1761505187065558800,3.806558837890625,-0.36058977246284485,0.05696915090084076,0.2677018940448761
1761505187075593700,3.81659375,-0.3624097406864166,0.09253230690956116,0.2900344729423523
1761505187085628700,3.826628662109375,-0.34787288308143616,0.12820188701152802,0.33120375871658325
1761505187095664600,3.83666455078125,-0.30630239844322205,0.13035638630390167,0.38246214389801025
1761505187105699800,3.846699951171875,-0.2291674166917801,0.10705985128879547,0.41173213720321655
1761505187115734800,3.85673486328125,-0.14613275229930878,0.09123151749372482,0.3910195529460907
1761505187125769700,3.866769775390625,-0.06841904670000076,0.0826428160071373,0.34427493810653687
1761505187135806000,3.876805908203125,-0.02191447652876377,0.0608002133667469,0.29963386058807373
1761505187145841000,3.8868408203125,-0.0034156269393861294,0.03924938291311264,0.2665725648403168
1761505187155875800,3.896875732421875,-0.001570355612784624,0.03990289568901062,0.2168859839439392
1761505187165911800,3.906911865234375,-0.03186088055372238,0.07728754729032516,0.14470607042312622
1761505187175946800,3.91694677734375,-0.07699788361787796,0.13065458834171295,0.04416966065764427
1761505187185982700,3.926982666015625,-0.1155567318201065,0.1709013432264328,-0.06550943106412888
1761505187196017700,3.937017578125,-0.14276880025863647,0.19763390719890594,-0.15719866752624512
1761505187206052900,3.947052978515625,-0.1521732211112976,0.20733660459518433,-0.2344772070646286
1761505187216087600,3.957087646484375,-0.12387078255414963,0.2039388120174408,-0.261595219373703
1761505187226123800,3.967123779296875,-0.09297757595777512,0.2065921276807785,-0.2609451413154602
1761505187236158700,3.97715869140625,-0.08018146455287933,0.23007988929748535,-0.2715053856372833
1761505187246193700,3.987193603515625,-0.09774527698755264,0.2643236219882965,-0.29054591059684753
1761505187256229600,3.997229736328125,-0.12131410837173462,0.27436190843582153,-0.293926864862442
1761505187266263800,4.007263916015625,-0.1422007530927658,0.26371246576309204,-0.2940160632133484
1761505187276299800,4.0172998046875,-0.15839269757270813,0.26663780212402344,-0.29517465829849243
1761505187286334700,4.027334716796875,-0.1632111519575119,0.28546953201293945,-0.26438212394714355
1761505187296369700,4.03736962890625,-0.15855921804904938,0.28363239765167236,-0.21279047429561615
1761505187306406000,4.047406005859375,-0.14219249784946442,0.29335638880729675,-0.15880900621414185
1761505187316440600,4.057440673828125,-0.12109893560409546,0.2986610531806946,-0.10704740881919861
1761505187326475500,4.0674755859375,-0.09566041827201843,0.28344613313674927,-0.046653300523757935
1761505187336511500,4.077511474609375,-0.061347562819719315,0.2692646384239197,-0.0055858660489320755
1761505187346546700,4.087546630859375,-0.05632483959197998,0.23997065424919128,0.028245069086551666
1761505187356581600,4.09758154296875,-0.03949578478932381,0.21709415316581726,0.044458840042352676
1761505187366617600,4.10761767578125,0.004586721770465374,0.18040165305137634,0.03419768065214157
1761505187376652800,4.11765283203125,0.047688648104667664,0.12212767452001572,-0.0042860195972025394
1761505187386687700,4.127687744140625,0.1016906350851059,0.08913909643888474,-0.03679016977548599
1761505187396722700,4.13772265625,0.155069962143898,0.08226414769887924,-0.09075886011123657
1761505187406759000,4.147759033203125,0.20109950006008148,0.09022539854049683,-0.1566276252269745
1761505187416793600,4.157793701171875,0.23339250683784485,0.10806889832019806,-0.22302106022834778
1761505187426828500,4.16782861328125,0.2569572329521179,0.12784846127033234,-0.27930590510368347
1761505187436864500,4.177864501953125,0.28350353240966797,0.1422475427389145,-0.29126477241516113
1761505187446899700,4.187899658203125,0.30249372124671936,0.15670505166053772,-0.28792303800582886
1761505187456934700,4.1979345703125,0.3149668276309967,0.14998221397399902,-0.24452899396419525
1761505187466970600,4.207970703125,0.3284922242164612,0.1019907146692276,-0.15759755671024323
1761505187477005800,4.218005859375,0.3361341655254364,0.08154717087745667,-0.052716340869665146
1761505187487040800,4.228040771484375,0.34672659635543823,0.09933708608150482,0.030466696247458458
1761505187497076700,4.23807666015625,0.3522684872150421,0.1267026960849762,0.08960744738578796
1761505187507111700,4.248111572265625,0.35192546248435974,0.14626653492450714,0.10856089740991592
1761505187517146600,4.258146728515625,0.3545387387275696,0.1351744532585144,0.10618729144334793
1761505187527182600,4.2681826171875,0.35924506187438965,0.09960845857858658,0.0968952551484108
1761505187537217500,4.278217529296875,0.37982624769210815,0.0529312938451767,0.0761382207274437
1761505187547252700,4.288252685546875,0.3985693156719208,0.005152319557964802,0.06233852729201317
1761505187557288700,4.298288818359375,0.42334431409835815,-0.018024932593107224,0.056567251682281494
1761505187567323600,4.30832373046875,0.43825453519821167,-0.005683044902980328,0.04644990339875221
1761505187577358800,4.31835888671875,0.446990430355072,-0.0022005620412528515,0.04313305765390396
1761505187587394800,4.328394775390625,0.4354722499847412,-0.021265333518385887,0.027994053438305855
1761505187597429800,4.3384296875,0.46183010935783386,-0.04852854087948799,0.018312007188796997
1761505187607464700,4.348464599609375,0.5043999552726746,-0.07901720702648163,-0.00781493540853262
1761505187617500700,4.358500732421875,0.5372957587242126,-0.0805673822760582,-0.11758618801832199
1761505187627535600,4.36853564453125,0.5247701406478882,-0.04446849599480629,-0.31394079327583313
1761505187637570600,4.378570556640625,0.49647849798202515,-0.00044021359644830227,-0.5200578570365906
1761505187647606500,4.3886064453125,0.47823449969291687,0.03287753090262413,-0.679017186164856
1761505187657641700,4.398641845703125,0.44716283679008484,0.06365054100751877,-0.7710140943527222
1761505187667676700,4.4086767578125,0.3726060390472412,0.08069343864917755,-0.7468360662460327
1761505187677712600,4.418712646484375,0.2354968935251236,0.0355413593351841,-0.586195707321167
1761505187687747800,4.428747802734375,0.10040166229009628,0.047982580959796906,-0.42595306038856506
1761505187697782800,4.43878271484375,-0.04399565979838371,0.17363305389881134,-0.3088606297969818
1761505187707818800,4.44881884765625,-0.18220733106136322,0.2951000928878784,-0.1676771491765976
1761505187717853700,4.458853759765625,-0.22533439099788666,0.3180723488330841,0.00651713227853179
1761505187727888600,4.468888671875,-0.14055240154266357,0.25096362829208374,0.18762779235839844
1761505187737924900,4.4789248046875,0.009755915030837059,0.13855566084384918,0.35351231694221497
1761505187747959600,4.48895947265625,0.14155840873718262,0.001527490559965372,0.46423831582069397
1761505187757994800,4.498994873046875,0.21204566955566406,-0.07391685247421265,0.4891584813594818
1761505187768030700,4.50903076171875,0.23085984587669373,-0.06474678963422775,0.4166052043437958
1761505187778065700,4.519065673828125,0.2089918553829193,0.02789480984210968,0.2798003852367401
1761505187788100600,4.5291005859375,0.15158504247665405,0.15084950625896454,0.11900406330823898
1761505187798135800,4.5391357421875,0.07921458780765533,0.27056077122688293,-0.03372136503458023
1761505187808171800,4.549171875,0.011023011058568954,0.3703126609325409,-0.17326435446739197
1761505187818206700,4.559206787109375,-0.029968898743391037,0.4273064434528351,-0.30531933903694153
1761505187828241700,4.56924169921875,-0.048309557139873505,0.4119567573070526,-0.37633809447288513
1761505187838277600,4.579277587890625,-0.03490263223648071,0.3536463975906372,-0.4114828109741211
1761505187848313900,4.58931396484375,-0.0058693839237093925,0.28786125779151917,-0.41135525703430176
1761505187858348500,4.5993486328125,0.01702732965350151,0.20288331806659698,-0.37528520822525024
1761505187868383700,4.6093837890625,0.03135939687490463,0.10140249878168106,-0.3078712821006775
1761505187878419700,4.619419677734375,0.037437986582517624,0.041059933602809906,-0.2248833030462265
1761505187888454700,4.62945458984375,0.038114964962005615,0.045134834945201874,-0.13942033052444458
1761505187898489600,4.639489501953125,0.034320760518312454,0.07837723940610886,-0.0769713893532753
1761505187908525800,4.64952587890625,0.029812296852469444,0.1364714354276657,-0.04485552757978439
1761505187918560800,4.659560791015625,0.011628040112555027,0.19761961698532104,-0.034951090812683105
1761505187928595700,4.669595703125,-0.020975975319743156,0.25239577889442444,-0.04627618193626404
1761505187938630700,4.679630615234375,-0.058642201125621796,0.28916457295417786,-0.06276688724756241
1761505187948667000,4.6896669921875,-0.08999000489711761,0.3040047585964203,-0.08334966003894806
1761505187958701600,4.69970166015625,-0.11618759483098984,0.2864498794078827,-0.09434333443641663
1761505187968736800,4.70973681640625,-0.1375107318162918,0.2544669210910797,-0.0855754092335701
1761505187978772700,4.719772705078125,-0.13768643140792847,0.21998462080955505,-0.07046249508857727
1761505187988807700,4.7298076171875,-0.13018164038658142,0.19493307173252106,-0.052132487297058105
1761505187998842600,4.739842529296875,-0.11356967687606812,0.17577213048934937,-0.03762492537498474
1761505188008878600,4.749878662109375,-0.09040842950344086,0.15909913182258606,-0.034693583846092224
1761505188018913800,4.759913818359375,-0.06792286038398743,0.13988681137561798,-0.018513284623622894
1761505188028948700,4.76994873046875,-0.04574405401945114,0.13614533841609955,0.005863694474101067
1761505188038984700,4.779984619140625,-0.035132769495248795,0.1328534483909607,0.031090471893548965
1761505188049020000,4.79002001953125,-0.029421888291835785,0.1428847759962082,0.04538845270872116
1761505188059054600,4.8000546875,-0.026841018348932266,0.14297986030578613,0.04782790690660477
1761505188069090600,4.810090576171875,-0.043743304908275604,0.14810910820960999,0.0436406172811985
1761505188079125800,4.820125732421875,-0.06934700906276703,0.1461765617132187,0.03290877491235733
1761505188089160700,4.83016064453125,-0.09716958552598953,0.14487479627132416,0.0022781628649681807
1761505188099196700,4.84019677734375,-0.11131640523672104,0.1512124389410019,-0.02853609062731266
1761505188109231600,4.850231689453125,-0.10942023247480392,0.15790629386901855,-0.03931763023138046
1761505188119266800,4.860266845703125,-0.09018708020448685,0.16628791391849518,-0.024581152945756912
1761505188129302800,4.870302734375,-0.06679759919643402,0.15422619879245758,0.004676602315157652
1761505188139337700,4.880337646484375,-0.053848747164011,0.1353694051504135,0.04269726574420929
1761505188149373000,4.890373046875,-0.06610674411058426,0.12544861435890198,0.08919019997119904
1761505188159409000,4.900408935546875,-0.08711656928062439,0.13279706239700317,0.12587681412696838
1761505188169443600,4.910443603515625,-0.10445614159107208,0.11441352963447571,0.12023517489433289
1761505188179478500,4.920478515625,-0.10970374941825867,0.09716355055570602,0.06631693989038467
1761505188189514800,4.9305146484375,-0.10583551228046417,0.07472748309373856,-0.010229501873254776
1761505188199549700,4.9405498046875,-0.1003943681716919,0.0640527606010437,-0.07203879952430725
1761505188209584400,4.95058447265625,-0.09855945408344269,0.05033961310982704,-0.11133507639169693
1761505188219620400,4.960620361328125,-0.09863090515136719,0.03397030383348465,-0.12502725422382355
1761505188229655600,4.970655517578125,-0.10708031058311462,0.04456862062215805,-0.11635786294937134
1761505188239690500,4.9806904296875,-0.12067568302154541,0.08691780269145966,-0.09402923285961151
1761505188249726500,4.9907265625,-0.14121077954769135,0.13027992844581604,-0.07371224462985992
1761505188259761700,5.00076171875,-0.16609451174736023,0.15261304378509521,-0.057729680091142654
1761505188269796600,5.010796630859375,-0.18337735533714294,0.14445658028125763,-0.04565677046775818
1761505188279832600,5.02083251953125,-0.18927447497844696,0.11999181658029556,-0.03255625069141388
1761505188289867500,5.030867431640625,-0.18290312588214874,0.08221807330846786,-0.03309580683708191
1761505188299902700,5.04090283203125,-0.1658763289451599,0.03258269280195236,-0.06335394829511642
1761505188309938700,5.050938720703125,-0.14160241186618805,0.007857105694711208,-0.12037062644958496
1761505188319973400,5.060973388671875,-0.12018638849258423,-0.011900488287210464,-0.17723241448402405
1761505188330008600,5.071008544921875,-0.10769535601139069,-0.016345836222171783,-0.2103261798620224
1761505188340044500,5.08104443359375,-0.11253511160612106,-0.030779344961047173,-0.21531271934509277
1761505188350079500,5.09107958984375,-0.12958014011383057,-0.03828040137887001,-0.1927158087491989
1761505188360114700,5.10111474609375,-0.16007201373577118,-0.023367473855614662,-0.16266287863254547
1761505188370150700,5.111150634765625,-0.18063560128211975,-0.014777446165680885,-0.1564241498708725
1761505188380185600,5.121185546875,-0.17357583343982697,0.007968530058860779,-0.16180573403835297
1761505188390220500,5.131220458984375,-0.14798232913017273,0.03277267888188362,-0.17727310955524445
1761505188400256500,5.141256591796875,-0.10547062009572983,0.031460464000701904,-0.19465208053588867
1761505188410291700,5.151291748046875,-0.06756825000047684,0.01693052239716053,-0.19390399754047394
1761505188420326400,5.161326416015625,-0.043756432831287384,0.00518267834559083,-0.17362149059772491
1761505188430362400,5.1713623046875,-0.03752383589744568,0.0007104319520294666,-0.1406768560409546
1761505188440397600,5.1813974609375,-0.03650978207588196,0.035975851118564606,-0.10435117781162262
1761505188450432500,5.1914326171875,-0.03905389830470085,0.06787358969449997,-0.08108820021152496
1761505188460468500,5.201468505859375,-0.03791539743542671,0.08116649836301804,-0.07271309196949005
1761505188470503700,5.211503662109375,-0.023564686998724937,0.08108367025852203,-0.06569726020097733
1761505188480538600,5.22153857421875,0.0026068417355418205,0.06601012498140335,-0.06622503697872162
1761505188490574600,5.23157470703125,0.03367181867361069,0.051251690834760666,-0.05791224539279938
1761505188500609500,5.241609619140625,0.055821362882852554,0.043059058487415314,-0.0486852303147316
1761505188510644700,5.251644775390625,0.07564433664083481,0.033143844455480576,-0.04059694707393646
1761505188520680700,5.2616806640625,0.07827827334403992,0.015589217655360699,-0.04818228259682655
1761505188530715400,5.27171533203125,0.0808439627289772,-0.010519880801439285,-0.06973417848348618
1761505188540750600,5.28175048828125,0.08141662925481796,-0.05252700671553612,-0.09707795083522797
1761505188550786600,5.29178662109375,0.08120597153902054,-0.0699683204293251,-0.11474589258432388
1761505188560821500,5.301821533203125,0.0903010442852974,-0.08988005667924881,-0.12912072241306305
1761505188570856400,5.3118564453125,0.09697412699460983,-0.09766208380460739,-0.1309143602848053
1761505188580892700,5.321892578125,0.0992061197757721,-0.09840350598096848,-0.12047158181667328
1761505188590927600,5.331927734375,0.09742473065853119,-0.08607892692089081,-0.09958814084529877
1761505188600962600,5.341962646484375,0.09552650153636932,-0.06616980582475662,-0.07454176247119904
1761505188610998500,5.35199853515625,0.10034682601690292,-0.05327743664383888,-0.055512674152851105
1761505188621033700,5.36203369140625,0.10084405541419983,-0.055071499198675156,-0.039452120661735535
1761505188631068400,5.372068359375,0.09504847973585129,-0.059227630496025085,-0.031202448531985283
1761505188641104400,5.3821044921875,0.09826899319887161,-0.06865005940198898,-0.02372594363987446
1761505188651139600,5.3921396484375,0.09907673299312592,-0.08290755748748779,-0.030037904158234596
1761505188661174500,5.402174560546875,0.09318723529577255,-0.10115668177604675,-0.03339342772960663
1761505188671210500,5.41221044921875,0.08286189287900925,-0.11467514932155609,-0.04132751747965813
1761505188681245400,5.422245361328125,0.06320516765117645,-0.12420757114887238,-0.03769371286034584
1761505188691280600,5.43228076171875,0.041730768978595734,-0.11677894741296768,-0.017316002398729324
1761505188701316600,5.442316650390625,0.010073581710457802,-0.08926889300346375,0.017640262842178345
1761505188711351600,5.4523515625,-0.020583396777510643,-0.07115460187196732,0.06432067602872849
1761505188721386800,5.46238671875,-0.04810183495283127,-0.05162268131971359,0.11081410199403763
1761505188731422700,5.472422607421875,-0.06985346972942352,-0.050561144948005676,0.1299731582403183
1761505188741457400,5.48245751953125,-0.08939239382743835,-0.05917481705546379,0.11930526047945023
1761505188751492600,5.49249267578125,-0.10534526407718658,-0.05851355567574501,0.08856333047151566
1761505188761528600,5.502528564453125,-0.12008848041296005,-0.0647071897983551,0.052670497447252274
1761505188771563500,5.5125634765625,-0.14010213315486908,-0.06782575696706772,0.028775017708539963
1761505188781598500,5.522598388671875,-0.1637120395898819,-0.07517775893211365,0.019915007054805756
1761505188791634400,5.532634521484375,-0.1886616051197052,-0.072640560567379,0.014681628905236721
1761505188801669600,5.542669677734375,-0.2064182311296463,-0.07261420041322708,0.019316060468554497
1761505188811704600,5.55270458984375,-0.21721921861171722,-0.06695178151130676,0.04567389935255051
1761505188821740500,5.562740478515625,-0.2246238887310028,-0.0503726489841938,0.09475772082805634
1761505188831775700,5.572775634765625,-0.23132839798927307,-0.037153247743844986,0.1302691251039505
1761505188841810400,5.582810546875,-0.22286482155323029,-0.03870435059070587,0.13469156622886658
1761505188851845400,5.592845458984375,-0.2070682793855667,-0.04326527938246727,0.10614941269159317
1761505188861881600,5.602881591796875,-0.1856365203857422,-0.045002780854701996,0.0648464784026146
1761505188871916500,5.61291650390625,-0.17209593951702118,-0.05705704912543297,0.02801310457289219
1761505188881951500,5.622951416015625,-0.15933971107006073,-0.07579918205738068,0.003860264550894499
1761505188891987500,5.632987548828125,-0.1556781381368637,-0.08256494253873825,-0.013169585727155209
1761505188902022700,5.643022705078125,-0.16551558673381805,-0.06817295402288437,-0.03644534572958946
1761505188912057600,5.6530576171875,-0.17758555710315704,-0.022526368498802185,-0.07468141615390778
1761505188922093600,5.663093505859375,-0.20317195355892181,0.03939015418291092,-0.11919207870960236
1761505188932128800,5.673128662109375,-0.22016984224319458,0.04348183795809746,-0.14828285574913025
1761505188942163500,5.68316357421875,-0.2244892716407776,0.03143708035349846,-0.11997523158788681
1761505188952199400,5.693199462890625,-0.23099109530448914,-0.020390432327985764,-0.04499819502234459
1761505188962234600,5.703234619140625,-0.22918632626533508,-0.08232075721025467,0.05142300948500633
1761505188972269600,5.71326953125,-0.20954445004463196,-0.104311004281044,0.13393573462963104
1761505188982305500,5.723305419921875,-0.18560920655727386,-0.13160856068134308,0.1450146734714508
1761505188992340500,5.733340576171875,-0.17501462996006012,-0.11683867871761322,0.10363579541444778
1761505189002375700,5.743375732421875,-0.17498911917209625,-0.08718336373567581,0.029301641508936882
1761505189012411600,5.75341162109375,-0.1858673393726349,-0.06316404789686203,-0.05117189511656761
1761505189022446600,5.763446533203125,-0.1998167634010315,-0.046432871371507645,-0.10580488294363022
1761505189032481800,5.773481689453125,-0.21137914061546326,-0.0645546168088913,-0.12221261113882065
1761505189042517800,5.783517822265625,-0.21702051162719727,-0.09942466765642166,-0.09738271683454514
1761505189052552400,5.793552490234375,-0.21412165462970734,-0.13632169365882874,-0.05815781652927399
1761505189062587400,5.80358740234375,-0.20734694600105286,-0.16868066787719727,-0.023824363946914673
1761505189072623600,5.81362353515625,-0.20193806290626526,-0.17847390472888947,-0.010877672582864761
1761505189082658600,5.823658447265625,-0.19269788265228271,-0.16790206730365753,-0.032194044440984726
1761505189092693500,5.833693603515625,-0.17810189723968506,-0.1588537096977234,-0.0625104084610939
1761505189102729500,5.8437294921875,-0.16451410949230194,-0.1253267526626587,-0.08965909481048584
1761505189112764700,5.8537646484375,-0.14526398479938507,-0.09136452525854111,-0.10092027485370636
1761505189122799600,5.863799560546875,-0.13544437289237976,-0.0697907954454422,-0.08651949465274811
1761505189132835600,5.873835693359375,-0.13983184099197388,-0.06656105071306229,-0.05556086078286171
1761505189142870800,5.883870849609375,-0.15764111280441284,-0.07439886778593063,-0.01485989149659872
1761505189152905500,5.893905517578125,-0.18433159589767456,-0.12039751559495926,0.010558915324509144
1761505189162941400,5.90394140625,-0.24044540524482727,-0.2148812711238861,-0.016934392973780632
1761505189172976400,5.913976318359375,-0.31697878241539,-0.30545535683631897,-0.10319577902555466
1761505189183011800,5.92401171875,-0.3646217882633209,-0.3432479202747345,-0.24364730715751648
1761505189193047800,5.9340478515625,-0.37270528078079224,-0.3321335017681122,-0.3999101519584656
1761505189203082800,5.944082763671875,-0.3322713077068329,-0.2604635953903198,-0.5160340666770935
1761505189213117700,5.95411767578125,-0.2813918888568878,-0.1841142177581787,-0.5480468273162842
1761505189223153700,5.964153564453125,-0.25633177161216736,-0.10909878462553024,-0.502914309501648
1761505189233188600,5.974188720703125,-0.24854016304016113,-0.04318554326891899,-0.406795471906662
1761505189243223600,5.9842236328125,-0.21563634276390076,0.011336658149957657,-0.29163679480552673
1761505189253259800,5.994259765625,-0.1555040329694748,0.05502874776721001,-0.17775601148605347
1761505189263294700,6.004294677734375,-0.09106939285993576,0.05986901372671127,-0.08843594789505005
1761505189273329700,6.01432958984375,-0.04376978427171707,0.029626421630382538,-0.021421492099761963
1761505189283365600,6.02436572265625,-0.017341062426567078,0.014937092550098896,0.03671621158719063
1761505189293400800,6.03440087890625,-0.003499283455312252,0.009673355147242546,0.06680353730916977
1761505189303435800,6.044435791015625,0.003752309363335371,0.0019020899198949337,0.07027941942214966
1761505189313471700,6.0544716796875,0.004042860120534897,0.001965739531442523,0.04801512509584427
1761505189323506700,6.064506591796875,-0.006545558106154203,0.00490813422948122,0.015619467943906784
1761505189333541600,6.074541748046875,-0.03132813423871994,0.0070189558900892735,-0.005865583661943674
1761505189343576600,6.08457666015625,-0.06566697359085083,-0.02251051925122738,-0.019006602466106415
1761505189353612500,6.094612548828125,-0.08877335488796234,-0.09651843458414078,-0.041162505745887756
1761505189363647700,6.104647705078125,-0.08766842633485794,-0.16794688999652863,-0.05914244428277016
1761505189373682700,6.1146826171875,-0.06419239193201065,-0.21217001974582672,-0.0625598132610321
1761505189383718700,6.12471875,-0.04899539798498154,-0.23699398338794708,-0.04751953110098839
1761505189393753900,6.13475390625,-0.054806679487228394,-0.2371644228696823,-0.007536694407463074
1761505189403788800,6.144788818359375,-0.10649339109659195,-0.19514016807079315,0.04606464505195618
1761505189413824800,6.15482470703125,-0.2050282210111618,-0.11507862061262131,0.094072125852108
1761505189423859700,6.164859619140625,-0.31656941771507263,-0.011117091402411461,0.11530230194330215
1761505189433894700,6.174894775390625,-0.4232809543609619,0.0807502493262291,0.09465934336185455
1761505189443930600,6.1849306640625,-0.5049895644187927,0.138773575425148,0.03855162113904953
1761505189453965600,6.194965576171875,-0.5566330552101135,0.168755441904068,-0.03563978523015976
1761505189464000800,6.205000732421875,-0.567026674747467,0.16882583498954773,-0.10928130894899368
1761505189474036700,6.21503662109375,-0.5369086861610413,0.13823837041854858,-0.17079660296440125
1761505189484071700,6.22507177734375,-0.4818418622016907,0.0976293608546257,-0.19666941463947296
1761505189494107000,6.23510693359375,-0.42708620429039,0.05098702758550644,-0.17065086960792542
1761505189504142800,6.245142822265625,-0.38084378838539124,0.00573424668982625,-0.1187543198466301
1761505189514177800,6.255177734375,-0.34792232513427734,-0.018502116203308105,-0.05864490941166878
1761505189524212500,6.26521240234375,-0.3176518976688385,-0.025500930845737457,-0.028131941333413124
1761505189534248700,6.275248779296875,-0.2764410674571991,-0.022789567708969116,-0.04067010432481766
1761505189544283600,6.28528369140625,-0.23374778032302856,-0.022359119728207588,-0.09087185561656952
1761505189554318600,6.295318603515625,-0.19527947902679443,-0.04270806536078453,-0.1467665582895279
1761505189564354600,6.3053544921875,-0.1603178232908249,-0.07172784209251404,-0.18473750352859497
1761505189574389800,6.3153896484375,-0.12627436220645905,-0.09837889671325684,-0.18325971066951752
1761505189584424700,6.3254248046875,-0.07894998043775558,-0.10824635624885559,-0.15228302776813507
1761505189594459600,6.335459716796875,-0.0295195821672678,-0.12045109272003174,-0.09015334397554398
1761505189604496000,6.345495849609375,0.0193267073482275,-0.12135302275419235,-0.026455648243427277
1761505189614530800,6.35553076171875,0.05957106873393059,-0.12216928601264954,0.03965918719768524
1761505189624565500,6.3655654296875,0.0940970927476883,-0.1032690703868866,0.09848891198635101
1761505189634601500,6.3756015625,0.11569026857614517,-0.07166294008493423,0.15277796983718872
1761505189644636700,6.38563671875,0.12058564275503159,-0.032454099506139755,0.18565665185451508
1761505189654671600,6.395671630859375,0.11482522636651993,-0.0015182860661298037,0.20325161516666412
1761505189664707600,6.40570751953125,0.10379844158887863,0.009941055439412594,0.2296222448348999
1761505189674742800,6.41574267578125,0.08528521656990051,0.0012650092830881476,0.25175046920776367
1761505189684777700,6.42577783203125,0.0706535056233406,-0.021858951076865196,0.26810166239738464
1761505189694813700,6.435813720703125,0.05307265371084213,-0.04426652193069458,0.26534876227378845
1761505189704848600,6.4458486328125,0.04739847779273987,-0.08541835844516754,0.24504420161247253
1761505189714883800,6.4558837890625,0.05293545499444008,-0.11018655449151993,0.23106606304645538
1761505189724919800,6.465919921875,0.07376084476709366,-0.10521120578050613,0.2303328663110733
1761505189734954500,6.47595458984375,0.092872753739357,-0.10090780258178711,0.23408472537994385
1761505189744989700,6.48598974609375,0.10772493481636047,-0.07274490594863892,0.24460716545581818
1761505189755025700,6.496025634765625,0.10808339715003967,-0.023927029222249985,0.2622125446796417
1761505189765060600,6.506060546875,0.09633859992027283,0.013991138897836208,0.2912783920764923
1761505189775095800,6.516095703125,0.06613888591527939,0.04213489219546318,0.33017465472221375
1761505189785131800,6.5261318359375,0.030939728021621704,0.07197872549295425,0.3676358759403229
1761505189795166700,6.536166748046875,0.004959793761372566,0.08141537010669708,0.379515677690506
1761505189805201700,6.54620166015625,-0.007127991411834955,0.056238964200019836,0.3615417182445526
1761505189815238000,6.55623779296875,-0.006865137722343206,0.03170059993863106,0.32646122574806213
1761505189825272800,6.56627294921875,-0.009700680151581764,0.01821129024028778,0.27801498770713806
1761505189835307500,6.5763076171875,-0.01797565445303917,0.007610843516886234,0.226201593875885
1761505189845342700,6.5863427734375,-0.01962338760495186,0.020762572064995766,0.18857112526893616
1761505189855378700,6.596378662109375,-0.015889368951320648,0.034466132521629333,0.18611036241054535
1761505189865413600,6.60641357421875,-0.024718699976801872,0.05767073482275009,0.21874427795410156
1761505189875448600,6.616448486328125,-0.04829060286283493,0.06258533149957657,0.260219007730484
1761505189885484800,6.62648486328125,-0.05878357216715813,0.04649027809500694,0.29209277033805847
1761505189895519700,6.636519775390625,-0.05436086282134056,0.031533434987068176,0.29496896266937256
1761505189905554700,6.6465546875,-0.042538031935691833,0.014032389968633652,0.26444849371910095
1761505189915590700,6.656590576171875,-0.02922249399125576,-0.0010634723585098982,0.2233401983976364
1761505189925625900,6.6666259765625,-0.007621095981448889,-0.004308586940169334,0.17827661335468292
1761505189935660500,6.67666064453125,0.004204670432955027,-0.009711341932415962,0.15202957391738892
1761505189945696500,6.686696533203125,0.01811116561293602,-0.015407044440507889,0.13658510148525238
1761505189955731700,6.696731689453125,0.016640568152070045,-0.017904024571180344,0.1351885348558426
1761505189965766700,6.7067666015625,0.01799231395125389,-0.028543217107653618,0.1593102365732193
1761505189975802600,6.716802734375,0.011011902242898941,-0.0196519885212183,0.20250751078128815
1761505189985837800,6.726837890625,0.010088890790939331,-0.03255463391542435,0.2313624769449234
1761505189995872800,6.736872802734375,0.0221833698451519,-0.05972473323345184,0.23356783390045166
1761505190005908700,6.74690869140625,0.04390616714954376,-0.08141157776117325,0.21416878700256348
1761505190015943700,6.756943603515625,0.060946933925151825,-0.07943018525838852,0.18771374225616455
1761505190025979000,6.766978759765625,0.06549930572509766,-0.05311974510550499,0.1676744669675827
1761505190036014800,6.777014892578125,0.04493570700287819,-0.0015705362893640995,0.14684881269931793
1761505190046049500,6.787049560546875,0.0033090899232774973,0.05596551299095154,0.11827521026134491
1761505190056084700,6.797084716796875,-0.036092378199100494,0.08191828429698944,0.0711340606212616
1761505190066119700,6.80711962890625,-0.05032286047935486,0.0922660231590271,0.036556314677000046
1761505190076155600,6.81715576171875,-0.04619709402322769,0.08086982369422913,0.01515648141503334
1761505190086190600,6.827190673828125,-0.04235552251338959,0.047689154744148254,0.017813866958022118
1761505190096225800,6.837225830078125,-0.05444680526852608,0.028966600075364113,0.04415811970829964
1761505190106261800,6.84726171875,-0.07481762766838074,0.016729239374399185,0.07264186441898346
1761505190116296700,6.857296630859375,-0.09737859666347504,0.014704173430800438,0.07799428701400757
1761505190126332000,6.867331787109375,-0.11383084952831268,0.023392682895064354,0.05452148988842964
1761505190136367900,6.877367919921875,-0.12332714349031448,0.034348927438259125,0.005651949439197779
1761505190146402600,6.887402587890625,-0.13077785074710846,0.04016367346048355,-0.057203665375709534
1761505190156437800,6.897437744140625,-0.1337698996067047,0.04600558429956436,-0.11542089283466339
1761505190166473700,6.9074736328125,-0.1394789218902588,0.0440429151058197,-0.14422763884067535
1761505190176509000,6.917509033203125,-0.13686636090278625,-0.0020087333396077156,-0.141546368598938
1761505190186543900,6.9275439453125,-0.1303177922964096,-0.05131513625383377,-0.10027175396680832
1761505190196579800,6.937579833984375,-0.10732965916395187,-0.09671564400196075,-0.05390026047825813
1761505190206615000,6.947614990234375,-0.10309412330389023,-0.12360861897468567,-0.03332968056201935
1761505190216650000,6.95764990234375,-0.11212942749261856,-0.11500420421361923,-0.04646625742316246
1761505190226686000,6.96768603515625,-0.12219404429197311,-0.05740565434098244,-0.0866708979010582
1761505190236721200,6.97772119140625,-0.13499799370765686,0.0069309924729168415,-0.13410791754722595
1761505190246756000,6.987756103515625,-0.14561372995376587,0.049395471811294556,-0.1663498878479004
1761505190256792000,6.9977919921875,-0.17260566353797913,0.03111579827964306,-0.1587790548801422
1761505190266827000,7.007826904296875,-0.2033177763223648,-0.029209885746240616,-0.16387176513671875
1761505190276862000,7.017862060546875,-0.24448572099208832,-0.011640748009085655,-0.18245796859264374
1761505190286897000,7.02789697265625,-0.2608574628829956,0.03256562352180481,-0.18135382235050201
1761505190296932900,7.037932861328125,-0.2707630693912506,0.04837760701775551,-0.1698542982339859
1761505190306968000,7.047968017578125,-0.2976153492927551,0.0635826364159584,-0.15623673796653748
1761505190317003000,7.0580029296875,-0.33480772376060486,0.08674920350313187,-0.15282362699508667
1761505190327039000,7.0680390625,-0.3630730211734772,0.0992933064699173,-0.15231448411941528
1761505190337074000,7.078073974609375,-0.38297295570373535,0.10856669396162033,-0.12523147463798523
1761505190347109000,7.088109130859375,-0.40688183903694153,0.1259077936410904,-0.06823686510324478
1761505190357145000,7.09814501953125,-0.4310803711414337,0.1610460728406906,0.004340667277574539
1761505190367179800,7.1081796875,-0.4464762806892395,0.2073095291852951,0.08438273519277573
1761505190377215000,7.118215087890625,-0.4505261480808258,0.22372844815254211,0.13717910647392273
1761505190387251000,7.1282509765625,-0.4389497637748718,0.2298826277256012,0.16105596721172333
1761505190397286000,7.138285888671875,-0.38164281845092773,0.23232048749923706,0.15755817294120789
1761505190407321000,7.148321044921875,-0.30879953503608704,0.20363859832286835,0.1294730007648468
1761505190417357000,7.158357177734375,-0.22812359035015106,0.15905195474624634,0.09322764724493027
1761505190427392000,7.16839208984375,-0.13412831723690033,0.10246103256940842,0.0849764347076416
1761505190437427000,7.178427001953125,-0.033069346100091934,0.05176243185997009,0.07996249943971634
1761505190447462100,7.188462158203125,0.047075748443603516,0.05046558007597923,0.06780746579170227
1761505190457498000,7.198498046875,0.060184627771377563,0.06826428323984146,0.06310192495584488
1761505190467532800,7.20853271484375,0.027723729610443115,0.07926249504089355,0.07160741090774536
1761505190477568000,7.218568115234375,0.020874878391623497,0.08442716300487518,0.08634375035762787
1761505190487604000,7.22860400390625,0.025232234969735146,0.06793831288814545,0.10479025542736053
1761505190497639000,7.238638916015625,0.015106629580259323,0.04098818823695183,0.09547264873981476
1761505190507673900,7.248673828125,0.012604165822267532,0.02977164462208748,0.046239204704761505
1761505190517710000,7.2587099609375,0.034521713852882385,0.036125682294368744,-0.008312452584505081
1761505190527745000,7.2687451171875,0.06920426338911057,0.05906767025589943,-0.04009724408388138
1761505190537780000,7.278780029296875,0.09179559350013733,0.05582500621676445,-0.03745485842227936
1761505190547816000,7.28881591796875,0.10928860306739807,-0.006857204716652632,-0.03573187068104744
1761505190557851100,7.29885107421875,0.14034612476825714,-0.09846461564302444,-0.049070313572883606
1761505190567885800,7.3088857421875,0.20959632098674774,-0.19364935159683228,-0.07459044456481934
1761505190577922000,7.318922119140625,0.28057223558425903,-0.2748134434223175,-0.08917605131864548
1761505190587957000,7.32895703125,0.3527499735355377,-0.2859356701374054,-0.07284706085920334
1761505190597992000,7.338991943359375,0.41751033067703247,-0.2553916275501251,-0.028789855539798737
1761505190608027000,7.34902685546875,0.43373093008995056,-0.17444367706775665,0.03627854958176613
1761505190618062800,7.359062744140625,0.3971332311630249,-0.051939062774181366,0.10554390400648117
1761505190628098000,7.36909814453125,0.3235458433628082,0.056744806468486786,0.13640381395816803
1761505190638133000,7.379133056640625,0.23823653161525726,0.1648465096950531,0.1283472180366516
1761505190648169000,7.3891689453125,0.1657279133796692,0.22716572880744934,0.07280410081148148
1761505190658204200,7.3992041015625,0.1175321489572525,0.24907049536705017,0.006279405206441879
1761505190668238800,7.40923876953125,0.09749973565340042,0.2732349932193756,-0.039570435881614685
1761505190678274800,7.41927490234375,0.07685624808073044,0.285942018032074,-0.050878219306468964
1761505190688310000,7.42931005859375,0.05480808764696121,0.28919586539268494,-0.04660382121801376
1761505190698345000,7.439344970703125,0.041708797216415405,0.30407655239105225,-0.039319541305303574
1761505190708381000,7.449380859375,0.040960028767585754,0.299357146024704,-0.03947824984788895
1761505190718416000,7.459415771484375,0.04181596636772156,0.30717137455940247,-0.03040645644068718
1761505190728451000,7.469451171875,0.04214053228497505,0.3152778744697571,-0.021980583667755127
1761505190738487000,7.479487060546875,0.03244049847126007,0.2935022711753845,-0.025926057249307632
1761505190748522000,7.48952197265625,0.020627552643418312,0.24487806856632233,-0.02912854589521885
1761505190758557200,7.49955712890625,0.01550469733774662,0.18797190487384796,-0.01698399893939495
1761505190768592000,7.509591796875,0.02813998982310295,0.13063687086105347,-0.011410191655158997
1761505190778627800,7.5196279296875,0.06394912302494049,0.0619928352534771,-0.010569165460765362
1761505190788662800,7.529662841796875,0.10398343205451965,0.006896479520946741,-0.020241443067789078
1761505190798698000,7.539697998046875,0.13611367344856262,-0.0558028519153595,-0.011096413247287273
1761505190808734000,7.54973388671875,0.1653786599636078,-0.07417139410972595,0.02022547461092472
1761505190818769000,7.559768798828125,0.18531134724617004,-0.06663811206817627,0.052024148404598236
1761505190828804000,7.56980419921875,0.18601423501968384,-0.06021818518638611,0.07125608623027802
1761505190838840000,7.579840087890625,0.17032527923583984,-0.04784301295876503,0.07901840656995773
1761505190848875000,7.589875,0.14881090819835663,-0.02246260829269886,0.09410685300827026
1761505190858910200,7.59991015625,0.11978936940431595,0.0034872337710112333,0.10643169283866882
1761505190868946200,7.6099462890625,0.07993751764297485,0.02739166095852852,0.12190239131450653
1761505190878980900,7.61998095703125,0.040297433733940125,0.04895048215985298,0.12666943669319153
1761505190889015800,7.630015869140625,0.007628093473613262,0.06779854744672775,0.13581974804401398
1761505190899052000,7.640052001953125,-0.018154235556721687,0.09848775714635849,0.15565736591815948
1761505190909087000,7.6500869140625,-0.023397237062454224,0.11767204850912094,0.17390698194503784
1761505190919122000,7.660121826171875,-0.014698820188641548,0.11875408887863159,0.1873396933078766
1761505190929157000,7.6701572265625,0.006510552484542131,0.11614219099283218,0.19248749315738678
1761505190939193000,7.680193115234375,0.028301335871219635,0.09993313252925873,0.19505079090595245
1761505190949228000,7.69022802734375,0.04289839044213295,0.06758803129196167,0.18771129846572876
1761505190959263000,7.700262939453125,0.05292705446481705,0.03916144743561745,0.18169894814491272
1761505190969299200,7.71029931640625,0.051989130675792694,0.017134521156549454,0.1662764847278595
1761505190979334000,7.720333984375,0.04189947992563248,0.00296410801820457,0.1371857225894928
1761505190989368800,7.730368896484375,0.023992381989955902,-0.003911081235855818,0.09939248859882355
1761505190999404800,7.74040478515625,0.005680487956851721,0.006422249600291252,0.055040739476680756
1761505191009440000,7.75043994140625,-0.0020650504156947136,0.01778406649827957,0.01664598658680916
1761505191019475000,7.760474853515625,-0.0015358803793787956,0.0206160731613636,-0.003703226801007986
1761505191029511000,7.770510986328125,0.009603172540664673,0.031621053814888,0.009818948805332184
1761505191039546000,7.780546142578125,0.025069214403629303,0.04389183595776558,0.0464286282658577
1761505191049581000,7.7905810546875,0.046018246561288834,0.0350060909986496,0.08373535424470901
1761505191059616000,7.800615966796875,0.055768080055713654,0.031096303835511208,0.11077842116355896
1761505191069652000,7.81065185546875,0.054569311439991,0.02757911942899227,0.11041568219661713
1761505191079687000,7.82068701171875,0.04287803918123245,0.023946834728121758,0.06919634342193604
1761505191089721900,7.830721923828125,0.036028310656547546,0.02632887102663517,-0.0024182903580367565
1761505191099757800,7.8407578125,0.039387356489896774,0.024272911250591278,-0.07357369363307953
1761505191109793000,7.85079296875,0.046686507761478424,0.022371575236320496,-0.12387348711490631
1761505191119828000,7.860827880859375,0.05786272883415222,0.0103593859821558,-0.14498916268348694
1761505191129864000,7.870864013671875,0.06143859401345253,-0.004094493109732866,-0.1381485015153885
1761505191139899100,7.880899169921875,0.05206133797764778,-0.011462660506367683,-0.09957502037286758
1761505191149934000,7.89093408203125,0.03627917915582657,0.008906233124434948,-0.03270380198955536
1761505191159970000,7.900969970703125,0.02383103221654892,0.03399001434445381,0.020046494901180267
1761505191170005000,7.9110048828125,0.02184363082051277,0.04408840090036392,0.03039320558309555
1761505191180040000,7.9210400390625,0.03469045087695122,0.03168739378452301,-0.006304088979959488
1761505191190075000,7.931074951171875,0.05426415801048279,0.0037296083755791187,-0.05670693889260292
1761505191200110800,7.94111083984375,0.08310805261135101,-0.054796554148197174,-0.10625265538692474
1761505191210146000,7.95114599609375,0.09941938519477844,-0.10835245251655579,-0.13493835926055908
1761505191220181000,7.961180908203125,0.10051847249269485,-0.1264750063419342,-0.14365515112876892
1761505191230217000,7.971217041015625,0.09472022950649261,-0.11873780190944672,-0.14872221648693085
1761505191240252000,7.981251953125,0.09210287779569626,-0.09981497377157211,-0.17011938989162445
1761505191250287000,7.991287109375,0.09873616695404053,-0.06836938112974167,-0.19455528259277344
1761505191260323000,8.001322998046875,0.10520178824663162,-0.040901269763708115,-0.2160336822271347
1761505191270357800,8.011357666015625,0.10846724361181259,-0.006376530043780804,-0.23032265901565552
1761505191280393000,8.02139306640625,0.10535640269517899,0.008529715240001678,-0.2187000960111618
1761505191290428000,8.031427978515625,0.09110419452190399,0.0019721342250704765,-0.19040393829345703
1761505191300462800,8.041462890625,0.07591938227415085,-0.016360266134142876,-0.16529113054275513
1761505191310499000,8.0514990234375,0.053117699921131134,-0.03910382091999054,-0.15484793484210968
1761505191320534000,8.061533935546874,0.011816334910690784,-0.03971395269036293,-0.1590951383113861
1761505191330569000,8.07156884765625,-0.016377829015254974,-0.015834106132388115,-0.17332659661769867
1761505191340605000,8.08160498046875,-0.036831971257925034,0.01644819974899292,-0.18128545582294464
1761505191350640000,8.09164013671875,-0.053247012197971344,0.03744298964738846,-0.17935574054718018
1761505191360674800,8.1016748046875,-0.05521935224533081,0.0469086617231369,-0.1700490564107895
1761505191370710800,8.111710693359376,-0.04333662614226341,0.06501546502113342,-0.15307222306728363
1761505191380746000,8.12174609375,-0.02094290591776371,0.07629049569368362,-0.13934601843357086
1761505191390781000,8.131781005859375,0.007176653016358614,0.07565303891897202,-0.13418546319007874
1761505191400815900,8.14181591796875,0.02615220844745636,0.06321554630994797,-0.12780612707138062
1761505191410851800,8.151851806640625,0.03556351363658905,0.050057291984558105,-0.12607255578041077
1761505191420887000,8.161886962890625,0.04123924300074577,0.029252678155899048,-0.13297653198242188
1761505191430922000,8.171921875,0.03987996652722359,-0.0025483944918960333,-0.1524983048439026
1761505191440958000,8.1819580078125,0.029449695721268654,-0.01833055354654789,-0.1560368537902832
1761505191450993200,8.1919931640625,0.01078531052917242,-0.01721503585577011,-0.1484786868095398
1761505191461027800,8.20202783203125,-0.008337783627212048,-0.014748414978384972,-0.12654727697372437
1761505191471063800,8.212063720703124,-0.009498883038759232,-0.007460569031536579,-0.11102437973022461
1761505191481099000,8.22209912109375,-0.01720047928392887,0.004791037179529667,-0.10773085057735443
1761505191491134000,8.232134033203126,-0.013187665492296219,0.01119809877127409,-0.11542561650276184
1761505191501170000,8.242169921875,-0.0015672286972403526,0.01125695463269949,-0.13210871815681458
1761505191511204900,8.252204833984376,0.005744555965065956,-0.011856036260724068,-0.16015392541885376
1761505191521240000,8.262239990234375,0.002936518983915448,-0.050817813724279404,-0.1924692541360855
1761505191531275000,8.27227490234375,-0.0007241098210215569,-0.08792486041784286,-0.21792283654212952
1761505191541311000,8.28231103515625,-0.01334882527589798,-0.11674638837575912,-0.23087644577026367
1761505191551346200,8.29234619140625,-0.0269552581012249,-0.12678197026252747,-0.2247530072927475
1761505191561380900,8.302380859375,-0.04655612260103226,-0.09151717275381088,-0.20781584084033966
1761505191571416800,8.312416748046875,-0.061574071645736694,-0.05995146930217743,-0.18989363312721252
1761505191581451800,8.32245166015625,-0.06227767467498779,-0.016553133726119995,-0.16471025347709656
1761505191591487000,8.332487060546875,-0.05677763745188713,0.0033282958902418613,-0.13718445599079132
1761505191601523000,8.34252294921875,-0.03764256089925766,-0.010258886031806469,-0.09760057181119919
1761505191611558000,8.352557861328124,-0.015363963320851326,-0.03686080127954483,-0.055583491921424866
1761505191621593000,8.362593017578124,-0.005137690808624029,-0.08349727839231491,-0.02222234010696411
1761505191631628000,8.3726279296875,0.00518791563808918,-0.1048407033085823,0.0072850389406085014
1761505191641664000,8.3826640625,0.009277199395000935,-0.11198623478412628,0.019665008410811424
1761505191651699000,8.392698974609376,0.009192399680614471,-0.1079636886715889,0.016356946900486946
1761505191661734000,8.40273388671875,-0.00694236159324646,-0.08786401152610779,-0.0011525381123647094
1761505191671769900,8.412769775390625,-0.03229561820626259,-0.07752899825572968,-0.01192350871860981
1761505191681804800,8.4228046875,-0.056094955652952194,-0.07339364290237427,-0.021351898089051247
1761505191691840000,8.432840087890625,-0.07111145555973053,-0.0392170324921608,-0.020247485488653183
1761505191701876000,8.4428759765625,-0.07408171892166138,-0.016867918893694878,-0.0002208772348240018
1761505191711911000,8.452910888671875,-0.07012289017438889,-0.011515842750668526,0.034099556505680084
1761505191721946000,8.462946044921875,-0.09103509783744812,0.004485228098928928,0.08096719533205032
1761505191731982000,8.472982177734375,-0.12454614788293839,0.01352497935295105,0.11529578268527985
1761505191742017000,8.48301708984375,-0.15501350164413452,0.011048506014049053,0.12272467464208603
1761505191752051700,8.4930517578125,-0.17271003127098083,0.012629251927137375,0.10993199050426483
1761505191762087000,8.5030869140625,-0.18666605651378632,0.01626313477754593,0.09066268801689148
1761505191772123000,8.513122802734374,-0.20943070948123932,0.025288455188274384,0.07503481954336166
1761505191782157800,8.52315771484375,-0.23672038316726685,0.010782483965158463,0.059048671275377274
1761505191792193000,8.533193115234376,-0.24503067135810852,0.01916523650288582,0.04310549423098564
1761505191802229000,8.54322900390625,-0.23320730030536652,0.043402932584285736,0.03231596201658249
1761505191812264000,8.553263916015625,-0.21629147231578827,0.05371224135160446,0.025578204542398453
1761505191822299000,8.563298828125,-0.1819968819618225,0.02849609963595867,0.02393370307981968
1761505191832335000,8.573335205078125,-0.1539469063282013,-0.010215477086603642,0.04099142178893089
1761505191842371000,8.58337109375,-0.1393866091966629,-0.05977317690849304,0.06046418845653534
1761505191852406000,8.593406005859375,-0.1543843150138855,-0.0721680074930191,0.05952296033501625
1761505191862442000,8.60344189453125,-0.20467092096805573,-0.05473149195313454,0.04136979207396507
1761505191872477000,8.613476806640625,-0.26513946056365967,0.006852057762444019,0.01768539473414421
1761505191882512000,8.623511962890625,-0.33447539806365967,0.09803496301174164,-0.004794880747795105
1761505191892547800,8.6335478515625,-0.396864652633667,0.150309219956398,-0.018084175884723663
1761505191902582800,8.643582763671875,-0.43501922488212585,0.18888936936855316,-0.012788212858140469
1761505191912618000,8.653617919921874,-0.44258424639701843,0.21401771903038025,-0.007931464351713657
1761505191922654000,8.663654052734374,-0.4271232783794403,0.22546210885047913,-0.04961845651268959
1761505191932689000,8.67368896484375,-0.40767091512680054,0.21910439431667328,-0.17278631031513214
1761505191942724000,8.68372412109375,-0.383684903383255,0.2561551034450531,-0.3840154707431793
1761505191952759000,8.693759033203126,-0.34905534982681274,0.4158044755458832,-0.612258791923523
1761505191962795000,8.703794921875,-0.2973223626613617,0.735567033290863,-0.5300797820091248
1761505191972830000,8.713829833984375,-0.3526184856891632,0.7086262702941895,-0.16913598775863647
1761505191982865000,8.723864990234375,-0.33362188935279846,0.18283148109912872,0.02580234780907631
1761505191992900900,8.73390087890625,-0.29658234119415283,-0.2960391044616699,0.16308359801769257
1761505192002935800,8.743935791015625,-0.28220126032829285,-0.47462669014930725,0.2439054697751999
1761505192012971000,8.753970947265625,-0.3520452380180359,-0.4044853150844574,0.24220071732997894
1761505192023007000,8.764007080078125,-0.44197672605514526,-0.2742311656475067,0.21004383265972137
1761505192033042000,8.7740419921875,-0.5258775353431702,-0.20436932146549225,0.1981121152639389
1761505192043077000,8.7840771484375,-0.5903856754302979,-0.19145432114601135,0.31278225779533386
