time,seconds_elapsed,z,y,x
1761505417039596800,0.1025966796875,0.07282090606093407,-0.27398835218027234,-0.16357640500217674
1761505417049633800,0.1126337890625,0.20932722556889055,-0.2764752005599439,-0.15555354980528355
1761505417059669800,0.122669677734375,0.16992577402889728,-0.25463285965137183,-0.18754443282783032
1761505417069707000,0.13270703125,0.06547171234190463,-0.25909334619157015,-0.2384305704563856
1761505417079743000,0.142742919921875,-0.082239307269454,-0.2996423603314906,-0.21398323468118904
1761505417089780000,0.152780029296875,-0.21255729353129862,-0.3128438602752983,-0.14323738132864236
1761505417099816000,0.16281591796875,-0.26955869916975495,-0.3084125267643481,-0.099062577906996
1761505417109852700,0.172852783203125,-0.2653875509649515,-0.32740079341605305,-0.1134209197357297
1761505417119889000,0.182888916015625,-0.25065759934484955,-0.2606847801014781,-0.12289441213235258
1761505417129925600,0.192925537109375,-0.3100783410847187,-0.20426058982908724,-0.08989099106639623
1761505417139961900,0.2029619140625,-0.3673369363546371,-0.19748356997482477,-0.03894187120422721
1761505417149998800,0.212998779296875,-0.35796997307240963,-0.19539054321832955,0.030081103878468272
1761505417160034800,0.223034912109375,-0.3433534186989069,-0.15170052763894198,0.0569768557190895
1761505417170071800,0.23307177734375,-0.302662511870265,-0.11613222452104091,0.05705927330553531
1761505417180107800,0.243107666015625,-0.2290542548239231,-0.12784662771224975,0.012379150710254907
1761505417190144800,0.253144775390625,-0.17515958302915094,-0.09602817864716053,-0.013660861083865165
1761505417200180700,0.2631806640625,-0.13959902482628822,-0.10095284863300621,-0.0005304536148905754
1761505417210218000,0.273218017578125,-0.18506196836233138,-0.11244133411385118,0.0333466815456748
1761505417220254000,0.28325390625,-0.1763952623039484,-0.10224281537830829,0.022020693150162696
1761505417230291000,0.293291015625,-0.23009236570000646,-0.09555931902639567,-0.001784253068268299
1761505417240327000,0.303326904296875,-0.3065016516417265,-0.0879390532810241,-0.0581676729388535
1761505417250364000,0.313364013671875,-0.2587520584732294,-0.07386091663315891,-0.04849222822934389
1761505417260399900,0.32339990234375,-0.10601064347922802,-0.09768156274422071,-0.01826514000892639
1761505417270436900,0.333436767578125,0.0016980360895395277,-0.11966858195364474,0.02937339400053024
1761505417280472800,0.343472900390625,0.023601824861764906,-0.09904116979278624,0.039108021551370616
1761505417290509800,0.353509765625,-0.012290741774439812,-0.0706178339255508,0.019823767627775667
1761505417300546000,0.363546142578125,-0.02318330718874931,-0.05413191461674869,0.010029811105132102
1761505417310582000,0.37358203125,-0.05627776753902435,-0.0314415785767138,0.010529869581758975
1761505417320618800,0.38361865234375,-0.016853519645333288,-0.08164220902598462,-0.007103402264416217
1761505417330655000,0.393655029296875,0.08168225790858269,-0.13367298664501867,0.003003127338737249
1761505417340691700,0.403691650390625,0.05728957493007183,-0.16188487171865998,0.03451309497654438
1761505417350727700,0.413727783203125,-0.04424889157116413,-0.1587680548723787,0.0484396212592721
1761505417360764700,0.4237646484375,-0.11525368812084197,-0.1536711701247841,0.06145370887219905
1761505417370800600,0.433800537109375,-0.17521452808678148,-0.12944505761852487,0.053669923128187656
1761505417380838000,0.443837890625,-0.13941373138725757,-0.10337255006060003,0.050655105351656675
1761505417390873900,0.453873779296875,-0.13291793962717055,-0.06899345672726631,0.07558715590387582
1761505417400910800,0.463910888671875,-0.14307926815748215,-0.0627424152421765,0.08767609149590135
1761505417410946600,0.473946533203125,-0.10889175187349319,-0.04731578659480437,0.09374518227651715
1761505417420983600,0.483983642578125,-0.189853878813982,-0.04940379011631012,0.06326952612251042
1761505417431019500,0.49401953125,-0.2775993822842836,-0.0685782269898802,-0.0010267126992344856
1761505417441056800,0.504056884765625,-0.28169863429665565,-0.07638217873908579,-0.02474661098271608
1761505417451092700,0.5140927734375,-0.28603227958679195,-0.12276618264280259,-0.014903262360394
1761505417461129700,0.524129638671875,-0.21054712275266646,-0.1660583580110222,-0.012625672817230224
1761505417471165700,0.534165771484375,-0.14105389980971814,-0.1977166480783373,-0.027940146327018738
1761505417481202700,0.54420263671875,-0.1422135912388563,-0.17942620923137292,-0.06571341214329005
1761505417491238700,0.55423876953125,-0.17047113295197486,-0.11822861227840184,-0.11173939638957381
1761505417501275600,0.564275634765625,-0.20842998446822164,-0.05091770181059837,-0.17512801884710788
1761505417511311600,0.5743115234375,-0.15895546720325945,-0.03138539141006767,-0.16897358787059782
1761505417521347600,0.58434765625,-0.058119011491537094,-0.04813026304915547,-0.13982333510145545
1761505417531384800,0.594384765625,-0.02526829676926136,-0.09579502747841179,-0.09943389543741941
1761505417541420800,0.6044208984375,-0.05277881950736046,-0.10988193195462226,-0.04947276369929313
1761505417551457500,0.61445751953125,-0.1933832219839096,-0.1319528209220618,-0.010313011960685252
1761505417561493800,0.62449365234375,-0.3430687565386295,-0.1645075483724475,-0.0038426469027996062
1761505417571530500,0.634530517578125,-0.40165947719514367,-0.14268091648966072,0.03445902670174837
1761505417581566500,0.64456640625,-0.3271393660008907,-0.12182086461670696,0.0690730978347361
1761505417591603500,0.654603515625,-0.22832477150559424,-0.11189838634356855,0.03202478529214859
1761505417601639700,0.6646396484375,-0.125212772077322,-0.08460859368406236,-0.05374693388715386
1761505417611676700,0.6746767578125,-0.06996493210792541,-0.04782965440107509,-0.13447466754987836
1761505417621712600,0.684712646484375,0.012139935126900672,-0.04879404245382175,-0.15236103737428783
1761505417631749600,0.69474951171875,0.12635083619654178,-0.0737534376706928,-0.11033493641912936
1761505417641785600,0.70478564453125,0.15882278073430062,-0.11259952035024762,-0.05566518859863281
1761505417651822600,0.714822509765625,0.10401508574783802,-0.10397373082414268,-0.05983546002060174
1761505417661858600,0.724858642578125,-0.015285831937193869,-0.06390365930758417,-0.05828296988159418
1761505417671895800,0.734895751953125,-0.13934943397939203,-0.034073096124082804,-0.02142097369134426
1761505417681931800,0.744931884765625,-0.17125731489360332,-0.04712627363838255,0.031109131751954552
1761505417691968800,0.75496875,-0.14103168797791002,-0.08258249468393623,0.09267916048020124
1761505417702004700,0.765004638671875,-0.2539928812474012,-0.06661058017872273,0.06671557492315769
1761505417712040700,0.775040771484375,-0.3024912469565868,-0.018221136470418422,-0.007480565013736486
1761505417722077700,0.78507763671875,-0.25391923148930073,-0.003616948388144374,-0.036398324201256035
1761505417732113700,0.79511376953125,-0.20407295830249786,-0.0016820348028093576,-0.03177957835942507
1761505417742150700,0.805150634765625,-0.11335983719825744,-0.05999101590849459,-0.019245090956985948
1761505417752186600,0.8151865234375,-0.06104454354941845,-0.09445720300339162,0.01881196023672819
1761505417762223600,0.8252236328125,-0.08813654861450194,-0.10307501015244051,0.023309856177866458
1761505417772259800,0.835259765625,-0.14734686247408388,-0.1017372039437294,0.020442484048008917
1761505417782296600,0.845296630859375,-0.17718962755203246,-0.06597359744943677,0.005630991624295712
1761505417792332500,0.85533251953125,-0.14995324558019638,-0.034558760749176146,-0.023632220000028608
1761505417802369500,0.86536962890625,-0.12248363937437534,-0.015189458890631793,-0.009800386263430117
1761505417812405500,0.875405517578125,-0.109492640376091,-0.03037760260701179,-0.002471796941012144
1761505417822442500,0.8854423828125,-0.10656769284009933,-0.021268833603244275,-0.037490357221662995
1761505417832478500,0.895478515625,-0.06041618251800537,-0.021680136084184048,-0.08037789731174708
1761505417842515700,0.905515625,0.00036941783428192136,-0.02320456917248666,-0.06571823444887995
1761505417852551700,0.9155517578125,-0.0432826768875122,-0.04409355487897992,-0.04147898846641183
1761505417862588700,0.925588623046875,-0.013077508237957954,-0.0887762347575277,0.007348755327612162
1761505417872624600,0.935624755859375,-0.0996411084473133,-0.13559568920275195,0.05007818224653601
1761505417882661600,0.94566162109375,-0.13433482068777083,-0.17899519740296527,0.045791590968519445
1761505417892697600,0.955697509765625,-0.11309680234789847,-0.19496318465173243,0.04725274956226349
1761505417902733600,0.965733642578125,-0.08818915558457374,-0.20471417881548404,0.058496612632274625
1761505417912770800,0.975770751953125,-0.10566986721754074,-0.19791383288456127,0.04301569651439786
1761505417922806800,0.985806884765625,-0.19208324530124662,-0.1776253886207938,0.014291267941892146
1761505417932843800,0.99584375,-0.3131096716046333,-0.14288336199289187,-0.00895545987188816
1761505417942879700,1.005879638671875,-0.3903384572356939,-0.08313187219500541,-0.05905760751590133
1761505417952916700,1.015916748046875,-0.3700555476635694,-0.058745984283462165,-0.09319806978777051
1761505417962952700,1.02595263671875,-0.3633791386395693,-0.06470538587821648,-0.0988350527614355
1761505417972989400,1.035989501953125,-0.2942944964975118,-0.09726743811853229,-0.05955518177449703
1761505417983025700,1.046025634765625,-0.29247780246436594,-0.10131364476941525,0.00005143792629241943
1761505417993062700,1.056062744140625,-0.2874129202902317,-0.07552242010459304,-0.003701046475023031
1761505418003098600,1.0660986328125,-0.19884557904303074,-0.049493075834959745,-0.0028556816920638083
1761505418013135600,1.076135498046875,-0.11788637471199034,-0.05646496067419648,0.023316578179597855
1761505418023171600,1.086171630859375,0.02053600755035877,-0.09635178457833826,0.05148030412942171
1761505418033208600,1.09620849609375,0.11366145049333572,-0.11779000166542827,0.0642705198585987
1761505418043244500,1.10624462890625,0.11760814229249954,-0.08125415042331442,0.013056027058511971
1761505418053281500,1.116281494140625,0.07498246800899505,-0.05898351936638355,-0.023590134423971176
1761505418063317500,1.1263173828125,-0.07323240947127342,-0.05120285716122016,-0.07953954679146409
1761505418073353500,1.136353515625,-0.19851298608779905,-0.03445486198328435,-0.14485533791929484
1761505418083390700,1.146390625,-0.19720950227379797,-0.030218904913961887,-0.13567001481428742
1761505418093426700,1.1564267578125,-0.1763993539571762,-0.04640824329582974,-0.07496361717805267
1761505418103463700,1.166463623046875,-0.13588964891433716,-0.08543094291761517,0.010808978784084319
1761505418113499600,1.176499755859375,-0.11292261482477188,-0.15605397360809145,0.06269990954101086
1761505418123536600,1.18653662109375,-0.0536000727623701,-0.16209069648906588,0.05862316162139177
1761505418133572600,1.196572509765625,0.005071311914920807,-0.10323708711266517,0.009299743264913559
1761505418143609600,1.206609619140625,0.025739421412348747,-0.07571405195286497,-0.0335721608646214
1761505418153645600,1.2166455078125,-0.04684884493649005,-0.10020517207086085,-0.002793137849867344
1761505418163682800,1.226682861328125,-0.22009353425502776,-0.11437975483052432,0.04411971223354339
1761505418173718800,1.23671875,-0.34430034416019917,-0.1188716594222933,0.07335209032818675
1761505418183755500,1.246755615234375,-0.37114801907539363,-0.06925707609951495,0.04009849389344453
1761505418193791700,1.256791748046875,-0.3068283993780613,-0.030983313415199516,-0.034149083969742054
1761505418203828500,1.266828369140625,-0.1407411805987358,-0.03999181864857673,-0.07922989632040262
1761505418213864400,1.276864501953125,-0.0148357500821352,-0.04266512951105833,-0.10302490566670894
1761505418223900700,1.286900634765625,0.10348667795956135,-0.08311324055977165,-0.0673347297348082
1761505418233937700,1.296937744140625,0.07611001073420047,-0.13745105301216243,-0.012635317428410052
1761505418243973600,1.3069736328125,-0.042917350706458086,-0.10280161830484867,-0.004854892685264348
1761505418254010600,1.3170107421875,-0.16624036351442337,-0.03673301778202876,-0.009813391875475645
1761505418264046600,1.327046630859375,-0.2741518721789121,-0.03722016197815537,-0.021170213800668716
1761505418274083600,1.33708349609375,-0.27909809640944,-0.08533836926333606,-0.014800678768754004
1761505418284119600,1.34711962890625,-0.23085692033171654,-0.13217815411053596,-0.026834815433621404
1761505418294156500,1.357156494140625,-0.22347674695253372,-0.14400807344019412,-0.03761836751550436
1761505418304192500,1.367192626953125,-0.18432663982510566,-0.10011975880973041,-0.0907845789052546
1761505418314229800,1.377229736328125,-0.17725158687233925,-0.03660181088410318,-0.12223770178928971
1761505418324265700,1.387265625,-0.18993454283475875,-0.04663556751199066,-0.11169774920493364
1761505418334302700,1.397302734375,-0.17405425213575362,-0.08667451323792338,-0.09599252281188965
1761505418344338700,1.407338623046875,-0.12578911066055298,-0.11154482366554438,-0.07151523028984666
1761505418354375700,1.417375732421875,-0.020440730482339856,-0.13143529985398053,-0.050933191640675064
1761505418364411600,1.42741162109375,0.018991700717806814,-0.1305263317828998,-0.017625819192081688
1761505418374447600,1.437447509765625,-0.04206161065995693,-0.123749202330783,-0.017054887436330317
1761505418384484600,1.447484619140625,-0.05227613068222999,-0.10162541413232684,-0.020507073716819285
1761505418394520600,1.4575205078125,-0.0731850631982088,-0.0744056179691106,-0.040755204236507414
1761505418404557600,1.4675576171875,-0.05716916342079639,-0.054548167267441744,-0.08653978094235062
1761505418414593500,1.477593505859375,0.007530980026721954,-0.03155066497437656,-0.08034034178033471
1761505418424630500,1.487630615234375,0.03925532106757164,-0.01559394803829491,-0.05309446132779121
1761505418434666500,1.49766650390625,-0.06177168878018856,0.008425371583178638,-0.07836948009878396
1761505418444703500,1.507703369140625,-0.24700199944674966,0.05246960742771625,-0.07186243629232049
1761505418454739500,1.517739501953125,-0.38265140986442564,0.05911542038405314,-0.04146247572302818
1761505418464776400,1.5277763671875,-0.43325346985459323,0.026642507731914518,0.0139250649780035
1761505418474812400,1.5378125,-0.3213987765222788,0.006720321230962872,0.05935892855003476
1761505418484849400,1.547849365234375,-0.15825754806697367,0.0043364217691123485,0.06621668549031019
1761505418494885400,1.557885498046875,-0.10989537595808506,0.0023481705613434315,0.014501257430762051
1761505418504921300,1.56792138671875,-0.09803542681634425,0.008400675533339381,-0.05668108764290809
1761505418514958600,1.57795849609375,-0.08679390183389186,-0.0320646789111197,-0.06754720344170928
1761505418524994600,1.58799462890625,-0.07820610623061656,-0.05073211611062288,-0.09088146340847014
1761505418535031600,1.598031494140625,-0.08081424290239811,-0.03026435149088502,-0.10190876111835241
1761505418545067500,1.608067626953125,-0.14734101725518703,-0.006053089493885636,-0.10941577574759721
1761505418555104500,1.6181044921875,-0.17892507304251193,-0.014330869299918413,-0.10737126430794595
1761505418565140500,1.628140380859375,-0.15271744959652422,-0.053066331211850046,-0.06686652770116924
1761505418575177500,1.638177490234375,-0.10242810881733894,-0.08810692066121846,-0.009992840095609426
1761505418585213400,1.64821337890625,-0.07982406282126903,-0.08693141060844063,0.013597586589306591
1761505418595250700,1.658250732421875,-0.011650105783343315,-0.052885202491283416,-0.0067132339030504225
1761505418605286700,1.66828662109375,0.05526771371364593,-0.07669036790542304,0.014200520918518304
1761505418615322600,1.678322509765625,0.03982055373489857,-0.12805405991785226,0.03974339684545994
1761505418625359600,1.688359619140625,-0.05370411765873432,-0.16511143254972993,-0.025874153707921503
1761505418635395600,1.6983955078125,-0.1820019962698221,-0.09847739843018352,-0.12114303842037916
1761505418645432600,1.7084326171875,-0.33450901798605914,-0.004419350812211633,-0.16516016706228256
1761505418655468500,1.718468505859375,-0.46756256669163704,0.03383483038879931,-0.16346987588778136
1761505418665505500,1.728505615234375,-0.4597954398214817,0.0340508112270385,-0.1284422555178404
1761505418675541500,1.73854150390625,-0.3644879766643047,0.003774805830977857,-0.10906798522323369
1761505418685578500,1.74857861328125,-0.19157763386666773,-0.06819339239075779,-0.05859598135352134
1761505418695614500,1.758614501953125,0.0007779986351728439,-0.12361118209958076,0.016069383530318736
1761505418705651500,1.7686513671875,0.11442132894992828,-0.19198796823322772,0.08533113580495119
1761505418715687400,1.7786875,0.04817337153851985,-0.190819435910508,0.10762304711192845
1761505418725724400,1.788724365234375,-0.12485446015894412,-0.08318393117580562,0.06761047793626784
1761505418735760400,1.798760498046875,-0.2158218482851982,-0.0008511369366198777,0.05344327476546168
1761505418745796400,1.80879638671875,-0.23938509470224378,0.037991255948506296,0.02660962837561965
1761505418755833600,1.81883349609375,-0.19259937812983988,0.07194770342297852,0.01165156708806753
1761505418765869600,1.82886962890625,-0.2024099935263395,0.04896320674195885,-0.011698036578297615
1761505418775906600,1.838906494140625,-0.17101649187505244,0.015466668396815656,-0.029232816486060617
1761505418785942500,1.848942626953125,-0.143446932426095,-0.03149060535021126,-0.06539338640868664
1761505418795979500,1.8589794921875,-0.10137187776267528,-0.08865896505340934,-0.02721606983616948
1761505418806015500,1.869015380859375,0.02161561948060989,-0.1050005531212315,-0.0051456923253834245
1761505418816052500,1.879052490234375,0.0881342105269432,-0.08629026316069066,-0.017594401140511036
1761505418826088400,1.88908837890625,0.018462708407640457,-0.09653908731136471,-0.0353463309302926
1761505418836124400,1.89912451171875,-0.09091302759051323,-0.139508496998623,-0.03453238419890404
1761505418846161700,1.90916162109375,-0.19731646977961062,-0.16190343028865753,-0.048097091431915755
1761505418856197600,1.91919775390625,-0.2683189282417297,-0.16635434528291224,-0.07918079648166894
1761505418866234600,1.929234619140625,-0.2970855885207653,-0.18892690016217528,-0.07124298921972513
1761505418876270600,1.9392705078125,-0.3204477594077587,-0.17056312208436428,-0.06886661547720432
1761505418886307600,1.9493076171875,-0.34176001202762124,-0.11993987317569553,-0.100549017072469
1761505418896343600,1.959343505859375,-0.30174539702534675,-0.0969109893636778,-0.13606573613360523
1761505418906380300,1.96938037109375,-0.22665245437920092,-0.09375416930057108,-0.12060147888958453
1761505418916416500,1.97941650390625,-0.13886018915772438,-0.08692030469253659,-0.08833499379605055
1761505418926452500,1.989452392578125,0.0005249006569385528,-0.08188884986396879,-0.06340732715800404
1761505418936489500,1.999489501953125,0.08918342731893063,-0.06561316663920878,-0.027756314192712305
1761505418946525700,2.009525634765625,0.04935059862434864,-0.07795830548200756,0.021404314817488192
1761505418956562400,2.0195625,-0.06351940923035145,-0.12445165151171385,0.031039427516609427
1761505418966598400,2.029598388671875,-0.1314566349029541,-0.11784699254967272,-0.0110842885941267
1761505418976635400,2.039635498046875,-0.1397790575683117,-0.07021459602005779,-0.02808525388613343
1761505418986671400,2.04967138671875,-0.2103109759092331,-0.037309447696805,-0.04296455084905028
1761505418996708400,2.059708251953125,-0.17738485786318778,-0.024418292343802748,-0.0392766561165452
1761505419006744600,2.06974462890625,-0.15292612391114235,-0.02614179166816175,0.00602057546377182
1761505419016780500,2.079780517578125,-0.07967325617372989,-0.034488764252886175,0.0543716416567564
1761505419026817500,2.089817626953125,-0.008193243327736854,-0.04906783616021275,0.0622162176772952
1761505419036853500,2.099853515625,0.008160510101914405,-0.022354857007972895,0.06051715867444873
1761505419046890500,2.109890380859375,-0.0008224222987890243,-0.023837898639962076,0.10645867950767278
1761505419056926500,2.119926513671875,-0.1148474454075098,-0.05710267405584454,0.10863163963258265
1761505419066963500,2.12996337890625,-0.198638073772192,-0.08030059429183602,0.08822831855118274
1761505419076999400,2.13999951171875,-0.25431378376483915,-0.07152991640232503,0.07652297544926405
1761505419087036700,2.15003662109375,-0.3155781075447798,-0.04146715189814568,0.059093117220699785
1761505419097072600,2.16007275390625,-0.31552666961848735,-0.035997999772056935,0.05345949524790048
1761505419107108600,2.170108642578125,-0.27950550816655156,-0.06128646254651248,0.06695610568076371
1761505419117145600,2.1801455078125,-0.21324352222979068,-0.07772986702099442,0.020031272898614404
1761505419127181600,2.190181640625,-0.06775368579924106,-0.06879146788176149,-0.0505384932346642
1761505419137218600,2.200218505859375,0.041917233753204344,-0.05667969940342009,-0.07320698276907205
1761505419147254500,2.210254638671875,0.014305588728189468,-0.05453424833994359,-0.1100469132579863
1761505419157291500,2.22029150390625,-0.08399404198229313,-0.04083323790878057,-0.10140081159621477
1761505419167327500,2.230327392578125,-0.19113339723050593,-0.00966039327085018,-0.09573986322507262
1761505419177364500,2.240364501953125,-0.19737609101235865,-0.0034654841534793373,-0.04455547330230474
1761505419187400700,2.250400634765625,-0.1307552086353302,-0.03279306625090539,0.007983253838866949
1761505419197436700,2.260436767578125,-0.0960597428292036,-0.037727782706730065,0.03225786339566111
1761505419207473400,2.270473388671875,-0.09068506405353545,-0.017347331044264138,-0.00505567595437169
1761505419217509600,2.280509521484375,-0.10187690467536449,0.013219400926679371,-0.012324644044041632
1761505419227546400,2.29054638671875,-0.1379044958680868,0.002218552832305431,0.0027335166171193123
1761505419237582300,2.300582275390625,-0.17854864094555378,-0.0000415010541677475,-0.044387277128547425
1761505419247619300,2.310619384765625,-0.20316987198293207,-0.01341989193484187,-0.12129004567563532
1761505419257655600,2.320655517578125,-0.15972820514142513,-0.03192147104814649,-0.14756284331232308
1761505419267691500,2.33069140625,-0.06549158608615398,-0.0919403248116374,-0.12020838791877031
1761505419277728500,2.340728515625,-0.03981295495033264,-0.1538933615081012,-0.05546294402480125
1761505419287764500,2.350764404296875,-0.09631459437310695,-0.19425160231627522,-0.011573679546266794
1761505419297801500,2.360801513671875,-0.18578209933042525,-0.16814217854775487,-0.048586043992638585
1761505419307837400,2.37083740234375,-0.21427754145264624,-0.12884667160026728,-0.07256751582175493
1761505419317874400,2.38087451171875,-0.2118435923039913,-0.07829933747202157,-0.10871551852375268
1761505419327910400,2.390910400390625,-0.1900146223336458,-0.04932564684618264,-0.14812486110925674
1761505419337946400,2.4009462890625,-0.1268470952808857,-0.06277268251627684,-0.11595014595240354
1761505419347983600,2.410983642578125,-0.03234861041903496,-0.06330160176120699,-0.03553162436932325
1761505419358019600,2.42101953125,0.029666823989152907,-0.059083984066173434,0.0014528291568160056
1761505419368056600,2.431056640625,0.003734510353207588,-0.0861892504716292,-0.023248335248976945
1761505419378092500,2.441092529296875,-0.10863047058880329,-0.08785904684737324,-0.018576105654239655
1761505419388129500,2.451129638671875,-0.2037479641318321,-0.09976415030509232,0.017718904303014277
1761505419398165500,2.46116552734375,-0.22731822481155395,-0.08685191563144326,0.04800619827806949
1761505419408202000,2.471201904296875,-0.1870043346017599,-0.08584135034941136,0.06593699176609516
1761505419418239000,2.481239013671875,-0.24403262824714184,-0.08171988650523125,0.051614159642159936
1761505419428275000,2.49127490234375,-0.30722119808793064,-0.05511383832618594,0.020355390286445618
1761505419438312000,2.50131201171875,-0.34310090524256226,-0.024173048878461122,-0.02904226235002279
1761505419448348000,2.511347900390625,-0.3265127585351467,-0.03164846279304474,-0.06537263588160276
1761505419458384600,2.521384521484375,-0.20786358275711536,-0.06990976785458623,-0.084014792509377
1761505419468420900,2.5314208984375,-0.033949031352996824,-0.0891455064613372,-0.07807429654449224
1761505419478456800,2.541456787109375,0.06187748724222183,-0.10536131272502243,-0.0944192821457982
1761505419488493800,2.551493896484375,0.04571779507994651,-0.06951196417603642,-0.11220409129187464
1761505419498529800,2.56152978515625,-0.09974339977800846,-0.024376827822253106,-0.09457856436073779
1761505419508566800,2.57156689453125,-0.20722060867846012,0.004308218587934971,-0.042415830925107
1761505419518602800,2.581602783203125,-0.20751988388597964,0.016699571192637083,0.0301420402854681
1761505419528639700,2.5916396484375,-0.1238794776469469,-0.002659282337129116,0.056622489323467015
1761505419538675700,2.60167578125,-0.04740121812224388,-0.0031879458537325263,0.03176028913706541
1761505419548711700,2.611711669921875,-0.02045358996391296,0.016378303349018096,-0.002430880408734083
1761505419558748700,2.621748779296875,-0.13846505236029624,0.04703665912616998,-0.05983662906438112
1761505419568785000,2.631784912109375,-0.17517770320773124,0.038290202362462875,-0.12587561990022658
1761505419578822000,2.64182177734375,-0.146449621373415,0.04534611222334206,-0.13319836400374768
1761505419588857900,2.65185791015625,-0.06354045201838016,0.025385785669088362,-0.08602554780989885
1761505419598894800,2.661894775390625,-0.029801848545670508,-0.020010083980113266,-0.03944733650833368
1761505419608930800,2.671930908203125,-0.0516267268627882,-0.051139016411080956,-0.0057572483524680135
1761505419618966800,2.681966796875,-0.06466565665602683,-0.0606844050001353,0.019686112722754476
1761505419629003800,2.692003662109375,-0.118267482984066,-0.05552789901979267,0.019049276123940945
1761505419639039700,2.702039794921875,-0.1574070687174797,-0.04557235872726887,-0.004541296691447496
1761505419649077000,2.712076904296875,-0.22607670031785965,-0.06552716885618864,-0.02122296690121293
1761505419659113000,2.722113037109375,-0.24015666359663007,-0.06273614989817142,-0.036016631407290695
1761505419669150000,2.73214990234375,-0.23453940823674202,-0.04082067068815231,-0.031331250070035455
1761505419679186000,2.74218603515625,-0.23426176033914087,-0.07263553955666721,-0.017516805859655142
1761505419689222000,2.752221923828125,-0.19512860434651375,-0.09431253383569418,0.012195464706420897
1761505419699259000,2.7622587890625,-0.14713643459379672,-0.09224584709685295,0.008633534441143273
1761505419709294800,2.772294921875,-0.17756781321465967,-0.07757237490434199,-0.0236423030026257
1761505419719331800,2.782331787109375,-0.19259645552039145,-0.08100004779808223,-0.08842968634217976
1761505419729367800,2.792367919921875,-0.10223404754996299,-0.09522679913640021,-0.13325886201933027
1761505419739403800,2.80240380859375,0.04403612560331821,-0.1376897571388632,-0.14099851636067032
1761505419749441000,2.81244091796875,0.1384019239962101,-0.2081891249170527,-0.06855696500614285
1761505419759477000,2.82247705078125,0.1159971999645233,-0.20859273728188127,-0.010425824685394764
1761505419769513700,2.832513671875,0.0441717346817255,-0.16723609655350447,0.011689268749952316
1761505419779550000,2.842550048828125,-0.07139584169387816,-0.1051032828433439,0.008406447687000036
1761505419789586000,2.8525859375,-0.2417851415812969,-0.007363149179145693,-0.038803339516371486
1761505419799622700,2.86262255859375,-0.340451267516613,0.02368292727395892,-0.11708762554973363
1761505419809659000,2.872658935546875,-0.3726882342547178,0.040056225654296576,-0.15414163718074558
1761505419819695900,2.88269580078125,-0.37643852669894695,0.02737874958459288,-0.11103840851336717
1761505419829731800,2.89273193359375,-0.29207857401371,-0.011943097380548716,-0.03833411456942558
1761505419839768800,2.902768798828125,-0.3164297559380531,-0.022008345125243068,0.00618482611477375
1761505419849804800,2.9128046875,-0.31449732657074925,-0.024471739564090964,0.00766731975749135
1761505419859840800,2.9228408203125,-0.3070288903862238,-0.01051876366585493,0.0153150580316782
1761505419869877800,2.932877685546875,-0.2805243298202753,-0.004209945845231413,0.018104834880679845
1761505419879913700,2.942913818359375,-0.1556722077488899,-0.0018498656503856182,0.0305133578158915
1761505419889950700,2.95295068359375,0.00021568857729434965,-0.0029662293944507836,0.02494344872906804
1761505419899986700,2.962986572265625,0.0991448493629694,0.008098258520662784,0.03717164666131138
1761505419910022700,2.973022705078125,0.09547697450518608,0.0064696344055235385,0.04939268420040607
1761505419920060000,2.983059814453125,-0.00995323873758316,0.0019011939788237213,0.06826748054027557
1761505419930095900,2.993095947265625,-0.08480711193084717,0.009812515092641114,0.09277209946066141
1761505419940132900,3.0031328125,-0.13774550591409204,0.008242197035998105,0.09682005967721342
1761505419950168800,3.0131689453125,-0.19031915823817253,-0.020299203119799495,0.12537789951115846
1761505419960205800,3.023205810546875,-0.19075813417732715,-0.0803423876069486,0.14061580065339802
1761505419970241800,3.03324169921875,-0.17913199379146097,-0.12648633567709475,0.13818579702749847
1761505419980277800,3.04327783203125,-0.13510989671349524,-0.13462941972017287,0.11820990757793187
1761505419990314800,3.053314697265625,-0.1277402447283268,-0.11239333025366068,0.05905044712275266
1761505420000351000,3.06335107421875,-0.1425631353288889,-0.08044573838356882,-0.028861498955637215
1761505420010388000,3.073387939453125,-0.1483522401243448,-0.0675635700546205,-0.1027471116386354
1761505420020424000,3.083423828125,-0.2416810966849327,-0.042140009658411144,-0.16876301385983825
1761505420030460000,3.0934599609375,-0.35081951679587364,-0.025736096944101155,-0.23233503006026146
1761505420040497000,3.103496826171875,-0.3545236320108175,-0.020345745675265786,-0.27020664168447256
1761505420050532900,3.113532958984375,-0.2620493464529514,-0.03895093129351735,-0.23411241499632596
1761505420060569900,3.12356982421875,-0.12955752328336237,-0.049195042736455794,-0.16189809652641415
1761505420070605800,3.133605712890625,-0.015592705929279327,-0.07256203592903912,-0.10050941571444272
1761505420080641800,3.143641845703125,0.11883330017328261,-0.1204736147262156,-0.06605389614403248
1761505420090679000,3.153678955078125,0.22882512224316595,-0.1266844885976985,-0.03959726637303829
1761505420100715000,3.163715087890625,0.24980302834212778,-0.0647504853952676,0.00753244133144617
1761505420110751700,3.173751708984375,0.10989245334863662,0.028211254885978997,-0.006819763017445802
1761505420120788000,3.1837880859375,-0.0859340701341629,0.08699450243990868,-0.08184490112438797
1761505420130824000,3.193823974609375,-0.26070611515045167,0.12386479153446853,-0.1635363652527332
1761505420140860700,3.203860595703125,-0.24159575648903844,0.10800006373077631,-0.1311379243426025
1761505420150897000,3.21389697265625,-0.18924948318004606,0.04748893293831497,-0.07999430482164024
1761505420160933600,3.22393359375,-0.19522972663342952,0.001769420825317502,-0.002757920406013727
1761505420170969600,3.233969482421875,-0.21356617831289768,-0.05010580090582371,0.08975815846696496
1761505420181006000,3.244006103515625,-0.24709552294909953,-0.09734459500797092,0.15793518424481154
1761505420191042800,3.254042724609375,-0.24591771134138105,-0.13964841692596675,0.16439648921340702
1761505420201078800,3.264078857421875,-0.2097954276025295,-0.1454169173248112,0.10960779118835925
1761505420211115800,3.27411572265625,-0.280153742942214,-0.0995769571699202,0.004216156390309334
1761505420221151700,3.28415185546875,-0.30342297484874725,-0.07316913497671484,-0.03371434581428766
1761505420231187700,3.294187744140625,-0.24587328767776487,-0.11237619645576924,-0.04183613134101033
1761505420241224700,3.304224609375,-0.2109077727586031,-0.1267911273099482,-0.003061433397233486
1761505420251260700,3.3142607421875,-0.1796791062802076,-0.10746296117939054,0.0118511813133955
1761505420261298000,3.3242978515625,-0.19959844323694706,-0.07645210217013955,-0.04169701513126492
1761505420271334000,3.334333984375,-0.300706117105484,-0.03655972530804574,-0.12324220265671611
1761505420281369900,3.344369873046875,-0.31793665336966515,-0.02974456540048122,-0.13322042970508335
1761505420291406800,3.35440673828125,-0.24665479344427585,-0.03250730811208486,-0.12046966920346021
1761505420301442800,3.36444287109375,-0.07692775685787201,-0.034611367719247936,-0.09523235209435224
1761505420311479800,3.374479736328125,0.06693067897856235,-0.06803579067625105,-0.08401113924756645
1761505420321515800,3.384515869140625,0.1907505353927612,-0.12142163616605102,-0.07645473251864314
1761505420331551700,3.3945517578125,0.16339900260865686,-0.09871497004572302,-0.09610781975463033
1761505420341588700,3.404588623046875,0.05257599041163921,-0.053686801197752355,-0.1237289632603526
1761505420351624700,3.414624755859375,-0.13926234021782874,0.000809343621507287,-0.15913959159851074
1761505420361662000,3.424661865234375,-0.3023497926592827,0.04426591577120125,-0.19124299508482218
1761505420371698000,3.434697998046875,-0.32317747663259505,0.03457837876509875,-0.14812778371870516
1761505420381734000,3.44473388671875,-0.26177812829613684,0.003415726727619767,-0.10443433407321571
1761505420391771000,3.45477099609375,-0.14357552724182604,-0.03452909626327455,-0.09815905319601297
1761505420401806800,3.464806884765625,-0.06344751303792,-0.07961633835472166,-0.14109437795057891
1761505420411844000,3.474843994140625,-0.05459902067184448,-0.09775452751573174,-0.16790230537727474
1761505420421880000,3.484880126953125,-0.07166296819746494,-0.09738777656257153,-0.15919307535141705
1761505420431916000,3.494916015625,-0.0902992796063423,-0.10939834968876093,-0.11544979521483183
1761505420441953000,3.504953125,-0.0690285280406475,-0.10365202458910644,-0.09292831293568014
1761505420451989000,3.514989013671875,0.022101357170939445,-0.06843651696424931,-0.05333849921673536
1761505420462025000,3.52502490234375,0.0491126982152462,-0.032375352295488116,0.004615530971437692
1761505420472062000,3.53506201171875,-0.030317396852374074,-0.02165894716568291,0.034734628772735594
1761505420482098000,3.545097900390625,-0.08541793730556964,-0.011724522726424038,0.05796323640793562
1761505420492135200,3.55513525390625,-0.18016016779541968,-0.024482260958105323,0.05286065257191658
1761505420502171100,3.565171142578125,-0.24356033456027507,-0.05309665328487754,0.03720306471288204
1761505420512207000,3.57520703125,-0.2404173603594303,-0.08168108886480331,0.05736994668990373
1761505420522244000,3.585244140625,-0.23237024750411509,-0.09671824327055364,0.07855053575411439
1761505420532280000,3.595280029296875,-0.22761750001907347,-0.11444200641177595,0.1149723869614303
1761505420542316800,3.60531689453125,-0.20612463013529778,-0.14590945008210837,0.10122764698639511
1761505420552353000,3.61535302734375,-0.16523089421093462,-0.13118833935558796,0.06961129636466502
1761505420562389000,3.625388916015625,-0.127325818708539,-0.10892952660061418,0.0770202574469149
1761505420572426000,3.635426025390625,-0.16852116792798041,-0.10781944646686314,0.07080649749860167
1761505420582462000,3.6454619140625,-0.257312965580821,-0.07482208981551229,0.03260711522474885
1761505420592499000,3.6554990234375,-0.3297100932717323,-0.053185025688074525,-0.0035692367888987063
1761505420602535000,3.665534912109375,-0.32249709315299985,-0.053735608775541184,-0.008517945237457752
1761505420612571000,3.67557080078125,-0.2075000101417303,-0.08554141755476594,0.03373699603751302
1761505420622608000,3.68560791015625,-0.0653033700376749,-0.09025829000882804,0.07780790069326758
1761505420632643800,3.695643798828125,0.049556934851408004,-0.09192666161246597,0.11465440705344081
1761505420642679800,3.7056796875,0.08077858706712722,-0.0815959678646177,0.11138371481969953
1761505420652716800,3.715716796875,-0.005676292070746421,-0.06786153008788824,0.053402065972238774
1761505420662752800,3.725752685546875,-0.1219236674040556,-0.04153181463219225,-0.04803600889444351
1761505420672790000,3.7357900390625,-0.20887889727950096,-0.02512234895993024,-0.13047931430339813
1761505420682826000,3.745825927734375,-0.2530278356075287,0.0011505582746118305,-0.16332257637158035
1761505420692862000,3.755862060546875,-0.17172727049291134,-0.004254150313138962,-0.07678294155970215
1761505420702899000,3.76589892578125,-0.16858137368261814,0.004525441535189747,0.01953442929238081
1761505420712935000,3.775934814453125,-0.22122283054590225,0.026535540226101873,0.03146437493041158
1761505420722971000,3.785970947265625,-0.24066052146553993,-0.02180726959519088,0.0432765394076705
1761505420733008000,3.7960078125,-0.2539455349743366,-0.059069517149403686,0.015225626182556152
1761505420743043800,3.8060439453125,-0.21583704585433006,-0.0468200937660411,-0.048467239918559786
1761505420753081000,3.8160810546875,-0.15731412973701953,0.004048325542733073,-0.12521247981637715
1761505420763117000,3.826116943359375,-0.07067512620389461,0.04484170636516064,-0.15863675664290786
1761505420773153000,3.836153076171875,0.03843874398767948,0.034391770151816305,-0.15183657510876655
1761505420783190000,3.84618994140625,0.044509003812074656,0.03812171392776072,-0.12566840689033268
1761505420793226000,3.85622607421875,-0.0772416451126337,0.03196779440790415,-0.11276932395920157
1761505420803262000,3.866261962890625,-0.1882809304088354,0.01631670935489237,-0.09795929284021258
1761505420813299000,3.876298828125,-0.27612638712227344,-0.000822130037844181,-0.08214607602804899
1761505420823335000,3.8863349609375,-0.2979039191663265,0.00010430062469094992,-0.08524491882622241
1761505420833372000,3.896371826171875,-0.22528701124489306,0.002687412453070283,-0.038866029489040374
1761505420843408000,3.906407958984375,-0.12845160786807536,-0.006612111616134643,-0.005208528428524733
1761505420853443800,3.91644384765625,0.03795709795057774,0.003770750710368156,0.015725538528710604
1761505420863481000,3.926481201171875,0.16786884149909018,0.017845599422603844,0.03726429338082671
1761505420873517000,3.93651708984375,0.15881167481839656,-0.04367372203171253,0.03268164176568389
1761505420883553000,3.946552978515625,-0.05078092368841171,-0.07104198675490915,-0.026382833882421252
1761505420893590000,3.956590087890625,-0.2619453015565872,-0.07347272103317082,-0.07923267279937862
1761505420903626000,3.9666259765625,-0.3483773843407631,-0.05438881198726594,-0.08915712383389472
1761505420913663000,3.9766630859375,-0.3184171303629875,-0.005615063402801752,-0.0971858242496848
1761505420923699000,3.986698974609375,-0.2948772648215294,0.032577523804083464,-0.11994345337226986
1761505420933735000,3.99673486328125,-0.2898527146577835,-0.007176540565863252,-0.1509350962243974
1761505420943771000,4.00677099609375,-0.37168344112634655,-0.03812748608142137,-0.11556786863654851
1761505420953806800,4.016806884765625,-0.35047815601229665,-0.08430139089841394,-0.04251300768926739
1761505420963842800,4.0268427734375,-0.2596621590554714,-0.08451850424781442,0.02102174524068832
1761505420973880000,4.036880126953125,-0.12527590044140816,-0.0890063902515918,0.035856180148571726
1761505420983916000,4.046916015625,0.015641221246123313,-0.08124050549045204,0.02182049440294504
1761505420993952000,4.056951904296875,0.07414192553162574,-0.041204628504440184,0.017156740375608204
1761505421003989000,4.066989013671875,-0.018021394380927085,-0.002977554506063461,-0.0434811220690608
1761505421014025000,4.07702490234375,-0.11097031171321868,-0.0036196518018841743,-0.11583324157446623
1761505421024062000,4.08706201171875,-0.16114216359257696,-0.029794542022049425,-0.13550897903367876
1761505421034098000,4.097097900390625,-0.126611532959342,-0.04073050818666815,-0.12407090856581926
1761505421044134000,4.1071337890625,-0.0350479325056076,-0.014035466549918055,-0.09191051419526337
1761505421054171000,4.1171708984375,-0.04152911121845245,0.0030257775619626044,-0.03482026122957468
1761505421064207000,4.12720703125,-0.053472062468528744,-0.0027760771172121164,0.026069822410494086
1761505421074243000,4.1372431640625,-0.05699614494144916,-0.00545727902520448,0.04103182922080159
1761505421084280000,4.147280029296875,-0.08668459624052047,-0.020089944283291698,0.03260799200758338
1761505421094316000,4.15731591796875,-0.21807518016993999,-0.03604845131766051,0.0014408464580774306
1761505421104353000,4.16735302734375,-0.28277006292045115,-0.02617825122103095,-0.01657820983529091
1761505421114389000,4.177388916015625,-0.33105157100856303,-0.02470262571051717,-0.016584931837022303
1761505421124425000,4.187425048828125,-0.28852760353386403,-0.011282514579966664,0.015541121872514486
1761505421134462000,4.1974619140625,-0.22696751167774198,-0.013502053792960942,0.0350134457141161
1761505421144498000,4.207497802734375,-0.12508943795859814,-0.02911868858709931,0.032351971419900656
1761505421154534000,4.217533935546875,-0.04033902465105056,-0.03425488243177533,0.02936243421509862
1761505421164571100,4.227571044921875,-0.0013666121780872343,-0.059893766079097986,0.023872458496689796
1761505421174607000,4.237607177734375,-0.03695931908488274,-0.06077259474024176,0.012381927189230918
1761505421184643000,4.24764306640625,-0.1340706167936325,-0.023817367308586836,-0.012891191885620355
1761505421194680000,4.25768017578125,-0.20613924318253993,-0.012585413872078061,-0.027071254537999627
1761505421204716000,4.267716064453125,-0.2922854947626591,0.0028509324517101047,-0.04190145166218281
1761505421214753000,4.2777529296875,-0.3247802356541157,0.0019854016635566948,-0.024122926126420495
1761505421224789000,4.2877890625,-0.27975860614478587,-0.03573028874658048,0.016281418845802545
1761505421234825000,4.297824951171875,-0.1946680010974407,-0.06622859512381256,0.04979921917468309
1761505421244862000,4.307862060546875,-0.07415946118831634,-0.08439005556255579,0.04257467474862933
1761505421254898200,4.317898193359375,-0.013864859223365783,-0.10407843330763279,0.0416522992067039
1761505421264934100,4.32793408203125,-0.020081834042072293,-0.11688925343342124,0.0700222152531147
1761505421274971100,4.33797119140625,-0.008657353708148002,-0.11002492062188685,0.08846738800406455
1761505421285007000,4.348007080078125,-0.07185118424594401,-0.06099047527462244,0.045252369525283574
1761505421295043000,4.35804296875,-0.19068857607245443,-0.011129954366758465,-0.03708689098730683
1761505421305080000,4.368080078125,-0.25874562873244283,-0.007983984491229057,-0.07881415512636303
1761505421315116000,4.378115966796875,-0.2773486223936081,-0.028193901892378925,-0.08370105038508772
1761505421325152000,4.388152099609375,-0.2298077035397291,-0.045257118765637275,-0.06971417221724986
1761505421335189000,4.39818896484375,-0.21903554963469504,-0.05309672635011375,-0.03689502167701721
1761505421345225000,4.408224853515625,-0.19250234749615192,-0.06327847661394626,-0.026954350160062313
1761505421355262000,4.418261962890625,-0.16687749237418173,-0.07362871531248093,-0.0044034956559538836
1761505421365298000,4.4282978515625,-0.1894914752423763,-0.08104746713638306,-0.013163140694797038
1761505421375334100,4.438334228515625,-0.10372574741244316,-0.09626081835925579,-0.019031594336777924
1761505421385371000,4.448370849609375,-0.06522621314823628,-0.0944429552823305,-0.04460924931615591
1761505421395406800,4.45840673828125,-0.07390577868819237,-0.05115165669694543,-0.09714739193543791
1761505421405443000,4.468443115234375,-0.09537935934960842,0.013398593418486416,-0.15653130879625676
1761505421415479300,4.478479248046875,-0.14660802680552004,0.053827634440548715,-0.19208865212872622
1761505421425515300,4.488515380859375,-0.16485913828909396,0.0464751162532717,-0.1886103084936738
1761505421435551200,4.49855126953125,-0.19149054010510444,0.0007016819959506392,-0.14507745623737572
1761505421445588200,4.508588134765625,-0.1918535281985998,-0.0053139615643769495,-0.133366560177505
1761505421455624200,4.518624267578125,-0.11218202559053897,-0.015208455852046608,-0.15601254561915992
1761505421465661000,4.528660888671875,-0.05134615635573864,-0.021956541872769592,-0.10231061991751193
1761505421475697200,4.538697265625,-0.041918402796983716,-0.005940532497502863,-0.05650134716182947
1761505421485733000,4.548733154296875,0.029230186137557027,0.036294169707037506,-0.033668606976419685
1761505421495770000,4.55877001953125,0.04592646939456463,0.056160059443488716,-0.020769231784343718
1761505421505806000,4.56880615234375,-0.03800736683309078,0.048150684782676395,-0.03708572194352746
1761505421515843000,4.578843017578125,-0.1140454813748598,0.03754595986641943,-0.08125891792997718
1761505421525879000,4.588879150390625,-0.16675182016789913,0.02494487350117415,-0.14071794585362077
1761505421535916000,4.598916015625,-0.15476444525420666,0.006893303177691996,-0.15798676830157637
1761505421545952000,4.608951904296875,-0.10390928728580474,-0.006289053674228489,-0.15244550078734756
1761505421555988000,4.618988037109375,-0.06361001012325286,0.00401961090490222,-0.10007175494953989
1761505421566025000,4.62902490234375,-0.10423428145647048,-0.0005712970819324255,-0.06501826948598027
1761505421576061200,4.639061279296875,-0.17117606635093688,0.035201442566886544,-0.02444733577519655
1761505421586097200,4.64909716796875,-0.24986031148731708,0.036383747686631975,0.030908202352374792
1761505421596134100,4.659134033203125,-0.28426000921726224,0.049256600197963414,0.06423164915293454
1761505421606170000,4.669170166015625,-0.22921266025602816,0.03228394768498838,0.0718260498046875
1761505421616206000,4.6792060546875,-0.11987842531204224,0.0004826689504086971,0.05508695031926036
1761505421626243000,4.6892431640625,-0.04494681070744991,-0.011204627038165927,0.01914572223573923
1761505421636279000,4.699279052734375,-0.004455225843191146,-0.006860277690924703,-0.035867432194948194
1761505421646315000,4.70931494140625,-0.013815174862742424,-0.03397548096850514,-0.02415185995995998
1761505421656352000,4.71935205078125,-0.11764262908399105,-0.043597222729399795,0.03360942413508892
1761505421666388000,4.729387939453125,-0.21297931833565234,0.00232763922996819,0.06991071770265699
1761505421676425200,4.73942529296875,-0.25852760206758973,0.050689080686494706,0.05461772537231445
1761505421686461200,4.749461181640625,-0.25313246502578257,0.07270045801904051,0.016194617345184088
1761505421696497200,4.7594970703125,-0.14849953964054582,0.06056194766424596,-0.02232712875083089
1761505421706534100,4.7695341796875,-0.06587912409901618,0.04726049447730183,-0.015256021320819853
1761505421716570000,4.779570068359375,-0.05796352866888046,0.023103337287716567,0.010429331816732883
1761505421726606000,4.789606201171875,-0.0822474905759096,-0.009843713948503136,0.019866437725722788
1761505421736643000,4.79964306640625,-0.048968321308493615,-0.047726504553854465,0.048144583835452795
1761505421746679000,4.809678955078125,-0.07685235353410244,-0.04403853675611317,0.04470817964598536
1761505421756715000,4.819715087890625,-0.09185586139857768,-0.03675780516341329,-0.031548984473943706
1761505421766752300,4.829752197265625,-0.05621756178438663,-0.008273468957096337,-0.1387131819024682
1761505421776788200,4.839788330078125,-0.03512918104827404,-0.004841594812273979,-0.148903005874902
1761505421786824200,4.84982421875,-0.04118132069408893,-0.03504365818928927,-0.13899988988935946
1761505421796861200,4.859861083984375,-0.05934066224098205,-0.027466281737573442,-0.11189224886372685
1761505421806897200,4.869897216796875,-0.12387187886238098,0.0127416273470968,-0.06978621454015374
1761505421816934100,4.87993408203125,-0.21043957072496414,0.0021092837715521455,-0.05721504838913679
1761505421826970000,4.88997021484375,-0.3002618804693222,-0.021070150959677993,-0.04211567893475294
1761505421837006000,4.900006103515625,-0.34931086579859255,-0.022192761781439183,-0.011214344714581966
1761505421847043000,4.91004296875,-0.2875853542476892,-0.06103146487213671,-0.002314414422214031
1761505421857079000,4.9200791015625,-0.1743511892557144,-0.08208155942447483,-0.029556057091057297
1761505421867115000,4.930114990234375,-0.08929565552175045,-0.1121478310599923,-0.0180349845148623
1761505421877152300,4.94015234375,-0.033873043507337566,-0.12885660847239194,-0.0007831132017076015
1761505421887188200,4.950188232421875,-0.06217910053730011,-0.11652801890559494,-0.02521495914682746
1761505421897224200,4.96022412109375,-0.18575930297672746,-0.09797069101706146,-0.05652794290781021
1761505421907261200,4.97026123046875,-0.22556465914249418,-0.08395999358221888,-0.08685615341514348
1761505421917297200,4.980297119140625,-0.19964988116323948,-0.061981897464767094,-0.0994426632657647
1761505421927334100,4.990334228515625,-0.1498696589499712,-0.059195043225213885,-0.09899550402015447
1761505421937370000,5.0003701171875,-0.08761106343567371,-0.08738295376822353,-0.1015907812103629
1761505421947406000,5.010406005859375,-0.05856792430281639,-0.09825001941509544,-0.09464213111624122
1761505421957443300,5.020443359375,-0.08281155419945717,-0.08048428029567002,-0.06845861919820308
1761505421967479300,5.030479248046875,-0.16247195089161395,-0.05928820140138268,-0.019943302354216576
1761505421977515300,5.040515380859375,-0.18036007428169248,-0.07809913872480392,-0.0069344754382967945
1761505421987552300,5.05055224609375,-0.1652495989114046,-0.08031528040431439,-0.008700023806095122
1761505421997588200,5.060588134765625,-0.11032207693755626,-0.0581393236272037,-0.029395021310448646
1761505422007624200,5.070624267578125,-0.08285071716606617,-0.04589987364858389,-0.047112610439211125
1761505422017661200,5.0806611328125,-0.08017945213019848,-0.02752937356904149,-0.07636413162574171
1761505422027697200,5.090697265625,-0.005727145475149155,-0.022297683460637926,-0.08143573580160736
1761505422037734100,5.100734130859375,-0.024755671072006224,-0.01758161472417414,-0.05581745655089616
1761505422047770000,5.11077001953125,-0.04003039709329605,-0.039343218546733255,-0.032039690600335596
1761505422057806000,5.12080615234375,-0.11560498577654361,-0.0654930473908782,-0.018533727817237375
1761505422067843000,5.130843017578125,-0.2358902383238077,-0.08528810038082302,0.021888298942148682
1761505422077879300,5.14087939453125,-0.28881285021603104,-0.08766323201432824,0.054120004983246324
1761505422087915300,5.150915283203125,-0.25991116538047787,-0.1077023959584534,0.05693827727437019
1761505422097952000,5.160951904296875,-0.17576865483820436,-0.09305909970849752,0.009013765930384396
1761505422107988200,5.17098828125,-0.10256722502708435,-0.057552682845667,-0.042951691367477174
1761505422118024200,5.181024169921875,-0.053472062468528744,-0.04017565078288317,-0.06742372319251298
1761505422128061200,5.191061279296875,-0.007431026783585548,-0.026332345804199575,-0.020868162114173174
1761505422138097200,5.20109716796875,0.0010410334855318068,-0.036163784793019293,0.017860943122208116
1761505422148133000,5.211133056640625,-0.04466039498150348,-0.031297201669961215,0.042334436251968144
1761505422158170000,5.221170166015625,-0.11507307085692882,-0.033570188103243706,0.012723726364225148
1761505422168206300,5.231206298828125,-0.20399404784739017,-0.08886500901952385,-0.041336072864383455
1761505422178243000,5.2412431640625,-0.2838204487562179,-0.12819967893362044,-0.020418226389586923
1761505422188279000,5.251279052734375,-0.3091331691890955,-0.10383856013715266,0.01988163529485464
1761505422198315300,5.261315185546875,-0.31167993106245995,-0.03765314656794071,0.056856298079341644
1761505422208352000,5.27135205078125,-0.2366302430361509,-0.013556523926556109,0.08318433303460478
1761505422218388000,5.281387939453125,-0.12775310420989988,-0.017487068308517335,0.13092735033184288
1761505422228424200,5.291424072265625,-0.08518062141835689,-0.02013984783962369,0.11122370195239782
1761505422238461000,5.3014609375,-0.07119710425138473,0.006979118297621607,0.06370441040843725
1761505422248497200,5.3114970703125,-0.08014496533870696,0.019618235118314623,0.02559066059142351
1761505422258533000,5.321533203125,-0.12157938401103019,-0.009143018333241344,0.032331074762344356
1761505422268570000,5.331570068359375,-0.15633388652801514,-0.01783259381055832,0.006440262180566788
1761505422278606000,5.341606201171875,-0.15138415516614914,-0.0028703678045421837,-0.020152707321196794
1761505422288643000,5.35164306640625,-0.11405132659375666,0.02300181314200163,-0.02092266878038645
1761505422298679000,5.361678955078125,-0.10473638575971125,0.03188888395279646,-0.0347211847692728
1761505422308715000,5.371715087890625,-0.07354103702902794,0.023627324629202483,-0.049558103895187375
1761505422318752000,5.381751953125,-0.09319441652595996,0.022070377510786054,-0.07655819289311766
1761505422328788000,5.3917880859375,-0.023441081342101096,0.019681290417164564,-0.09022738341391086
1761505422338824000,5.401823974609375,0.02567512400448322,0.024224706000462174,-0.10690730005800723
1761505422348861200,5.411861083984375,0.032955344140529634,0.04029240903034806,-0.10189604776725172
1761505422358897200,5.421897216796875,-0.025980828952789307,0.05773205800056457,-0.11609335381537675
1761505422368933000,5.43193310546875,-0.11666180135309695,0.05656980928815901,-0.11818594218045472
1761505422378970000,5.44197021484375,-0.18719079708456993,0.05203428475037217,-0.09282280673459171
1761505422389006000,5.452006103515625,-0.21814649184048174,0.03722133102193474,-0.04109320401921868
1761505422399042000,5.4620419921875,-0.20937924801707267,-0.020240677865594626,-0.008807283572852612
1761505422409079800,5.472079833984375,-0.17659399974644183,-0.04760528932698071,0.03988207466378808
1761505422419115800,5.48211572265625,-0.13205226270854473,-0.03952120546214282,0.039541444532573224
1761505422429152800,5.49215283203125,-0.10820143152177333,-0.04971402510926127,0.022716420329362153
1761505422439189000,5.50218896484375,-0.09021101680099963,-0.062363005736842746,-0.008795300874114035
1761505422449225000,5.512224853515625,-0.1228425358146429,-0.06362798417136073,-0.029390783526748416
1761505422459262000,5.522261962890625,-0.1949041479408741,-0.032359131813049315,-0.06720438135340809
1761505422469298000,5.5322978515625,-0.2499421445518732,-0.014071268515661359,-0.0651724371343851
1761505422479334000,5.542333984375,-0.29438860452175136,-0.036893852633237835,-0.04939370711371302
1761505422489371000,5.552370849609375,-0.2574275318711996,-0.054947249587625265,-0.012440087117254733
1761505422499406800,5.56240673828125,-0.16471183877289294,-0.05673289089538157,0.012618366293609141
1761505422509443800,5.57244384765625,-0.09112813164591789,-0.10023856288380921,0.0315853709615767
1761505422519479800,5.582479736328125,-0.025702012011408804,-0.11638050019368529,0.05347220859900117
1761505422529515800,5.592515869140625,-0.06464402934610844,-0.09576324410066007,0.054462096419185396
1761505422539553000,5.602552978515625,-0.09269640387594699,-0.047567295404151076,0.03833776783123612
1761505422549589000,5.612589111328125,-0.15955226405262946,-0.014910641949251293,0.01828194501325488
1761505422559625000,5.622625,-0.18496376868486403,-0.016813260700181125,-0.013754092325270174
1761505422569662000,5.632661865234375,-0.15893734702467918,0.022246391664817927,-0.07210413609370589
1761505422579698000,5.642697998046875,-0.1753361086398363,0.09354191478937864,-0.12009659810736775
1761505422589734000,5.65273388671875,-0.1992173349648714,0.05499620329588651,-0.14665332725197075
1761505422599771000,5.66277099609375,-0.18979075044989585,0.010840469900891185,-0.1367047646895051
1761505422609806800,5.672806884765625,-0.14849077181220055,-0.016460063348338008,-0.12020137365609407
1761505422619843800,5.68284375,-0.10629764372706413,-0.04136865995973348,-0.08127104675918817
1761505422629880000,5.692880126953125,-0.08114917394518852,-0.02572013218998909,-0.05410816841498017
1761505422639916000,5.702916015625,-0.060846390628814695,-0.0211707983225584,-0.03840820271894336
1761505422649952800,5.712952880859375,-0.06663374185860156,-0.03208718300387263,-0.03291355082541704
1761505422659989000,5.722989013671875,-0.04655716851353645,-0.02555157069005072,-0.010440291602164507
1761505422670025000,5.73302490234375,-0.015498597905039786,-0.024500088875740764,0.01611833723857999
1761505422680061700,5.743061767578125,-0.055171267601847644,-0.02387837678082287,0.027439503328502177
1761505422690098000,5.753097900390625,-0.0765180070132017,-0.02174655238389969,0.017555676565319298
1761505422700134000,5.7631337890625,-0.09606208091676234,-0.05201945250742137,-0.03069850512444973
1761505422710170600,5.773170654296875,-0.12441840682923794,-0.07390709386244416,-0.043879327606409786
1761505422720206800,5.783206787109375,-0.1526315248787403,-0.09070786040723323,-0.028468846376240253
1761505422730243800,5.793243896484375,-0.17101999900639056,-0.10356295806616544,0.007549976988136768
1761505422740279800,5.80327978515625,-0.17259470097720622,-0.11507782009728253,0.04296352793574333
1761505422750316000,5.81331591796875,-0.18135317697227,-0.11997530981525778,0.06862900732904673
1761505422760352800,5.823352783203125,-0.21819033098220825,-0.11088825945295393,0.0506472143061459
1761505422770388700,5.833388671875,-0.26825755344331265,-0.08047215146645903,-0.03479483452737331
1761505422780425000,5.843425048828125,-0.2449877370148897,-0.036443478517234326,-0.10380655756369232
1761505422790461700,5.853461669921875,-0.18324235171973705,-0.03151398622579872,-0.13811112435609102
1761505422800497700,5.86349755859375,-0.1104857430666685,-0.07799341332800686,-0.1813477701447904
1761505422810534000,5.873533935546875,-0.052826165780425066,-0.1110400159485638,-0.19689327593147754
1761505422820571000,5.88357080078125,-0.04563070131838321,-0.1026418246332556,-0.16656228894516825
1761505422830606800,5.89360693359375,-0.07373568281829357,-0.08267506833821535,-0.08665317818894981
1761505422840643800,5.903643798828125,-0.15313070657253264,-0.06707315618917345,-0.012604776159673928
1761505422850679800,5.9136796875,-0.21212533185482024,-0.03618928456045687,0.0762910663895309
1761505422860715800,5.9237158203125,-0.2453793666809797,0.02332074289806187,0.0774205088108778
1761505422870752800,5.933752685546875,-0.17615210119783878,0.07143668516092001,0.04445230518877506
1761505422880788700,5.943788818359375,-0.0969751041084528,0.07037000577747822,0.05054156197458505
1761505422890824700,5.95382470703125,-0.060037996855378147,0.07246434770822524,0.06477905390262603
1761505422900861700,5.96386181640625,-0.10014262822866439,0.07227576633356511,0.05887625959962606
1761505422910897700,5.973897705078125,-0.18368074313700197,0.07881817371435464,0.026537147661298513
1761505422920935000,5.983934814453125,-0.20828619208335875,0.06119396195746958,-0.0631485300913453
1761505422930971000,5.993970947265625,-0.14741817414462566,0.031246129069849846,-0.097868984208256
1761505422941006800,6.0040068359375,-0.021871640068292616,-0.012960603860020637,-0.10014116692394018
1761505422951043800,6.0140439453125,0.026699206355214118,-0.05903240000940859,-0.09883359145671129
1761505422961079800,6.024079833984375,0.00784136115014553,-0.0952570481441915,-0.05760054057538509
1761505422971115800,6.03411572265625,-0.042399464312195774,-0.12237681799903512,-0.01761252131909132
1761505422981152800,6.04415283203125,-0.12184826408028603,-0.11348879734016955,-0.031795652711391446
1761505422991188700,6.054188720703125,-0.15863339564204215,-0.0792298232551664,-0.04611132444217801
1761505423001224700,6.064224609375,-0.20666180575191972,-0.06479344775415957,-0.09041925272420048
1761505423011262000,6.074261962890625,-0.21494448092877863,-0.07445113761126995,-0.16438450651466846
1761505423021298000,6.0842978515625,-0.21113573629558086,-0.0998936219036579,-0.1407290517695248
1761505423031335000,6.0943349609375,-0.180081257340312,-0.0725997375909239,-0.09238938375338912
1761505423041371000,6.104370849609375,-0.11322890429496764,-0.0762608173817396,-0.0727361503869295
1761505423051406800,6.11440673828125,-0.0835901373565197,-0.1125832268025726,-0.03406476668715477
1761505423061443800,6.12444384765625,-0.1140939966917038,-0.12903824864961205,-0.02836582439318299
1761505423071479800,6.134479736328125,-0.20924831511378286,-0.09864727510437368,-0.05929331596791744
1761505423081515800,6.144515869140625,-0.2639098796278238,-0.04969093649461865,-0.09848930806368589
1761505423091552800,6.154552734375,-0.20256898348033428,-0.03204838536344468,-0.09293298911079764
1761505423101588700,6.164588623046875,-0.05848842932581901,-0.03898790230304003,-0.08678761822357774
1761505423111625000,6.174625,0.044217327389121056,-0.05684818783812225,-0.03596680091619491
1761505423121662000,6.184661865234375,0.04692483278214931,-0.06279394450001419,0.023725889632850883
1761505423131698000,6.194697998046875,-0.04916179805397987,-0.05756422715298831,0.01957724552080035
1761505423141735000,6.20473486328125,-0.2103974851489067,-0.015720423962175847,-0.004568330828845501
1761505423151771000,6.21477099609375,-0.30919980468451974,0.048506256754696365,0.014823036731034517
1761505423161806800,6.224806884765625,-0.2683078223258257,0.06979074458479881,0.005533814860135317
1761505423171843800,6.23484375,-0.1418605400174856,0.05055895150080323,0.02066547914892435
1761505423181879800,6.2448798828125,-0.03204699712395668,0.02576134098321199,0.04632423654049635
1761505423191915800,6.254915771484375,0.054119128200411794,-0.005826952587813138,0.07465776609927416
1761505423201953000,6.264953125,0.06136427702307701,-0.05150638841874897,0.10478197846710681
1761505423211989000,6.274989013671875,0.019067104041576386,-0.07509981077834964,0.1452298703201115
1761505423222026000,6.28502587890625,-0.08280278637111187,-0.04159121666923165,0.12373349330499768
1761505423232062000,6.29506201171875,-0.23436405166983604,-0.007690773698315024,0.04003565779030323
1761505423242098000,6.305097900390625,-0.33104631031155585,0.01522825653105974,-0.0393758787073195
1761505423252135000,6.315135009765625,-0.38430736037790775,0.010388634480163455,-0.06643515054658054
1761505423262171000,6.3251708984375,-0.33990415502786636,0.0023994623571634292,-0.06391352311447263
1761505423272206800,6.335206787109375,-0.27961422923803325,0.0005986965455114841,-0.04424260796085
1761505423282243800,6.345243896484375,-0.2108598419636488,-0.009116934043914079,0.001557166314125061
1761505423292280000,6.355280029296875,-0.16112813506722448,-0.030025282038003205,0.05915946045517921
1761505423302316800,6.36531689453125,-0.09403671256899833,-0.05303052924610674,0.05941650395616889
1761505423312352800,6.375352783203125,-0.08583879306614399,-0.08912146799862385,0.00017886369824409484
1761505423322389000,6.385388916015625,-0.04282674981355667,-0.07006568906866013,-0.055245648012310265
1761505423332425700,6.39542578125,0.012735562932491302,-0.021246347776800394,-0.11608750859647989
1761505423342462000,6.4054619140625,0.01113748008608818,0.020219708142802117,-0.1536753348432481
1761505423352498000,6.415497802734375,-0.05017360544502735,0.041564767053723334,-0.15961290819868446
1761505423362534700,6.42553466796875,-0.11237491781413554,0.03463862105235457,-0.1536488852277398
1761505423372571000,6.43557080078125,-0.1906120037049055,0.019042334926500915,-0.11271452503204345
1761505423382606800,6.44560693359375,-0.2329939323604107,0.015962562154978512,-0.056585226052999496
1761505423392643800,6.455643798828125,-0.18615794690549373,0.034032910244166846,-0.02785188352167606
1761505423402679800,6.4656796875,-0.10194237112700938,0.05219546666145324,-0.009768383689969778
1761505423412716500,6.475716552734375,-0.0474959106683731,0.043825843853503466,0.031762919485568995
1761505423422752500,6.48575244140625,-0.023069909942150114,0.025661972261965274,0.009507686927169561
1761505423432788700,6.495788818359375,-0.07889934919178486,0.00572765693180263,-0.045907618563622236
1761505423442825500,6.505825439453125,-0.13256898005902767,0.024166984463855623,-0.043767683925479646
1761505423452861400,6.515861328125,-0.20367080724239348,0.042360082149878145,-0.03713365273848176
1761505423462897700,6.525897705078125,-0.18346856169104575,0.016948504452407358,-0.06265533974692225
1761505423472934700,6.5359345703125,-0.13420330326259136,0.005533887925371527,-0.0904410261645913
1761505423482970600,6.545970703125,-0.08247896124422549,-0.0040798897247761486,-0.0760683635495603
1761505423493007600,6.556007568359375,-0.10649813473522662,-0.007173033434525132,-0.05641191531270742
1761505423503043600,6.566043701171875,-0.20776362951397895,-0.0018148674022406338,-0.055657005292177195
1761505423513079600,6.57607958984375,-0.2627852595120668,0.005698576967790723,-0.0676850044772029
1761505423523116500,6.586116455078125,-0.2265010632097721,-0.013422230022400616,-0.06596534107774496
1761505423533152500,6.596152587890625,-0.12713292648494243,-0.021736469381302595,-0.028405133490264415
1761505423543188500,6.6061884765625,-0.0035889644026756286,-0.0352727542374283,-0.019626491490006445
1761505423553225500,6.6162255859375,0.03849544261097908,-0.04943126264512539,-0.009529314237087964
1761505423563261700,6.62626171875,-0.07304243985712527,-0.051007864312082526,-0.03533259466588497
1761505423573298700,6.636298583984375,-0.23274551055729387,-0.06164418994300067,-0.07208923078551888
1761505423583334700,6.646334716796875,-0.3215104202032089,-0.05728241453692317,-0.10837576517537235
1761505423593370600,6.65637060546875,-0.3184960408180952,-0.03112929775714874,-0.14752835652083157
1761505423603407600,6.66640771484375,-0.23256723138093946,-0.01035889692902565,-0.168689802493155
1761505423613443600,6.676443603515625,-0.19744448007345197,-0.01224894845932722,-0.13017360935509203
1761505423623479600,6.6864794921875,-0.1455646552324295,-0.04661613215915859,-0.0843145061083138
1761505423633516500,6.6965166015625,-0.12360241427123546,-0.06705065209642053,-0.0608113193154335
1761505423643552500,6.706552490234375,-0.07483341492712497,-0.05650595027171075,-0.0574925501562655
1761505423653589800,6.71658984375,-0.062273793083429334,-0.025865897336229682,-0.08591536543369292
1761505423663625700,6.726625732421875,-0.03658990125060081,-0.030220220088213682,-0.05700374372601509
1761505423673661700,6.73666162109375,-0.0311398191511631,-0.04885981943272054,-0.02575944128707051
1761505423683698700,6.74669873046875,-0.0473567944586277,-0.03998882297389209,0.00967719827517867
1761505423693734700,6.756734619140625,-0.09130582630038261,-0.0068665978338569396,-0.007453530876338482
1761505423703770600,6.7667705078125,-0.11176409243941307,0.03330386531725526,-0.0007579787604510784
1761505423713807600,6.7768076171875,-0.17380875294208525,0.042744770618528126,0.026075667629390953
1761505423723843600,6.786843505859375,-0.18428046259582043,0.0070525488600134845,-0.0018719313517212867
1761505423733880600,6.796880615234375,-0.13440087166130543,0.018102423727884887,-0.014704086526483296
1761505423743916800,6.806916748046875,-0.1243763212531805,0.031458821972459555,0.01203589023053646
1761505423753952800,6.816952880859375,-0.09685176998972893,0.005730725671723485,0.030552666912972926
1761505423763989800,6.82698974609375,-0.08168401147425174,0.0021986790880560874,0.014343728781491517
1761505423774025700,6.837025634765625,-0.11730945160686969,0.0024832681830972434,0.016239771661162375
1761505423784061700,6.847061767578125,-0.1810913111656904,-0.006004208850860595,0.03591127133667469
1761505423794098700,6.8570986328125,-0.22429683116376398,0.012945040964707732,0.021266659912467
1761505423804134700,6.867134765625,-0.23626316328942773,0.018527151945978402,0.0005894903257489204
1761505423814170600,6.877170654296875,-0.1797358049035072,-0.01756298308894038,0.01883519498184323
1761505423824207600,6.88720751953125,-0.07263327453434466,-0.05650565801076591,0.04155731439962983
1761505423834243600,6.89724365234375,-0.004031447473168373,-0.05703099705912172,0.04128974950462579
1761505423844280800,6.90728076171875,-0.08295242397487163,-0.07903985364101827,0.03845759481862187
1761505423854316800,6.91731689453125,-0.1911824970692396,-0.1097876777999103,0.03415332175344229
1761505423864352800,6.927352783203125,-0.20991525458991525,-0.13583090446442364,0.04925269120782613
1761505423874389800,6.9373896484375,-0.15064239688813685,-0.1217367665298283,0.05591185683608055
1761505423884425700,6.94742578125,-0.03705108902156353,-0.0895127323385328,0.008433189563453196
1761505423894461700,6.957461669921875,0.020503274324536323,-0.05271269546858966,-0.023534166453033686
1761505423904498700,6.967498779296875,-0.0012426935374736784,-0.008875964894890785,-0.05664163241535425
1761505423914534700,6.97753466796875,-0.1499088219165802,0.017879355561733246,-0.09293488880693912
1761505423924571400,6.9875712890625,-0.3252525293409824,0.015048223789036273,-0.10457374254390597
1761505423934608000,6.99760791015625,-0.38098727604448795,-0.0394535470534116,-0.07044117131754755
1761505423944643800,7.007643798828125,-0.31686288665831086,-0.057127735431864855,-0.027509207563847303
1761505423954680600,7.0176806640625,-0.19616028548181055,-0.060238341733068225,0.011429741030931473
1761505423964716800,7.027716796875,-0.07693769372999668,-0.05233582498021423,0.03623977263867855
1761505423974752800,7.037752685546875,-0.0759083506822586,0.0035427871733903884,-0.004324585200846195
1761505423984789500,7.04778955078125,-0.11340718347132206,0.058535629468411204,-0.09671031569242478
1761505423994825700,7.05782568359375,-0.13750351385176182,0.04033632123731076,-0.14473039636537433
1761505424004861700,7.06786181640625,-0.14809037431776523,-0.01273278645351529,-0.11491305798962712
1761505424014898400,7.0778984375,-0.09049743252694606,0.02595167592354119,-0.05795476084053516
1761505424024934700,7.0879345703125,-0.07190846739113331,0.10041172749362885,-0.03555295941829681
1761505424034971600,7.0979716796875,-0.05052139596939086,0.0880349879361689,-0.018666560416668653
1761505424045007600,7.108007568359375,-0.09440028518438338,0.027713644094765184,0.0005666939720511436
1761505424055043600,7.118043701171875,-0.16486381446421144,0.005636763777956366,0.0009979249961674212
1761505424065080600,7.12808056640625,-0.1580389368802309,-0.0206334035102278,-0.0018365677773952483
1761505424075116500,7.138116455078125,-0.08180734559297562,-0.025523294443637132,0.0336450799703598
1761505424085152500,7.148152587890625,0.005441314271092414,-0.04898030400723219,0.018813129280507563
1761505424095189500,7.158189453125,0.013764905980229378,-0.04351970051378012,0.0019727613776922225
1761505424105225500,7.1682255859375,-0.08025836258530616,-0.014795052745565772,-0.04093991315364837
1761505424115262700,7.1782626953125,-0.22783903381526469,-0.034722134617343546,-0.08772446068227291
1761505424125298700,7.188298583984375,-0.35889234861433505,-0.08048369577378034,-0.10247560122087597
1761505424135334700,7.198334716796875,-0.39681203716397284,-0.10854673782810569,-0.11255962673127651
1761505424145371600,7.20837158203125,-0.32604397197961804,-0.11330971444621682,-0.1292727149926126
1761505424155407600,7.21840771484375,-0.18933248528838156,-0.1265959700640291,-0.13474749314188955
1761505424165443600,7.228443603515625,-0.08642974469661713,-0.11301029310822486,-0.114312754008919
1761505424175480600,7.23848046875,-0.018756722918152807,-0.08582593358457088,-0.0521472436055541
1761505424185516500,7.2485166015625,0.026942951983213424,-0.06865932940207421,-0.022053280245512723
1761505424195552500,7.258552490234375,-0.005454173752665519,-0.06309438875131308,-0.0284536488071084
1761505424205589500,7.268589599609375,-0.07205985856056213,-0.041351708824932575,-0.04329948189184069
1761505424215625500,7.27862548828125,-0.11445347765386103,-0.01610708519220352,-0.0509152175925672
1761505424225662700,7.288662841796875,-0.13411971663236616,-0.0036099341254681346,-0.04676058213114738
1761505424235698700,7.29869873046875,-0.0779910021752119,-0.01799881722293794,-0.0630444851949811
1761505424245734700,7.308734619140625,-0.08224865961968898,-0.05740341056808829,-0.02548676182553172
1761505424255771600,7.318771728515625,-0.12262158654034137,-0.07240216919220983,0.014333938039839266
1761505424265807600,7.3288076171875,-0.19548808530867098,-0.04977832251712679,0.032115386185050006
1761505424275843600,7.338843505859375,-0.24678981800079344,-0.032882132773846384,0.012758651547133923
1761505424285880600,7.348880615234375,-0.2618406721383333,-0.03003032353930175,-0.006137041450291872
1761505424295916500,7.35891650390625,-0.22358663706779477,-0.06002455285191535,-0.01718187481686473
1761505424305952500,7.368952392578125,-0.14974574030935764,-0.06265124809369445,-0.0376166139498353
1761505424315989800,7.37898974609375,-0.06882569894492625,-0.052776773680746555,-0.09631474050357937
1761505424326025700,7.389025634765625,-0.07379881118237971,-0.052343058438599106,-0.09304697087928653
1761505424336062700,7.399062744140625,-0.1199760404676199,-0.043982787980884314,-0.033338205978274346
1761505424346098700,7.4090986328125,-0.20487901398837566,-0.016122209696099163,-0.006070113693922758
1761505424356134700,7.419134765625,-0.27889818992316723,-0.01248158817142248,0.013708061226457357
1761505424366171600,7.429171630859375,-0.2550076112478971,-0.04536722807660699,0.029661563292145726
1761505424376207600,7.43920751953125,-0.15527414834201336,-0.025827465021982788,0.013170885609835386
1761505424386243600,7.44924365234375,0.007734978166222572,0.004419789203628897,0.0011287117689847946
1761505424396280600,7.459280517578125,0.14005962807536124,-0.005564136933162808,-0.014211334573477506
1761505424406316500,7.469316650390625,0.10556816040873528,0.015362038978561757,-0.046742900343984366
1761505424416352800,7.479352783203125,-0.057713353300094604,0.03200440009124577,-0.05497969055250287
1761505424426389800,7.4893896484375,-0.17980477848649024,-0.0022220599636435506,-0.07315496032088994
1761505424436425700,7.49942578125,-0.2478893036752939,-0.027112828657403585,-0.10503493031486869
1761505424446462700,7.509462646484375,-0.22360183463692665,-0.05517170599326491,-0.12489669186547397
1761505424456498700,7.519498779296875,-0.1634066013932228,-0.08780578229017555,-0.11981281272992492
1761505424466534700,7.52953466796875,-0.18322773867249487,-0.07308277186751365,-0.06814926098808646
1761505424476572000,7.539572021484375,-0.20573358499109745,-0.022745646423846484,-0.0175806648761034
1761505424486608000,7.54960791015625,-0.21001053165793418,0.0036091304078698155,-0.06023936464637518
1761505424496643800,7.559643798828125,-0.1689046142876148,-0.00037467853128910064,-0.08849792927280067
1761505424506680800,7.569680908203125,-0.1385971543073654,-0.01809197539910674,-0.07910363959223031
1761505424516716800,7.579716796875,-0.033251112216711044,-0.0029002514861524104,-0.02205123441889882
1761505424526752800,7.589752685546875,-0.051096565508842465,0.01676211503483355,0.014069441884756088
1761505424536789800,7.599789794921875,-0.0964998878121376,0.022003595884889364,0.03112988227903843
1761505424546825700,7.60982568359375,-0.2187193232923746,0.002947013237327337,0.030788959886878728
1761505424556861700,7.61986181640625,-0.24040216279029844,0.013464315598458051,0.059248600043356414
1761505424566899000,7.62989892578125,-0.19661270542442796,0.03205196556001901,0.06234729671105742
1761505424576935000,7.639934814453125,-0.17576865483820436,0.009095891255885362,0.038354865096509455
1761505424586971000,7.649970947265625,-0.14780512763559817,-0.01933583798035979,0.029949148061871527
1761505424597008000,7.6600078125,-0.10608370871543883,0.0018384674735367297,0.01995002435594797
1761505424607043800,7.6700439453125,-0.06048749418854713,0.04297923696152866,-0.004926058225333691
1761505424617080600,7.68008056640625,-0.05648176567852497,0.04998575472272932,-0.03879223360046744
1761505424627116800,7.69011669921875,-0.12154080556631087,0.01472483705356717,-0.07304419342279433
1761505424637152800,7.70015283203125,-0.18763269563317297,-0.007806143706291914,-0.09002718466669321
1761505424647189500,7.710189453125,-0.1881061583638191,-0.02103226663470268,-0.10975889009684324
1761505424657225700,7.720225830078125,-0.11989128479361534,-0.028546880048513412,-0.09041092328727245
1761505424667261700,7.73026171875,-0.023495441877841947,-0.04678294009342789,-0.054216304964572186
1761505424677298700,7.740298583984375,0.0218418294519186,-0.08300970712006092,-0.03342383843511343
1761505424687334700,7.750334716796875,-0.007415829214453697,-0.07459310336522758,-0.02071165637820959
1761505424697371000,7.760370849609375,-0.125565238776803,-0.024385814846307037,-0.04216024872884154
1761505424707407600,7.77040771484375,-0.21479133619368074,-0.0031562720738351345,-0.09096388099491595
1761505424717443600,7.780443603515625,-0.23985329673588274,-0.01726633822992444,-0.103906949198246
1761505424727479800,7.790479736328125,-0.22314006234407424,-0.008818097227811813,-0.08450856737568974
1761505424737516500,7.8005166015625,-0.10661971528828143,0.049028380932658905,-0.07516293914243578
1761505424747552500,7.810552490234375,-0.010949848559498786,0.0363312503144145,-0.07868234544023871
1761505424757588700,7.820588623046875,-0.07971943340301513,-0.05390453560166061,-0.031191110946983097
1761505424767625700,7.830625732421875,-0.19508593424856663,-0.06471833669133484,0.03308466960862279
1761505424777661700,7.84066162109375,-0.2639928817361593,-0.027558307402580976,0.0450507094733417
1761505424787698700,7.85069873046875,-0.22446751155555247,-0.006959317618608474,0.07452727158740162
1761505424797734700,7.860734619140625,-0.1919926444083452,-0.01204217384085059,0.06614464316740631
1761505424807770600,7.8707705078125,-0.1569406202495098,-0.0381600731767714,0.02942030188217759
1761505424817807600,7.8808076171875,-0.17768237950503826,-0.04148987518660724,0.020353344459831713
1761505424827843600,7.890843505859375,-0.207970550262928,0.0006040303077548742,0.04616247010752558
1761505424837879600,7.900879638671875,-0.2160363678187132,-0.0015476678334176539,0.04815145196765661
1761505424847916500,7.91091650390625,-0.19899755473434924,-0.03244622557461262,0.05382642886415124
1761505424857952800,7.920952880859375,-0.13428630537092684,-0.0413572617828846,0.06878244432508945
1761505424867988700,7.93098876953125,-0.03355740168690681,-0.012511398787796496,0.024953823992609977
1761505424878025700,7.941025634765625,-0.001499298647046089,-0.005552227299660444,-0.031457360667735336
1761505424888061700,7.951061767578125,-0.028070494708418846,-0.015940204192698,-0.06224208277091384
1761505424898097700,7.96109765625,-0.11446166096031665,-0.044651773283630604,-0.10353913879916071
1761505424908134700,7.971134765625,-0.17935937280654907,-0.08138027928732335,-0.14817951390594244
1761505424918170600,7.981170654296875,-0.20772797367870807,-0.06756137809753418,-0.14137582524046302
1761505424928206600,7.99120654296875,-0.21746961549222468,0.0013231383625417947,-0.15027736296802757
1761505424938243600,8.00124365234375,-0.211443194809556,0.037690921295061706,-0.1559447410799563
1761505424948279600,8.011279541015625,-0.1932476129055023,0.011688611162826419,-0.12264189867600798
1761505424958315500,8.0213154296875,-0.13446575359106064,-0.004992912916466593,-0.14750585242807865
1761505424968351500,8.0313515625,-0.0910883841574192,0.04545490636005997,-0.12981252095773815
1761505424978388700,8.041388671875,-0.03169628399014473,0.08699877675622701,-0.1231976328626275
1761505424988424700,8.0514248046875,-0.0634691403478384,0.07557385803088545,-0.14360796820670366
1761505424998460700,8.061460693359376,-0.08973638502657413,0.04544387350939214,-0.1452817466378212
1761505425008497700,8.07149755859375,-0.11631693343818188,0.04510419322624802,-0.11472411128878593
1761505425018533600,8.08153369140625,-0.09675357031226157,0.037263708858937025,-0.07345218970179557
1761505425028569600,8.091569580078126,-0.04434007698595523,0.011670271788537502,-0.012070961543917656
1761505425038606600,8.101606689453124,-0.06661737524569034,-0.04315919663831591,0.017665420550107953
1761505425048642600,8.111642578125,-0.04800210662484169,-0.07629559643417597,0.0028778935238718984
1761505425058678500,8.121678466796874,-0.14508768537044525,-0.06796199478767811,-0.0322597630918026
1761505425068715800,8.1317158203125,-0.23222879320681095,-0.06647635933980345,-0.032332536067068575
1761505425078751700,8.141751708984375,-0.27254034532904625,-0.0914320830285549,0.013714344836771487
1761505425088787700,8.15178759765625,-0.2510977443277836,-0.14261618069037793,0.05753419734090566
1761505425098824700,8.16182470703125,-0.1615419765651226,-0.15435791027992962,0.061192135326564305
1761505425108860700,8.171860595703125,-0.06902794351875782,-0.16367884246334433,0.08229118358716368
1761505425118896600,8.181896728515625,-0.07591478042304516,-0.15963512003049254,0.05423574031740427
1761505425128933600,8.19193359375,-0.2103711816638708,-0.13314005794525147,0.023442542646825312
1761505425138969600,8.201969482421875,-0.35808103223145005,-0.13773681115098296,0.016058423744887113
1761505425149005600,8.212005615234375,-0.42679099584221836,-0.09539996374621987,0.06269625627920031
1761505425159042600,8.22204248046875,-0.3896709332376718,-0.05717895416244864,0.07189619243144989
1761505425169078800,8.232078857421875,-0.3034334962427616,-0.056413303552195426,0.05802972577288747
1761505425179114800,8.24211474609375,-0.19065467380285261,-0.02003536455184221,0.10263576021865009
1761505425189151700,8.25215185546875,-0.04144727815389633,-0.008732172510027884,0.05969093698337674
1761505425199187700,8.262187744140626,0.029734628528356552,0.004194675210863351,0.03603679741248488
1761505425209223700,8.2722236328125,0.023189736929535864,0.014099471696838735,-0.01202083879187703
1761505425219260700,8.2822607421875,-0.029840426990389822,0.09024440761394799,-0.0497128560654819
1761505425229296600,8.292296630859376,-0.10329612382352352,0.13239055475220082,-0.11681991452425718
1761505425239332600,8.30233251953125,-0.09823474878072738,0.11391747108101843,-0.10367752435654401
1761505425249369600,8.31236962890625,-0.09954057068228721,0.05845649981759488,-0.009193214150518178
1761505425259405600,8.322405517578124,-0.05587386291325092,0.04638290792517364,-0.003568798397481441
1761505425269441500,8.332441650390624,-0.06078852296173572,0.03368621569834649,-0.03359700304493308
1761505425279478800,8.342478759765624,-0.12679331926703452,0.015826880011335014,-0.08916822974979877
1761505425289514800,8.3525146484375,-0.16414134540855885,0.007485825710743665,-0.10731588085889816
1761505425299550700,8.36255078125,-0.17969488837122916,0.0762891666933894,-0.1609587698496878
1761505425309587700,8.372587646484375,-0.18677812463045118,0.14903240440823137,-0.1693102724790573
1761505425319623700,8.382623779296875,-0.11619769097268581,0.1293436613369733,-0.07884937257021665
1761505425329659600,8.39265966796875,0.015767477974295615,0.03109722211845219,0.0016341770730912684
1761505425339696600,8.402696533203125,0.16213643532693386,-0.07961473091952502,0.12110709032416343
1761505425349732600,8.412732666015625,0.1601519835114479,-0.11200849565453827,0.23671777518913148
1761505425359768600,8.4227685546875,0.027612814068794247,-0.04796155541874468,0.20524813956171273
1761505425369805800,8.432805908203125,-0.22513678911924362,-0.024368717581033705,0.07177592705264688
1761505425379841800,8.442841796875,-0.4753700255721807,-0.117801692103222,-0.169169110442698
1761505425389877800,8.452877685546875,-0.42029461956024167,-0.17298253125101326,-0.22590134375095366
1761505425399914800,8.462914794921875,-0.19403321032524107,-0.012673822807893156,-0.18333558296114205
1761505425409950700,8.47295068359375,-0.07679916204214096,0.05546382080763578,-0.22528452702686189
1761505425419986700,8.482986572265625,-0.1900070235490799,-0.020194354505836964,-0.14466697574034332
1761505425430024000,8.49302392578125,-0.3437707673281431,-0.11794628820568323,-0.03558656942695379
1761505425440060000,8.503059814453126,-0.3352706500083208,-0.07752148496732116,0.07532324427068234
1761505425450095900,8.513095947265626,-0.18959493561685084,-0.007590162868052721,0.051131929083168506
1761505425460132900,8.5231328125,-0.01744505579769611,-0.0713730453401804,0.056498424552381035
1761505425470168800,8.5331689453125,0.14205927745997904,-0.134596540363878,0.17643500979244708
1761505425480204800,8.543204833984374,0.15386603510975838,-0.07228278059624135,0.2124066330142319
1761505425490241800,8.55324169921875,0.07848901482522487,-0.017061755568534134,0.15075111795961857
