time,seconds_elapsed,z,y,x
1761505417039596800,0.1025966796875,0.03795204684138298,-0.06270929425954819,0.09302200376987457
1761505417049633800,0.1126337890625,0.03037189319729805,-0.013654935173690319,0.02459847182035446
1761505417059669800,0.122669677734375,0.015216203406453133,0.03189200907945633,-0.011562526226043701
1761505417069707000,0.13270703125,0.0018199700862169266,0.04573458433151245,-0.024592839181423187
1761505417079743000,0.142742919921875,-0.015552765689790249,0.010063345544040203,-0.010804657824337482
1761505417089780000,0.152780029296875,-0.037756070494651794,-0.0349494032561779,0.007184196729212999
1761505417099816000,0.16281591796875,-0.05393330752849579,-0.06108719855546951,0.02899821661412716
1761505417109852700,0.172852783203125,-0.06960014998912811,-0.06520311534404755,0.049849171191453934
1761505417119889000,0.182888916015625,-0.0830385833978653,-0.06699203699827194,0.060398418456315994
1761505417129925600,0.192925537109375,-0.08440478146076202,-0.06779950857162476,0.0740593671798706
1761505417139961900,0.2029619140625,-0.0686439722776413,-0.05035151541233063,0.08958665281534195
1761505417149998800,0.212998779296875,-0.036071911454200745,-0.02707362361252308,0.10063717514276505
1761505417160034800,0.223034912109375,-0.009057877585291862,-0.014500434510409832,0.10118512064218521
1761505417170071800,0.23307177734375,-0.00015786010771989822,-0.005052338354289532,0.09990307688713074
1761505417180107800,0.243107666015625,-0.0048114582896232605,-0.009996370412409306,0.0970965027809143
1761505417190144800,0.253144775390625,-0.02221015654504299,-0.011271225288510323,0.09386182576417923
1761505417200180700,0.2631806640625,-0.026491673663258553,-0.008448174223303795,0.0998210534453392
1761505417210218000,0.273218017578125,-0.026977432891726494,0.016324283555150032,0.10529118776321411
1761505417220254000,0.28325390625,-0.014855939894914627,0.030836468562483788,0.11159424483776093
1761505417230291000,0.293291015625,0.004343319684267044,0.029758155345916748,0.12951917946338654
1761505417240327000,0.303326904296875,0.020373843610286713,0.009975980967283249,0.1408235728740692
1761505417250364000,0.313364013671875,0.02818036824464798,0.0002823411487042904,0.1364637166261673
1761505417260399900,0.32339990234375,0.028713736683130264,-0.007881414145231247,0.11823946982622147
1761505417270436900,0.333436767578125,0.025527795776724815,0.0032846874091774225,0.08756624907255173
1761505417280472800,0.343472900390625,0.02602573297917843,0.024946611374616623,0.05864022672176361
1761505417290509800,0.353509765625,0.028666257858276367,0.06098876893520355,0.04105004668235779
1761505417300546000,0.363546142578125,0.022925088182091713,0.07450053840875626,0.025571854785084724
1761505417310582000,0.37358203125,0.006338921375572681,0.08271665871143341,0.011531669646501541
1761505417320618800,0.38361865234375,-0.010734561830759048,0.07227824628353119,-0.010640783235430717
1761505417330655000,0.393655029296875,-0.02445063926279545,0.03319156542420387,-0.0285356268286705
1761505417340691700,0.403691650390625,-0.025710241869091988,-0.01589132845401764,-0.02303130552172661
1761505417350727700,0.413727783203125,-0.012188572436571121,-0.05483047291636467,-0.0016386640490964055
1761505417360764700,0.4237646484375,-0.000596931204199791,-0.08480087667703629,0.02625758945941925
1761505417370800600,0.433800537109375,0.00745513616129756,-0.10245257616043091,0.03469341620802879
1761505417380838000,0.443837890625,0.010033098980784416,-0.09991046041250229,0.03070981800556183
1761505417390873900,0.453873779296875,0.013289612717926502,-0.06864547729492188,0.016689341515302658
1761505417400910800,0.463910888671875,0.02183721587061882,-0.02024902030825615,-0.005410158075392246
1761505417410946600,0.473946533203125,0.02888340875506401,0.01669461652636528,-0.023307932540774345
1761505417420983600,0.483983642578125,0.034053437411785126,0.04381677135825157,-0.020138144493103027
1761505417431019500,0.49401953125,0.039411187171936035,0.041369326412677765,-0.004583417903631926
1761505417441056800,0.504056884765625,0.03860136866569519,0.0066647157073020935,0.012615315616130829
1761505417451092700,0.5140927734375,0.03587695583701134,-0.030712751671671867,0.03020070120692253
1761505417461129700,0.524129638671875,0.03326643258333206,-0.05679423734545708,0.0444251224398613
1761505417471165700,0.534165771484375,0.02975132316350937,-0.07965853810310364,0.05525726452469826
1761505417481202700,0.54420263671875,0.018225163221359253,-0.082722507417202,0.06382199376821518
1761505417491238700,0.55423876953125,-0.0017607947811484337,-0.055704470723867416,0.06316658854484558
1761505417501275600,0.564275634765625,-0.02664778009057045,-0.007595127448439598,0.04484497010707855
1761505417511311600,0.5743115234375,-0.038536395877599716,0.047669459134340286,0.002027464099228382
1761505417521347600,0.58434765625,-0.04023135080933571,0.08497920632362366,-0.03645047917962074
1761505417531384800,0.594384765625,-0.034851498901844025,0.08753557503223419,-0.06804302334785461
1761505417541420800,0.6044208984375,-0.027927206829190254,0.058184705674648285,-0.06928428262472153
1761505417551457500,0.61445751953125,-0.017626101151108742,0.028221746906638145,-0.03386371210217476
1761505417561493800,0.62449365234375,-0.006266916170716286,-0.0025325706228613853,0.015769150108098984
1761505417571530500,0.634530517578125,0.009677695110440254,-0.025531895458698273,0.059933681041002274
1761505417581566500,0.64456640625,0.012916706502437592,-0.03420292213559151,0.0765196830034256
1761505417591603500,0.654603515625,0.01802491582930088,-0.011963927187025547,0.07744459807872772
1761505417601639700,0.6646396484375,0.014138756319880486,0.028411762788891792,0.0741640105843544
1761505417611676700,0.6746767578125,-0.0032282499596476555,0.05589558556675911,0.06388474255800247
1761505417621712600,0.684712646484375,-0.020782966166734695,0.06476055830717087,0.033967822790145874
1761505417631749600,0.69474951171875,-0.03565991669893265,0.061146918684244156,-0.0049798451364040375
1761505417641785600,0.70478564453125,-0.03916854411363602,0.05585291236639023,-0.0289539135992527
1761505417651822600,0.714822509765625,-0.03918159380555153,0.0418366938829422,-0.03161734342575073
1761505417661858600,0.724858642578125,-0.040728528052568436,0.005154264159500599,-0.009885041043162346
1761505417671895800,0.734895751953125,-0.0406331904232502,-0.04101749137043953,0.00997708085924387
1761505417681931800,0.744931884765625,-0.03774293139576912,-0.07637277990579605,0.02137690596282482
1761505417691968800,0.75496875,-0.03648565337061882,-0.09097302705049515,0.030237508937716484
1761505417702004700,0.765004638671875,-0.026611998677253723,-0.04522564262151718,0.039122745394706726
1761505417712040700,0.775040771484375,-0.02009604126214981,0.018409794196486473,0.04203517735004425
1761505417722077700,0.78507763671875,-0.016893696039915085,0.06585206836462021,0.032961275428533554
1761505417732113700,0.79511376953125,-0.01060410961508751,0.09568745642900467,0.01427946612238884
1761505417742150700,0.805150634765625,-0.0003486587665975094,0.09766212105751038,-0.004301469773054123
1761505417752186600,0.8151865234375,0.006170493084937334,0.07956833392381668,-0.015193264931440353
1761505417762223600,0.8252236328125,0.010271366685628891,0.04657769203186035,-0.013508214615285397
1761505417772259800,0.835259765625,0.011567793786525726,0.015566246584057808,0.0011650032829493284
1761505417782296600,0.845296630859375,0.007835373282432556,-0.021285245195031166,0.019397269934415817
1761505417792332500,0.85533251953125,-0.0022187302820384502,-0.053382791578769684,0.02930389530956745
1761505417802369500,0.86536962890625,-0.01291026920080185,-0.07924940437078476,0.04033084213733673
1761505417812405500,0.875405517578125,-0.0199442096054554,-0.07806643098592758,0.037341710180044174
1761505417822442500,0.8854423828125,-0.014762591570615768,-0.044227324426174164,0.030638746917247772
1761505417832478500,0.895478515625,-0.003479843959212303,-0.005582460202276707,0.008505214937031269
1761505417842515700,0.905515625,0.003495219862088561,0.014047445729374886,-0.010332661680877209
1761505417852551700,0.9155517578125,0.011799488216638565,0.03638897091150284,-0.02216881513595581
1761505417862588700,0.925588623046875,0.01849735900759697,0.03191005438566208,-0.024777639657258987
1761505417872624600,0.935624755859375,0.02169608324766159,0.015186467207968235,-0.01502168271690607
1761505417882661600,0.94566162109375,0.02376975677907467,0.0031987125985324383,-0.0019828365184366703
1761505417892697600,0.955697509765625,0.020871970802545547,-0.008856618776917458,-0.007125400006771088
1761505417902733600,0.965733642578125,0.02344634383916855,-0.021354779601097107,-0.015751034021377563
1761505417912770800,0.975770751953125,0.0217115618288517,-0.025603586807847023,-0.015409084036946297
1761505417922806800,0.985806884765625,0.024172119796276093,-0.023869767785072327,-0.01181038934737444
1761505417932843800,0.99584375,0.024901026859879494,-0.004208715632557869,0.005948633886873722
1761505417942879700,1.005879638671875,0.016520921140909195,0.012022683396935463,0.030899809673428535
1761505417952916700,1.015916748046875,0.004784369841217995,0.00914567057043314,0.051784586161375046
1761505417962952700,1.02595263671875,0.004386303015053272,0.022102845832705498,0.06292064487934113
1761505417972989400,1.035989501953125,0.011938495561480522,0.0317903608083725,0.06616437435150146
1761505417983025700,1.046025634765625,0.014368351548910141,0.04459231346845627,0.07173795998096466
1761505417993062700,1.056062744140625,0.01990612968802452,0.053535476326942444,0.07875645905733109
1761505418003098600,1.0660986328125,0.02363271266222,0.037095773965120316,0.07638838142156601
1761505418013135600,1.076135498046875,0.03451625257730484,0.027328096330165863,0.05492916330695152
1761505418023171600,1.086171630859375,0.045549824833869934,0.017551051452755928,0.025900552049279213
1761505418033208600,1.09620849609375,0.048808205872774124,0.015915071591734886,0.0020415582694113255
1761505418043244500,1.10624462890625,0.044309280812740326,0.029459131881594658,-0.01458297111093998
1761505418053281500,1.116281494140625,0.034564241766929626,0.02923116646707058,-0.017126290127635002
1761505418063317500,1.1263173828125,0.02581954002380371,0.033339064568281174,-0.004643161781132221
1761505418073353500,1.136353515625,0.02088896371424198,0.0348043367266655,0.015333210118114948
1761505418083390700,1.146390625,0.017914574593305588,0.004517488181591034,0.027953507378697395
1761505418093426700,1.1564267578125,0.02514292672276497,-0.035317808389663696,0.03194425627589226
1761505418103463700,1.166463623046875,0.025585394352674484,-0.043971676379442215,0.027313346043229103
1761505418113499600,1.176499755859375,0.02730366587638855,-0.019371524453163147,0.007891977205872536
1761505418123536600,1.18653662109375,0.029997611418366432,0.02464272454380989,-0.021919434890151024
1761505418133572600,1.196572509765625,0.028795726597309113,0.07424037158489227,-0.04823333024978638
1761505418143609600,1.206609619140625,0.029760189354419708,0.0839119702577591,-0.06197072193026543
1761505418153645600,1.2166455078125,0.03652141988277435,0.05605451390147209,-0.052579883486032486
1761505418163682800,1.226682861328125,0.048111092299222946,0.03141142055392265,-0.008613290265202522
1761505418173718800,1.23671875,0.05181741341948509,0.008048040792346,0.04024426266551018
1761505418183755500,1.246755615234375,0.04767459258437157,-0.010610992088913918,0.07247583568096161
1761505418193791700,1.256791748046875,0.03705443814396858,-0.018851079046726227,0.08172658830881119
1761505418203828500,1.266828369140625,0.03119032457470894,-0.016260040923953056,0.06239618733525276
1761505418213864400,1.276864501953125,0.027317289263010025,-0.002452882705256343,0.030576473101973534
1761505418223900700,1.286900634765625,0.02490204945206642,0.003964946139603853,-0.00885477103292942
1761505418233937700,1.296937744140625,0.025606457144021988,0.006371378432959318,-0.026694754138588905
1761505418243973600,1.3069736328125,0.030305633321404457,-0.009064851328730583,-0.026055242866277695
1761505418254010600,1.3170107421875,0.030471282079815865,-0.02872217446565628,0.0012450874783098698
1761505418264046600,1.327046630859375,0.036896973848342896,-0.04653274267911911,0.028738971799612045
1761505418274083600,1.33708349609375,0.042431291192770004,-0.05879500135779381,0.04026193916797638
1761505418284119600,1.34711962890625,0.04826883599162102,-0.059782981872558594,0.038152799010276794
1761505418294156500,1.357156494140625,0.04990800842642784,-0.04371160268783569,0.03428482264280319
1761505418304192500,1.367192626953125,0.04987137019634247,-0.02079582028090954,0.03098434954881668
1761505418314229800,1.377229736328125,0.04561430588364601,-0.004123366437852383,0.03470079228281975
1761505418324265700,1.387265625,0.03485752269625664,-0.001616128021851182,0.038842134177684784
1761505418334302700,1.397302734375,0.03263404965400696,-0.002500297734513879,0.03805384039878845
1761505418344338700,1.407338623046875,0.0261137206107378,0.0011417609639465809,0.02754848264157772
1761505418354375700,1.417375732421875,0.024025801569223404,-0.007701798342168331,0.010897600091993809
1761505418364411600,1.42741162109375,0.020959867164492607,-0.024903101846575737,0.0010349296499043703
1761505418374447600,1.437447509765625,0.02777223289012909,-0.03848256170749664,0.007295222021639347
1761505418384484600,1.447484619140625,0.02920726127922535,-0.06721719354391098,0.008495568297803402
1761505418394520600,1.4575205078125,0.028917774558067322,-0.08060596883296967,0.009484133683145046
1761505418404557600,1.4675576171875,0.024072250351309776,-0.07302506268024445,-0.008349078707396984
1761505418414593500,1.477593505859375,0.014425482600927353,-0.051601264625787735,-0.04200956970453262
1761505418424630500,1.487630615234375,0.003583412617444992,-0.010694008320569992,-0.061774056404829025
1761505418434666500,1.49766650390625,-0.0047711897641420364,0.019248444586992264,-0.06035219505429268
1761505418444703500,1.507703369140625,-0.01165543869137764,0.030182840302586555,-0.030110128223896027
1761505418454739500,1.517739501953125,-0.0031074914149940014,0.022357940673828125,0.011304155923426151
1761505418464776400,1.5277763671875,0.013226909562945366,0.007168916054069996,0.03902861848473549
1761505418474812400,1.5378125,0.028881769627332687,0.0004910393618047237,0.04540875181555748
1761505418484849400,1.547849365234375,0.033051542937755585,-0.016752026975154877,0.03871406242251396
1761505418494885400,1.557885498046875,0.025011461228132248,-0.014357048086822033,0.035906556993722916
1761505418504921300,1.56792138671875,0.016650276258587837,-0.0008383467793464661,0.032260529696941376
1761505418514958600,1.57795849609375,0.010262684896588326,0.0022421316243708134,0.024726977571845055
1761505418524994600,1.58799462890625,0.008282349444925785,0.009397109970450401,0.019693532958626747
1761505418535031600,1.598031494140625,-0.005190849304199219,0.009829075075685978,0.023903457447886467
1761505418545067500,1.608067626953125,-0.012972237542271614,0.015310071408748627,0.03509077802300453
1761505418555104500,1.6181044921875,-0.01823810674250126,0.020841723307967186,0.04243151471018791
1761505418565140500,1.628140380859375,-0.010717570781707764,0.02076566591858864,0.03459564596414566
1761505418575177500,1.638177490234375,-0.0031145107932388783,0.014259829185903072,0.022774670273065567
1761505418585213400,1.64821337890625,0.00957137905061245,0.005876787006855011,0.006764049641788006
1761505418595250700,1.658250732421875,0.018645301461219788,0.0024615495931357145,-0.015013682655990124
1761505418605286700,1.66828662109375,0.027873385697603226,-0.010745184496045113,-0.03373878821730614
1761505418615322600,1.678322509765625,0.027399076148867607,-0.03081343322992325,-0.036239493638277054
1761505418625359600,1.688359619140625,0.0167738888412714,-0.02793004922568798,-0.028878439217805862
1761505418635395600,1.6983955078125,0.0056336200796067715,-0.0246192067861557,-0.007562232203781605
1761505418645432600,1.7084326171875,0.0008934210054576397,-0.009249148890376091,0.022927016019821167
1761505418655468500,1.718468505859375,0.0029302064795047045,0.016344893723726273,0.048068590462207794
1761505418665505500,1.728505615234375,0.009054245427250862,0.03275391459465027,0.06419947743415833
1761505418675541500,1.73854150390625,0.022493621334433556,0.0361262746155262,0.06509589403867722
1761505418685578500,1.74857861328125,0.02634209394454956,0.023387733846902847,0.042351797223091125
1761505418695614500,1.758614501953125,0.025663521140813828,0.001293083420023322,0.008337105624377728
1761505418705651500,1.7686513671875,0.023189328610897064,-0.0331677608191967,-0.01853238046169281
1761505418715687400,1.7786875,0.023610375821590424,-0.04466089978814125,-0.019694583490490913
1761505418725724400,1.788724365234375,0.029961153864860535,-0.0376981645822525,0.0014059421373531222
1761505418735760400,1.798760498046875,0.038450244814157486,-0.01698223501443863,0.025276919826865196
1761505418745796400,1.80879638671875,0.04758252948522568,-0.0062783388420939445,0.04955604672431946
1761505418755833600,1.81883349609375,0.05403696745634079,-0.007077020592987537,0.07018303126096725
1761505418765869600,1.82886962890625,0.05752677097916603,-0.01535999309271574,0.08758419007062912
1761505418775906600,1.838906494140625,0.054666534066200256,-0.034917451441287994,0.09166628122329712
1761505418785942500,1.848942626953125,0.03975025936961174,-0.056148357689380646,0.08500735461711884
1761505418795979500,1.8589794921875,0.03434643894433975,-0.04818364232778549,0.05299055948853493
1761505418806015500,1.869015380859375,0.02947666123509407,-0.02565918117761612,0.01024980191141367
1761505418816052500,1.879052490234375,0.02069195732474327,-0.01095107477158308,-0.029507197439670563
1761505418826088400,1.88908837890625,0.017907634377479553,0.013970915228128433,-0.04490838572382927
1761505418836124400,1.89912451171875,0.016214663162827492,0.03319147974252701,-0.03714953362941742
1761505418846161700,1.90916162109375,0.015896860510110855,0.032883260399103165,-0.01849859394133091
1761505418856197600,1.91919775390625,0.01225445419549942,0.015061654150485992,0.004974241368472576
1761505418866234600,1.929234619140625,0.011011175811290741,-0.022310558706521988,0.0337858572602272
1761505418876270600,1.9392705078125,0.010922759771347046,-0.04141687601804733,0.07005704939365387
1761505418886307600,1.9493076171875,0.002726171165704727,-0.04237046837806702,0.09894919395446777
1761505418896343600,1.959343505859375,-0.01067299023270607,-0.035629209131002426,0.10757330805063248
1761505418906380300,1.96938037109375,-0.01835491880774498,-0.02557029388844967,0.10043954104185104
1761505418916416500,1.97941650390625,-0.01677859202027321,0.0032805276568979025,0.07238101214170456
1761505418926452500,1.989452392578125,-0.010153332725167274,0.030307425186038017,0.03264510631561279
1761505418936489500,1.999489501953125,-0.004196374211460352,0.04186740890145302,0.000844568305183202
1761505418946525700,2.009525634765625,0.0014024763368070126,0.039698608219623566,-0.012236574664711952
1761505418956562400,2.0195625,0.0016900976188480854,0.03721867501735687,-0.009678342379629612
1761505418966598400,2.029598388671875,-0.007627516984939575,0.02075887843966484,-0.002899142215028405
1761505418976635400,2.039635498046875,-0.014321638271212578,-0.007314302027225494,0.014952292665839195
1761505418986671400,2.04967138671875,-0.019456934183835983,-0.018123840913176537,0.03756796196103096
1761505418996708400,2.059708251953125,-0.017424412071704865,-0.03451693058013916,0.04823312535881996
1761505419006744600,2.06974462890625,-0.016458826139569283,-0.03129047155380249,0.041133031249046326
1761505419016780500,2.079780517578125,-0.008058683015406132,-0.015479553490877151,0.023256296291947365
1761505419026817500,2.089817626953125,0.0002322210930287838,0.0028456863947212696,-0.0013663151767104864
1761505419036853500,2.099853515625,0.0010426207445561886,0.012350508943200111,-0.0223592147231102
1761505419046890500,2.109890380859375,0.000765286386013031,0.012018835172057152,-0.033233642578125
1761505419056926500,2.119926513671875,0.006786693818867207,0.012107252143323421,-0.02589157037436962
1761505419066963500,2.12996337890625,0.015015057288110256,0.0037591943982988596,-0.016323018819093704
1761505419076999400,2.13999951171875,0.030603602528572083,-0.007195452228188515,0.0023316245060414076
1761505419087036700,2.15003662109375,0.039448872208595276,-0.009651081636548042,0.031928181648254395
1761505419097072600,2.16007275390625,0.051122039556503296,-0.029947031289339066,0.05851531773805618
1761505419107108600,2.170108642578125,0.054618000984191895,-0.05046321824193001,0.07205453515052795
1761505419117145600,2.1801455078125,0.04730549454689026,-0.03724248707294464,0.06304239481687546
1761505419127181600,2.190181640625,0.037778981029987335,0.000778828514739871,0.028231196105480194
1761505419137218600,2.200218505859375,0.0300906989723444,0.037875864654779434,-0.009025626815855503
1761505419147254500,2.210254638671875,0.0167556069791317,0.06107938289642334,-0.03240397199988365
1761505419157291500,2.22029150390625,0.008764260448515415,0.059665244072675705,-0.03442371264100075
1761505419167327500,2.230327392578125,0.008798706345260143,0.05426124855875969,-0.018493229523301125
1761505419177364500,2.240364501953125,0.021005839109420776,0.04621157795190811,-0.00734790088608861
1761505419187400700,2.250400634765625,0.03585519641637802,0.02063453570008278,0.003952550236135721
1761505419197436700,2.260436767578125,0.046580810099840164,-0.0095968684181571,0.018386881798505783
1761505419207473400,2.270473388671875,0.04623490199446678,-0.04132113233208656,0.02538881078362465
1761505419217509600,2.280509521484375,0.04580853134393692,-0.07525540143251419,0.03134151175618172
1761505419227546400,2.29054638671875,0.0405571386218071,-0.07190999388694763,0.03167271614074707
1761505419237582300,2.300582275390625,0.03155539184808731,-0.05151470750570297,0.026990344747900963
1761505419247619300,2.310619384765625,0.02178182452917099,-0.014498094096779823,0.012795673683285713
1761505419257655600,2.320655517578125,0.012416552752256393,0.03763594850897789,-0.011556271463632584
1761505419267691500,2.33069140625,0.005785907153040171,0.06489429622888565,-0.03881427273154259
1761505419277728500,2.340728515625,0.003805047832429409,0.0630444586277008,-0.05110103264451027
1761505419287764500,2.350764404296875,0.009271074086427689,0.04630189761519432,-0.03623798117041588
1761505419297801500,2.360801513671875,0.009952310472726822,0.020982425659894943,-0.004573526792228222
1761505419307837400,2.37083740234375,0.0026813482400029898,-0.011451681144535542,0.02465413324534893
1761505419317874400,2.38087451171875,-0.011762039735913277,-0.031062668189406395,0.04687128961086273
1761505419327910400,2.390910400390625,-0.021510982885956764,-0.031001588329672813,0.054422665387392044
1761505419337946400,2.4009462890625,-0.02791615203022957,-0.01521490141749382,0.03479623422026634
1761505419347983600,2.410983642578125,-0.027555301785469055,0.009600951336324215,0.002081740414723754
1761505419358019600,2.42101953125,-0.024436740204691887,0.022225400432944298,-0.020628631114959717
1761505419368056600,2.431056640625,-0.016288839280605316,0.009441206231713295,-0.027764437720179558
1761505419378092500,2.441092529296875,-0.011814194731414318,-0.006232561077922583,-0.017710207030177116
1761505419388129500,2.451129638671875,-0.002518376335501671,-0.013452572748064995,-0.011448836885392666
1761505419398165500,2.46116552734375,0.00804105680435896,-0.0015200122725218534,-0.019013013690710068
1761505419408202000,2.471201904296875,0.02149350196123123,0.007736578583717346,-0.017080562189221382
1761505419418239000,2.481239013671875,0.026607036590576172,0.01829175092279911,-0.004572761245071888
1761505419428275000,2.49127490234375,0.03059712052345276,0.018617408350110054,0.019140448421239853
1761505419438312000,2.50131201171875,0.027694808319211006,0.008891011588275433,0.04661814123392105
1761505419448348000,2.511347900390625,0.016009438782930374,0.0010266676545143127,0.061961498111486435
1761505419458384600,2.521384521484375,-0.0020198957063257694,-0.005627506412565708,0.04693461209535599
1761505419468420900,2.5314208984375,-0.013554718345403671,-0.007770351134240627,0.014107885770499706
1761505419478456800,2.541456787109375,-0.01981288194656372,0.0036050754133611917,-0.013169808313250542
1761505419488493800,2.551493896484375,-0.019901297986507416,0.019059399142861366,-0.015252666547894478
1761505419498529800,2.56152978515625,-0.014839693903923035,0.016996247693896294,-7.430789992213249e-7
1761505419508566800,2.57156689453125,-0.00651330454275012,0.00046822382137179375,0.01817316934466362
1761505419518602800,2.581602783203125,0.011906715109944344,-0.01861199364066124,0.029951799660921097
1761505419528639700,2.5916396484375,0.022112654522061348,-0.03224625065922737,0.026024803519248962
1761505419538675700,2.60167578125,0.023125721141695976,-0.05625225231051445,0.0181887187063694
1761505419548711700,2.611711669921875,0.014918718487024307,-0.06027762591838837,0.012731153517961502
1761505419558748700,2.621748779296875,0.01042862981557846,-0.019307028502225876,0.013653671368956566
1761505419568785000,2.631784912109375,0.006408335641026497,0.028626805171370506,0.011711573228240013
1761505419578822000,2.64182177734375,0.0019336924888193607,0.04808439314365387,-0.004218391142785549
1761505419588857900,2.65185791015625,-0.0028778226114809513,0.04231489449739456,-0.024913223460316658
1761505419598894800,2.661894775390625,-0.002082069870084524,0.028933577239513397,-0.03425905108451843
1761505419608930800,2.671930908203125,-0.004580433014780283,0.019377805292606354,-0.038682833313941956
1761505419618966800,2.681966796875,-0.00911659561097622,-0.004088105633854866,-0.03682474419474602
1761505419629003800,2.692003662109375,-0.011004239320755005,-0.006423473358154297,-0.030362488701939583
1761505419639039700,2.702039794921875,-0.02107391692698002,-0.008099667727947235,-0.02391604147851467
1761505419649077000,2.712076904296875,-0.021236810833215714,-0.0033510008361190557,-0.013456134125590324
1761505419659113000,2.722113037109375,-0.01747402921319008,-0.006580349989235401,-0.005503935273736715
1761505419669150000,2.73214990234375,-0.012537970207631588,-0.0055214352905750275,0.004285179078578949
1761505419679186000,2.74218603515625,-0.0018946467898786068,-0.0014758280012756586,0.009734805673360825
1761505419689222000,2.752221923828125,0.007794998586177826,0.0025432587135583162,0.008049466647207737
1761505419699259000,2.7622587890625,0.01419057883322239,-0.004465382546186447,0.009342165663838387
1761505419709294800,2.772294921875,0.009165414609014988,0.0014711006078869104,0.014661215245723724
1761505419719331800,2.782331787109375,0.0030800914391875267,0.009627297520637512,0.01249792892485857
1761505419729367800,2.792367919921875,-0.010443315841257572,-0.0002839879598468542,-0.0010208830935880542
1761505419739403800,2.80240380859375,-0.012563192285597324,-0.011813344433903694,-0.030552677810192108
1761505419749441000,2.81244091796875,-0.012802906334400177,-0.038979556411504745,-0.057275835424661636
1761505419759477000,2.82247705078125,-0.007158071268349886,-0.08265459537506104,-0.07223188132047653
1761505419769513700,2.832513671875,-0.007037554867565632,-0.11837098747491837,-0.07558659464120865
1761505419779550000,2.842550048828125,0.00501990644261241,-0.14316155016422272,-0.06444685906171799
1761505419789586000,2.8525859375,0.009804729372262955,-0.1143767461180687,-0.04576196148991585
1761505419799622700,2.86262255859375,0.00264695193618536,-0.06367841362953186,-0.03321154788136482
1761505419809659000,2.872658935546875,-0.009541506879031658,-0.02041829563677311,-0.024613773450255394
1761505419819695900,2.88269580078125,-0.009570268914103508,0.029619837179780006,-0.024217229336500168
1761505419829731800,2.89273193359375,-0.006974488962441683,0.0508158914744854,-0.013484343886375427
1761505419839768800,2.902768798828125,-0.003923571202903986,0.05872601270675659,0.004213159903883934
1761505419849804800,2.9128046875,-0.010926916263997555,0.05062803626060486,0.027678340673446655
1761505419859840800,2.9228408203125,-0.017090268433094025,0.03396650031208992,0.049162060022354126
1761505419869877800,2.932877685546875,-0.025250617414712906,0.02317756786942482,0.05233126878738403
1761505419879913700,2.942913818359375,-0.030137784779071808,0.025328073650598526,0.037052180618047714
1761505419889950700,2.95295068359375,-0.03666030615568161,0.03165397420525551,0.012097286991775036
1761505419899986700,2.962986572265625,-0.03384694457054138,0.04280675947666168,-0.017955953255295753
1761505419910022700,2.973022705078125,-0.025708496570587158,0.04185967892408371,-0.03082738071680069
1761505419920060000,2.983059814453125,-0.013518141582608223,0.04383228346705437,-0.03293713927268982
1761505419930095900,2.993095947265625,-0.0027441997081041336,0.03838391974568367,-0.028207704424858093
1761505419940132900,3.0031328125,0.006161944009363651,0.016387276351451874,-0.0140226436778903
1761505419950168800,3.0131689453125,0.018160253763198853,-0.0008887532167136669,-0.002118511591106653
1761505419960205800,3.023205810546875,0.030587095767259598,-0.023688873276114464,0.008944792672991753
1761505419970241800,3.03324169921875,0.047895532101392746,-0.036478038877248764,0.010387041606009007
1761505419980277800,3.04327783203125,0.06428462266921997,-0.04638579860329628,0.0029813237488269806
1761505419990314800,3.053314697265625,0.07438185811042786,-0.039663512259721756,-0.008433057926595211
1761505420000351000,3.06335107421875,0.07792386412620544,-0.02453409507870674,-0.015965010970830917
1761505420010388000,3.073387939453125,0.06689547747373581,-0.01914561726152897,-0.011672595515847206
1761505420020424000,3.083423828125,0.046571824699640274,-0.005936072673648596,0.0062475488521158695
1761505420030460000,3.0934599609375,0.02681652642786503,0.02718922682106495,0.03595610335469246
1761505420040497000,3.103496826171875,0.013090327382087708,0.05672154948115349,0.04830305278301239
1761505420050532900,3.113532958984375,0.00987812876701355,0.06694097071886063,0.04809590056538582
1761505420060569900,3.12356982421875,0.002145640552043915,0.04567136615514755,0.036519408226013184
1761505420070605800,3.133605712890625,0.0021246743854135275,0.01637568324804306,0.01800101064145565
1761505420080641800,3.143641845703125,0.006597719620913267,-0.025831425562500954,-0.01677481271326542
1761505420090679000,3.153678955078125,0.012184408493340015,-0.06741004437208176,-0.05896385759115219
1761505420100715000,3.163715087890625,0.019115019589662552,-0.08834835141897202,-0.0816824808716774
1761505420110751700,3.173751708984375,0.0133734829723835,-0.08342374116182327,-0.07460027188062668
1761505420120788000,3.1837880859375,-0.0057996781542897224,-0.06638137251138687,-0.057953912764787674
1761505420130824000,3.193823974609375,-0.017080731689929962,-0.019227342680096626,-0.047090351581573486
1761505420140860700,3.203860595703125,-0.013357899151742458,0.030250994488596916,-0.04631004482507706
1761505420150897000,3.21389697265625,-0.000985721591860056,0.052030861377716064,-0.044977735728025436
1761505420160933600,3.22393359375,0.017326973378658295,0.04857620969414711,-0.028360940515995026
1761505420170969600,3.233969482421875,0.03685342147946358,0.018014000728726387,-0.00369243323802948
1761505420181006000,3.244006103515625,0.04739128053188324,-0.025751588866114616,0.010052407160401344
1761505420191042800,3.254042724609375,0.05077695846557617,-0.04074038937687874,0.010878253728151321
1761505420201078800,3.264078857421875,0.04475555196404457,-0.0421164445579052,0.01609724946320057
1761505420211115800,3.27411572265625,0.03267564997076988,-0.018318433314561844,0.024198785424232483
1761505420221151700,3.28415185546875,0.023419566452503204,0.000753261148929596,0.022570261731743813
1761505420231187700,3.294187744140625,0.024325642734766006,0.013067979365587234,0.011961361393332481
1761505420241224700,3.304224609375,0.03163362294435501,0.032454993575811386,-0.0038021556101739407
1761505420251260700,3.3142607421875,0.04040602594614029,0.04688893258571625,-0.0079419557005167
1761505420261298000,3.3242978515625,0.03361443057656288,0.04917578771710396,0.01152681652456522
1761505420271334000,3.334333984375,0.027646508067846298,0.03690849989652634,0.041773054748773575
1761505420281369900,3.344369873046875,0.018549682572484016,0.01189289428293705,0.06629624217748642
1761505420291406800,3.35440673828125,0.010036826133728027,0.003922219853848219,0.0687815397977829
1761505420301442800,3.36444287109375,0.006754213944077492,0.009309262037277222,0.04558461159467697
1761505420311479800,3.374479736328125,0.011628180742263794,0.02942761778831482,0.004525675904005766
1761505420321515800,3.384515869140625,0.016763022169470787,0.04214208200573921,-0.033725306391716
1761505420331551700,3.3945517578125,0.015496191568672657,0.03056824766099453,-0.050852857530117035
1761505420341588700,3.404588623046875,0.010260416194796562,-0.007235855329781771,-0.04836173728108406
1761505420351624700,3.414624755859375,0.0016908971592783928,-0.03477613627910614,-0.014035988599061966
1761505420361662000,3.424661865234375,0.00013190042227506638,-0.04161074012517929,0.02175598219037056
1761505420371698000,3.434697998046875,0.008036312647163868,-0.03116019256412983,0.03541039302945137
1761505420381734000,3.44473388671875,0.01223585195839405,-0.01272712554782629,0.029912563040852547
1761505420391771000,3.45477099609375,0.0028064153157174587,0.011112026870250702,0.011259134858846664
1761505420401806800,3.464806884765625,-0.012438584119081497,0.01579626090824604,-0.00208862847648561
1761505420411844000,3.474843994140625,-0.035008229315280914,0.01486046239733696,-0.0033671343699097633
1761505420421880000,3.484880126953125,-0.047045718878507614,-0.007028857246041298,-0.005230281967669725
1761505420431916000,3.494916015625,-0.05161232501268387,-0.013866989873349667,-0.005650414153933525
1761505420441953000,3.504953125,-0.04403270408511162,-0.0004963243845850229,-0.02031005173921585
1761505420451989000,3.514989013671875,-0.03487788885831833,0.005775350145995617,-0.039712246507406235
1761505420462025000,3.52502490234375,-0.027278827503323555,0.0018453234806656837,-0.048328906297683716
1761505420472062000,3.53506201171875,-0.02414834313094616,0.0014308352256193757,-0.04048692435026169
1761505420482098000,3.545097900390625,-0.026759572327136993,-0.017011821269989014,-0.026877371594309807
1761505420492135200,3.55513525390625,-0.027234308421611786,-0.02386433258652687,-0.010524457320570946
1761505420502171100,3.565171142578125,-0.019936714321374893,-0.020648565143346786,0.007129371166229248
1761505420512207000,3.57520703125,-0.013329708017408848,-0.01869197189807892,0.0097635043784976
1761505420522244000,3.585244140625,-0.006656625308096409,-0.02134101837873459,0.009048446081578732
1761505420532280000,3.595280029296875,-0.0017951731570065022,-0.02347078174352646,0.0031795245595276356
1761505420542316800,3.60531689453125,0.007290733512490988,-0.0192070621997118,-0.007205737754702568
1761505420552353000,3.61535302734375,0.009420711547136307,-0.00008702906779944897,-0.026465605944395065
1761505420562389000,3.625388916015625,0.014295627363026142,0.008874241262674332,-0.034891847521066666
1761505420572426000,3.635426025390625,0.01425676979124546,0.015818800777196884,-0.027128275483846664
1761505420582462000,3.6454619140625,0.011503061279654503,0.028759632259607315,0.00030654342845082283
1761505420592499000,3.6554990234375,0.004739363212138414,0.028956638649106026,0.030339278280735016
1761505420602535000,3.665534912109375,0.007445933762937784,0.02838911861181259,0.05204404145479202
1761505420612571000,3.67557080078125,0.014079459011554718,0.0013228149618953466,0.05423734337091446
1761505420622608000,3.68560791015625,0.02750658430159092,-0.025410795584321022,0.041101835668087006
1761505420632643800,3.695643798828125,0.034916482865810394,-0.05775139108300209,0.015231508761644363
1761505420642679800,3.7056796875,0.03674101456999779,-0.07353807985782623,0.0021561861503869295
1761505420652716800,3.715716796875,0.028736114501953125,-0.05938969925045967,-0.0027869518380612135
1761505420662752800,3.725752685546875,0.008687569759786129,-0.03152797743678093,0.0021116668358445168
1761505420672790000,3.7357900390625,-0.0035483846440911293,0.001943599316291511,0.0023173014633357525
1761505420682826000,3.745825927734375,-0.0027222726494073868,0.048954784870147705,-0.003540321486070752
1761505420692862000,3.755862060546875,-0.00004397379234433174,0.0638141930103302,-0.008440079167485237
1761505420702899000,3.76589892578125,0.008216086775064468,0.05970040708780289,-0.0037446594797074795
1761505420712935000,3.775934814453125,0.015679962933063507,0.04309942200779915,0.010646798647940159
1761505420722971000,3.785970947265625,0.021316543221473694,0.007703084498643875,0.02964152954518795
1761505420733008000,3.7960078125,0.021955350413918495,-0.016216298565268517,0.042299650609493256
1761505420743043800,3.8060439453125,0.007822220213711262,-0.030850103124976158,0.04348768666386604
1761505420753081000,3.8160810546875,-0.01145094633102417,-0.008397920988500118,0.025177644565701485
1761505420763117000,3.826116943359375,-0.023931317031383514,0.035757556557655334,-0.007247140631079674
1761505420773153000,3.836153076171875,-0.027883904054760933,0.07814149558544159,-0.041770678013563156
1761505420783190000,3.84618994140625,-0.032032571732997894,0.08518581837415695,-0.055777039378881454
1761505420793226000,3.85622607421875,-0.03221053630113602,0.0635395497083664,-0.038907479494810104
1761505420803262000,3.866261962890625,-0.024494292214512825,0.021235505118966103,0.0015528644435107708
1761505420813299000,3.876298828125,-0.02064513973891735,-0.012671430595219135,0.045772965997457504
1761505420823335000,3.8863349609375,-0.015536133199930191,-0.03318602591753006,0.07448823750019073
1761505420833372000,3.896371826171875,-0.007392310071736574,-0.04135064408183098,0.06562261283397675
1761505420843408000,3.906407958984375,0.005050511099398136,-0.012135768309235573,0.03647112473845482
1761505420853443800,3.91644384765625,0.012264278717339039,0.029641838744282722,-0.019000662490725517
1761505420863481000,3.926481201171875,0.019990108907222748,0.06161335110664368,-0.07237334549427032
1761505420873517000,3.93651708984375,0.011951560154557228,0.05562303960323334,-0.08039051294326782
1761505420883553000,3.946552978515625,0.0006461753509938717,0.022150833159685135,-0.059638626873493195
1761505420893590000,3.956590087890625,-0.003299664705991745,-0.012745232321321964,-0.03186130151152611
1761505420903626000,3.9666259765625,-0.007040341384708881,-0.012754554860293865,-0.015293244272470474
1761505420913663000,3.9766630859375,-0.011691389605402946,0.0127454474568367,-0.013827236369252205
1761505420923699000,3.986698974609375,-0.020786883309483528,0.03453223407268524,-0.014225645922124386
1761505420933735000,3.99673486328125,-0.02329246699810028,0.04272681474685669,0.0074473097920417786
1761505420943771000,4.00677099609375,-0.027294930070638657,0.04247008636593819,0.03978127986192703
1761505420953806800,4.016806884765625,-0.03520425409078598,0.014280793257057667,0.06546374410390854
1761505420963842800,4.0268427734375,-0.031501926481723785,0.0003537922166287899,0.0670725554227829
1761505420973880000,4.036880126953125,-0.01747434213757515,0.01606384478509426,0.046348221600055695
1761505420983916000,4.046916015625,-0.002724158577620983,0.04028769209980965,0.014179633930325508
1761505420993952000,4.056951904296875,-0.0028108530677855015,0.04639475420117378,-0.0019336019176989794
1761505421003989000,4.066989013671875,-0.014124492183327675,0.046046677976846695,0.005009259097278118
1761505421014025000,4.07702490234375,-0.025741595774888992,0.024930307641625404,0.023838918656110764
1761505421024062000,4.08706201171875,-0.0406624861061573,-0.0025726889725774527,0.040753189474344254
1761505421034098000,4.097097900390625,-0.043380096554756165,-0.012118258513510227,0.042363740503787994
1761505421044134000,4.1071337890625,-0.04521048814058304,-0.02533739060163498,0.03998447209596634
1761505421054171000,4.1171708984375,-0.0419326052069664,-0.03896038979291916,0.027865421026945114
1761505421064207000,4.12720703125,-0.03358306363224983,-0.020696964114904404,0.003311077132821083
1761505421074243000,4.1372431640625,-0.025700125843286514,0.008637354709208012,-0.01834110915660858
1761505421084280000,4.147280029296875,-0.019008934497833252,0.02984463796019554,-0.021954219788312912
1761505421094316000,4.15731591796875,-0.018088137730956078,0.04266805574297905,-0.011285226792097092
1761505421104353000,4.16735302734375,-0.017470816150307655,0.03624238073825836,0.013313859701156616
1761505421114389000,4.177388916015625,-0.014093395322561264,0.02137848176062107,0.035867106169462204
1761505421124425000,4.187425048828125,-0.0034354249946773052,0.007943366654217243,0.05005589872598648
1761505421134462000,4.1974619140625,0.00040224893018603325,-0.005528597626835108,0.05047737434506416
1761505421144498000,4.207497802734375,0.00590141024440527,-0.01906624436378479,0.037010569125413895
1761505421154534000,4.217533935546875,0.006855705752968788,-0.018324121832847595,0.022718358784914017
1761505421164571100,4.227571044921875,0.0014438959769904613,-0.02642039768397808,0.01067234855145216
1761505421174607000,4.237607177734375,-0.012471244670450687,-0.033293984830379486,0.006939231883734465
1761505421184643000,4.24764306640625,-0.01931823045015335,-0.01822528801858425,0.015720471739768982
1761505421194680000,4.25768017578125,-0.021035825833678246,0.0004936407785862684,0.026177695021033287
1761505421204716000,4.267716064453125,-0.016515109688043594,0.023785382509231567,0.040655966848134995
1761505421214753000,4.2777529296875,-0.01613452471792698,0.03731916844844818,0.055068884044885635
1761505421224789000,4.2877890625,-0.009907521307468414,0.03771970421075821,0.051879484206438065
1761505421234825000,4.297824951171875,-0.0045738667249679565,0.047562479972839355,0.038714274764060974
1761505421244862000,4.307862060546875,-0.000704027246683836,0.041423626244068146,0.027837125584483147
1761505421254898200,4.317898193359375,0.003627707716077566,0.017670994624495506,0.01951821893453598
1761505421264934100,4.32793408203125,0.014425493776798248,-0.0024419971741735935,0.010929524898529053
1761505421274971100,4.33797119140625,0.014776356518268585,-0.016702989116311073,0.004270187113434076
1761505421285007000,4.348007080078125,0.009526999667286873,-0.017066776752471924,0.010314498096704483
1761505421295043000,4.35804296875,0.003196603385731578,-0.002618731465190649,0.024245290085673332
1761505421305080000,4.368080078125,-0.0006681759841740131,0.01396930031478405,0.03598104044795036
1761505421315116000,4.378115966796875,-0.005819384474307299,0.028250034898519516,0.04140278697013855
1761505421325152000,4.388152099609375,-0.00785963237285614,0.033844538033008575,0.04324595630168915
1761505421335189000,4.39818896484375,0.0016057756729424,0.03472075238823891,0.0431431345641613
1761505421345225000,4.408224853515625,0.006333419121801853,0.022235853597521782,0.05410630255937576
1761505421355262000,4.418261962890625,0.00627886364236474,-0.007354332134127617,0.0613643117249012
1761505421365298000,4.4282978515625,0.01029810681939125,-0.0160391665995121,0.06700462102890015
1761505421375334100,4.438334228515625,0.011332251131534576,-0.02624097280204296,0.05932573229074478
1761505421385371000,4.448370849609375,0.010904282331466675,-0.02032902091741562,0.04579847306013107
1761505421395406800,4.45840673828125,0.008820216171443462,0.0021211300045251846,0.032370179891586304
1761505421405443000,4.468443115234375,-0.006528380326926708,0.02244078367948532,0.022398505359888077
1761505421415479300,4.478479248046875,-0.015976987779140472,0.04809195175766945,0.024238640442490578
1761505421425515300,4.488515380859375,-0.023036228492856026,0.060583774000406265,0.033972229808568954
1761505421435551200,4.49855126953125,-0.02791479043662548,0.05753469094634056,0.04490462318062782
1761505421445588200,4.508588134765625,-0.03522037714719772,0.04806315526366234,0.05133269354701042
1761505421455624200,4.518624267578125,-0.04217243567109108,0.020444512367248535,0.0433170348405838
1761505421465661000,4.528660888671875,-0.04026215150952339,-0.0028221954125910997,0.030331725254654884
1761505421475697200,4.538697265625,-0.03333668038249016,-0.0027987631037831306,0.01249644160270691
1761505421485733000,4.548733154296875,-0.0087415911257267,0.004951301962137222,-0.013454997912049294
1761505421495770000,4.55877001953125,-0.000001996755599975586,0.004787718877196312,-0.023226698860526085
1761505421505806000,4.56880615234375,-0.0009026778861880302,0.01542678102850914,-0.02030228078365326
1761505421515843000,4.578843017578125,-0.010497801005840302,0.024327002465724945,-0.009801112115383148
1761505421525879000,4.588879150390625,-0.02967735193669796,0.026808269321918488,-0.0003610053099691868
1761505421535916000,4.598916015625,-0.04778951033949852,0.03706992790102959,-0.0009753695921972394
1761505421545952000,4.608951904296875,-0.05325085669755936,0.04315338656306267,-0.0120677025988698
1761505421555988000,4.618988037109375,-0.049713995307683945,0.047452062368392944,-0.022833408787846565
1761505421566025000,4.62902490234375,-0.04069732874631882,0.04514896124601364,-0.019053583964705467
1761505421576061200,4.639061279296875,-0.0268986988812685,0.04106835648417473,0.0032070467714220285
1761505421586097200,4.64909716796875,-0.011828403919935226,0.034849874675273895,0.027469243854284286
1761505421596134100,4.659134033203125,-0.0026831026189029217,0.017159368842840195,0.042577583342790604
1761505421606170000,4.669170166015625,-0.0023520714603364468,0.014136414043605328,0.044394660741090775
1761505421616206000,4.6792060546875,-0.0065941838547587395,0.015543556772172451,0.0305058304220438
1761505421626243000,4.6892431640625,-0.00878862850368023,0.018468240275979042,0.006618873216211796
1761505421636279000,4.699279052734375,-0.010482478886842728,0.030581964179873466,-0.009954381734132767
1761505421646315000,4.70931494140625,-0.013483328744769096,0.010997077450156212,-0.013116086833178997
1761505421656352000,4.71935205078125,-0.012175263836979866,-0.009222104214131832,0.005420971661806107
1761505421666388000,4.729387939453125,-0.006048661656677723,-0.027216551825404167,0.033762067556381226
1761505421676425200,4.73942529296875,-0.0022030817344784737,-0.027680378407239914,0.049915067851543427
1761505421686461200,4.749461181640625,0.0028662458062171936,-0.0034767717588692904,0.04739918187260628
1761505421696497200,4.7594970703125,0.01544325239956379,0.03161284327507019,0.03365904092788696
1761505421706534100,4.7695341796875,0.018528524786233902,0.04471319913864136,0.017778610810637474
1761505421716570000,4.779570068359375,0.02457379549741745,0.02973281592130661,0.01648031175136566
1761505421726606000,4.789606201171875,0.03623418137431145,0.002434084191918373,0.017717083916068077
1761505421736643000,4.79964306640625,0.04332321137189865,-0.028116866946220398,0.02375573106110096
1761505421746679000,4.809678955078125,0.04547451063990593,-0.04531875625252724,0.030339330434799194
1761505421756715000,4.819715087890625,0.03693445026874542,-0.03129621222615242,0.025505928322672844
1761505421766752300,4.829752197265625,0.019263043999671936,-0.005853172391653061,0.008114421740174294
1761505421776788200,4.839788330078125,-0.0016247006133198738,0.0249942559748888,-0.016288993880152702
1761505421786824200,4.84982421875,-0.010125776752829552,0.05340326204895973,-0.03196782246232033
1761505421796861200,4.859861083984375,-0.009761476889252663,0.04553161934018135,-0.04216788709163666
1761505421806897200,4.869897216796875,-0.0034905318170785904,0.03518843650817871,-0.02622753381729126
1761505421816934100,4.87993408203125,0.006185857579112053,0.02349136583507061,0.002012078184634447
1761505421826970000,4.88997021484375,0.012562796473503113,0.016557026654481888,0.029310811311006546
1761505421837006000,4.900006103515625,0.020752200856804848,0.0016686569433659315,0.05189110338687897
1761505421847043000,4.91004296875,0.02340923622250557,0.0030915839597582817,0.05874421447515488
1761505421857079000,4.9200791015625,0.017656933516263962,-0.0024214566219598055,0.04812662675976753
1761505421867115000,4.930114990234375,0.022180845960974693,-0.008890008553862572,0.03139398247003555
1761505421877152300,4.94015234375,0.017358535900712013,-0.004672524519264698,0.019310738891363144
1761505421887188200,4.950188232421875,0.01216723583638668,-0.011656397953629494,0.018105659633874893
1761505421897224200,4.96022412109375,0.006373734679073095,0.0047405497170984745,0.02437800168991089
1761505421907261200,4.97026123046875,-0.0011813868768513203,0.020504064857959747,0.030658001080155373
1761505421917297200,4.980297119140625,-0.011857345700263977,0.042079828679561615,0.0210599135607481
1761505421927334100,4.990334228515625,-0.012686919420957565,0.059819675981998444,0.00529373437166214
1761505421937370000,5.0003701171875,-0.010665703564882278,0.07000792771577835,-0.011965600773692131
1761505421947406000,5.010406005859375,-0.010105375200510025,0.05080840736627579,-0.019007530063390732
1761505421957443300,5.020443359375,-0.0068461159244179726,0.024902209639549255,-0.003004212863743305
1761505421967479300,5.030479248046875,-0.007191793993115425,0.006647304631769657,0.015036040917038918
1761505421977515300,5.040515380859375,-0.00468487711623311,-0.006455711089074612,0.02923317812383175
1761505421987552300,5.05055224609375,0.0014358661137521267,-0.00806985329836607,0.03613315895199776
1761505421997588200,5.060588134765625,0.0013751639053225517,-0.018320297822356224,0.03485797718167305
1761505422007624200,5.070624267578125,-0.002762590069323778,-0.023496950045228004,0.026348646730184555
1761505422017661200,5.0806611328125,-0.008065269328653812,-0.012550623156130314,0.0081526143476367
1761505422027697200,5.090697265625,-0.01873735338449478,-0.001328328624367714,-0.020787157118320465
1761505422037734100,5.100734130859375,-0.023457027971744537,0.02752079628407955,-0.042132843285799026
1761505422047770000,5.11077001953125,-0.019718749448657036,0.04626971855759621,-0.0505036897957325
1761505422057806000,5.12080615234375,-0.008932639844715595,0.04158492013812065,-0.03672761470079422
1761505422067843000,5.130843017578125,-0.0031583737581968307,0.014432392083108425,-0.003546495921909809
1761505422077879300,5.14087939453125,-0.0000543985515832901,-0.010881386697292328,0.033116407692432404
1761505422087915300,5.150915283203125,-0.0029577771201729774,-0.027362091466784477,0.04487479478120804
1761505422097952000,5.160951904296875,-0.009447593241930008,-0.025858204811811447,0.043209828436374664
1761505422107988200,5.17098828125,-0.015736382454633713,-0.005682363174855709,0.03192468732595444
1761505422118024200,5.181024169921875,-0.01979268342256546,0.007521322928369045,0.004614189732819796
1761505422128061200,5.191061279296875,-0.020535439252853394,0.022457662969827652,-0.020482640713453293
1761505422138097200,5.20109716796875,-0.014844262972474098,0.031860217452049255,-0.038191329687833786
1761505422148133000,5.211133056640625,-0.016339894384145737,0.0370778851211071,-0.038902927190065384
1761505422158170000,5.221170166015625,-0.025398576632142067,0.03320524841547012,-0.029285520315170288
1761505422168206300,5.231206298828125,-0.026997005566954613,0.02284528687596321,-0.013657825067639351
1761505422178243000,5.2412431640625,-0.02351711317896843,0.020262418314814568,0.008430765941739082
1761505422188279000,5.251279052734375,-0.021395107731223106,0.00762305548414588,0.03133421763777733
1761505422198315300,5.261315185546875,-0.0186820849776268,-0.003061749041080475,0.043793532997369766
1761505422208352000,5.27135205078125,-0.006874960381537676,-0.013493617996573448,0.040843017399311066
1761505422218388000,5.281387939453125,0.012431278824806213,-0.012340400367975235,0.028397925198078156
1761505422228424200,5.291424072265625,0.023876747116446495,0.0022459994070231915,0.01275505032390356
1761505422238461000,5.3014609375,0.02705758437514305,0.004064439795911312,0.004215287044644356
1761505422248497200,5.3114970703125,0.028175579383969307,-0.001049095531925559,0.00449651712551713
1761505422258533000,5.321533203125,0.034560058265924454,0.0004811238031834364,0.008346233516931534
1761505422268570000,5.331570068359375,0.037759847939014435,0.009615233168005943,0.013438197784125805
1761505422278606000,5.341606201171875,0.03879015892744064,0.015019254758954048,0.012568684294819832
1761505422288643000,5.35164306640625,0.038025300949811935,0.016147902235388756,0.015506683848798275
1761505422298679000,5.361678955078125,0.03426346182823181,-0.0017136200331151485,0.019514314830303192
1761505422308715000,5.371715087890625,0.024787137284874916,-0.02676917240023613,0.024894965812563896
1761505422318752000,5.381751953125,0.027072805911302567,-0.03692244365811348,0.022741371765732765
1761505422328788000,5.3917880859375,0.027232063934206963,-0.03445768728852272,0.005080619361251593
1761505422338824000,5.401823974609375,0.02288496494293213,-0.0269993357360363,-0.017543913796544075
1761505422348861200,5.411861083984375,0.010569709353148937,-0.00795373972505331,-0.03657513111829758
1761505422358897200,5.421897216796875,-0.00010413862764835358,0.008834661915898323,-0.03658977150917053
1761505422368933000,5.43193310546875,-0.011300865560770035,0.018203129991889,-0.03646966442465782
1761505422378970000,5.44197021484375,-0.015490837395191193,0.013815172016620636,-0.020465552806854248
1761505422389006000,5.452006103515625,-0.011226052418351173,0.004572139121592045,-0.005472487770020962
1761505422399042000,5.4620419921875,0.004434950649738312,-0.006313631311058998,0.0036343145184218884
1761505422409079800,5.472079833984375,0.019624821841716766,-0.01939214952290058,0.010501541197299957
1761505422419115800,5.48211572265625,0.021816812455654144,-0.036283381283283234,0.008944728411734104
1761505422429152800,5.49215283203125,0.021631987765431404,-0.039116185158491135,-0.002532430924475193
1761505422439189000,5.50218896484375,0.018095597624778748,-0.032607052475214005,-0.011947053484618664
1761505422449225000,5.512224853515625,0.012339973822236061,-0.011176597326993942,-0.02085825614631176
1761505422459262000,5.522261962890625,0.005829793866723776,0.015015658922493458,-0.016328899189829826
1761505422469298000,5.5322978515625,0.004659601021558046,0.03185908868908882,-0.0021483642049133778
1761505422479334000,5.542333984375,-0.0011284719221293926,0.03517628461122513,0.015859471634030342
1761505422489371000,5.552370849609375,-0.0014461870305240154,0.022641319781541824,0.02323962189257145
1761505422499406800,5.56240673828125,0.004130636341869831,0.007454544305801392,0.016386771574616432
1761505422509443800,5.57244384765625,0.006630811840295792,0.005825488828122616,0.003267240710556507
1761505422519479800,5.582479736328125,0.0180034302175045,-0.0005549795459955931,-0.0016599512891843915
1761505422529515800,5.592515869140625,0.02528691105544567,-0.015396775677800179,0.006116212345659733
1761505422539553000,5.602552978515625,0.031246162950992584,-0.05105100944638252,0.013174381107091904
1761505422549589000,5.612589111328125,0.04131530970335007,-0.07493157684803009,0.020625639706850052
1761505422559625000,5.622625,0.04747120663523674,-0.0706271082162857,0.01821068488061428
1761505422569662000,5.632661865234375,0.044734276831150055,-0.054560523480176926,0.014409288763999939
1761505422579698000,5.642697998046875,0.030146872624754906,-0.026738878339529037,0.013949829153716564
1761505422589734000,5.65273388671875,0.01305337343364954,0.009782380424439907,0.012352731078863144
1761505422599771000,5.66277099609375,0.0003908192738890648,0.03029627352952957,0.008069970645010471
1761505422609806800,5.672806884765625,-0.007605322171002626,0.04499426111578941,0.0032081040553748608
1761505422619843800,5.68284375,-0.009375810623168945,0.04289722442626953,0.006381585728377104
1761505422629880000,5.692880126953125,-0.00808257982134819,0.027262603864073753,0.012141737155616283
1761505422639916000,5.702916015625,-0.005790704861283302,-0.0007564795669168234,0.017759868875145912
1761505422649952800,5.712952880859375,-0.004474038258194923,-0.017348771914839745,0.02068907953798771
1761505422659989000,5.722989013671875,-0.0030448236502707005,-0.02572101727128029,0.019482897594571114
1761505422670025000,5.73302490234375,-0.004380398895591497,-0.029717089608311653,0.009684862568974495
1761505422680061700,5.743061767578125,-0.011515270918607712,-0.01166891772300005,-0.0032343408092856407
1761505422690098000,5.753097900390625,-0.008483528159558773,0.020210184156894684,-0.015696870163083076
1761505422700134000,5.7631337890625,-0.01351671852171421,0.05452588200569153,-0.02840748056769371
1761505422710170600,5.773170654296875,-0.016262704506516457,0.06415853649377823,-0.0333457812666893
1761505422720206800,5.783206787109375,-0.021818675100803375,0.05486683174967766,-0.02918233908712864
1761505422730243800,5.793243896484375,-0.01350641530007124,0.025865010917186737,-0.023323385044932365
1761505422740279800,5.80327978515625,0.004363824147731066,-0.014712309464812279,-0.012709392234683037
1761505422750316000,5.81331591796875,0.01923038810491562,-0.046710722148418427,0.0003366348100826144
1761505422760352800,5.823352783203125,0.016427943482995033,-0.04934033006429672,0.02047599107027054
1761505422770388700,5.833388671875,0.003783787600696087,-0.019814392551779747,0.03204556182026863
1761505422780425000,5.843425048828125,-0.01713046431541443,0.0210323054343462,0.028718356043100357
1761505422790461700,5.853461669921875,-0.036493510007858276,0.06583040207624435,0.013315696269273758
1761505422800497700,5.86349755859375,-0.05784384906291962,0.09773433953523636,-0.006196324713528156
1761505422810534000,5.873533935546875,-0.07352853566408157,0.10527640581130981,-0.0217710230499506
1761505422820571000,5.88357080078125,-0.0770844891667366,0.08435451984405518,-0.022464245557785034
1761505422830606800,5.89360693359375,-0.06307333707809448,0.03541307523846626,-0.011661400087177753
1761505422840643800,5.903643798828125,-0.03880179300904274,-0.005400300025939941,0.01467185653746128
1761505422850679800,5.9136796875,-0.017480526119470596,-0.04197908565402031,0.03880142793059349
1761505422860715800,5.9237158203125,-0.01046229898929596,-0.046701401472091675,0.04529155045747757
1761505422870752800,5.933752685546875,0.01035856083035469,-0.028513077646493912,0.035702306777238846
1761505422880788700,5.943788818359375,0.024785129353404045,0.0010831647086888552,0.02044607885181904
1761505422890824700,5.95382470703125,0.033330414444208145,0.01437180582433939,0.006154224276542664
1761505422900861700,5.96386181640625,0.03938910365104675,0.018528766930103302,0.011725527234375477
1761505422910897700,5.973897705078125,0.04377799481153488,0.023784516379237175,0.021488143131136894
1761505422920935000,5.983934814453125,0.03576800599694252,0.03671998530626297,0.026977214962244034
1761505422930971000,5.993970947265625,0.026939360424876213,0.047768909484148026,0.01697065308690071
1761505422941006800,6.0040068359375,0.021976742893457413,0.03772779554128647,0.001079691806808114
1761505422951043800,6.0140439453125,0.01984488219022751,0.02547272853553295,-0.010566310957074165
1761505422961079800,6.024079833984375,0.02122706174850464,0.013630482368171215,-0.01939898356795311
1761505422971115800,6.03411572265625,0.0242308396846056,-0.0029479621443897486,-0.021250147372484207
1761505422981152800,6.04415283203125,0.017441706731915474,-0.013843653723597527,-0.007957816123962402
1761505422991188700,6.054188720703125,0.01043146662414074,-0.019499940797686577,0.0008982594590634108
1761505423001224700,6.064224609375,0.0021790091414004564,-0.019845053553581238,0.00863618403673172
1761505423011262000,6.074261962890625,-0.0004069199785590172,-0.018435442820191383,0.011274577118456364
1761505423021298000,6.0842978515625,-0.0010540485382080078,-0.010816537775099277,0.009728766977787018
1761505423031335000,6.0943349609375,-0.006590493954718113,0.0057805487886071205,0.00522935576736927
1761505423041371000,6.104370849609375,-0.006300659384578466,0.010119037702679634,-0.001206825254485011
1761505423051406800,6.11440673828125,-0.007368053775280714,0.0027958774007856846,0.00007575319614261389
1761505423061443800,6.12444384765625,-0.005113421473652124,-0.02317180670797825,0.012098327279090881
1761505423071479800,6.134479736328125,-0.01319531537592411,-0.03847592696547508,0.02905334159731865
1761505423081515800,6.144515869140625,-0.01600540243089199,-0.03345460444688797,0.03268817067146301
1761505423091552800,6.154552734375,-0.019051792100071907,-0.00980786606669426,0.012404735200107098
1761505423101588700,6.164588623046875,-0.017841141670942307,0.012208953499794006,-0.021985676139593124
1761505423111625000,6.174625,-0.01846165768802166,0.010817717760801315,-0.04849638044834137
1761505423121662000,6.184661865234375,-0.019597453996539116,-0.001048828475177288,-0.05410226061940193
1761505423131698000,6.194697998046875,-0.023620426654815674,-0.02257542684674263,-0.03117084503173828
1761505423141735000,6.20473486328125,-0.02506941184401512,-0.037578877061605453,0.007759018335491419
1761505423151771000,6.21477099609375,-0.02440069243311882,-0.024275055155158043,0.035035647451877594
1761505423161806800,6.224806884765625,-0.023229002952575684,0.003023844212293625,0.040512699633836746
1761505423171843800,6.23484375,-0.020524030551314354,0.033826764672994614,0.02488553710281849
1761505423181879800,6.2448798828125,-0.013475973159074783,0.041684918105602264,0.003009829903021455
1761505423191915800,6.254915771484375,-0.009562190622091293,0.018889859318733215,-0.022899264469742775
1761505423201953000,6.264953125,0.001812619622796774,-0.0075411489233374596,-0.04290001839399338
1761505423211989000,6.274989013671875,0.009557891637086868,-0.04072147235274315,-0.04208802059292793
1761505423222026000,6.28502587890625,0.015242449939250946,-0.04870752617716789,-0.02924884669482708
1761505423232062000,6.29506201171875,0.010270594619214535,-0.04289757460355759,-0.010082341730594635
1761505423242098000,6.305097900390625,-0.0026422743685543537,-0.016519762575626373,0.009575781412422657
1761505423252135000,6.315135009765625,-0.004947772715240717,0.03464515507221222,0.01931948959827423
1761505423262171000,6.3251708984375,-0.00442749448120594,0.07097087055444717,0.013719359412789345
1761505423272206800,6.335206787109375,0.005700507201254368,0.08753892779350281,0.014270367100834846
1761505423282243800,6.345243896484375,0.029951676726341248,0.06821499764919281,0.019514326006174088
1761505423292280000,6.355280029296875,0.03754914179444313,0.024839825928211212,0.03018374927341938
1761505423302316800,6.36531689453125,0.03639122471213341,-0.031845755875110626,0.03946268931031227
1761505423312352800,6.375352783203125,0.027732225134968758,-0.05396011471748352,0.03736358880996704
1761505423322389000,6.385388916015625,0.015258378349244595,-0.04165298119187355,0.025892026722431183
1761505423332425700,6.39542578125,0.0027889260090887547,-0.011849280446767807,-0.0009845939930528402
1761505423342462000,6.4054619140625,-0.009707416407763958,0.02046412043273449,-0.022008316591382027
1761505423352498000,6.415497802734375,-0.010052827186882496,0.04497159272432327,-0.019910544157028198
1761505423362534700,6.42553466796875,-0.01397884450852871,0.023914944380521774,-0.006303003057837486
1761505423372571000,6.43557080078125,-0.009053859859704971,-0.0116779375821352,0.014873655512928963
1761505423382606800,6.44560693359375,-0.004392565693706274,-0.029112087562680244,0.03961680829524994
1761505423392643800,6.455643798828125,-0.0028442037291824818,-0.03865259513258934,0.04197264090180397
1761505423402679800,6.4656796875,0.003996307961642742,-0.02861187793314457,0.030515043064951897
1761505423412716500,6.475716552734375,0.016797857359051704,-0.0067680999636650085,0.004943370819091797
1761505423422752500,6.48575244140625,0.021772798150777817,0.006159115582704544,-0.011905456893146038
1761505423432788700,6.495788818359375,0.021884119138121605,0.017590466886758804,-0.015398458577692509
1761505423442825500,6.505825439453125,0.016729293391108513,-0.00043000979349017143,-0.008492435328662395
1761505423452861400,6.515861328125,0.003238517791032791,-0.012597193941473961,0.0006752306944690645
1761505423462897700,6.525897705078125,-0.004325189162045717,-0.011146903038024902,0.0027863257564604282
1761505423472934700,6.5359345703125,-0.001989596989005804,-0.003952905535697937,-0.009320138022303581
1761505423482970600,6.545970703125,-0.0052553084678947926,-0.0006133678834885359,-0.014905396848917007
1761505423493007600,6.556007568359375,-0.002500534523278475,0.006022164598107338,-0.008136440068483353
1761505423503043600,6.566043701171875,-0.003135060891509056,0.008659258484840393,0.014433115720748901
1761505423513079600,6.57607958984375,-0.0021148044615983963,0.001047144876793027,0.038634322583675385
1761505423523116500,6.586116455078125,-0.0024713408201932907,-0.011528166942298412,0.03326265886425972
1761505423533152500,6.596152587890625,0.003291473025456071,-0.012099947780370712,0.013016512617468834
1761505423543188500,6.6061884765625,0.011745451018214226,-0.007445808034390211,-0.01527926605194807
1761505423553225500,6.6162255859375,0.019882740452885628,-0.0002376958727836609,-0.026526860892772675
1761505423563261700,6.62626171875,0.0174290481954813,-0.0026944291312247515,-0.01292758621275425
1761505423573298700,6.636298583984375,0.006038974970579147,-0.012440267018973827,0.009482914581894875
1761505423583334700,6.646334716796875,-0.004480471834540367,-0.0157345961779356,0.031859368085861206
1761505423593370600,6.65637060546875,-0.016511302441358566,-0.012708180584013462,0.04110879451036453
1761505423603407600,6.66640771484375,-0.024008940905332565,-0.00530242919921875,0.041299134492874146
1761505423613443600,6.676443603515625,-0.029122479259967804,0.000701134791597724,0.03645271435379982
1761505423623479600,6.6864794921875,-0.026790527626872063,0.0018869397463276982,0.02857925556600094
1761505423633516500,6.6965166015625,-0.0293120089918375,0.008395439013838768,0.01576918363571167
1761505423643552500,6.706552490234375,-0.03372425585985184,0.023909984156489372,0.004663589410483837
1761505423653589800,6.71658984375,-0.034618280827999115,0.03057987056672573,0.000006519956514239311
1761505423663625700,6.726625732421875,-0.03807063400745392,0.014980805106461048,-0.003635056782513857
1761505423673661700,6.73666162109375,-0.03235282748937607,0.004967585671693087,-0.008109699934720993
1761505423683698700,6.74669873046875,-0.021527167409658432,-0.00722320144996047,-0.004672539420425892
1761505423693734700,6.756734619140625,-0.018656011670827866,-0.014571396633982658,0.005906068719923496
1761505423703770600,6.7667705078125,-0.017138054594397545,-0.033184729516506195,0.016713101416826248
1761505423713807600,6.7768076171875,-0.015433097258210182,-0.04562994837760925,0.032878488302230835
1761505423723843600,6.786843505859375,-0.020697299391031265,-0.0463997982442379,0.039069805294275284
1761505423733880600,6.796880615234375,-0.02740474045276642,-0.050582557916641235,0.033589284867048264
1761505423743916800,6.806916748046875,-0.0267074815928936,-0.021230561658740044,0.018119588494300842
1761505423753952800,6.816952880859375,-0.019646907225251198,0.0010744768660515547,0.007131119258701801
1761505423763989800,6.82698974609375,-0.013114994391798973,-0.0018055657856166363,-0.009458697400987148
1761505423774025700,6.837025634765625,-0.004770513158291578,-0.010061897337436676,-0.01257379725575447
1761505423784061700,6.847061767578125,-0.00048122555017471313,-0.014126680791378021,0.0031457776203751564
1761505423794098700,6.8570986328125,-0.003810443449765444,-0.008778253570199013,0.012002119794487953
1761505423804134700,6.867134765625,-0.0043562850914895535,0.0157508235424757,0.013708741404116154
1761505423814170600,6.877170654296875,0.0037357299588620663,0.04826216399669647,-0.004353350028395653
1761505423824207600,6.88720751953125,0.009643133729696274,0.07592029124498367,-0.02855018712580204
1761505423834243600,6.89724365234375,0.008062015287578106,0.07050475478172302,-0.0330224335193634
1761505423844280800,6.90728076171875,0.0036385839339345694,0.04048959165811539,-0.009149772115051746
1761505423854316800,6.91731689453125,0.003642578609287739,-0.001994483172893524,0.023752251639962196
1761505423864352800,6.927352783203125,0.007885733619332314,-0.04832003638148308,0.03593308478593826
1761505423874389800,6.9373896484375,0.010794704779982567,-0.0622134804725647,0.029973730444908142
1761505423884425700,6.94742578125,0.01765071600675583,-0.04842713102698326,-0.003498998936265707
1761505423894461700,6.957461669921875,0.02049017697572708,0.0029793335124850273,-0.03838640823960304
1761505423904498700,6.967498779296875,0.012769004330039024,0.038257062435150146,-0.0503416433930397
1761505423914534700,6.97753466796875,-0.0012445496395230293,0.04428592696785927,-0.03159378841519356
1761505423924571400,6.9875712890625,-0.014041442424058914,0.03765026107430458,0.005728001706302166
1761505423934608000,6.99760791015625,-0.01617836393415928,0.019218260422348976,0.03099607490003109
1761505423944643800,7.007643798828125,-0.0033109155483543873,0.011006669141352177,0.0373355932533741
1761505423954680600,7.0176806640625,0.0161203071475029,0.004566879477351904,0.02722489833831787
1761505423964716800,7.027716796875,0.02885744906961918,-0.007784628309309483,0.014044190756976604
1761505423974752800,7.037752685546875,0.020110562443733215,-0.004566464573144913,0.015927046537399292
1761505423984789500,7.04778955078125,0.005340138915926218,-0.01411709189414978,0.020684516057372093
1761505423994825700,7.05782568359375,0.00007187388837337494,-0.01821409910917282,0.022922636941075325
1761505424004861700,7.06786181640625,-0.004977991804480553,-0.0034270312171429396,0.020431138575077057
1761505424014898400,7.0778984375,-0.008983919396996498,0.010986262932419777,0.011651761829853058
1761505424024934700,7.0879345703125,-0.011178689077496529,0.03121813014149666,-0.0025308048352599144
1761505424034971600,7.0979716796875,-0.00480574369430542,0.02666332572698593,-0.0015555553836748004
1761505424045007600,7.108007568359375,-0.0018739928491413593,0.006955468095839024,0.015418978407979012
1761505424055043600,7.118043701171875,-0.00731136929243803,-0.01709873415529728,0.03833254799246788
1761505424065080600,7.12808056640625,-0.015789030119776726,-0.03738493099808693,0.03355332463979721
1761505424075116500,7.138116455078125,0.009734705090522766,-0.02348908968269825,0.010278893634676933
1761505424085152500,7.148152587890625,0.03366544097661972,-0.0024044769816100597,-0.023752572014927864
1761505424095189500,7.158189453125,0.04472554847598076,0.01186766941100359,-0.047763098031282425
1761505424105225500,7.1682255859375,0.040707506239414215,0.011080005206167698,-0.04538991302251816
1761505424115262700,7.1782626953125,0.03273693472146988,0.0021035547833889723,-0.0215130764991045
1761505424125298700,7.188298583984375,0.019244689494371414,-0.0011704377830028534,0.011716794222593307
1761505424135334700,7.198334716796875,0.0084226680919528,0.007564464118331671,0.0326543003320694
1761505424145371600,7.20837158203125,-0.006204518955200911,0.028787264600396156,0.04000372812151909
1761505424155407600,7.21840771484375,-0.02011154592037201,0.039010606706142426,0.035760246217250824
1761505424165443600,7.228443603515625,-0.026062345132231712,0.03197723254561424,0.02149876207113266
1761505424175480600,7.23848046875,-0.028249064460396767,0.022432727739214897,0.0030172234401106834
1761505424185516500,7.2485166015625,-0.020038925111293793,0.009337200783193111,-0.009416698478162289
1761505424195552500,7.258552490234375,-0.01202360913157463,0.0059781549498438835,-0.012440185062587261
1761505424205589500,7.268589599609375,-0.007447907235473394,-0.0010835833381861448,-0.00957147590816021
1761505424215625500,7.27862548828125,-0.011112948879599571,-0.001276928698644042,-0.008535239845514297
1761505424225662700,7.288662841796875,-0.008388392627239227,0.020451070740818977,-0.017051685601472855
1761505424235698700,7.29869873046875,-0.008066149428486824,0.029579853639006615,-0.02832884155213833
1761505424245734700,7.308734619140625,-0.004545677453279495,0.03057980164885521,-0.031451836228370667
1761505424255771600,7.318771728515625,-0.007834681309759617,0.021700557321310043,-0.025617379695177078
1761505424265807600,7.3288076171875,-0.010024497285485268,0.009673785418272018,-0.00858430378139019
1761505424275843600,7.338843505859375,-0.016818486154079437,-0.0008622121531516314,0.01220779400318861
1761505424285880600,7.348880615234375,-0.008991701528429985,-0.015280095860362053,0.023919949308037758
1761505424295916500,7.35891650390625,0.0010494813323020935,-0.008197951130568981,0.019985660910606384
1761505424305952500,7.368952392578125,0.0014363555237650871,0.011381304822862148,0.0059291645884513855
1761505424315989800,7.37898974609375,-0.008350495249032974,0.02526356466114521,-0.013416570611298084
1761505424326025700,7.389025634765625,-0.010477518662810326,0.030242381617426872,-0.01727919653058052
1761505424336062700,7.399062744140625,-0.016122888773679733,0.01680540293455124,-0.0011913067428395152
1761505424346098700,7.4090986328125,-0.010254980996251106,-0.007270704954862595,0.0233243890106678
1761505424356134700,7.419134765625,0.004512246232479811,-0.017800845205783844,0.053492411971092224
1761505424366171600,7.429171630859375,0.012424949556589127,-0.030327025800943375,0.0630248412489891
1761505424376207600,7.43920751953125,0.020401649177074432,-0.019492220133543015,0.043228499591350555
1761505424386243600,7.44924365234375,0.03000900335609913,0.0012386253802105784,0.0024909228086471558
1761505424396280600,7.459280517578125,0.034249287098646164,0.009249679744243622,-0.03124014474451542
1761505424406316500,7.469316650390625,0.027292516082525253,0.0038015516474843025,-0.0372236929833889
1761505424416352800,7.479352783203125,0.016663841903209686,-0.01615883968770504,-0.02253609523177147
1761505424426389800,7.4893896484375,0.007199519779533148,-0.029890496283769608,-0.0014391752192750573
1761505424436425700,7.49942578125,0.001775992102921009,-0.025915728881955147,0.013982657343149185
1761505424446462700,7.509462646484375,0.0011358493939042091,-0.02177644707262516,0.01598869264125824
1761505424456498700,7.519498779296875,0.0038288377691060305,-0.022868875414133072,0.012146283872425556
1761505424466534700,7.52953466796875,-0.0007987110875546932,-0.027426274493336678,0.01598992757499218
1761505424476572000,7.539572021484375,-0.013658583164215088,-0.013700075447559357,0.020164698362350464
1761505424486608000,7.54960791015625,-0.02331303432583809,0.004519408568739891,0.014417906291782856
1761505424496643800,7.559643798828125,-0.023358043283224106,0.02677970565855503,0.002559649059548974
1761505424506680800,7.569680908203125,-0.021420713514089584,0.04952366650104523,-0.01816629432141781
1761505424516716800,7.579716796875,-0.015194511041045189,0.05571364983916283,-0.03239024057984352
1761505424526752800,7.589752685546875,-0.009338567964732647,0.043548665940761566,-0.029826292768120766
1761505424536789800,7.599789794921875,-0.0057321153581142426,0.011427748948335648,-0.011452078819274902
1761505424546825700,7.60982568359375,-0.0032869656570255756,-0.010642404668033123,0.01987823098897934
1761505424556861700,7.61986181640625,0.0017567947506904602,-0.020986121147871017,0.038311298936605453
1761505424566899000,7.62989892578125,0.003143297741189599,-0.018668007105588913,0.048091985285282135
1761505424576935000,7.639934814453125,0.01574617438018322,-0.011537393555045128,0.04072195291519165
1761505424586971000,7.649970947265625,0.029204726219177246,-0.005884567741304636,0.026441019028425217
1761505424597008000,7.6600078125,0.03923259302973747,0.004482053220272064,0.00774722546339035
1761505424607043800,7.6700439453125,0.041794124990701675,0.0017734533175826073,-0.012044312432408333
1761505424617080600,7.68008056640625,0.02905835583806038,0.005675517022609711,-0.013302922248840332
1761505424627116800,7.69011669921875,0.015557456761598587,-0.0005121084395796061,-0.003907537087798119
1761505424637152800,7.70015283203125,0.0027375323697924614,0.009472615085542202,0.008526495657861233
1761505424647189500,7.710189453125,-0.0032779378816485405,0.017000501975417137,0.011704848147928715
1761505424657225700,7.720225830078125,-0.003858773037791252,0.017822353169322014,0.00015471840742975473
1761505424667261700,7.73026171875,0.0017032604664564133,0.0034502071794122458,-0.014495969749987125
1761505424677298700,7.740298583984375,0.009780362248420715,-0.01617036573588848,-0.017758876085281372
1761505424687334700,7.750334716796875,0.01158209890127182,-0.04232243448495865,-0.004208213649690151
1761505424697371000,7.760370849609375,0.001039976254105568,-0.05886758863925934,0.021799951791763306
1761505424707407600,7.77040771484375,-0.009853377938270569,-0.062261588871479034,0.04298336058855057
1761505424717443600,7.780443603515625,-0.023262128233909607,-0.05284491926431656,0.04619752988219261
1761505424727479800,7.790479736328125,-0.027847396209836006,-0.011747651733458042,0.02510874718427658
1761505424737516500,7.8005166015625,-0.03593062609434128,0.04112781584262848,-0.011126222088932991
1761505424747552500,7.810552490234375,-0.03234533220529556,0.06727878749370575,-0.0388813391327858
1761505424757588700,7.820588623046875,-0.026689844205975533,0.06986844539642334,-0.0406976155936718
1761505424767625700,7.830625732421875,-0.01989942044019699,0.046666089445352554,-0.024392690509557724
1761505424777661700,7.84066162109375,-0.022281350567936897,0.02877071127295494,-0.015054049901664257
1761505424787698700,7.85069873046875,-0.017393074929714203,0.024129623547196388,-0.010262707248330116
1761505424797734700,7.860734619140625,-0.01343961339443922,0.028075363487005234,-0.010582552291452885
1761505424807770600,7.8707705078125,-0.01254044659435749,0.024512553587555885,-0.009553655050694942
1761505424817807600,7.8808076171875,-0.011443490162491798,0.026426833122968674,0.0069472910836339
1761505424827843600,7.890843505859375,-0.005811275914311409,0.012478957884013653,0.025262905284762383
1761505424837879600,7.900879638671875,0.004271717742085457,-0.00011193472892045975,0.038265254348516464
1761505424847916500,7.91091650390625,0.02239266037940979,-0.0023937695659697056,0.036205582320690155
1761505424857952800,7.920952880859375,0.03429139778017998,0.013806238770484924,0.015375935472548008
1761505424867988700,7.93098876953125,0.033917322754859924,0.02440488338470459,-0.006528536789119244
1761505424878025700,7.941025634765625,0.024590931832790375,0.015354664996266365,-0.017398230731487274
1761505424888061700,7.951061767578125,0.009174225851893425,-0.0036460519768297672,-0.02545914053916931
1761505424898097700,7.96109765625,-0.0001833224669098854,-0.002380784135311842,-0.02015864849090576
1761505424908134700,7.971134765625,-0.0019524293020367622,0.0007347734645009041,-0.009526698850095272
1761505424918170600,7.981170654296875,-0.003579886630177498,-0.0033313410822302103,0.001501185353845358
1761505424928206600,7.99120654296875,-0.008862389251589775,0.0012347166193649173,0.017760396003723145
1761505424938243600,8.00124365234375,-0.011884808540344238,-0.006827204953879118,0.03000720776617527
1761505424948279600,8.011279541015625,-0.013217789120972157,-0.006307209376245737,0.03332586959004402
1761505424958315500,8.0213154296875,-0.0224246047437191,0.0008305949158966541,0.017590584233403206
1761505424968351500,8.0313515625,-0.025863198563456535,0.021879883483052254,-0.005361464805901051
1761505424978388700,8.041388671875,-0.029188422486186028,0.04152655601501465,-0.01952388882637024
1761505424988424700,8.0514248046875,-0.033309563994407654,0.0508415624499321,-0.029525360092520714
1761505424998460700,8.061460693359376,-0.03474287688732147,0.03464554250240326,-0.024254698306322098
1761505425008497700,8.07149755859375,-0.03749652951955795,0.0039028737228363752,-0.016771774739027023
1761505425018533600,8.08153369140625,-0.035634446889162064,-0.029191961511969566,-0.014949106611311436
1761505425028569600,8.091569580078126,-0.03166936710476875,-0.05309256538748741,-0.01856171153485775
1761505425038606600,8.101606689453124,-0.027421623468399048,-0.04409640654921532,-0.028589045628905296
1761505425048642600,8.111642578125,-0.03241858258843422,-0.015562906861305237,-0.036511097103357315
1761505425058678500,8.121678466796874,-0.04085307940840721,0.029403503984212875,-0.02625606395304203
1761505425068715800,8.1317158203125,-0.04711141437292099,0.03634081408381462,-0.006609570235013962
1761505425078751700,8.141751708984375,-0.044099111109972,0.02008701302111149,0.008796283975243568
1761505425088787700,8.15178759765625,-0.03374537080526352,-0.005586437415331602,0.0066443621180951595
1761505425098824700,8.16182470703125,-0.024084750562906265,-0.02545255422592163,-0.014954673126339912
1761505425108860700,8.171860595703125,-0.020982878282666206,-0.01863485388457775,-0.04035473242402077
1761505425118896600,8.181896728515625,-0.024829814210534096,-0.00028061517514288425,-0.04703660309314728
1761505425128933600,8.19193359375,-0.031330566853284836,0.02075875736773014,-0.029226820915937424
1761505425138969600,8.201969482421875,-0.03226080909371376,0.03783388435840607,0.001484486274421215
1761505425149005600,8.212005615234375,-0.024814831092953682,0.03857586160302162,0.029337143525481224
1761505425159042600,8.22204248046875,-0.015454351902008057,0.0317685529589653,0.05524703487753868
1761505425169078800,8.232078857421875,-0.006707434542477131,0.01119607500731945,0.0671139657497406
1761505425179114800,8.24211474609375,0.003741211723536253,-0.009162725880742073,0.05825948715209961
1761505425189151700,8.25215185546875,0.011582143604755402,-0.019658183678984642,0.03706176206469536
1761505425199187700,8.262187744140626,0.01247297041118145,-0.019326353445649147,0.012841910123825073
1761505425209223700,8.2722236328125,0.00555733498185873,-0.013664374127984047,-0.002990622539073229
1761505425219260700,8.2822607421875,-0.010709518566727638,0.0002168205101042986,-0.0027610580436885357
1761505425229296600,8.292296630859376,-0.023331159725785255,0.003793512936681509,-0.0019865306094288826
1761505425239332600,8.30233251953125,-0.02426379919052124,-0.0059065185487270355,-0.005150898359715939
1761505425249369600,8.31236962890625,-0.019995391368865967,-0.013393566943705082,-0.01157286111265421
1761505425259405600,8.322405517578124,-0.0002722875215113163,-0.005792639218270779,-0.018930375576019287
1761505425269441500,8.332441650390624,0.0026544660795480013,0.0002534366212785244,-0.02739093080163002
1761505425279478800,8.342478759765624,-0.007490846328437328,0.015567944385111332,-0.03640386834740639
1761505425289514800,8.3525146484375,-0.023616034537553787,0.05027123540639877,-0.034289222210645676
1761505425299550700,8.36255078125,-0.0486321747303009,0.08273517340421677,-0.01794007606804371
1761505425309587700,8.372587646484375,-0.07187668979167938,0.08580799400806427,-0.010158121585845947
1761505425319623700,8.382623779296875,-0.07426740229129791,0.07194970548152924,-0.01991487853229046
1761505425329659600,8.39265966796875,-0.054202135652303696,0.05197242647409439,-0.052603185176849365
1761505425339696600,8.402696533203125,-0.019581306725740433,0.011883596889674664,-0.08549109101295471
1761505425349732600,8.412732666015625,0.019230924546718597,-0.01582479663193226,-0.09848873317241669
1761505425359768600,8.4227685546875,0.03855988383293152,-0.03377317264676094,-0.07790090143680573
1761505425369805800,8.432805908203125,0.023554686456918716,-0.024599449709057808,-0.051404919475317
1761505425379841800,8.442841796875,0.01229617465287447,0.03359115496277809,-0.04057278111577034
1761505425389877800,8.452877685546875,0.005296746734529734,0.12532177567481995,-0.056590113788843155
1761505425399914800,8.462914794921875,-0.018473830074071884,0.1859627515077591,-0.082121841609478
1761505425409950700,8.47295068359375,-0.04806511104106903,0.182908833026886,-0.08362708240747452
1761505425419986700,8.482986572265625,-0.06645583361387253,0.12809352576732635,-0.05595284327864647
1761505425430024000,8.49302392578125,-0.0795997902750969,0.07681720703840256,-0.004748383071273565
1761505425440060000,8.503059814453126,-0.08701056987047195,0.04084483161568642,0.016647186130285263
1761505425450095900,8.513095947265626,-0.07211341708898544,0.009588145650923252,0.009097594767808914
1761505425460132900,8.5231328125,-0.046795543283224106,-0.018603811040520668,-0.01854601874947548
1761505425470168800,8.5331689453125,-0.014892533421516418,-0.08615072816610336,-0.04054208844900131
1761505425480204800,8.543204833984374,0.028646422550082207,-0.14470432698726654,-0.042728811502456665
1761505425490241800,8.55324169921875,0.09222299605607986,-0.17733177542686462,-0.023651523515582085
