time,seconds_elapsed,z,y,x
1761505417023288800,0.086288818359375,0.056901365518569946,-0.13355912268161774,0.2013126015663147
1761505417033325000,0.096324951171875,0.039208389818668365,-0.1017865464091301,0.1400604397058487
1761505417043361800,0.10636181640625,0.030652184039354324,-0.05192871019244194,0.06431214511394501
1761505417053398000,0.11639794921875,0.017225058749318123,0.003186472225934267,0.006719954311847687
1761505417063434800,0.126434814453125,0.008349276147782803,0.03772927075624466,-0.01871083676815033
1761505417073470700,0.136470703125,-0.01230593491345644,0.03251027315855026,-0.022219818085432053
1761505417083507700,0.1465078125,-0.0296697448939085,-0.01062121894210577,-0.007653392385691404
1761505417093543700,0.156543701171875,-0.051965996623039246,-0.05169115588068962,0.014419951476156712
1761505417103581000,0.166580810546875,-0.06712604314088821,-0.06759236007928848,0.03513108938932419
1761505417113617000,0.176616943359375,-0.08163254708051682,-0.06608767062425613,0.049499910324811935
1761505417123654000,0.18665380859375,-0.08979886025190353,-0.07217858731746674,0.06296458095312119
1761505417133689900,0.19668994140625,-0.0863330215215683,-0.0636487528681755,0.07724418491125107
1761505417143726800,0.206726806640625,-0.06393876671791077,-0.042145054787397385,0.09181301295757294
1761505417153762800,0.2167626953125,-0.03128974512219429,-0.023448867723345757,0.09985283017158508
1761505417163799800,0.2267998046875,-0.010659036226570606,-0.011238273233175278,0.09964323788881302
1761505417173835800,0.236835693359375,-0.0070619042962789536,-0.006162820849567652,0.09559789299964905
1761505417183871700,0.246871826171875,-0.021494640037417412,-0.009770872071385384,0.09233978390693665
1761505417193909000,0.256908935546875,-0.030608508735895157,-0.018259432166814804,0.09255044162273407
1761505417203945000,0.266945068359375,-0.03480006009340286,-0.00478383619338274,0.10047680884599686
1761505417213982000,0.27698193359375,-0.026697922497987747,0.0216514989733696,0.10451123118400574
1761505417224018000,0.287017822265625,-0.01392993051558733,0.029864154756069183,0.11468476802110672
1761505417234055000,0.297054931640625,0.0021065603941679,0.022660572081804276,0.13714374601840973
1761505417244091000,0.3070908203125,0.01942775957286358,-0.0019981698133051395,0.1417379528284073
1761505417254127600,0.317127685546875,0.02491387166082859,-0.007355650886893272,0.1295742392539978
1761505417264163800,0.327163818359375,0.022344719618558884,-0.008404936641454697,0.10606464743614197
1761505417274200800,0.337200927734375,0.017364876344799995,0.002281263703480363,0.07225129008293152
1761505417284236800,0.34723681640625,0.02111806906759739,0.03719903528690338,0.05061976611614227
1761505417294273800,0.357273681640625,0.02478204481303692,0.06432173401117325,0.031260449439287186
1761505417304309800,0.367309814453125,0.01281752809882164,0.07330803573131561,0.02070421352982521
1761505417314346800,0.3773466796875,-0.004501008428633213,0.07851451635360718,0.0021017666440457106
1761505417324382700,0.3873828125,-0.021507687866687775,0.054186005145311356,-0.018547318875789642
1761505417334419700,0.397419677734375,-0.03289776295423508,0.010556504130363464,-0.03014139086008072
1761505417344456000,0.4074560546875,-0.02582094445824623,-0.03287272900342941,-0.014056163839995861
1761505417354493000,0.417492919921875,-0.012065717950463295,-0.06873219460248947,0.007513043470680714
1761505417364529000,0.42752880859375,-0.002906573936343193,-0.10050982981920242,0.026560237631201744
1761505417374566000,0.43756591796875,0.00239205127581954,-0.10681965947151184,0.03165806084871292
1761505417384601900,0.447601806640625,0.0018106831703335047,-0.0964844599366188,0.023028885945677757
1761505417394638800,0.457638916015625,0.010896855965256691,-0.052796367555856705,0.00863423477858305
1761505417404674600,0.467674560546875,0.020301809534430504,-0.00692022405564785,-0.015869777649641037
1761505417414711800,0.4777119140625,0.028121650218963623,0.02418789453804493,-0.02695811353623867
1761505417424747800,0.487747802734375,0.030605578795075417,0.04102599620819092,-0.014572018757462502
1761505417434783700,0.49778369140625,0.031266309320926666,0.026076607406139374,0.0022687469609081745
1761505417444820700,0.50782080078125,0.028490496799349785,-0.011996741406619549,0.017410149797797203
1761505417454856700,0.517856689453125,0.0295480377972126,-0.045453768223524094,0.03633590415120125
1761505417464893700,0.527893798828125,0.026860909536480904,-0.07215861231088638,0.047981373965740204
1761505417474929700,0.5379296875,0.023547936230897903,-0.08553540706634521,0.055381499230861664
1761505417484966400,0.54796630859375,0.008713063783943653,-0.07490300387144089,0.06307164579629898
1761505417495002600,0.558002685546875,-0.01721999980509281,-0.04047898203134537,0.057244911789894104
1761505417505039600,0.56803955078125,-0.039082154631614685,0.012741095386445522,0.028613802045583725
1761505417515075600,0.57807568359375,-0.04465188831090927,0.06059224158525467,-0.015083611942827702
1761505417525112600,0.588112548828125,-0.040889643132686615,0.08610053360462189,-0.052509814500808716
1761505417535148500,0.5981484375,-0.03617318347096443,0.07564149796962738,-0.07467636466026306
1761505417545185500,0.608185546875,-0.02557593397796154,0.043769583106040955,-0.05910193547606468
1761505417555221500,0.618221435546875,-0.018340125679969788,0.012960805557668209,-0.015305186621844769
1761505417565258800,0.6282587890625,-0.007466438226401806,-0.016679910942912102,0.033597640693187714
1761505417575294700,0.638294677734375,0.003983556292951107,-0.036797963082790375,0.06699607521295547
1761505417585331700,0.648331787109375,0.009671801701188087,-0.029380792751908302,0.07762341946363449
1761505417595367700,0.65836767578125,0.011845740489661694,-0.003768639173358679,0.07444707304239273
1761505417605404700,0.66840478515625,-0.000006391586794052273,0.03382720425724983,0.07107071578502655
1761505417615440600,0.678440673828125,-0.014615161344408989,0.05541851744055748,0.05223044753074646
1761505417625476600,0.6884765625,-0.03470950946211815,0.06204259768128395,0.01841709017753601
1761505417635513600,0.698513671875,-0.04434456303715706,0.054604921489953995,-0.02153698354959488
1761505417645549600,0.708549560546875,-0.04634512960910797,0.050392866134643555,-0.03593349829316139
1761505417655586800,0.7185869140625,-0.04422977939248085,0.026219885796308517,-0.024949558079242706
1761505417665622800,0.728622802734375,-0.04386306181550026,-0.013013536110520363,-0.002810700098052621
1761505417675659800,0.73865966796875,-0.04398103803396225,-0.057314157485961914,0.014225008897483349
1761505417685695700,0.74869580078125,-0.0444023534655571,-0.09005185961723328,0.022728215903043747
1761505417695732500,0.758732421875,-0.03911677747964859,-0.08420275896787643,0.0292364489287138
1761505417705768700,0.768768798828125,-0.028135763481259346,-0.022400381043553352,0.04073304682970047
1761505417715805400,0.778805419921875,-0.023912522941827774,0.03612338379025459,0.03959667682647705
1761505417725841400,0.78884130859375,-0.020832844078540802,0.08009830117225647,0.026014557108283043
1761505417735878700,0.798878662109375,-0.013710219413042068,0.09675610065460205,0.006947921123355627
1761505417745914600,0.80891455078125,-0.0038714371621608734,0.08861961215734482,-0.012293151579797268
1761505417755951600,0.81895166015625,0.004421379882842302,0.0636839047074318,-0.016765663400292397
1761505417765987600,0.828987548828125,0.0027896612882614136,0.03302586078643799,-0.009350624866783619
1761505417776024600,0.839024658203125,0.002758235903456807,0.0014506238512694836,0.0070395334623754025
1761505417786060500,0.849060546875,0.0010913633741438389,-0.032278843224048615,0.02395167201757431
1761505417796097500,0.85909765625,-0.01260980125516653,-0.06885789334774017,0.03398193418979645
1761505417806133800,0.8691337890625,-0.02106347307562828,-0.0837649405002594,0.036499422043561935
1761505417816169700,0.879169677734375,-0.025125326588749886,-0.0697668269276619,0.03512469679117203
1761505417826206700,0.889206787109375,-0.01678936555981636,-0.027044933289289474,0.023417973890900612
1761505417836242700,0.89924267578125,-0.007069360930472612,-0.0032431974541395903,-0.0006261091912165284
1761505417846279700,0.90927978515625,0.0018016285030171275,0.019841348752379417,-0.019097527489066124
1761505417856315600,0.919315673828125,0.007807855494320393,0.03405756875872612,-0.023418240249156952
1761505417866352600,0.9293525390625,0.012982111424207687,0.022535135969519615,-0.02129889652132988
1761505417876388600,0.939388671875,0.015926769003272057,0.010231331922113895,-0.010728278197348118
1761505417886425900,0.94942578125,0.01738458313047886,-0.002802977105602622,-0.00467651104554534
1761505417896461800,0.9594619140625,0.016560867428779602,-0.015949672088027,-0.00944836251437664
1761505417906498600,0.96949853515625,0.019941484555602074,-0.027473170310258865,-0.018546786159276962
1761505417916534800,0.97953466796875,0.01913587749004364,-0.02883271314203739,-0.016396550461649895
1761505417926571500,0.989571533203125,0.019651997834444046,-0.022523418068885803,-0.009248891845345497
1761505417936607500,0.999607421875,0.019752399995923042,0.003662645351141691,0.01565565913915634
1761505417946644500,1.00964453125,0.006464823614805937,0.011216435581445694,0.036499153822660446
1761505417956680400,1.019680419921875,-0.002555303042754531,0.004734567832201719,0.051124170422554016
1761505417966717700,1.0297177734375,0.0007278419216163456,0.022834476083517075,0.060076918452978134
1761505417976753700,1.039753662109375,0.009884055703878403,0.03177124634385109,0.06771673262119293
1761505417986789600,1.04978955078125,0.012950153090059757,0.0470692403614521,0.0730675533413887
1761505417996826600,1.05982666015625,0.01327026542276144,0.04649985581636429,0.07526972144842148
1761505418006862600,1.069862548828125,0.018872490152716637,0.030831415206193924,0.07025925070047379
1761505418016899600,1.079899658203125,0.03429964929819107,0.025795910507440567,0.04334267973899841
1761505418026935600,1.089935546875,0.04162227734923363,0.011990083381533623,0.01660267822444439
1761505418036972500,1.09997265625,0.045589856803417206,0.018134795129299164,-0.003948136232793331
1761505418047008500,1.110008544921875,0.036061063408851624,0.02696530520915985,-0.01780189946293831
1761505418057045800,1.120045654296875,0.025595374405384064,0.02827611193060875,-0.014694257639348507
1761505418067081700,1.130081787109375,0.016530239954590797,0.034571826457977295,0.0009323726990260184
1761505418077118700,1.14011865234375,0.015225025825202465,0.021038172766566277,0.02160223014652729
1761505418087154700,1.15015478515625,0.01576671190559864,-0.01392939779907465,0.02845188044011593
1761505418097191700,1.160191650390625,0.01865570992231369,-0.04905462637543678,0.031091073527932167
1761505418107227600,1.1702275390625,0.019299129024147987,-0.040941573679447174,0.020781178027391434
1761505418117264600,1.1802646484375,0.022638998925685883,-0.005563343409448862,0.00045673211570829153
1761505418127300900,1.19030078125,0.023812122642993927,0.040469929575920105,-0.03485491871833801
1761505418137336800,1.2003369140625,0.02022590860724449,0.07855340093374252,-0.05775544047355652
1761505418147373600,1.21037353515625,0.02321663871407509,0.07105633616447449,-0.061950720846652985
1761505418157409800,1.220409912109375,0.03110119327902794,0.04464763030409813,-0.038905322551727295
1761505418167446500,1.230446533203125,0.04314720258116722,0.018511632457375526,0.011265171691775322
1761505418177482500,1.240482421875,0.04602688178420067,-0.006682403851300478,0.0530533641576767
1761505418187519500,1.25051953125,0.0402480885386467,-0.016096943989396095,0.07885060459375381
1761505418197555500,1.260555419921875,0.029561620205640793,-0.02292022854089737,0.07580048590898514
1761505418207592700,1.2705927734375,0.026268888264894485,-0.01465644035488367,0.0468766950070858
1761505418217628700,1.280628662109375,0.017475396394729614,0.0006399576086550951,0.01563568413257599
1761505418227665700,1.290665771484375,0.01792334020137787,-0.0015331818722188473,-0.020071180537343025
1761505418237701600,1.30070166015625,0.025305090472102165,0.002508697798475623,-0.029208218678832054
1761505418247738600,1.310738525390625,0.026571955531835556,-0.01979740709066391,-0.018572086468338966
1761505418257774600,1.320774658203125,0.02804148755967617,-0.03442109003663063,0.011510981246829033
1761505418267811600,1.3308115234375,0.032996565103530884,-0.05759138986468315,0.03429112955927849
1761505418277847600,1.34084765625,0.03840278089046478,-0.064919613301754,0.03795590251684189
1761505418287884800,1.350884765625,0.04025554284453392,-0.05859513580799103,0.036725789308547974
1761505418297920800,1.360920654296875,0.04279913008213043,-0.038649123162031174,0.03081117570400238
1761505418307956700,1.370956787109375,0.04319727048277855,-0.016334231942892075,0.030582409352064133
1761505418317993700,1.38099365234375,0.037694647908210754,-0.001463939668610692,0.038112763315439224
1761505418328029700,1.39102978515625,0.0243183895945549,-0.004782504867762327,0.03834366053342819
1761505418338066700,1.401066650390625,0.024231037124991417,-0.0048826392740011215,0.03569700941443443
1761505418348102700,1.4111025390625,0.02414075657725334,-0.0012415656819939613,0.020129503682255745
1761505418358139400,1.421139404296875,0.017644774168729782,-0.017071926966309547,0.0031158984638750553
1761505418368175900,1.43117578125,0.017652496695518494,-0.03262398764491081,0.0003424825263209641
1761505418378212600,1.441212646484375,0.027029752731323242,-0.055622514337301254,0.006928746122866869
1761505418388248600,1.45124853515625,0.02570056915283203,-0.07799466699361801,0.007317834068089724
1761505418398285600,1.46128564453125,0.02110954560339451,-0.0845194086432457,0.002275404753163457
1761505418408321500,1.471321533203125,0.014986139722168446,-0.06757238507270813,-0.021702099591493607
1761505418418358500,1.481358642578125,0.006898385938256979,-0.042142659425735474,-0.05402808263897896
1761505418428394500,1.49139453125,-0.005606486462056637,-0.0024495755787938833,-0.06642057001590729
1761505418438430500,1.501430419921875,-0.014984807930886745,0.02275165170431137,-0.051241882145404816
1761505418448467500,1.511467529296875,-0.016209064051508904,0.02562573552131653,-0.01744077540934086
1761505418458503400,1.52150341796875,-0.002770752878859639,0.01266679260879755,0.022610770538449287
1761505418468540400,1.53154052734375,0.014436730183660984,-0.0009464874165132642,0.0410451702773571
1761505418478576400,1.541576416015625,0.024116521701216698,-0.009861951693892479,0.040046218782663345
1761505418488613600,1.551613525390625,0.02604757994413376,-0.018691129982471466,0.03734390810132027
1761505418498649600,1.561649658203125,0.01961684413254261,-0.013191169127821922,0.035411521792411804
1761505418508686600,1.5716865234375,0.010490191169083118,-0.003350256709381938,0.029111012816429138
1761505418518722600,1.58172265625,0.004209924954921007,0.0032959282398223877,0.02111434005200863
1761505418528759600,1.591759521484375,-0.0001179780374513939,0.00965795386582613,0.01925119198858738
1761505418538795500,1.60179541015625,-0.014941398985683918,0.01209687627851963,0.027831897139549255
1761505418548832500,1.61183251953125,-0.02593998797237873,0.01555206160992384,0.03676893189549446
1761505418558868500,1.621868408203125,-0.02346271462738514,0.019992349669337273,0.038961779326200485
1761505418568904400,1.631904541015625,-0.01287585124373436,0.014693192206323147,0.02919037640094757
1761505418578941700,1.641941650390625,-0.003840810852125287,0.005862150341272354,0.014643125236034393
1761505418588977700,1.651977783203125,0.004734834190458059,0.003364904085174203,-0.0025800704024732113
1761505418599014400,1.662014404296875,0.01769803650677204,-0.006911968346685171,-0.022589998319745064
1761505418609050600,1.672050537109375,0.024027038365602493,-0.020127372816205025,-0.03654096648097038
1761505418619087400,1.68208740234375,0.016410665586590767,-0.03686214238405228,-0.03899027779698372
1761505418629123300,1.692123291015625,0.008917328901588917,-0.0288191307336092,-0.023444605991244316
1761505418639160300,1.702160400390625,-0.0041585261933505535,-0.02317163161933422,0.00031638352083973587
1761505418649196500,1.712196533203125,-0.008096009492874146,-0.0021552962716668844,0.03260401636362076
1761505418659233500,1.722233642578125,0.00011478224041638896,0.019302325323224068,0.05705875903367996
1761505418669269500,1.73226953125,0.006877347361296415,0.029633259400725365,0.06576436758041382
1761505418679305500,1.742305419921875,0.018132930621504784,0.02967160940170288,0.055992163717746735
1761505418689342500,1.752342529296875,0.02044854871928692,0.011529889889061451,0.027769844979047775
1761505418699378400,1.76237841796875,0.020604610443115234,-0.012026568874716759,-0.005692773032933474
1761505418709415400,1.77241552734375,0.01641678996384144,-0.04345426708459854,-0.024653946980834007
1761505418719451400,1.782451416015625,0.01768418774008751,-0.04760080948472023,-0.013008742593228817
1761505418729488600,1.792488525390625,0.028007665649056435,-0.03196805343031883,0.009865946136415005
1761505418739524600,1.802524658203125,0.03600620478391647,-0.014443653635680676,0.03230760619044304
1761505418749561600,1.8125615234375,0.046189334243535995,-0.008446748368442059,0.053226735442876816
1761505418759597600,1.82259765625,0.05054226890206337,-0.011748269200325012,0.0739932656288147
1761505418769634600,1.832634521484375,0.05356975272297859,-0.026086460798978806,0.09164176881313324
1761505418779670500,1.84267041015625,0.04494404047727585,-0.04758163541555405,0.09037623554468155
1761505418789706500,1.85270654296875,0.031561121344566345,-0.05692746490240097,0.07381270825862885
1761505418799743500,1.862743408203125,0.02534104324877262,-0.04680052772164345,0.03339071199297905
1761505418809779500,1.872779541015625,0.01924879476428032,-0.024109330028295517,-0.010177269577980042
1761505418819816700,1.882816650390625,0.015473764389753342,-0.004973985720425844,-0.038178808987140656
1761505418829852700,1.892852783203125,0.011991681531071663,0.01919659785926342,-0.04416825994849205
1761505418839889400,1.902889404296875,0.01209874078631401,0.032948363572359085,-0.034322287887334824
1761505418849925600,1.912925537109375,0.00381417921744287,0.024588700383901596,-0.008220112882554531
1761505418859962400,1.92296240234375,0.005124454386532307,-0.0019867182709276676,0.016634371131658554
1761505418869998300,1.932998291015625,0.00520727876573801,-0.03669063746929169,0.04531608149409294
1761505418880034600,1.94303466796875,0.001413339632563293,-0.04845461621880531,0.08046554774045944
1761505418890071300,1.9530712890625,-0.008812399581074715,-0.04598986357450485,0.10337965190410614
1761505418900107500,1.963107421875,-0.018796591088175774,-0.036852557212114334,0.1062886193394661
1761505418910144500,1.97314453125,-0.024401480332016945,-0.01859232597053051,0.09257067739963531
1761505418920180500,1.983180419921875,-0.020421119406819344,0.01281433179974556,0.05602278932929039
1761505418930217500,1.993217529296875,-0.01565592549741268,0.03295421972870827,0.01631559059023857
1761505418940253400,2.00325341796875,-0.005946306046098471,0.03988403454422951,-0.009542105719447136
1761505418950290400,2.01329052734375,-0.0030719563364982605,0.03621472790837288,-0.01489079836755991
1761505418960326400,2.023326416015625,-0.007104248274117708,0.03003193438053131,-0.0070770843885838985
1761505418970362400,2.0333623046875,-0.016078568994998932,0.006216084118932486,0.0011121360585093498
1761505418980399600,2.043399658203125,-0.021447768434882164,-0.01582237333059311,0.022896261885762215
1761505418990435600,2.053435546875,-0.026088591665029526,-0.029679864645004272,0.04302576556801796
1761505419000472600,2.06347265625,-0.023871244862675667,-0.042441997677087784,0.046723295003175735
1761505419010508500,2.073508544921875,-0.01835104450583458,-0.03213956207036972,0.032765936106443405
1761505419020545500,2.083545654296875,-0.00675377668812871,-0.011546934023499489,0.013609285466372967
1761505419030581500,2.09358154296875,-0.0073428675532341,0.006998254451900721,-0.008407599292695522
1761505419040618500,2.103618408203125,-0.0044176517985761166,0.010936270467936993,-0.029631661251187325
1761505419050654500,2.113654541015625,-0.003497795667499304,0.008868859149515629,-0.03500565513968468
1761505419060690400,2.1236904296875,0.003040530951693654,0.004008590243756771,-0.025907497853040695
1761505419070727700,2.133727783203125,0.01637577824294567,-0.0026873957831412554,-0.013560550287365913
1761505419080763600,2.143763671875,0.026611637324094772,-0.009367402642965317,0.011640677228569984
1761505419090800600,2.153800537109375,0.043413519859313965,-0.016456738114356995,0.041485127061605453
1761505419100836600,2.163836669921875,0.045347508043050766,-0.04243028163909912,0.06285406649112701
1761505419110873300,2.173873291015625,0.04388809576630592,-0.0531415157020092,0.0685335174202919
1761505419120909600,2.18390966796875,0.03905632346868515,-0.028057733550667763,0.04933026432991028
1761505419130946300,2.1939462890625,0.029703300446271896,0.008793225511908531,0.012840164825320244
1761505419140982300,2.203982177734375,0.018157698214054108,0.051186222583055496,-0.021079719066619873
1761505419151018500,2.2140185546875,0.006933007389307022,0.06030009314417839,-0.039621710777282715
1761505419161055500,2.224055419921875,0.001517202821560204,0.05503768473863602,-0.03289483115077019
1761505419171091500,2.234091552734375,0.008006260730326176,0.05109114572405815,-0.01593955233693123
1761505419181128400,2.24412841796875,0.020962273702025414,0.034447722136974335,-0.0037827540654689074
1761505419191164400,2.254164306640625,0.03476011008024216,0.006494384724646807,0.007662447169423103
1761505419201201400,2.264201416015625,0.04121321812272072,-0.024284567683935165,0.02064748853445053
1761505419211237400,2.2742373046875,0.03843687102198601,-0.056531187146902084,0.02744653820991516
1761505419221273300,2.2842734375,0.03530019894242287,-0.07828042656183243,0.02882126159965992
1761505419231310600,2.294310546875,0.032411471009254456,-0.07116126269102097,0.030280141159892082
1761505419241346600,2.3043466796875,0.02148611657321453,-0.045272406190633774,0.021523667499423027
1761505419251383600,2.314383544921875,0.013401026837527752,0.0036506610922515392,0.004270112607628107
1761505419261419500,2.32441943359375,0.004515389446169138,0.049187254160642624,-0.02472079172730446
1761505419271456500,2.33445654296875,-0.0010229201288893819,0.06078026071190834,-0.0450604185461998
1761505419281492500,2.344492431640625,0.000147272803587839,0.05432209372520447,-0.049123868346214294
1761505419291529500,2.354529541015625,0.006463758181780577,0.03235900402069092,-0.026639599353075027
1761505419301565400,2.3645654296875,0.004742823541164398,0.006171077024191618,0.0059782639145851135
1761505419311601400,2.374601318359375,-0.008283229544758797,-0.02750406228005886,0.03178749233484268
1761505419321638700,2.384638671875,-0.020086092874407768,-0.03735030069947243,0.04966262727975845
1761505419331674600,2.394674560546875,-0.026514697819948196,-0.028986643999814987,0.04664073884487152
1761505419341711600,2.404711669921875,-0.03150732442736626,-0.006405701395124197,0.022336730733513832
1761505419351747600,2.41474755859375,-0.030073747038841248,0.010655839927494526,-0.00920468382537365
1761505419361784600,2.42478466796875,-0.02954777143895626,0.016618924215435982,-0.02798502892255783
1761505419371820500,2.434820556640625,-0.021166272461414337,0.003397927153855562,-0.027227360755205154
1761505419381856500,2.4448564453125,-0.014702512882649899,-0.016210928559303284,-0.017308149486780167
1761505419391893500,2.4548935546875,-0.003817907767370343,-0.014109160751104355,-0.01501357089728117
1761505419401929700,2.4649296875,0.007211307529360056,-0.003320429241284728,-0.02034495212137699
1761505419411966700,2.474966796875,0.017186177894473076,0.009350092150270939,-0.014452176168560982
1761505419422002700,2.485002685546875,0.024212129414081573,0.018751317635178566,0.0021052288357168436
1761505419432039700,2.495039794921875,0.02502998523414135,0.011783954687416553,0.027120834216475487
1761505419442075600,2.50507568359375,0.017828265205025673,0.00481313094496727,0.05552983656525612
1761505419452112000,2.51511181640625,0.0013915016315877438,-0.005318066570907831,0.05757328122854233
1761505419462148900,2.52514892578125,-0.013438044115900993,-0.007509848102927208,0.03437421843409538
1761505419472184800,2.535184814453125,-0.024204937741160393,-0.00410552928224206,-0.001437308033928275
1761505419482221800,2.545221923828125,-0.027832696214318275,0.0065740132704377174,-0.02033190242946148
1761505419492257800,2.5552578125,-0.024461932480335236,0.018213890492916107,-0.013625796884298325
1761505419502294800,2.565294677734375,-0.018143050372600555,0.009140768088400364,0.004356931429356337
1761505419512330800,2.575330810546875,-0.005927930120378733,-0.00894103106111288,0.024710139259696007
1761505419522366700,2.58536669921875,0.011205516755580902,-0.02924470417201519,0.02792457491159439
1761505419532404000,2.595404052734375,0.016772055998444557,-0.04372857138514519,0.021805696189403534
1761505419542440000,2.60543994140625,0.009060872718691826,-0.0661875456571579,0.012094213627278805
1761505419552477000,2.615476806640625,0.005105546209961176,-0.04897952824831009,0.012268916703760624
1761505419562513000,2.625512939453125,0.0016463662032037973,-0.002785133896395564,0.011127752251923084
1761505419572550000,2.6355498046875,-0.0016082830261439085,0.037041906267404556,0.0041007352992892265
1761505419582585900,2.6455859375,-0.0065050371922552586,0.046185605227947235,-0.014887869358062744
1761505419592621800,2.655621826171875,-0.008430768735706806,0.033483657985925674,-0.03217471390962601
1761505419602658800,2.665658935546875,-0.009492837823927402,0.025767149403691292,-0.03681580349802971
1761505419612694800,2.67569482421875,-0.011844408698379993,0.00893890019506216,-0.04095755144953728
1761505419622732000,2.68573193359375,-0.014507570303976536,-0.010794857516884804,-0.03490179032087326
1761505419632768000,2.69576806640625,-0.02112605795264244,-0.011608452536165714,-0.02911767177283764
1761505419642804000,2.705803955078125,-0.025596439838409424,-0.008451808243989944,-0.021939387544989586
1761505419652841000,2.715841064453125,-0.026882480829954147,-0.0073655047453939915,-0.01423725951462984
1761505419662877000,2.725876953125,-0.022289592772722244,-0.01016901433467865,-0.0023217438720166683
1761505419672913700,2.73591357421875,-0.01449691690504551,-0.009798835031688213,0.006620884872972965
1761505419682950000,2.745949951171875,-0.004340952727943659,-0.004512193612754345,0.008132761344313622
1761505419692986600,2.755986572265625,0.003011236200109124,-0.003162503708153963,0.0062610916793346405
1761505419703022800,2.76602294921875,0.008951417170464993,-0.006253635045140982,0.008402539417147636
1761505419713059000,2.77605908203125,0.0012727247085422277,0.0022186795249581337,0.014215420931577682
1761505419723095800,2.786095703125,-0.008444351144134998,0.0041550640016794205,0.006856574676930904
1761505419733131800,2.7961318359375,-0.016807209700345993,-0.0064834654331207275,-0.011887019500136375
1761505419743168800,2.806168701171875,-0.017605625092983246,-0.022839002311229706,-0.04108911380171776
1761505419753204700,2.816204833984375,-0.016160594299435616,-0.058098990470170975,-0.06438431888818741
1761505419763240700,2.82624072265625,-0.013323262333869934,-0.10097800940275192,-0.07296794652938843
1761505419773277700,2.836277587890625,-0.010028399527072906,-0.13458764553070068,-0.07426571100950241
1761505419783313700,2.846313720703125,-0.00036192359402775764,-0.13966389000415802,-0.05688592046499252
1761505419793351000,2.856350830078125,0.0011408982099965215,-0.09670523554086685,-0.04162174463272095
1761505419803387000,2.866386962890625,-0.0070701600052416325,-0.05066024884581566,-0.030376547947525978
1761505419813423900,2.876423828125,-0.01582876406610012,-0.003512975759804249,-0.02552213706076145
1761505419823459800,2.8864599609375,-0.013627927750349045,0.03482748940587044,-0.02009115368127823
1761505419833495800,2.896495849609375,-0.009620669297873974,0.05218437314033508,-0.00714712543413043
1761505419843532800,2.90653271484375,-0.013292103074491024,0.055986836552619934,0.010435330681502819
1761505419853568800,2.91656884765625,-0.018630675971508026,0.041843052953481674,0.032216258347034454
1761505419863605800,2.926605712890625,-0.027362914755940437,0.025129854679107666,0.04579411819577217
1761505419873641700,2.936641845703125,-0.03305462375283241,0.019465044140815735,0.04718295857310295
1761505419883678000,2.946677978515625,-0.03718039020895958,0.026163959875702858,0.02629338949918747
1761505419893715000,2.95671484375,-0.044430047273635864,0.034143321216106415,-0.0032503881957381964
1761505419903751000,2.9667509765625,-0.03663630783557892,0.03576252609491348,-0.02263473905622959
1761505419913788000,2.976787841796875,-0.027149595320224762,0.03929760307073593,-0.03351481631398201
1761505419923823900,2.986823974609375,-0.013646836392581463,0.03845284879207611,-0.03352786600589752
1761505419933859800,2.99685986328125,-0.0038280277512967587,0.024927720427513123,-0.024772457778453827
1761505419943896800,3.006896728515625,0.003251187037676573,0.006009423173964024,-0.01284815464168787
1761505419953932800,3.016932861328125,0.015019429847598076,-0.01227397657930851,0.0017036241479218006
1761505419963970000,3.026969970703125,0.0323326401412487,-0.030109699815511703,0.010945059359073639
1761505419974006000,3.037006103515625,0.04802025482058525,-0.04133598878979683,0.005889314226806164
1761505419984043000,3.04704296875,0.06143246963620186,-0.04842931777238846,-0.0004415521107148379
1761505419994079000,3.057078857421875,0.07223078608512878,-0.03756974637508392,-0.014065219089388847
1761505420004115000,3.067114990234375,0.0688733384013176,-0.021648570895195007,-0.017288709059357643
1761505420014152000,3.07715185546875,0.05120353400707245,-0.02123684622347355,-0.006611830089241266
1761505420024188000,3.08718798828125,0.033545177429914474,0.0011608719360083342,0.01655740477144718
1761505420034224600,3.097224609375,0.017641577869653702,0.04151921346783638,0.04181855171918869
1761505420044260900,3.1072607421875,0.0054453653283417225,0.06088172644376755,0.047204531729221344
1761505420054296800,3.117296875,0.00024714134633541107,0.05820231884717941,0.04524923861026764
1761505420064333800,3.127333740234375,-0.0016197345685213804,0.034219224005937576,0.02985057421028614
1761505420074369800,3.137369873046875,-0.0009123989730142057,0.0026405241806060076,0.004822452086955309
1761505420084406800,3.14740673828125,0.002160090021789074,-0.04362763836979866,-0.03471643477678299
1761505420094442800,3.15744287109375,0.009414806962013245,-0.07962052524089813,-0.07114075869321823
1761505420104478700,3.167478759765625,0.013375193811953068,-0.08803771436214447,-0.08242829889059067
1761505420114515700,3.177515625,0.002615756820887327,-0.08514392375946045,-0.06909411400556564
1761505420124551700,3.1875517578125,-0.019457321614027023,-0.056777529418468475,-0.05476231500506401
1761505420134589000,3.1975888671875,-0.023298397660255432,-0.0035305526107549667,-0.044687043875455856
1761505420144625000,3.207625,-0.016511864960193634,0.038899995386600494,-0.049794189631938934
1761505420154660900,3.217660888671875,0.001493500778451562,0.05215161666274071,-0.04180443659424782
1761505420164697900,3.22769775390625,0.018264757469296455,0.03544667363166809,-0.020894629880785942
1761505420174733800,3.23773388671875,0.036310337483882904,-0.000032490566809428856,-0.0022626216523349285
1761505420184770800,3.247770751953125,0.042635612189769745,-0.034634944051504135,0.007483482826501131
1761505420194806800,3.257806884765625,0.04193892702460289,-0.046968840062618256,0.011469968594610691
1761505420204842800,3.2678427734375,0.03375157341361046,-0.03693138435482979,0.0182261411100626
1761505420214879700,3.277879638671875,0.02340039797127247,-0.013909956440329552,0.023924507200717926
1761505420224915700,3.287915771484375,0.018684204667806625,0.0019169433508068323,0.020423516631126404
1761505420234953000,3.297952880859375,0.022779880091547966,0.015082013793289661,0.003516171593219042
1761505420244989000,3.307989013671875,0.03045590966939926,0.03533695265650749,-0.011020160280168056
1761505420255025000,3.31802490234375,0.03208363428711891,0.04819229617714882,-0.006856041960418224
1761505420265062000,3.328061767578125,0.022159896790981293,0.045761097222566605,0.02172287181019783
1761505420275097900,3.338097900390625,0.017075922340154648,0.024413730949163437,0.05360224097967148
1761505420285134800,3.348134765625,0.00830639898777008,0.006321545224636793,0.07185714691877365
1761505420295170800,3.3581708984375,-0.0002516687090974301,0.0015363775892183185,0.06030541658401489
1761505420305206800,3.368206787109375,0.004620318301022053,0.012031362392008305,0.029402896761894226
1761505420315244000,3.378244140625,0.006617955397814512,0.032398421317338943,-0.014362693764269352
1761505420325280000,3.388280029296875,0.007449660450220108,0.036438435316085815,-0.046673763543367386
1761505420335317000,3.39831689453125,0.008716260083019733,0.016927851364016533,-0.05509867146611214
1761505420345353000,3.40835302734375,-0.0003150519623886794,-0.021922076120972633,-0.03923555463552475
1761505420355389000,3.418388916015625,-0.005511944647878408,-0.042336538434028625,0.00030786142451688647
1761505420365426000,3.428426025390625,0.00023915186466183513,-0.0417059026658535,0.025723738595843315
1761505420375462000,3.4384619140625,0.004436826333403587,-0.025851303711533546,0.03158429265022278
1761505420385499000,3.448498779296875,0.0049460227601230145,-0.0025662221014499664,0.020952420309185982
1761505420395534800,3.458534912109375,-0.007678425870835781,0.01464845146983862,0.0038980687968432903
1761505420405571000,3.468571044921875,-0.027096332982182503,0.015564312227070332,-0.005590507760643959
1761505420415607800,3.47860791015625,-0.04746312275528908,0.004087419714778662,-0.0054818508215248585
1761505420425644000,3.48864404296875,-0.05585554242134094,-0.016101205721497536,-0.008537561632692814
1761505420435680000,3.498679931640625,-0.05655355751514435,-0.016138756647706032,-0.009225456044077873
1761505420445716700,3.508716796875,-0.04719813913106918,-0.0011046791914850473,-0.028195418417453766
1761505420455753000,3.5187529296875,-0.03852076083421707,0.00022264027211349458,-0.04658135026693344
1761505420465790000,3.5287900390625,-0.03166418522596359,0.0018322548130527139,-0.04542553797364235
1761505420475826000,3.538825927734375,-0.03236246854066849,-0.004450408276170492,-0.03713991120457649
1761505420485862100,3.548862060546875,-0.032286833971738815,-0.02376844547688961,-0.021142836660146713
1761505420495899000,3.55889892578125,-0.030345655977725983,-0.022883744910359383,-0.001936917076818645
1761505420505934800,3.568934814453125,-0.024540763348340988,-0.021497834473848343,0.007818241603672504
1761505420515971800,3.578971923828125,-0.01733637973666191,-0.022167619317770004,0.009398295544087887
1761505420526007800,3.5890078125,-0.011611382476985455,-0.023494407534599304,0.005161738954484463
1761505420536043800,3.599043701171875,-0.005486377980560064,-0.025498967617750168,-0.001076982356607914
1761505420546081000,3.6090810546875,-0.0015566176734864712,-0.015083878301084042,-0.016391756013035774
1761505420556117000,3.619116943359375,0.007291202433407307,0.003400590270757675,-0.031070567667484283
1761505420566154000,3.629154052734375,0.010134126991033554,0.006695453077554703,-0.03833194077014923
1761505420576190000,3.63918994140625,0.008668056689202785,0.016879914328455925,-0.021026987582445145
1761505420586226000,3.649225830078125,0.0012777847005054355,0.02768702059984207,0.009755425155162811
1761505420596263000,3.659262939453125,-0.003430417738854885,0.02563904970884323,0.04013889655470848
1761505420606299000,3.669298828125,0.0039278962649405,0.012975187040865421,0.05447202920913696
1761505420616334800,3.6793349609375,0.013411146588623524,-0.011531220749020576,0.04952947050333023
1761505420626371800,3.689371826171875,0.025499233976006508,-0.03981905058026314,0.03154993802309036
1761505420636407800,3.69940771484375,0.031565114855766296,-0.06405701488256454,0.00875141378492117
1761505420646445000,3.709445068359375,0.028262797743082047,-0.0759003534913063,-0.0030634342692792416
1761505420656481000,3.71948095703125,0.018602978438138962,-0.05384858325123787,-0.002159290947020054
1761505420666517000,3.72951708984375,-0.002025067573413253,-0.024044349789619446,-0.0022711437195539474
1761505420676554000,3.739553955078125,-0.011660916730761528,0.01684822142124176,0.000258859246969223
1761505420686590000,3.74958984375,-0.0048951562494039536,0.05535539984703064,-0.007148989476263523
1761505420696626000,3.7596259765625,-0.0009853695519268513,0.0619930624961853,-0.009760751388967037
1761505420706663000,3.769662841796875,0.004985171370208263,0.055209193378686905,-0.0014980280539020896
1761505420716699000,3.779698974609375,0.009998572058975697,0.028078505769371986,0.01762213744223118
1761505420726736100,3.789736083984375,0.01612117886543274,-0.007177751511335373,0.030826888978481293
1761505420736772000,3.799772216796875,0.013324594125151634,-0.023841150104999542,0.04177035018801689
1761505420746808000,3.80980810546875,-0.004172374494373798,-0.02605077438056469,0.03844299539923668
1761505420756845000,3.819844970703125,-0.02112073078751564,0.003582217963412404,0.011610050685703754
1761505420766881000,3.829881103515625,-0.031630098819732666,0.05312580242753029,-0.024226775392889977
1761505420776918000,3.83991796875,-0.03346581384539604,0.08226823806762695,-0.053230997174978256
1761505420786954000,3.8499541015625,-0.0395900197327137,0.07982505857944489,-0.05445365607738495
1761505420796990000,3.859989990234375,-0.03683444857597351,0.04662715643644333,-0.027484621852636337
1761505420807027000,3.87002685546875,-0.02557406947016716,0.00669492082670331,0.019343337044119835
1761505420817063000,3.88006298828125,-0.024629179388284683,-0.023189209401607513,0.05856610834598541
1761505420827099100,3.89009912109375,-0.01950046420097351,-0.041966360062360764,0.07276155799627304
1761505420837136100,3.90013623046875,-0.0073479278944432735,-0.03536598011851311,0.059416987001895905
1761505420847172000,3.910172119140625,0.003858387703076005,-0.0032000544015318155,0.016445020213723183
1761505420857209000,3.920208984375,0.011234012432396412,0.040333040058612823,-0.0416363924741745
1761505420867245000,3.9302451171875,0.014003433287143707,0.0611584298312664,-0.08027859032154083
1761505420877281000,3.940281005859375,0.002686863299459219,0.044760812073946,-0.07650382816791534
1761505420887318000,3.950318115234375,-0.008232896216213703,0.003156378399580717,-0.0484548844397068
1761505420897354000,3.96035400390625,-0.011623633094131947,-0.016111325472593307,-0.02532559633255005
1761505420907390000,3.970389892578125,-0.015358183532953262,-0.0070730894804000854,-0.013859090395271778
1761505420917427000,3.980427001953125,-0.019946277141571045,0.0183531753718853,-0.01696593314409256
1761505420927463200,3.990463134765625,-0.026708310469985008,0.0377335287630558,-0.01130937971174717
1761505420937500000,4.0005,-0.03117922507226467,0.040531713515520096,0.016578443348407745
1761505420947534000,4.0105341796875,-0.03570473566651344,0.02498018369078636,0.0526387095451355
1761505420957571000,4.020571044921875,-0.04144997149705887,0.0024895230308175087,0.06697344034910202
1761505420967607000,4.03060693359375,-0.03189587965607643,-0.0005307680112309754,0.06036826968193054
1761505420977643000,4.04064306640625,-0.017224259674549103,0.023928236216306686,0.03471323847770691
1761505420987680000,4.050679931640625,-0.006539924535900354,0.04362843558192253,0.002947586588561535
1761505420997716000,4.060716064453125,-0.010894193314015865,0.04379168897867203,-0.003969175275415182
1761505421007753000,4.0707529296875,-0.02611335925757885,0.038238465785980225,0.012824452482163906
1761505421017789000,4.080788818359375,-0.03819505497813225,0.010911237448453903,0.02604864537715912
1761505421027825000,4.090824951171875,-0.04850655049085617,-0.00923504400998354,0.04075994715094566
1761505421037862100,4.100862060546875,-0.05060884729027748,-0.02100568264722824,0.04044462740421295
1761505421047898000,4.110898193359375,-0.04970204085111618,-0.03730582818388939,0.03470445051789284
1761505421057934000,4.12093408203125,-0.04788150638341904,-0.042932022362947464,0.017737451940774918
1761505421067971000,4.13097119140625,-0.036319389939308167,-0.01173415407538414,-0.002953445538878441
1761505421078007000,4.141007080078125,-0.027426032349467278,0.011892612092196941,-0.02233033999800682
1761505421088043000,4.15104296875,-0.022820094600319862,0.03496411070227623,-0.016828780993819237
1761505421098080000,4.161080078125,-0.026818564161658287,0.038105309009552,-0.0027662254869937897
1761505421108116000,4.171115966796875,-0.02231995202600956,0.030184799805283546,0.0217758696526289
1761505421118153000,4.181153076171875,-0.015185077674686909,0.010668623261153698,0.03882356360554695
1761505421128189000,4.19118896484375,-0.008582568727433681,0.0023904533591121435,0.049316417425870895
1761505421138225200,4.20122509765625,-0.0033902039285749197,-0.012552809901535511,0.045650042593479156
1761505421148262100,4.21126220703125,0.001213602488860488,-0.023255521431565285,0.03068920224905014
1761505421158298000,4.221298095703125,-0.0007890945998951793,-0.020597154274582863,0.016174443066120148
1761505421168334000,4.231333984375,-0.008208128623664379,-0.034882884472608566,0.006130064371973276
1761505421178371000,4.24137109375,-0.019788086414337158,-0.030488399788737297,0.0060344566591084
1761505421188407000,4.251406982421875,-0.02881992980837822,-0.016036489978432655,0.016934508457779884
1761505421198443000,4.261443115234375,-0.02461719512939453,0.007010505069047213,0.027408188208937645
1761505421208480000,4.27147998046875,-0.02100115641951561,0.028738170862197876,0.046241797506809235
1761505421218516000,4.281515869140625,-0.022066153585910797,0.036430977284908295,0.05138196423649788
1761505421228553000,4.291552978515625,-0.01678004488348961,0.040341299027204514,0.045398905873298645
1761505421238589000,4.3015888671875,-0.009788448922336102,0.04572727531194687,0.03429565578699112
1761505421248625200,4.311625244140625,-0.004043211229145527,0.030640732496976852,0.021887188777327538
1761505421258662000,4.321661865234375,0.000624777574557811,0.002853044541552663,0.013922207057476044
1761505421268697900,4.33169775390625,0.006905576679855585,-0.010015882551670074,0.0052355085499584675
1761505421278734000,4.341734130859375,0.010981811210513115,-0.023512782528996468,0.001891909632831812
1761505421288770800,4.351770751953125,0.0027236149180680513,-0.018492991104722023,0.013466008007526398
1761505421298806800,4.361806884765625,-0.0035625104792416096,0.0012460930738598108,0.027592211961746216
1761505421308843000,4.371843017578125,-0.01275600865483284,0.01944347284734249,0.037279196083545685
1761505421318880000,4.3818798828125,-0.012524846941232681,0.02808995731174946,0.041970618069171906
1761505421328916000,4.391916015625,-0.010260093957185745,0.030484139919281006,0.03953489288687706
1761505421338953000,4.401952880859375,0.0008620652370154858,0.030730215832591057,0.04442206025123596
1761505421348989000,4.411989013671875,0.002263953210785985,0.00532445777207613,0.053760431706905365
1761505421359025000,4.42202490234375,-0.0004913532175123692,-0.015631956979632378,0.06384742259979248
1761505421369062000,4.432061767578125,0.004402471706271172,-0.02750645950436592,0.06299121677875519
1761505421379097900,4.442097900390625,0.007608384825289249,-0.02973153069615364,0.052985984832048416
1761505421389133800,4.4521337890625,0.004830707795917988,-0.015858856961131096,0.038838207721710205
1761505421399170800,4.4621708984375,-0.0032796829473227262,0.0021933794487267733,0.02677515521645546
1761505421409206300,4.472206298828125,-0.01762400008738041,0.028549619019031525,0.0192519910633564
1761505421419242200,4.4822421875,-0.02600070834159851,0.05205973982810974,0.025739185512065887
1761505421429279000,4.492279052734375,-0.03243756666779518,0.059308864176273346,0.03995061293244362
1761505421439315200,4.502315185546875,-0.036128442734479904,0.05257053300738335,0.049133192747831345
1761505421449351200,4.51235107421875,-0.046427421271800995,0.0324343740940094,0.04769907891750336
1761505421459388000,4.522387939453125,-0.05110206454992294,0.007449127733707428,0.03835165128111839
1761505421469424000,4.532424072265625,-0.046730220317840576,-0.010164220817387104,0.021991318091750145
1761505421479461000,4.542461181640625,-0.030165625736117363,-0.00008415588672505692,-0.0000577905957470648
1761505421489497000,4.5524970703125,-0.010312026366591454,0.0029047098942101,-0.020684771239757538
1761505421499533000,4.562532958984375,-0.005815012380480766,0.002335592173039913,-0.027646275237202644
1761505421509570000,4.572570068359375,-0.010743457823991776,0.01335708424448967,-0.01876995898783207
1761505421519607000,4.58260693359375,-0.024457672610878944,0.02617461234331131,-0.006485596299171448
1761505421529643000,4.59264306640625,-0.04360819607973099,0.028712337836623192,0.0012812467757612467
1761505421539680300,4.60268017578125,-0.05829313397407532,0.03855085372924805,-0.009826531633734703
1761505421549716200,4.61271630859375,-0.05860738828778267,0.04181003198027611,-0.02189864031970501
1761505421559752200,4.622752197265625,-0.05271594226360321,0.0391513966023922,-0.026942135766148567
1761505421569789200,4.6327890625,-0.04207634553313255,0.04128219187259674,-0.013764015398919582
1761505421579825200,4.6428251953125,-0.025466211140155792,0.035956136882305145,0.007791610434651375
1761505421589862100,4.652862060546875,-0.014908109791576862,0.023814253509044647,0.03133049234747887
1761505421599898000,4.662898193359375,-0.007937285117805004,0.009546900168061256,0.04006858915090561
1761505421609934000,4.67293408203125,-0.012114453129470348,0.009908024221658707,0.037396907806396484
1761505421619971000,4.68297119140625,-0.015597867779433727,0.010735735297203064,0.018383534625172615
1761505421630007000,4.693007080078125,-0.015916649252176285,0.022396652027964592,-0.002240251051262021
1761505421640043000,4.70304296875,-0.019872240722179413,0.024479243904352188,-0.016221048310399055
1761505421650080300,4.713080322265625,-0.018079135566949844,-0.0026530411560088396,-0.006449643522500992
1761505421660116200,4.7231162109375,-0.015725167468190193,-0.01889353059232235,0.014622884802520275
1761505421670152200,4.733152099609375,-0.010100571438670158,-0.0340394601225853,0.04054582864046097
1761505421680189200,4.743189208984375,-0.008431035093963146,-0.02502252906560898,0.04915689304471016
1761505421690225200,4.75322509765625,0.0020160130225121975,0.011454788036644459,0.041077129542827606
1761505421700261000,4.76326123046875,0.01056183036416769,0.03278031572699547,0.025977006182074547
1761505421710298000,4.773298095703125,0.013066267594695091,0.038357242941856384,0.014192517846822739
1761505421720334000,4.783333984375,0.022274412214756012,0.018310297280550003,0.014460432343184948
1761505421730371300,4.793371337890625,0.03425570949912071,-0.015297196805477142,0.017054084688425064
1761505421740407300,4.8034072265625,0.04342550411820412,-0.0436212457716465,0.022946594282984734
1761505421750443300,4.813443359375,0.03767573833465576,-0.045518483966588974,0.029210349544882774
1761505421760480300,4.823480224609375,0.020970795303583145,-0.025962358340620995,0.018067151308059692
1761505421770516200,4.83351611328125,0.004644020460546017,0.0017142767319455743,-0.0021936458069831133
1761505421780552200,4.84355224609375,-0.008890696801245213,0.034746795892715454,-0.022831279784440994
1761505421790589200,4.853589111328125,-0.015812784433364868,0.05149275064468384,-0.03687359392642975
1761505421800625200,4.863625244140625,-0.013066001236438751,0.03572310879826546,-0.0413474403321743
1761505421810661000,4.8736611328125,-0.005387841258198023,0.029213545843958855,-0.020677581429481506
1761505421820698000,4.883697998046875,0.0038605183362960815,0.021272530779242516,0.011318966746330261
1761505421830734000,4.893734130859375,0.009290170855820179,0.0033164345659315586,0.0403229221701622
1761505421840770300,4.903770263671875,0.012505671940743923,0.002282062778249383,0.056534647941589355
1761505421850807300,4.913807373046875,0.01480664312839508,-0.0020325244404375553,0.05837595835328102
1761505421860843300,4.92384326171875,0.011289671994745731,-0.011151188053190708,0.03880145773291588
1761505421870880000,4.9338798828125,0.011577027849853039,-0.007835020311176777,0.02526940405368805
1761505421880916200,4.943916259765625,0.009811352007091045,-0.009011338464915752,0.016138490289449692
1761505421890952200,4.9539521484375,0.0020040287636220455,-0.014274010434746742,0.017529726028442383
1761505421900989000,4.963989013671875,-0.00318913534283638,0.009004680439829826,0.02642441727221012
1761505421911025200,4.974025146484375,-0.008958341553807259,0.02713281847536564,0.026573820039629936
1761505421921061000,4.98406103515625,-0.016042882576584816,0.0475749745965004,0.014996260404586792
1761505421931098000,4.99409814453125,-0.018010692670941353,0.0642213299870491,-0.003614708548411727
1761505421941134300,5.00413427734375,-0.01775635965168476,0.06522001326084137,-0.016231967136263847
1761505421951170300,5.01417041015625,-0.013551495037972927,0.03614628687500954,-0.016696687787771225
1761505421961207000,5.02420703125,-0.012545885518193245,0.010922688990831375,0.0011638014111667871
1761505421971243300,5.0342431640625,-0.012060390785336494,-0.007486145943403244,0.01992150954902172
1761505421981280000,5.044280029296875,-0.005151086021214724,-0.010778611525893211,0.0316452793776989
1761505421991316000,5.05431591796875,-0.0033933997619897127,-0.016692427918314934,0.036801956593990326
1761505422001352200,5.064352294921875,-0.004008856136351824,-0.026938939467072487,0.03443307429552078
1761505422011389000,5.074388916015625,-0.009828396141529083,-0.023321567103266716,0.018802715465426445
1761505422021425200,5.084425048828125,-0.018336396664381027,-0.009048622101545334,-0.004335892386734486
1761505422031461000,5.094461181640625,-0.02713175304234028,0.004144411068409681,-0.028656411916017532
1761505422041498000,5.104498046875,-0.030339796096086502,0.03358512371778488,-0.04788630083203316
1761505422051534000,5.1145341796875,-0.02147945947945118,0.04434109851717949,-0.048113465309143066
1761505422061570000,5.124570068359375,-0.011359447613358498,0.027293939143419266,-0.027162911370396614
1761505422071607000,5.13460693359375,-0.007182811852544546,-0.00041571943438611925,0.011079815216362476
1761505422081643000,5.14464306640625,-0.007612912449985743,-0.021506091579794884,0.03804165869951248
1761505422091679000,5.154678955078125,-0.010184193961322308,-0.03489433601498604,0.044987183064222336
1761505422101716000,5.164716064453125,-0.01750469207763672,-0.02544330805540085,0.03780064359307289
1761505422111752000,5.174751953125,-0.022785473614931107,-0.0029142971616238356,0.023671774193644524
1761505422121789200,5.1847890625,-0.026568228378891945,0.01173442043364048,-0.008335161954164505
1761505422131825200,5.1948251953125,-0.023741016164422035,0.022604111582040787,-0.030661506578326225
1761505422141861000,5.204861083984375,-0.022716231644153595,0.0337345264852047,-0.03892103210091591
1761505422151898000,5.214898193359375,-0.028850557282567024,0.03111983649432659,-0.036245621740818024
1761505422161934000,5.22493408203125,-0.03230707347393036,0.026430808007717133,-0.02678793855011463
1761505422171970000,5.234969970703125,-0.03389245271682739,0.018203770741820335,-0.008593754842877388
1761505422182007000,5.245007080078125,-0.02725585550069809,0.012688631191849709,0.015622635371983051
1761505422192043000,5.25504296875,-0.02581961266696453,-0.0014144048327580094,0.03820224478840828
1761505422202079000,5.265078857421875,-0.020870128646492958,-0.014248444698750973,0.04308781400322914
1761505422212116200,5.2751162109375,-0.003719637170433998,-0.015216769650578499,0.034805916249752045
1761505422222152200,5.285152099609375,0.010219880379736423,-0.007328220177441835,0.02046159841120243
1761505422232189200,5.295189208984375,0.022011559456586838,0.002537459833547473,0.00612287363037467
1761505422242225200,5.30522509765625,0.022464029490947723,-0.0001781654718797654,0.0015757924411445856
1761505422252261000,5.31526123046875,0.027124561369419098,-0.0002388855500612408,0.005052549298852682
1761505422262298000,5.325298095703125,0.03008146956562996,0.002377403900027275,0.006355900317430496
1761505422272334000,5.335333984375,0.03087376058101654,0.010765562765300274,0.011228686198592186
1761505422282370000,5.3453701171875,0.031735558062791824,0.012703278101980686,0.009995375759899616
1761505422292407000,5.355406982421875,0.03129001334309578,0.008048871532082558,0.016561400145292282
1761505422302443000,5.365443115234375,0.02401185967028141,-0.015218634158372879,0.019102854654192924
1761505422312479000,5.37547900390625,0.0205707885324955,-0.036199018359184265,0.022157233208417892
1761505422322516200,5.38551611328125,0.02112472616136074,-0.037878140807151794,0.01498241163790226
1761505422332552200,5.39555224609375,0.02268533781170845,-0.03147882968187332,-0.004852013196796179
1761505422342589200,5.405589111328125,0.009440639987587929,-0.02550695836544037,-0.02786385454237461
1761505422352625200,5.415625244140625,-0.0010996191995218396,-0.005828594323247671,-0.03975939750671387
1761505422362661000,5.4256611328125,-0.013977601192891598,0.011130415834486485,-0.0410531610250473
1761505422372698000,5.435697998046875,-0.01739789918065071,0.012371715158224106,-0.031912125647068024
1761505422382734000,5.445734130859375,-0.020074907690286636,0.011204184964299202,-0.014149108901619911
1761505422392770000,5.45577001953125,-0.011031345464289188,-0.003222158644348383,-0.0016961672808974981
1761505422402807300,5.465807373046875,0.0033872744534164667,-0.014800251461565495,0.005138569511473179
1761505422412844000,5.475843994140625,0.014797854237258434,-0.028569325804710388,0.00977513287216425
1761505422422880000,5.4858798828125,0.015667643398046494,-0.04122386872768402,0.00424241553992033
1761505422432917000,5.4959169921875,0.01708764024078846,-0.038845933973789215,-0.00941933412104845
1761505422442953000,5.505952880859375,0.012386095710098743,-0.02947746403515339,-0.020249610766768456
1761505422452989700,5.51598974609375,0.005246427375823259,-0.0005131911602802575,-0.020830713212490082
1761505422463026000,5.52602587890625,-0.0020732709672302008,0.018025338649749756,-0.014625548385083675
1761505422473062000,5.536061767578125,-0.0029438582714647055,0.02882605604827404,0.006097839679569006
1761505422483098600,5.5460986328125,-0.003192863892763853,0.028672657907009125,0.017484983429312706
1761505422493134800,5.556134765625,-0.005923669319599867,0.013944311067461967,0.01834305375814438
1761505422503170800,5.5661708984375,0.0026027073618024588,0.006098905112594366,0.010657704435288906
1761505422513207800,5.576207763671875,0.007685616612434387,-0.0006460828590206802,-0.0010125337867066264
1761505422523244000,5.586244140625,0.013559218496084213,-0.005262672435492277,0.0001651159836910665
1761505422533280000,5.596280029296875,0.023368438705801964,-0.031750474125146866,0.007261108607053757
1761505422543316700,5.606316650390625,0.02893870696425438,-0.07030825316905975,0.012577044777572155
1761505422553353000,5.61635302734375,0.03923502191901207,-0.07816963642835617,0.020731376484036446
1761505422563389700,5.6263896484375,0.04062066227197647,-0.07120147347450256,0.014700116589665413
1761505422573425700,5.63642578125,0.03224422410130501,-0.04656936600804329,0.01398638915270567
1761505422583462000,5.6464619140625,0.017783524468541145,-0.01607217639684677,0.013844176195561886
1761505422593499000,5.656498779296875,0.004191016778349876,0.016103336587548256,0.00911333691328764
1761505422603534800,5.666534912109375,-0.0084837656468153,0.037400901317596436,0.0038360171020030975
1761505422613570800,5.67657080078125,-0.01558455266058445,0.04493871331214905,0.004720985423773527
1761505422623607800,5.68660791015625,-0.015528359450399876,0.032700423151254654,0.00803422462195158
1761505422633643800,5.696643798828125,-0.011413242667913437,0.01619441621005535,0.012685434892773628
1761505422643679700,5.7066796875,-0.010322412475943565,-0.013540576212108135,0.016987239941954613
1761505422653716700,5.716716796875,-0.008502940647304058,-0.025648105889558792,0.019710853695869446
1761505422663752700,5.726752685546875,-0.011080347932875156,-0.032893236726522446,0.015230352059006691
1761505422673789700,5.736789794921875,-0.01324070431292057,-0.027650004252791405,0.003783819265663624
1761505422683825700,5.74682568359375,-0.013994112610816956,-0.005787581671029329,-0.008292284794151783
1761505422693861600,5.756861572265625,-0.014331535436213017,0.031442079693078995,-0.020257068797945976
1761505422703899000,5.76689892578125,-0.02178971841931343,0.0570979081094265,-0.03251666575670242
1761505422713934800,5.776934814453125,-0.02618047036230564,0.06367937475442886,-0.03380962833762169
1761505422723970800,5.786970703125,-0.025897908955812454,0.04330406337976456,-0.028916602954268456
1761505422734007800,5.7970078125,-0.012859073467552662,0.0036788906436413527,-0.021268537268042564
1761505422744043800,5.807043701171875,0.002822684356942773,-0.03290681540966034,-0.008253135718405247
1761505422754079700,5.817079833984375,0.012229235842823982,-0.0574510432779789,0.007769772317260504
1761505422764116700,5.82711669921875,0.007845672778785229,-0.043293144553899765,0.025170067325234413
1761505422774152700,5.837152587890625,-0.008416388183832169,-0.0075729647651314735,0.03208256885409355
1761505422784190000,5.84718994140625,-0.02839435636997223,0.03692952170968056,0.023015303537249565
1761505422794226000,5.857225830078125,-0.04845808073878288,0.07578317821025848,0.006598780397325754
1761505422804262000,5.867261962890625,-0.06877081096172333,0.0990818440914154,-0.015721704810857773
1761505422814299000,5.877298828125,-0.08219446986913681,0.10071808844804764,-0.02479376271367073
1761505422824334800,5.8873349609375,-0.07832862436771393,0.06450335681438446,-0.021980399265885353
1761505422834370800,5.897370849609375,-0.060799434781074524,0.014534201472997665,-0.0037886130157858133
1761505422844407800,5.90740771484375,-0.036557745188474655,-0.028016719967126846,0.0183465164154768
1761505422854443800,5.91744384765625,-0.022938339039683342,-0.04956648871302605,0.04177860543131828
1761505422864479700,5.927479736328125,-0.00583871454000473,-0.04831426963210106,0.04229952022433281
1761505422874516700,5.937516845703125,0.011636948212981224,-0.017966482788324356,0.028144020587205887
1761505422884553000,5.947552978515625,0.02599138766527176,0.005408081226050854,0.011753062717616558
1761505422894590000,5.95758984375,0.03175393491983414,0.008246478624641895,0.0034163030795753
1761505422904626000,5.9676259765625,0.03689809516072273,0.015862319618463516,0.014003966003656387
1761505422914662000,5.977661865234375,0.03398459777235985,0.024711204692721367,0.021511949598789215
1761505422924699000,5.987698974609375,0.022911174222826958,0.03626932576298714,0.026993799954652786
1761505422934734800,5.99773486328125,0.01966877654194832,0.043048400431871414,0.008590292185544968
1761505422944770800,6.007770751953125,0.014004498720169067,0.030159765854477882,-0.0075484635308384895
1761505422954807800,6.017807861328125,0.01450064592063427,0.018879149109125137,-0.015744874253869057
1761505422964843800,6.02784375,0.01744903065264225,0.003049053018912673,-0.021739650517702103
1761505422974881000,6.037881103515625,0.016526779159903526,-0.007720503956079483,-0.01818006858229637
1761505422984917000,6.0479169921875,0.009749299846589565,-0.01907169446349144,-0.008303736336529255
1761505422994953000,6.057952880859375,0.002118278294801712,-0.02208772487938404,0.002282062778249383
1761505423004990000,6.067989990234375,-0.005633384454995394,-0.01823466457426548,0.008646219037473202
1761505423015026000,6.07802587890625,-0.006941263098269701,-0.02196388877928257,0.009987653233110905
1761505423025062000,6.088061767578125,-0.008959406055510044,-0.009564477019011974,0.008008924312889576
1761505423035099000,6.098098876953125,-0.014763233251869678,0.005206213798373938,0.003213370218873024
1761505423045134800,6.108134765625,-0.012586365453898907,0.006056827027350664,-0.0022327941842377186
1761505423055170800,6.1181708984375,-0.008489358238875866,-0.006707703694701195,0.0016258598770946264
1761505423065208000,6.1282080078125,-0.012507535517215729,-0.035959865897893906,0.01569720357656479
1761505423075244000,6.138244140625,-0.02020939812064171,-0.04388649761676788,0.030251113697886467
1761505423085280800,6.14828076171875,-0.02593865618109703,-0.029524868354201317,0.025683525949716568
1761505423095317000,6.15831689453125,-0.02232075110077858,-0.004535363521426916,-0.0022189458832144737
1761505423105353000,6.16835302734375,-0.020954549312591553,0.013766678981482983,-0.03323039039969444
1761505423115389700,6.1783896484375,-0.024171914905309677,0.0037087181117385626,-0.05721988156437874
1761505423125426000,6.188426025390625,-0.027219103649258614,-0.015572035685181618,-0.04795980080962181
1761505423135462000,6.1984619140625,-0.030713703483343124,-0.03578809276223183,-0.018508169800043106
1761505423145499000,6.208498779296875,-0.029695311561226845,-0.04230351373553276,0.0194847509264946
1761505423155534800,6.218534912109375,-0.029696376994252205,-0.0195529293268919,0.03744164854288101
1761505423165571800,6.22857177734375,-0.026210032403469086,0.008387626148760319,0.03621020168066025
1761505423175607800,6.23860791015625,-0.023545805364847183,0.03665468469262123,0.014257765375077724
1761505423185644000,6.24864404296875,-0.018013354390859604,0.03260214999318123,-0.007149522192776203
1761505423195680800,6.2586806640625,-0.010989533737301826,0.006785734556615353,-0.03230547532439232
1761505423205716700,6.268716796875,-0.0023036343045532703,-0.026085928082466125,-0.045095838606357574
1761505423215753000,6.2787529296875,0.007241934072226286,-0.04501194879412651,-0.041312817484140396
1761505423225789700,6.288789794921875,0.007296795025467873,-0.04628840088844299,-0.021086376160383224
1761505423235825700,6.29882568359375,-0.0017180051654577255,-0.039378032088279724,-0.0008562062866985798
1761505423245862000,6.30886181640625,-0.011507518589496613,-0.0034727619495242834,0.012042547576129436
1761505423255899000,6.31889892578125,-0.011318701319396496,0.045457761734724045,0.015246597118675709
1761505423265934800,6.328934814453125,-0.006487726699560881,0.07844340801239014,0.01127822045236826
1761505423275971800,6.338971923828125,0.004988633096218109,0.0809268057346344,0.016580307856202126
1761505423286007800,6.3490078125,0.027485953643918037,0.05035185441374779,0.023063240572810173
1761505423296043800,6.359043701171875,0.03416595980525017,0.0005107942852191627,0.03199921175837517
1761505423306080800,6.369080810546875,0.028118986636400223,-0.04742983356118202,0.0396006740629673
1761505423316116700,6.37911669921875,0.019603528082370758,-0.053878676146268845,0.034389130771160126
1761505423326152700,6.389152587890625,0.0037377465050667524,-0.03626879304647446,0.015146195888519287
1761505423336189700,6.399189697265625,-0.008657670579850674,-0.0018458369886502624,-0.010808971710503101
1761505423346225700,6.4092255859375,-0.015746738761663437,0.02978159673511982,-0.024047279730439186
1761505423356263000,6.419262939453125,-0.01486576534807682,0.039254460483789444,-0.012574114836752415
1761505423366299000,6.429298828125,-0.01978915184736252,0.005656021647155285,-0.0012450277572497725
1761505423376334800,6.4393349609375,-0.012996491976082325,-0.024044882506132126,0.024822792038321495
1761505423386371800,6.449371826171875,-0.009497364982962608,-0.037095170468091965,0.04126514866948128
1761505423396407800,6.45940771484375,-0.004992628004401922,-0.035519376397132874,0.040349021553993225
1761505423406443500,6.469443603515625,0.00398568669334054,-0.023961525410413742,0.01985839381814003
1761505423416480500,6.47948046875,0.01516776718199253,-0.0041033984161913395,-0.005081844050437212
1761505423426516500,6.4895166015625,0.01582024246454239,0.014520619064569473,-0.015789614990353584
1761505423436553700,6.4995537109375,0.016276175156235695,0.010915231890976429,-0.015371499583125114
1761505423446589700,6.509589599609375,0.003934820648282766,-0.007793208118528128,-0.003716441337019205
1761505423456625700,6.519625732421875,-0.004257062915712595,-0.01738431677222252,0.0005081311101093888
1761505423466662700,6.52966259765625,-0.00833809096366167,-0.012043346650898457,-0.004166781902313232
1761505423476698600,6.53969873046875,-0.008730107918381691,-0.005366003140807152,-0.013831393793225288
1761505423486734600,6.549734619140625,-0.009633718989789486,0.0005523395957425237,-0.017852233722805977
1761505423496771600,6.559771484375,-0.00893943291157484,0.006463491823524237,-0.001472728094086051
1761505423506807600,6.5698076171875,-0.006675479467958212,0.0035233621019870043,0.020743094384670258
1761505423516843500,6.579843505859375,-0.007400125730782747,-0.00447011599317193,0.03700914978981018
1761505423526880800,6.589880859375,-0.007417968939989805,-0.01781628094613552,0.02671869657933712
1761505423536916700,6.599916748046875,0.00019467707898002118,-0.014406902715563774,0.000003994741746282671
1761505423546953700,6.60995361328125,0.010303237475454807,-0.005825132131576538,-0.025134913623332977
1761505423556989700,6.61998974609375,0.013719274662435055,-0.002192846732214093,-0.02593066729605198
1761505423567025700,6.630025634765625,0.007619836367666721,-0.005394765175879002,-0.00720411678776145
1761505423577062700,6.640062744140625,0.0011576761025935411,-0.019632557407021523,0.018738800659775734
1761505423587098600,6.6500986328125,-0.016873255372047424,-0.015902800485491753,0.03614788502454758
1761505423597134600,6.660134521484375,-0.02726544253528118,-0.015925437211990356,0.04265718162059784
1761505423607171600,6.670171630859375,-0.034925226122140884,-0.008695220574736595,0.0389505960047245
1761505423617207600,6.68020751953125,-0.03417235240340233,-0.0014016216155141592,0.030642064288258553
1761505423627244800,6.690244873046875,-0.035357456654310226,0.0011227887589484453,0.02087438851594925
1761505423637280800,6.70028076171875,-0.03714257478713989,0.012999421916902065,0.010459032841026783
1761505423647316700,6.710316650390625,-0.0401250496506691,0.02315831556916237,0.003394731320440769
1761505423657353700,6.720353759765625,-0.04045315086841583,0.022397184744477272,-0.0041308291256427765
1761505423667389700,6.7303896484375,-0.044022053480148315,0.008283495903015137,-0.008047007024288177
1761505423677425700,6.74042578125,-0.03308471664786339,-0.0023012375459074974,-0.010879279114305973
1761505423687462700,6.750462646484375,-0.022849388420581818,-0.008372711949050426,-0.0016998957144096494
1761505423697498600,6.76049853515625,-0.024835309013724327,-0.02479482814669609,0.008770322427153587
1761505423707535600,6.77053564453125,-0.022713568061590195,-0.04591582715511322,0.019961990416049957
1761505423717571800,6.78057177734375,-0.022067485377192497,-0.04710066691040993,0.03533988073468208
1761505423727607800,6.79060791015625,-0.029389314353466034,-0.05488428846001625,0.035289548337459564
1761505423737644800,6.800644775390625,-0.029263347387313843,-0.04393496736884117,0.02774694189429283
1761505423747680800,6.8106806640625,-0.03212091699242592,-0.014041783288121223,0.011744540184736252
1761505423757716700,6.820716796875,-0.023298397660255432,-0.0006436860421672463,-0.0021052288357168436
1761505423767753700,6.830753662109375,-0.020598486065864563,-0.0096861831843853,-0.013399428687989712
1761505423777789700,6.840789794921875,-0.00774793466553092,-0.015163506381213665,-0.006998787168413401
1761505423787826400,6.850826416015625,-0.00794607400894165,-0.019469039514660835,0.005620335228741169
1761505423797862700,6.860862548828125,-0.010891263373196125,-0.0062424493953585625,0.013716611079871655
1761505423807898600,6.870898681640625,-0.008333031088113785,0.02292076125741005,0.006973220966756344
1761505423817935600,6.880935546875,0.005535912699997425,0.05830005928874016,-0.014826616272330284
1761505423827971600,6.8909716796875,0.005892776418477297,0.07736802846193314,-0.035419244319200516
1761505423838007800,6.9010078125,0.0003073287953156978,0.05765876919031143,-0.025408687070012093
1761505423848044500,6.91104443359375,-0.00133903743699193,0.02165496163070202,-0.00019254654762335122
1761505423858080500,6.92108056640625,-0.0016618125373497605,-0.02461905963718891,0.029274266213178635
1761505423868117500,6.931117431640625,0.004846420604735613,-0.0568169429898262,0.035405129194259644
1761505423878153500,6.941153564453125,0.007384146563708782,-0.06261677294969559,0.018660768866539
1761505423888189400,6.951189453125,0.013998906128108501,-0.03303438425064087,-0.020389428362250328
1761505423898226700,6.961226806640625,0.010528541170060635,0.013916880823671818,-0.048167794942855835
1761505423908262700,6.9712626953125,0.003427754621952772,0.0386752225458622,-0.04560556635260582
1761505423918298600,6.981298583984375,-0.009740778245031834,0.04067126289010048,-0.020198745653033257
1761505423928335600,6.991335693359375,-0.0215966384857893,0.029286783188581467,0.01725941337645054
1761505423938371600,7.00137158203125,-0.01715741492807865,0.011379420757293701,0.03389884531497955
1761505423948407600,7.011407470703125,0.0012831110507249832,0.003993676509708166,0.03470258787274361
1761505423958444500,7.021444580078125,0.019180351868271828,-0.002871153876185417,0.019948141649365425
1761505423968480500,7.03148046875,0.023151658475399017,-0.012951484881341457,0.011332016438245773
1761505423978517500,7.041517578125,0.00899509247392416,-0.00905767735093832,0.019296731799840927
1761505423988553500,7.051553466796875,-0.003573163179680705,-0.020957212895154953,0.020659739151597023
1761505423998589400,7.06158935546875,-0.008644887246191502,-0.016955547034740448,0.02202247828245163
1761505424008626700,7.071626708984375,-0.011434015817940235,0.0005605954211205244,0.016921458765864372
1761505424018662700,7.08166259765625,-0.01522662304341793,0.01769563928246498,0.005400091875344515
1761505424028698600,7.09169873046875,-0.01619521528482437,0.029917685315012932,-0.005017928313463926
1761505424038735600,7.101735595703125,-0.012744557112455368,0.02088557370007038,0.00196354859508574
1761505424048771600,7.111771484375,-0.007812383119016886,-0.003318032482638955,0.027726169675588608
1761505424058808600,7.12180859375,-0.023017967119812965,-0.030123280361294746,0.0378325991332531
1761505424068844500,7.131844482421875,-0.012953882105648518,-0.04023982957005501,0.027067037299275398
1761505424078880500,7.141880615234375,0.012580506503582,-0.01900884509086609,-0.003132410114631057
1761505424088917800,7.151917724609375,0.03556545078754425,0.004089816473424435,-0.03846403583884239
1761505424098953700,7.16195361328125,0.03779291734099388,0.012061456218361855,-0.05132603645324707
1761505424108989700,7.17198974609375,0.03393399715423584,0.004727909807115793,-0.03659050166606903
1761505424119026700,7.182026611328125,0.021803032606840134,-0.003154247999191284,-0.009817210957407951
1761505424129062700,7.192062744140625,0.008046475239098072,0.0004498079069890082,0.01900991052389145
1761505424139098600,7.2020986328125,-0.0023339942563325167,0.010370615869760513,0.03483041748404503
1761505424149135600,7.212135498046875,-0.020294353365898132,0.033310551196336746,0.03639449179172516
1761505424159171600,7.222171630859375,-0.03087136335670948,0.03171851485967636,0.026498718187212944
1761505424169208600,7.23220849609375,-0.03594468533992767,0.02509043924510479,0.015153120271861553
1761505424179244500,7.24224462890625,-0.030833013355731964,0.015795208513736725,-0.0026040389202535152
1761505424189280800,7.25228076171875,-0.02039768360555172,0.007795604877173901,-0.015179751440882683
1761505424199317800,7.26231787109375,-0.01423512864857912,0.0044075315818190575,-0.011442271992564201
1761505424209353700,7.272353759765625,-0.015104650519788265,-0.007667773403227329,-0.010148773901164532
1761505424219389700,7.2823896484375,-0.016438361257314682,0.0034344124142080545,-0.009150355122983456
1761505424229426700,7.2924267578125,-0.01555472519248724,0.017177121713757515,-0.022423550486564636
1761505424239462700,7.302462646484375,-0.013618340715765953,0.027966387569904327,-0.03364584594964981
1761505424249498600,7.31249853515625,-0.012207131832838058,0.02701137773692608,-0.033184051513671875
1761505424259535600,7.32253564453125,-0.014152304269373417,0.013290238566696644,-0.023622505366802216
1761505424269571600,7.332571533203125,-0.018996328115463257,0.003284742822870612,-0.001312139444053173
1761505424279608800,7.34260888671875,-0.0205761156976223,-0.009465939365327358,0.018187260255217552
1761505424289644800,7.352644775390625,-0.008213721215724945,-0.019601397216320038,0.020853083580732346
1761505424299680800,7.3626806640625,-0.005515939090400934,-0.005071723833680153,0.013954698108136654
1761505424309717800,7.3727177734375,-0.008129299618303776,0.01685621216893196,-0.0052267201244831085
1761505424319753700,7.382753662109375,-0.01613662578165531,0.027655862271785736,-0.015744874253869057
1761505424329789700,7.392789794921875,-0.01996918022632599,0.026436401531100273,-0.014070545323193073
1761505424339826700,7.40282666015625,-0.02075534500181675,0.006178800016641617,0.00686110183596611
1761505424349862700,7.412862548828125,-0.009501359425485134,-0.013944044709205627,0.03393692895770073
1761505424359898600,7.422898681640625,0.0018570221727713943,-0.026385268196463585,0.05927104502916336
1761505424369936000,7.432935791015625,0.008203867822885513,-0.029136845842003822,0.05540413782000542
1761505424379971800,7.442971923828125,0.01888633891940117,-0.01417360920459032,0.02967054396867752
1761505424390008600,7.453008544921875,0.026796193793416023,0.005318066570907831,-0.013483851216733456
1761505424400044800,7.463044921875,0.024237696081399918,0.004303401801735163,-0.0402989536523819
1761505424410080800,7.473080810546875,0.014670022763311863,-0.008195345290005207,-0.034988343715667725
1761505424420117500,7.483117431640625,0.007574828807264566,-0.025912024080753326,-0.015968047082424164
1761505424430153700,7.49315380859375,0.0011797803454101086,-0.02798529528081417,0.005616340320557356
1761505424440189700,7.503189697265625,-0.001711081014946103,-0.025956233963370323,0.014827681705355644
1761505424450226700,7.513226806640625,-0.0018668759148567915,-0.023682959377765656,0.012864133343100548
1761505424460262700,7.5232626953125,-0.0019718045368790627,-0.03044552356004715,0.013114203698933125
1761505424470299000,7.533298828125,-0.01182070653885603,-0.02682735212147236,0.020540429279208183
1761505424480335600,7.543335693359375,-0.02702389471232891,-0.009588445536792278,0.016266321763396263
1761505424490371600,7.55337158203125,-0.028925657272338867,0.005271727219223976,0.005389438942074776
1761505424500407800,7.56340771484375,-0.028006067499518394,0.03370443359017372,-0.006217682268470526
1761505424510444500,7.573444580078125,-0.024340493604540825,0.050206709653139114,-0.02647528238594532
1761505424520480500,7.58348046875,-0.016826916486024857,0.05191779136657715,-0.03452708572149277
1761505424530517800,7.593517822265625,-0.01438240148127079,0.03252971172332764,-0.02666197158396244
1761505424540553700,7.6035537109375,-0.010874751955270767,-0.001725728390738368,-0.002171275205910206
1761505424550589700,7.613589599609375,-0.007355917245149612,-0.017258083447813988,0.025921611115336418
1761505424560626700,7.623626708984375,-0.0038304245099425316,-0.024654213339090347,0.04123558849096298
1761505424570662700,7.63366259765625,0.0031827439088374376,-0.016080433502793312,0.04544977471232414
1761505424580698600,7.64369873046875,0.01569667086005211,-0.011607653461396694,0.035538285970687866
1761505424590735600,7.653735595703125,0.025487516075372696,-0.006982542108744383,0.02099582925438881
1761505424600771600,7.663771484375,0.031927306205034256,0.0011209244839847088,0.0010817759903147817
1761505424610807600,7.6738076171875,0.0346466600894928,0.0007624630234204233,-0.01587563566863537
1761505424620844500,7.683844482421875,0.01883467473089695,-0.0019076223252341151,-0.011456652544438839
1761505424630880800,7.693880859375,0.0021763353142887354,-0.00030786142451688647,-0.002242914168164134
1761505424640916700,7.703916748046875,-0.00626029260456562,0.007454720325767994,0.010215086862444878
1761505424650953700,7.71395361328125,-0.009474728256464005,0.015014635398983955,0.007705856580287218
1761505424660989700,7.72398974609375,-0.007757521700114012,0.008049670606851578,-0.004460528492927551
1761505424671025700,7.734025634765625,0.0006431533838622272,-0.008462460711598396,-0.017845043912529945
1761505424681062700,7.744062744140625,0.005647765472531319,-0.027419107034802437,-0.015389342792332172
1761505424691098600,7.7540986328125,0.0009054747642949224,-0.056048888713121414,0.006887467112392187
1761505424701135600,7.764135498046875,-0.008348743431270123,-0.06395288556814194,0.031087346374988556
1761505424711171600,7.774171630859375,-0.022846193984150887,-0.06612682342529297,0.04417864605784416
1761505424721207600,7.78420751953125,-0.02689260058104992,-0.04712170735001564,0.03724563866853714
1761505424731244800,7.794244873046875,-0.035832300782203674,0.008822786621749401,0.01155945099890232
1761505424741280800,7.80428076171875,-0.044916607439517975,0.051369182765483856,-0.023385217413306236
1761505424751316700,7.814316650390625,-0.03882196545600891,0.06840382516384125,-0.04517067223787308
1761505424761353700,7.824353759765625,-0.028080636635422707,0.057855844497680664,-0.03621260076761246
1761505424771389700,7.8343896484375,-0.026754116639494896,0.036743633449077606,-0.021446703001856804
1761505424781425700,7.84442578125,-0.02647421695291996,0.022061625495553017,-0.013708621263504028
1761505424791462700,7.854462646484375,-0.022972160950303078,0.021919945254921913,-0.010579140856862068
1761505424801498600,7.86449853515625,-0.018882611766457558,0.025287512689828873,-0.01386734563857317
1761505424811534600,7.87453466796875,-0.015842346474528313,0.02022644132375717,-0.006667490117251873
1761505424821571800,7.88457177734375,-0.01655367575585842,0.0153150400146842,0.009981261566281319
1761505424831607800,7.89460791015625,-0.008629441261291504,0.006077866069972515,0.03086710162460804
1761505424841643800,7.904643798828125,0.0047177900560200214,-0.0060355220921337605,0.03893142193555832
1761505424851680800,7.9146806640625,0.021770009770989418,-0.00458569684997201,0.028870796784758568
1761505424861716700,7.924716796875,0.03099599853157997,0.012855344451963902,0.007468569092452526
1761505424871752700,7.934752685546875,0.025979137048125267,0.02057425118982792,-0.012938967905938625
1761505424881789700,7.944789794921875,0.00872078724205494,0.004127100575715303,-0.023001456633210182
1761505424891825700,7.95482568359375,0.0016399745363742113,-0.00842837244272232,-0.023361781612038612
1761505424901861600,7.964861572265625,-0.0040735709480941296,-0.0002966761530842632,-0.016597086563706398
1761505424911898600,7.974898681640625,-0.006585997529327869,-0.003922836389392614,-0.009576194919645786
1761505424921934600,7.9849345703125,-0.01028592698276043,0.0014751249691471457,0.0073106433264911175
1761505424931971800,7.994971923828125,-0.015915051102638245,-0.0083673857152462,0.021797707304358482
1761505424942007800,8.0050078125,-0.019648535177111626,-0.009393235668540001,0.029169602319598198
1761505424952042800,8.015042724609375,-0.02021925151348114,-0.010231864638626575,0.025954369455575943
1761505424962078700,8.02507861328125,-0.02798369713127613,0.004864530172199011,0.011769307777285576
1761505424972115700,8.03511572265625,-0.03296807035803795,0.026336532086133957,-0.014661233872175217
1761505424982151700,8.045151611328125,-0.034095652401447296,0.042752258479595184,-0.02894296869635582
1761505424992187600,8.055187744140625,-0.0399029403924942,0.04663967341184616,-0.031186681240797043
1761505425002224600,8.065224609375,-0.04158712550997734,0.022127939388155937,-0.023387880995869637
1761505425012260600,8.075260498046875,-0.04249206557869911,-0.010626278817653656,-0.01708897203207016
1761505425022297600,8.085297607421875,-0.041841987520456314,-0.04138472303748131,-0.01619761250913143
1761505425032333600,8.09533349609375,-0.036457609385252,-0.0576542429625988,-0.022342590615153313
1761505425042369500,8.10536962890625,-0.03472921997308731,-0.04127366840839386,-0.03604269027709961
1761505425052406800,8.11540673828125,-0.044318463653326035,0.0006958839949220419,-0.03561578318476677
1761505425062442800,8.12544287109375,-0.05150766670703888,0.03610127791762352,-0.01966824382543564
1761505425072478700,8.135478759765626,-0.05151938274502754,0.027543211355805397,0.0015198660548776388
1761505425082515700,8.145515625,-0.04517626762390137,0.006779609248042107,0.00968591682612896
1761505425092551700,8.1555517578125,-0.038123417645692825,-0.020412864163517952,0.0004540689697023481
1761505425102587600,8.165587646484376,-0.028425250202417374,-0.028202343732118607,-0.025175128132104874
1761505425112624600,8.175624755859374,-0.026487799361348152,-0.01525698322802782,-0.047454334795475006
1761505425122660600,8.18566064453125,-0.033852506428956985,0.006857373286038637,-0.042571160942316055
1761505425132696600,8.195696533203124,-0.035295937210321426,0.025556225329637527,-0.018486332148313522
1761505425142733800,8.20573388671875,-0.03557636961340904,0.03393852710723877,0.011654258705675602
1761505425152769800,8.215769775390624,-0.02658953331410885,0.032591499388217926,0.037460822612047195
1761505425162805800,8.2258056640625,-0.01751188188791275,0.021877069026231766,0.0613270066678524
1761505425172842800,8.2358427734375,-0.01008166279643774,0.000245543458731845,0.06480829417705536
1761505425182878700,8.245878662109375,0.0016841830220073462,-0.01744317263364792,0.050022419542074203
1761505425192914700,8.255914794921875,0.007637945935130119,-0.02618126943707466,0.028485171496868134
1761505425202951700,8.26595166015625,0.003980094101279974,-0.021286113187670708,0.004240285139530897
1761505425212987600,8.275987548828125,-0.007380950730293989,-0.010063286870718002,-0.008489890955388546
1761505425223023600,8.286023681640625,-0.021106084808707237,0.001181378262117505,-0.002663427498191595
1761505425233060600,8.296060546875,-0.03358006477355957,-0.0017366473330184817,-0.004258926957845688
1761505425243096800,8.306096923828125,-0.03454572707414627,-0.014133395627140999,-0.0073138391599059105
1761505425253132800,8.3161328125,-0.017121994867920876,-0.017116136848926544,-0.01453073974698782
1761505425263169800,8.326169677734375,-0.0029944581910967827,-0.0076097166165709496,-0.024038223549723625
1761505425273205800,8.336205810546875,-0.006046707276254892,0.003579821204766631,-0.031977906823158264
1761505425283241700,8.34624169921875,-0.01792067661881447,0.02142220176756382,-0.04044702649116516
1761505425293278700,8.35627880859375,-0.040040891617536545,0.0631541982293129,-0.03183835744857788
1761505425303314700,8.366314697265626,-0.06622961908578873,0.08222243189811707,-0.012444418855011463
1761505425313350700,8.3763505859375,-0.08236997574567795,0.07518529891967773,-0.00960016343742609
1761505425323387600,8.3863876953125,-0.07463295757770538,0.06588101387023926,-0.032812006771564484
1761505425333423600,8.396423583984374,-0.04736405238509178,0.03650501370429993,-0.06779555976390839
1761505425343459600,8.40645947265625,-0.011474762111902237,-0.0046725161373615265,-0.09416031837463379
1761505425353496800,8.416496826171874,0.024168452247977257,-0.02508697658777237,-0.09356030821800232
1761505425363532800,8.42653271484375,0.02966095693409443,-0.04005660489201546,-0.06731165945529938
1761505425373568800,8.43656884765625,0.012984241358935833,-0.00902598537504673,-0.04659200459718704
1761505425383605800,8.446605712890625,0.0029917950741946697,0.06532520800828934,-0.04321058839559555
1761505425393641700,8.456641845703125,-0.009899502620100975,0.15188726782798767,-0.0679047480225563
1761505425403677700,8.466677734375,-0.03809785097837448,0.1864985078573227,-0.09003934264183044
1761505425413715000,8.47671484375,-0.06155843660235405,0.162565216422081,-0.07903143763542175
1761505425423751000,8.4867509765625,-0.07654271274805069,0.10640952736139297,-0.03695588558912277
1761505425433787000,8.496786865234375,-0.09005266427993774,0.054727692157030106,0.0071066454984247684
1761505425443823900,8.506823974609375,-0.08934585750102997,0.020564930513501167,0.013040434569120407
1761505425453859800,8.51685986328125,-0.07026377320289612,0.0041553303599357605,-0.002082591876387596
1761505425463895800,8.526895751953125,-0.04013010859489441,-0.04374215379357338,-0.02931208163499832
1761505425473932800,8.536932861328125,-0.006070942152291536,-0.11030946671962738,-0.049016810953617096
1761505425483968800,8.54696875,0.04801493138074875,-0.16486138105392456,-0.04355493560433388
1761505425494004700,8.557004638671875,0.10059265047311783,-0.17680886387825012,-0.010860903188586235
