time,seconds_elapsed,z,y,x
1761505751719035600,0.08303564453125,0.06559046357870102,-0.09240183234214783,-0.08431994169950485
1761505751729071900,0.09307177734375,0.04334454610943794,-0.062430355697870255,-0.0816463902592659
1761505751739107800,0.10310791015625,0.0043625240214169025,-0.05017155781388283,-0.08209460228681564
1761505751749143800,0.113143798828125,-0.029510488733649254,-0.043070238083601,-0.08361313492059708
1761505751759179800,0.1231796875,-0.05326162278652191,-0.007924768142402172,-0.07365584373474121
1761505751769215700,0.1332158203125,-0.0646090880036354,0.04490968585014343,-0.06102180853486061
1761505751779251700,0.143251708984375,-0.06401041150093079,0.06299334764480591,-0.04194079339504242
1761505751789287700,0.15328759765625,-0.0470103845000267,0.07437676191329956,-0.0033952640369534492
1761505751799324000,0.163323974609375,-0.017373397946357727,0.09193125367164612,0.05373593419790268
1761505751809360000,0.17335986328125,0.010665427893400192,0.0787065327167511,0.12278956919908524
1761505751819395800,0.183395751953125,0.043778639286756516,0.028859877958893776,0.18232932686805725
1761505751829430800,0.1934306640625,0.09037437289953232,-0.05186665803194046,0.24015161395072937
1761505751839466800,0.203466796875,0.16878636181354523,-0.1002054288983345,0.2926505208015442
1761505751849502700,0.213502685546875,0.2578642964363098,-0.1336968094110489,0.35729101300239563
1761505751859539000,0.2235390625,0.33628109097480774,-0.15628200769424438,0.4598861038684845
1761505751869575000,0.233574951171875,0.40968310832977295,-0.06120077148079872,0.5918118953704834
1761505751879611100,0.243611083984375,0.4674247205257416,0.02708035334944725,0.6882761120796204
1761505751889647000,0.253647216796875,0.4946858882904053,0.11001545190811157,0.7387294769287109
1761505751899683000,0.26368310546875,0.4838132858276367,0.19987475872039795,0.7665703892707825
1761505751909719000,0.273718994140625,0.42094483971595764,0.27931925654411316,0.7756427526473999
1761505751919755000,0.283755126953125,0.2926270663738251,0.3697673976421356,0.8049875497817993
1761505751929791000,0.293791015625,0.07252240180969238,0.41596952080726624,0.8625099658966064
1761505751939827000,0.303826904296875,-0.19099338352680206,0.34442582726478577,0.926491379737854
1761505751949863000,0.31386279296875,-0.44501954317092896,0.30766379833221436,1.0177810192108154
1761505751959899000,0.32389892578125,-0.633073091506958,0.34395337104797363,1.1221849918365479
1761505751969934800,0.333934814453125,-0.7001463770866394,0.4726162850856781,1.1959342956542969
1761505751979970800,0.343970703125,-0.6358576416969299,0.7051445841789246,1.1988499164581299
1761505751990007000,0.354007080078125,-0.5026593804359436,0.9880620241165161,1.1061068773269653
1761505752000043000,0.36404296875,-0.359613299369812,1.2957788705825806,0.9622328281402588
1761505752010079000,0.374078857421875,-0.26558932662010193,1.5320478677749634,0.8055492043495178
1761505752020115000,0.384114990234375,-0.21556425094604492,1.4659873247146606,0.6512749791145325
1761505752030151000,0.39415087890625,-0.18926607072353363,1.058613657951355,0.4936390221118927
1761505752040187000,0.404186767578125,-0.168321892619133,0.4063586890697479,0.35419535636901855
1761505752050222800,0.414222900390625,-0.12564606964588165,-0.25535106658935547,0.22619478404521942
1761505752060259000,0.424259033203125,-0.05378200486302376,-0.8438289761543274,0.11318807303905487
1761505752070295000,0.434294921875,-0.0073295519687235355,-1.275054931640625,0.025258485227823257
1761505752080331000,0.4443310546875,-0.03579581528902054,-1.5631279945373535,-0.02484782598912716
1761505752090367000,0.454366943359375,-0.14691008627414703,-1.667610764503479,-0.023694943636655807
1761505752100402000,0.46440185546875,-0.29530301690101624,-1.5814833641052246,-0.005976133514195681
1761505752110438000,0.47443798828125,-0.3933350443840027,-1.380863070487976,-0.026382604613900185
1761505752120474000,0.48447412109375,-0.37690386176109314,-1.1080502271652222,-0.10358897596597672
1761505752130510000,0.494510009765625,-0.24495622515678406,-0.7972130179405212,-0.21924766898155212
1761505752140546000,0.504546142578125,-0.030177609995007515,-0.5108292102813721,-0.35879144072532654
1761505752150582000,0.51458203125,0.17792285978794098,-0.2591801583766937,-0.504482090473175
1761505752160618000,0.524617919921875,0.4058985114097595,-0.07308246940374374,-0.6112463474273682
1761505752170654000,0.534654052734375,0.6002368330955505,-0.02389254979789257,-0.7210516333580017
1761505752180690200,0.544690185546875,0.730659008026123,-0.01595260202884674,-0.8295009136199951
1761505752190726100,0.55472607421875,0.8168314695358276,-0.026497654616832733,-0.9205959439277649
1761505752200762000,0.56476220703125,0.8681519031524658,-0.050328150391578674,-0.986572265625
1761505752210798000,0.574798095703125,0.8910998106002808,-0.17692284286022186,-1.0149974822998047
1761505752220834000,0.584833984375,0.8724531531333923,-0.3948831260204315,-1.0003376007080078
1761505752230870000,0.5948701171875,0.7867638468742371,-0.5390259027481079,-0.9252548813819885
1761505752240906000,0.604906005859375,0.6273893713951111,-0.5755615830421448,-0.8216919898986816
1761505752250942000,0.61494189453125,0.41360703110694885,-0.5428597927093506,-0.7114784121513367
1761505752260978000,0.62497802734375,0.17832313477993011,-0.4687062203884125,-0.5935653448104858
1761505752271014000,0.635013916015625,-0.03934154659509659,-0.4155876040458679,-0.4773106276988983
1761505752281049900,0.6450498046875,-0.2256120890378952,-0.39589008688926697,-0.33701449632644653
1761505752291086000,0.655086181640625,-0.3677769601345062,-0.35234367847442627,-0.1695791780948639
1761505752301122000,0.6651220703125,-0.45325005054473877,-0.26231658458709717,0.028025776147842407
1761505752311158000,0.675157958984375,-0.5015659332275391,-0.1184595376253128,0.24490243196487427
1761505752321194000,0.685194091796875,-0.5267969369888306,0.06120423600077629,0.46983620524406433
1761505752331230000,0.69522998046875,-0.5405654907226562,0.22422058880329132,0.6799737215042114
1761505752341266000,0.705265869140625,-0.5430039167404175,0.38141313195228577,0.8634580969810486
1761505752351302000,0.715302001953125,-0.5268334746360779,0.5663710236549377,1.0172587633132935
1761505752361337900,0.725337890625,-0.5046482682228088,0.7458081245422363,1.1246635913848877
1761505752371373800,0.735373779296875,-0.47434282302856445,0.8675686717033386,1.1714375019073486
1761505752381409000,0.745408935546875,-0.44163334369659424,0.8872693777084351,1.1684339046478271
1761505752391445000,0.755445068359375,-0.3989337980747223,0.7023972868919373,1.1459587812423706
1761505752401481000,0.76548095703125,-0.34073787927627563,0.42573532462120056,1.1713451147079468
1761505752411517000,0.775516845703125,-0.258482962846756,0.31335657835006714,1.2782355546951294
1761505752421553000,0.785552978515625,-0.1733826994895935,0.4206122159957886,1.4429869651794434
1761505752431588900,0.7955888671875,-0.10664895176887512,0.6581485867500305,1.5440986156463623
1761505752441624800,0.805624755859375,-0.040340766310691833,0.8973451852798462,1.4470703601837158
1761505752451660800,0.815660888671875,-0.007063235621899366,1.0382879972457886,1.1520978212356567
1761505752461697000,0.825697021484375,-0.02262035757303238,1.0631130933761597,0.7076980471611023
1761505752471733000,0.83573291015625,-0.05392501875758171,0.9415326118469238,0.1674118936061859
1761505752481769000,0.84576904296875,-0.059600744396448135,0.5871327519416809,-0.373622328042984
1761505752491805200,0.85580517578125,0.03013766184449196,0.05927237868309021,-0.8300622701644897
1761505752501841200,0.865841064453125,0.22516654431819916,-0.23884080350399017,-1.0814173221588135
1761505752511877000,0.875877197265625,0.41456443071365356,-0.45126810669898987,-1.0849672555923462
1761505752521913000,0.8859130859375,0.4876921772956848,-0.5258390307426453,-0.849303662776947
1761505752531949000,0.895948974609375,0.3954741060733795,-0.5290476083755493,-0.49840447306632996
1761505752541985000,0.905985107421875,0.19675114750862122,-0.48574966192245483,-0.2188202291727066
1761505752552021000,0.91602099609375,-0.011953066103160381,-0.39189186692237854,-0.15979285538196564
1761505752562057000,0.926056884765625,-0.1495215743780136,-0.319038987159729,-0.32722339034080505
1761505752572093000,0.936093017578125,-0.19758524000644684,-0.26404869556427,-0.639875590801239
1761505752582129000,0.94612890625,-0.1922226995229721,-0.24341584742069244,-0.9794526100158691
1761505752592165000,0.9561650390625,-0.18601460754871368,-0.20178931951522827,-1.2573471069335938
1761505752602201000,0.966201171875,-0.19634075462818146,-0.11168312281370163,-1.430988073348999
1761505752612237000,0.976237060546875,-0.22919803857803345,0.025000957772135735,-1.5289026498794556
1761505752622273000,0.98627294921875,-0.2557990252971649,0.16460652649402618,-1.5901827812194824
1761505752632309000,0.99630908203125,-0.23510679602622986,0.2607373297214508,-1.6413367986679077
1761505752642345000,1.006344970703125,-0.18009573221206665,0.25879108905792236,-1.6737247705459595
1761505752652381000,1.016380859375,-0.14713245630264282,0.19687151908874512,-1.6751658916473389
1761505752662417000,1.0264169921875,-0.15170058608055115,0.07653684914112091,-1.6302359104156494
1761505752672452900,1.036452880859375,-0.1821327805519104,-0.11017364263534546,-1.568906307220459
1761505752682488800,1.04648876953125,-0.2332495003938675,-0.32060012221336365,-1.5070040225982666
1761505752692524800,1.05652490234375,-0.28115737438201904,-0.5224900841712952,-1.444218397140503
1761505752702561000,1.06656103515625,-0.3125357925891876,-0.7127223610877991,-1.3722361326217651
1761505752712597000,1.076596923828125,-0.300359308719635,-0.8809241652488708,-1.2828752994537354
1761505752722633000,1.086633056640625,-0.23487669229507446,-0.982073962688446,-1.1828560829162598
1761505752732668000,1.09666796875,-0.13283181190490723,-1.0052069425582886,-1.0648305416107178
1761505752742703900,1.106703857421875,-0.0011251855175942183,-1.0534948110580444,-0.924252450466156
1761505752752739800,1.11673974609375,0.13704626262187958,-1.1363258361816406,-0.7227305173873901
1761505752762775800,1.12677587890625,0.2450222671031952,-1.0843920707702637,-0.43883222341537476
1761505752772811800,1.136811767578125,0.29493656754493713,-0.8889700770378113,-0.12236026674509048
1761505752782848000,1.146847900390625,0.2490748018026352,-0.6251919865608215,0.18684712052345276
1761505752792884000,1.156884033203125,0.14304503798484802,-0.42809489369392395,0.4747292399406433
1761505752802920200,1.166920166015625,0.03235501050949097,-0.2913631498813629,0.7301764488220215
1761505752812956200,1.1769560546875,-0.07096339017152786,-0.12275388091802597,0.9147263169288635
1761505752822992100,1.1869921875,-0.17703762650489807,0.042812444269657135,0.9962973594665527
1761505752833028000,1.197028076171875,-0.24206429719924927,0.18689638376235962,0.9746224284172058
1761505752843064000,1.20706396484375,-0.23459039628505707,0.2453458458185196,0.8981438875198364
1761505752853100000,1.21710009765625,-0.166823610663414,0.33742570877075195,0.7916464805603027
1761505752863136000,1.227135986328125,-0.06562189012765884,0.5301538705825806,0.6790216565132141
1761505752873172000,1.237171875,0.010860104113817215,0.722521960735321,0.5876755118370056
1761505752883208000,1.2472080078125,0.04634299874305725,0.7750744223594666,0.5288984775543213
1761505752893244000,1.257243896484375,0.04470035806298256,0.6542609333992004,0.5603916645050049
1761505752903280000,1.267280029296875,0.027822576463222504,0.5151869058609009,0.68927401304245
1761505752913316000,1.277316162109375,0.005340436939150095,0.4361456334590912,0.8758050203323364
1761505752923352000,1.28735205078125,-0.06472866237163544,0.34332993626594543,1.0937613248825073
1761505752933388000,1.297387939453125,-0.21032901108264923,0.2412477731704712,1.3187494277954102
1761505752943424000,1.307424072265625,-0.410166472196579,0.2500050365924835,1.5200862884521484
1761505752953460000,1.3174599609375,-0.5818679332733154,0.41315987706184387,1.6593255996704102
1761505752963496000,1.327495849609375,-0.7158952355384827,0.45824134349823,1.6426329612731934
1761505752973532000,1.337531982421875,-0.7868322730064392,0.3308660686016083,1.4251642227172852
1761505752983568000,1.34756787109375,-0.765705406665802,0.3657281696796417,1.0493011474609375
1761505752993603800,1.357603759765625,-0.6592698097229004,0.6783167123794556,0.625756561756134
1761505753003640000,1.36764013671875,-0.48816195130348206,1.0304635763168335,0.23168888688087463
1761505753013676000,1.377676025390625,-0.2845430374145508,1.1730737686157227,-0.030595991760492325
1761505753023712000,1.3877119140625,-0.08364882320165634,0.8673420548439026,-0.06435874849557877
1761505753033748000,1.397748046875,0.11816685646772385,0.3031558692455292,0.17839370667934418
1761505753043784000,1.407783935546875,0.26559945940971375,-0.20381172001361847,0.5915248394012451
1761505753053820000,1.41781982421875,0.30099737644195557,-0.46216684579849243,1.0230340957641602
1761505753063855900,1.42785595703125,0.23350782692432404,-0.4732447862625122,1.31441330909729
1761505753073891800,1.437891845703125,0.11566668003797531,-0.3916948139667511,1.3574895858764648
1761505753083927800,1.447927734375,0.026264093816280365,-0.3655654489994049,1.0784777402877808
1761505753093964000,1.457964111328125,0.04208087548613548,-0.47050172090530396,0.5410113334655762
1761505753104000000,1.468,0.17888453602790833,-0.6450849771499634,-0.11374200880527496
1761505753114036000,1.478035888671875,0.34889674186706543,-0.8307557702064514,-0.7046766877174377
1761505753124072200,1.488072265625,0.4736762046813965,-0.9184520840644836,-1.068440556526184
1761505753134108200,1.498108154296875,0.5492455363273621,-0.942259669303894,-1.1638442277908325
1761505753144144100,1.50814404296875,0.6026877164840698,-0.7890592217445374,-1.0541105270385742
1761505753154179000,1.518178955078125,0.6334571242332458,-0.4853232800960541,-0.8398230671882629
1761505753164215000,1.528215087890625,0.5966578125953674,-0.1270407736301422,-0.6344163417816162
1761505753174251000,1.5382509765625,0.4720570147037506,0.14525306224822998,-0.5338221192359924
1761505753184287000,1.548286865234375,0.25658705830574036,0.25560808181762695,-0.5759570598602295
1761505753194323000,1.558322998046875,0.015342737548053265,0.2513195872306824,-0.7317565083503723
1761505753204359200,1.568359130859375,-0.16958050429821014,0.12442714720964432,-0.9365056753158569
1761505753214395100,1.57839501953125,-0.25671249628067017,-0.18095166981220245,-1.1184879541397095
1761505753224431000,1.58843115234375,-0.22204451262950897,-0.5034117698669434,-1.2152539491653442
1761505753234467000,1.598467041015625,-0.10397167503833771,-0.6717402935028076,-1.2008206844329834
1761505753244503000,1.6085029296875,0.067963607609272,-0.6828853487968445,-1.073713779449463
1761505753254539000,1.6185390625,0.2509366273880005,-0.5088805556297302,-0.8801198601722717
1761505753264575000,1.628574951171875,0.40370485186576843,-0.1513109654188156,-0.6767718195915222
1761505753274611000,1.63861083984375,0.5163856148719788,0.21785029768943787,-0.4786270260810852
1761505753284647000,1.64864697265625,0.5970727205276489,0.48873773217201233,-0.3018706440925598
1761505753294683000,1.658682861328125,0.648779571056366,0.6206976175308228,-0.1346861720085144
1761505753304718800,1.66871875,0.6739674806594849,0.6626514792442322,0.04349394887685776
1761505753314755000,1.678755126953125,0.6600087881088257,0.6588093042373657,0.22542832791805267
1761505753324791000,1.688791015625,0.595126211643219,0.5847942233085632,0.3914146423339844
1761505753334827000,1.698826904296875,0.48532435297966003,0.46503400802612305,0.5292295217514038
1761505753344863000,1.708863037109375,0.3793371915817261,0.38101473450660706,0.6561504006385803
1761505753354899000,1.71889892578125,0.2751615345478058,0.34991219639778137,0.7553180456161499
1761505753364935000,1.728934814453125,0.188790425658226,0.35421958565711975,0.8178144097328186
1761505753374971000,1.738970947265625,0.13572028279304504,0.4096341133117676,0.8533955812454224
1761505753385006800,1.7490068359375,0.10421402007341385,0.4862327575683594,0.857907235622406
1761505753395042800,1.759042724609375,0.08523420244455338,0.523175060749054,0.8337598443031311
1761505753405078800,1.769078857421875,0.052628856152296066,0.5074589252471924,0.7935977578163147
1761505753415114800,1.77911474609375,0.00299259414896369,0.43163901567459106,0.7568384408950806
1761505753425151000,1.78915087890625,-0.07606254518032074,0.28252676129341125,0.7115721106529236
1761505753435187200,1.799187255859375,-0.16115853190422058,0.05433221533894539,0.6904074549674988
1761505753445223200,1.80922314453125,-0.25917989015579224,-0.2105652242898941,0.7162238955497742
1761505753455259100,1.819259033203125,-0.3524552583694458,-0.27118009328842163,0.7774035930633545
1761505753465295000,1.829295166015625,-0.42188599705696106,-0.048527587205171585,0.7737340331077576
1761505753475331000,1.8393310546875,-0.5009368658065796,0.29260337352752686,0.6825433969497681
1761505753485367000,1.849366943359375,-0.593400776386261,0.5498104095458984,0.5648255944252014
1761505753495403000,1.859403076171875,-0.6746969223022461,0.5910230875015259,0.4603545665740967
1761505753505439000,1.86943896484375,-0.69090735912323,0.4496811330318451,0.3541136085987091
1761505753515475000,1.879474853515625,-0.5870869159698486,0.1359383910894394,0.23167264461517334
1761505753525511000,1.889510986328125,-0.3571040630340576,-0.20021671056747437,0.10860743373632431
1761505753535547100,1.899547119140625,-0.050875965505838394,-0.417487770318985,0.016533968970179558
1761505753545583000,1.9095830078125,0.2062903195619583,-0.43170586228370667,0.03422641381621361
1761505753555619000,1.919619140625,0.3103890120983124,-0.3058547377586365,0.20034641027450562
1761505753565655000,1.929655029296875,0.27414074540138245,-0.038249384611845016,0.4532681405544281
1761505753575691000,1.93969091796875,0.1548343151807785,0.3769853711128235,0.6603824496269226
1761505753585727000,1.94972705078125,-0.0011627360945567489,0.7474172115325928,0.6621832847595215
1761505753595763000,1.959762939453125,-0.17761047184467316,0.9530638456344604,0.3889685273170471
1761505753605799000,1.969798828125,-0.3514783978462219,0.8395940065383911,-0.1438295990228653
1761505753615835000,1.9798349609375,-0.45417550206184387,0.4929303526878357,-0.8158228993415833
1761505753625870000,1.9898701171875,-0.5090177059173584,0.08891868591308594,-1.4217770099639893
1761505753635906000,1.999906005859375,-0.5774896740913391,-0.23317652940750122,-1.8078533411026
1761505753645942000,2.00994189453125,-0.6461212038993835,-0.4752320349216461,-1.9267752170562744
1761505753655978000,2.01997802734375,-0.6471468210220337,-0.663715124130249,-1.7686872482299805
1761505753666014000,2.030013916015625,-0.5435149669647217,-0.6014925241470337,-1.396918535232544
1761505753676050000,2.0400498046875,-0.3343409597873688,-0.42428842186927795,-0.9569456577301025
1761505753686086000,2.0500859375,-0.07718692719936371,-0.3865027129650116,-0.5848909020423889
1761505753696121900,2.060121826171875,0.19985799491405487,-0.548267126083374,-0.3504437804222107
1761505753706157800,2.07015771484375,0.4825722575187683,-0.8410797715187073,-0.26234427094459534
1761505753716193800,2.08019384765625,0.708320140838623,-1.2023879289627075,-0.2859710454940796
1761505753726230000,2.09022998046875,0.8667454719543457,-1.5476821660995483,-0.366641104221344
1761505753736266000,2.100265869140625,0.9600685238838196,-1.8201768398284912,-0.44802412390708923
1761505753746302000,2.110302001953125,0.9832196235656738,-1.9417022466659546,-0.4845975637435913
1761505753756338000,2.120337890625,0.908271074295044,-1.7413872480392456,-0.45051711797714233
1761505753766374000,2.130373779296875,0.7332193851470947,-1.2665376663208008,-0.39673110842704773
1761505753776410000,2.14041015625,0.48619282245635986,-0.7202713489532471,-0.3889261782169342
1761505753786446000,2.150446044921875,0.23315921425819397,-0.19925637543201447,-0.4457407295703888
1761505753796482000,2.16048193359375,0.03943715617060661,0.22687362134456635,-0.5515140295028687
1761505753806518000,2.17051806640625,-0.07425639033317566,0.4590061902999878,-0.6375317573547363
1761505753816554000,2.180553955078125,-0.13125468790531158,0.5290542840957642,-0.6639510989189148
1761505753826590000,2.19058984375,-0.1874750852584839,0.5336194634437561,-0.6161843538284302
1761505753836626200,2.200626220703125,-0.26561596989631653,0.514278769493103,-0.5291730165481567
1761505753846662100,2.210662109375,-0.3256433606147766,0.4546114504337311,-0.4224412739276886
1761505753856698000,2.220697998046875,-0.34595340490341187,0.3510743975639343,-0.32176685333251953
1761505753866733000,2.230733154296875,-0.32242918014526367,0.22154757380485535,-0.22969764471054077
1761505753876769000,2.24076904296875,-0.2469908744096756,0.054131146520376205,-0.12873241305351257
1761505753886805000,2.250804931640625,-0.13042138516902924,-0.11515588313341141,0.004261057823896408
1761505753896841000,2.260841064453125,-0.02496766857802868,-0.1902189403772354,0.1996007263660431
1761505753906877000,2.270876953125,0.05295802280306816,-0.13765107095241547,0.4169892370700836
1761505753916913200,2.2809130859375,0.09473716467618942,-0.008341020904481411,0.6372947096824646
1761505753926949000,2.29094921875,0.08221231400966644,0.24849183857440948,0.8318173289299011
1761505753936985000,2.300985107421875,0.03194515034556389,0.6816243529319763,0.9534534811973572
1761505753947021000,2.31102099609375,-0.05016250163316727,1.1005433797836304,0.9720977544784546
1761505753957057000,2.32105712890625,-0.13723374903202057,1.3724778890609741,0.8864121437072754
1761505753967093000,2.331093017578125,-0.21922209858894348,1.5086570978164673,0.7251084446907043
1761505753977129000,2.34112890625,-0.28658783435821533,1.4415440559387207,0.580407440662384
1761505753987165000,2.3511650390625,-0.37215572595596313,1.2969727516174316,0.5568869709968567
1761505753997201000,2.361200927734375,-0.4506388008594513,1.21072518825531,0.651383638381958
1761505754007236900,2.37123681640625,-0.5336130857467651,1.1567882299423218,0.7790006995201111
1761505754017272800,2.38127294921875,-0.6146472096443176,1.0006532669067383,0.8601400256156921
1761505754027309000,2.39130908203125,-0.6563426852226257,0.6601119041442871,0.844905436038971
1761505754037345000,2.401344970703125,-0.6655521988868713,0.20997853577136993,0.7180928587913513
1761505754047380000,2.4113798828125,-0.636522650718689,-0.23367826640605927,0.507699191570282
1761505754057416000,2.421416015625,-0.556122362613678,-0.6461284160614014,0.22373110055923462
1761505754067452000,2.431451904296875,-0.4000166356563568,-0.8779309988021851,-0.10387606173753738
1761505754077487900,2.44148779296875,-0.2007906287908554,-0.9105989336967468,-0.4318009316921234
1761505754087523800,2.45152392578125,-0.03152037411928177,-0.8249743580818176,-0.6958842277526855
1761505754097559800,2.461559814453125,0.05717141181230545,-0.6243796944618225,-0.8706384897232056
1761505754107596000,2.471595947265625,0.09620243310928345,-0.4895976483821869,-1.0116020441055298
1761505754117632000,2.481632080078125,0.1300293654203415,-0.5334383249282837,-1.1180208921432495
1761505754127668000,2.49166796875,0.18444015085697174,-0.623741626739502,-1.1718523502349854
1761505754137704000,2.501703857421875,0.2365102767944336,-0.6328139305114746,-1.1620324850082397
1761505754147740000,2.511739990234375,0.2622840702533722,-0.5206152200698853,-1.0697212219238281
1761505754157776000,2.52177587890625,0.27528828382492065,-0.3077274560928345,-0.9233733415603638
1761505754167811800,2.531811767578125,0.27227866649627686,-0.1495242416858673,-0.7964534759521484
1761505754177848000,2.54184814453125,0.21467475593090057,-0.016160860657691956,-0.7274448275566101
1761505754187884000,2.551884033203125,0.06840222328901291,0.08503606170415878,-0.7416288256645203
1761505754197920000,2.561919921875,-0.11884649097919464,0.010463560000061989,-0.7933388948440552
1761505754207956000,2.5719560546875,-0.2487672120332718,-0.14661553502082825,-0.8133155703544617
1761505754217992200,2.5819921875,-0.29107657074928284,-0.224953755736351,-0.781251072883606
1761505754228028200,2.592028076171875,-0.25841477513313293,-0.2770632803440094,-0.7080844640731812
1761505754238064000,2.602064208984375,-0.17333024740219116,-0.3222837746143341,-0.5969355702400208
1761505754248100000,2.61210009765625,-0.07990175485610962,-0.3225540816783905,-0.477594792842865
1761505754258136000,2.622135986328125,-0.012771988287568092,-0.2777077853679657,-0.36241254210472107
1761505754268172000,2.632172119140625,0.05937730520963669,-0.21238549053668976,-0.2593729794025421
1761505754278208000,2.6422080078125,0.1506502330303192,-0.0941786989569664,-0.16795864701271057
1761505754288244000,2.652243896484375,0.22569172084331512,0.05048607662320137,-0.07957898080348969
1761505754298280000,2.662280029296875,0.2601735293865204,0.1318642944097519,0.0007499461644329131
1761505754308316000,2.67231591796875,0.24661511182785034,0.10493040829896927,0.10324196517467499
1761505754318352000,2.682351806640625,0.2097764015197754,0.0674448236823082,0.23222018778324127
1761505754328388000,2.69238818359375,0.16491305828094482,0.07949802279472351,0.38048768043518066
1761505754338424000,2.702424072265625,0.12612678110599518,0.09961021691560745,0.5159459114074707
1761505754348460000,2.7124599609375,0.11544803529977798,0.11147139966487885,0.6076750159263611
1761505754358496000,2.72249609375,0.12858673930168152,0.1240798681974411,0.6459901928901672
1761505754368532000,2.732531982421875,0.14917057752609253,0.14607784152030945,0.6301515698432922
1761505754378568000,2.74256787109375,0.1609870195388794,0.1992635726928711,0.5887979865074158
1761505754388604000,2.75260400390625,0.1622898429632187,0.2391984760761261,0.5363995432853699
1761505754398639900,2.762639892578125,0.155131533741951,0.24768222868442535,0.5006527304649353
1761505754408675800,2.77267578125,0.13096094131469727,0.22692981362342834,0.5106406211853027
1761505754418711000,2.7827109375,0.11531700193881989,0.1712425947189331,0.5911567807197571
1761505754428747800,2.792747802734375,0.12005556374788284,0.20795319974422455,0.7375574111938477
1761505754438783000,2.802782958984375,0.128268763422966,0.36688825488090515,0.8902361392974854
1761505754448819000,2.81281884765625,0.12376934289932251,0.56657874584198,1.0070596933364868
1761505754458855000,2.82285498046875,0.10285154730081558,0.5929293632507324,1.0534263849258423
1761505754468891000,2.832890869140625,0.02899649739265442,0.4101364016532898,1.0612974166870117
1761505754478926800,2.8429267578125,-0.1365775465965271,0.22672316431999207,1.0482913255691528
1761505754488962800,2.852962890625,-0.34304577112197876,0.15270937979221344,0.9647902846336365
1761505754498998800,2.862998779296875,-0.5617882609367371,0.19558894634246826,0.8184687495231628
1761505754509034800,2.87303466796875,-0.7015634179115295,0.2182266116142273,0.6902953386306763
1761505754519071000,2.883071044921875,-0.7098022103309631,0.1427323818206787,0.6218659281730652
1761505754529107200,2.893107177734375,-0.6382563710212708,-0.060998108237981796,0.6251227259635925
1761505754539143200,2.90314306640625,-0.5216869115829468,-0.28005295991897583,0.6680083870887756
1761505754549179100,2.91317919921875,-0.3868529200553894,-0.3575719892978668,0.716842532157898
1761505754559215000,2.923215087890625,-0.27718818187713623,-0.22839109599590302,0.7464845776557922
1761505754569251000,2.9332509765625,-0.20843149721622467,0.007957525551319122,0.7337296605110168
1761505754579287000,2.943287109375,-0.1615646630525589,0.16017235815525055,0.6607097387313843
1761505754589323000,2.953322998046875,-0.14947497844696045,0.17748424410820007,0.5089295506477356
1761505754599359000,2.96335888671875,-0.20651881396770477,0.10510324686765671,0.2661757469177246
1761505754609395000,2.97339501953125,-0.26472991704940796,0.033551834523677826,-0.05783506855368614
1761505754619431000,2.983430908203125,-0.2542661130428314,-0.06324581801891327,-0.43376341462135315
1761505754629467100,2.993467041015625,-0.17044363915920258,-0.19190552830696106,-0.809855043888092
1761505754639503000,3.003503173828125,-0.083954818546772,-0.3014754354953766,-1.0784814357757568
1761505754649539000,3.0135390625,-0.01967197097837925,-0.33014169335365295,-1.1607654094696045
1761505754659575000,3.023574951171875,0.03792208060622215,-0.20264631509780884,-1.067927360534668
1761505754669611000,3.033611083984375,0.11047111451625824,0.0110443951562047,-0.8863503336906433
1761505754679647000,3.04364697265625,0.199870765209198,0.23181352019309998,-0.6950240731239319
1761505754689683000,3.053682861328125,0.2701702415943146,0.38800233602523804,-0.5592345595359802
1761505754699719000,3.063718994140625,0.2964273989200592,0.46260544657707214,-0.5052818059921265
1761505754709755000,3.0737548828125,0.2693454623222351,0.5288209915161133,-0.5236472487449646
1761505754719790800,3.083790771484375,0.1914740949869156,0.5977941751480103,-0.5853428244590759
1761505754729826800,3.093826904296875,0.08819057792425156,0.5965672731399536,-0.6691892743110657
1761505754739863000,3.103863037109375,0.003971838392317295,0.5159006118774414,-0.7407824993133545
1761505754749899000,3.11389892578125,-0.03129586949944496,0.40927910804748535,-0.7652249932289124
1761505754759935000,3.12393505859375,0.0031561122741550207,0.324718177318573,-0.7164537310600281
1761505754769970000,3.133969970703125,0.07257460057735443,0.3077128231525421,-0.5861194133758545
1761505754780006000,3.144005859375,0.15973347425460815,0.3498818278312683,-0.38342541456222534
1761505754790041900,3.154041748046875,0.23751668632030487,0.3978048861026764,-0.14338113367557526
1761505754800077800,3.164077880859375,0.27002695202827454,0.48027846217155457,0.09256935119628906
1761505754810113800,3.17411376953125,0.2735508382320404,0.5498612523078918,0.27950674295425415
1761505754820150000,3.18414990234375,0.22918471693992615,0.6366515755653381,0.44518253207206726
1761505754830186000,3.19418603515625,0.14263837039470673,0.6501753330230713,0.5793182253837585
1761505754840222000,3.204221923828125,0.03349777311086655,0.6694387793540955,0.681414783000946
1761505754850258000,3.2142578125,-0.06209532916545868,0.6475894451141357,0.7681342363357544
1761505754860295000,3.224294921875,-0.15013597905635834,0.5137746334075928,0.8688802719116211
1761505754870331000,3.234330810546875,-0.21667185425758362,0.4014102816581726,0.9577875137329102
1761505754880366800,3.244366943359375,-0.2484028935432434,0.3398180305957794,1.0269639492034912
1761505754890402800,3.25440283203125,-0.23771029710769653,0.32152822613716125,1.0713553428649902
1761505754900438800,3.264438720703125,-0.1894913613796234,0.29907432198524475,1.091628074645996
1761505754910474800,3.274474853515625,-0.11989790946245193,0.24600471556186676,1.0745834112167358
1761505754920510700,3.2845107421875,-0.04364015534520149,0.02718980982899666,1.0532959699630737
1761505754930546700,3.294546630859375,0.022975889965891838,-0.1124141588807106,1.0352321863174438
1761505754940582700,3.304582763671875,0.02147413231432438,-0.13918185234069824,1.0470925569534302
1761505754950618600,3.31461865234375,-0.040945835411548615,-0.163426473736763,1.1074949502944946
1761505754960654800,3.32465478515625,-0.13382144272327423,-0.20199251174926758,1.163063406944275
1761505754970690800,3.33469091796875,-0.22618013620376587,-0.3343620002269745,1.150639295578003
1761505754980726800,3.344726806640625,-0.3257581293582916,-0.46622708439826965,1.0259265899658203
1761505754990762800,3.3547626953125,-0.46311837434768677,-0.5528905987739563,0.8276832699775696
1761505755000798700,3.364798828125,-0.6655612587928772,-0.572772204875946,0.6005124449729919
1761505755010834700,3.374834716796875,-0.8624399304389954,-0.47988563776016235,0.3720076382160187
1761505755020870700,3.38487060546875,-0.9322999715805054,-0.3246806263923645,0.15975691378116608
1761505755030906600,3.39490673828125,-0.7626060247421265,-0.06972075998783112,-0.062359780073165894
1761505755040942600,3.404942626953125,-0.3786783218383789,0.21761727333068848,-0.28997111320495605
1761505755050978600,3.414978515625,0.05318306013941765,0.2651973068714142,-0.47125381231307983
1761505755061014500,3.4250146484375,0.3726041913032532,0.03502403199672699,-0.5890110731124878
1761505755071049700,3.4350498046875,0.5197097659111023,-0.3241612911224365,-0.625317394733429
1761505755081085700,3.445085693359375,0.48970872163772583,-0.7444168925285339,-0.5838384032249451
1761505755091121700,3.45512158203125,0.418008953332901,-1.0287528038024902,-0.507481575012207
1761505755101157600,3.46515771484375,0.3849969506263733,-1.0793365240097046,-0.4486273229122162
1761505755111193600,3.475193603515625,0.3511399030685425,-0.8681319355964661,-0.4384247660636902
1761505755121229600,3.4852294921875,0.25664642453193665,-0.38123682141304016,-0.4786345064640045
1761505755131265500,3.495265625,0.11988459527492523,0.14714470505714417,-0.5732126832008362
1761505755141301500,3.505301513671875,0.005018726922571659,0.5658473968505859,-0.7393009662628174
1761505755151337700,3.515337646484375,-0.055024903267621994,0.7307564616203308,-0.9577150940895081
1761505755161374000,3.5253740234375,-0.04434109851717949,0.5684482455253601,-1.2020035982131958
1761505755171410000,3.535409912109375,-0.00027856664382852614,0.1569051891565323,-1.4146442413330078
1761505755181446000,3.54544580078125,0.04060894623398781,-0.40648946166038513,-1.5319716930389404
1761505755191481900,3.55548193359375,0.05375031381845474,-0.9275656938552856,-1.5249590873718262
1761505755201517800,3.565517822265625,0.033486586064100266,-1.2548191547393799,-1.3990647792816162
1761505755211553800,3.5755537109375,-0.04248327761888504,-1.3426613807678223,-1.1912015676498413
1761505755221589800,3.58558984375,-0.18253199756145477,-1.2374167442321777,-0.9628560543060303
1761505755231625700,3.595625732421875,-0.3393716812133789,-0.9403350353240967,-0.755245566368103
1761505755241661700,3.60566162109375,-0.4566541016101837,-0.6012115478515625,-0.6025657653808594
1761505755251697700,3.61569775390625,-0.46319082379341125,-0.3302609920501709,-0.504409909248352
1761505755261734000,3.62573388671875,-0.34915053844451904,-0.13192234933376312,-0.48376187682151794
1761505755271769900,3.635769775390625,-0.16886411607265472,-0.02040114626288414,-0.5341078639030457
1761505755281805800,3.645805908203125,0.02978266216814518,0.023788420483469963,-0.6018187403678894
1761505755291841800,3.655841796875,0.20498856902122498,-0.005991313606500626,-0.6485737562179565
1761505755301877800,3.665877685546875,0.3435477912425995,-0.1121358573436737,-0.6527671217918396
1761505755311913700,3.675913818359375,0.4252761900424957,-0.2777884602546692,-0.6132546067237854
1761505755321949700,3.68594970703125,0.44951629638671875,-0.49743029475212097,-0.5349180102348328
1761505755331985700,3.695985595703125,0.44827577471733093,-0.7074096202850342,-0.40923944115638733
1761505755342021600,3.706021728515625,0.4198494851589203,-0.8669124841690063,-0.2561497688293457
1761505755352057600,3.7160576171875,0.3628373146057129,-0.9510576725006104,-0.0819673016667366
1761505755362093600,3.726093505859375,0.28927576541900635,-0.9442279934883118,0.10007919371128082
1761505755372128800,3.736128662109375,0.21177057921886444,-0.8718675374984741,0.2585567235946655
1761505755382164700,3.746164794921875,0.15891188383102417,-0.6678361296653748,0.3706592917442322
1761505755392200700,3.75620068359375,0.14235235750675201,-0.3217383623123169,0.3895464241504669
1761505755402236700,3.766236572265625,0.14012488722801208,0.10560445487499237,0.31696435809135437
1761505755412272600,3.776272705078125,0.14490632712841034,0.4990529417991638,0.22227008640766144
1761505755422308600,3.78630859375,0.168618842959404,0.9301005005836487,0.1842433363199234
1761505755432344600,3.796344482421875,0.18776430189609528,1.2808408737182617,0.2269817441701889
1761505755442380500,3.806380615234375,0.14124740660190582,1.0824711322784424,0.3774538040161133
1761505755452416800,3.816416748046875,0.02905215695500374,0.8073641657829285,0.6302229762077332
1761505755462452700,3.82645263671875,-0.1313236653804779,0.7325093746185303,0.8686123490333557
1761505755472488700,3.83648876953125,-0.32396209239959717,0.7677126526832581,0.9212561249732971
1761505755482524700,3.846524658203125,-0.49866998195648193,0.64316725730896,0.744408905506134
1761505755492560600,3.856560546875,-0.5592771172523499,0.4742186963558197,0.48673129081726074
1761505755502596900,3.866596923828125,-0.46237537264823914,0.3870427906513214,0.3260153830051422
1761505755512632800,3.8766328125,-0.282247394323349,0.3022141754627228,0.3511769473552704
1761505755522668800,3.886668701171875,-0.13981115818023682,0.20654571056365967,0.5326716303825378
1761505755532704800,3.896704833984375,-0.08258382230997086,0.12490704655647278,0.7914738655090332
1761505755542740700,3.90674072265625,-0.11920708417892456,0.019641878083348274,0.9996371865272522
1761505755552776700,3.916776611328125,-0.20347003638744354,-0.15613900125026703,1.0691598653793335
1761505755562813000,3.92681298828125,-0.2789869010448456,-0.3598364591598511,0.9887949824333191
1761505755572849000,3.936848876953125,-0.305441677570343,-0.5593783259391785,0.7752973437309265
1761505755582884900,3.946884765625,-0.2778228223323822,-0.5785238146781921,0.4875164031982422
1761505755592920800,3.9569208984375,-0.20315711200237274,-0.41038352251052856,0.14827361702919006
1761505755602956800,3.966956787109375,-0.12390303611755371,-0.29168057441711426,-0.21675947308540344
1761505755612992800,3.97699267578125,-0.08817779272794724,-0.17278429865837097,-0.5628029108047485
1761505755623028700,3.98702880859375,-0.0984293669462204,-0.029353095218539238,-0.8613291382789612
1761505755633064700,3.997064697265625,-0.11134357005357742,0.007212639320641756,-1.1016570329666138
1761505755643100700,4.0071005859375,-0.07746496051549911,0.01943601667881012,-1.2879483699798584
1761505755653134800,4.017134765625,0.0016434367280453444,-0.009878196753561497,-1.4041916131973267
1761505755663170800,4.0271708984375,0.10051941871643066,-0.16811603307724,-1.4600775241851807
1761505755673206800,4.037206787109375,0.18977180123329163,-0.417141318321228,-1.456093668937683
1761505755683242800,4.04724267578125,0.24177667498588562,-0.6322783827781677,-1.4055885076522827
1761505755693278700,4.05727880859375,0.23970367014408112,-0.7550668716430664,-1.3350410461425781
1761505755703314700,4.067314697265625,0.19237050414085388,-0.8278684020042419,-1.269823670387268
1761505755713350700,4.0773505859375,0.10606251657009125,-0.8936803936958313,-1.1956040859222412
1761505755723387000,4.087386962890625,0.007706122938543558,-0.8903389573097229,-1.0683467388153076
1761505755733422800,4.0974228515625,-0.06301838159561157,-0.7544642090797424,-0.8574838042259216
1761505755743458800,4.107458740234375,-0.08935198187828064,-0.5085649490356445,-0.5884472727775574
1761505755753494800,4.117494873046875,-0.04535443335771561,-0.2619554400444031,-0.30410635471343994
1761505755763530800,4.12753076171875,0.05116651579737663,-0.04844822734594345,-0.03062342293560505
1761505755773566700,4.137566650390625,0.16075505316257477,0.12305375188589096,0.20999744534492493
1761505755783602700,4.147602783203125,0.23470838367938995,0.2477528154850006,0.3908785283565521
1761505755793637600,4.1576376953125,0.24690991640090942,0.3357548415660858,0.5090653896331787
1761505755803673900,4.167673828125,0.19856955111026764,0.36060959100723267,0.5612297654151917
1761505755813709800,4.177709716796875,0.12681441009044647,0.3110625445842743,0.546477735042572
1761505755823745800,4.187745849609375,0.06046121194958687,0.24173486232757568,0.4898914098739624
1761505755833781800,4.19778173828125,0.01507029589265585,0.19121097028255463,0.4269515872001648
1761505755843817700,4.207817626953125,-0.025604695081710815,0.15358184278011322,0.36532044410705566
1761505755853853700,4.217853759765625,-0.07961786538362503,0.13716638088226318,0.3014533221721649
1761505755863889700,4.2278896484375,-0.1443321406841278,0.14028121531009674,0.2255316525697708
1761505755873925600,4.237925537109375,-0.1949194222688675,0.1866401880979538,0.12830977141857147
1761505755883961600,4.247961669921875,-0.18847563862800598,0.2868988811969757,0.012320581823587418
1761505755893997600,4.25799755859375,-0.13322755694389343,0.4081480801105499,-0.08924918621778488
1761505755904033500,4.268033447265625,-0.05873042345046997,0.4851784110069275,-0.10958109050989151
1761505755914069800,4.27806982421875,-0.021562550216913223,0.46844950318336487,0.015122760087251663
1761505755924105700,4.288105712890625,-0.023243004456162453,0.46306219696998596,0.2944822311401367
1761505755934141700,4.2981416015625,-0.038608111441135406,0.5444864630699158,0.6913374662399292
1761505755944177700,4.308177734375,-0.0796535462141037,0.627322793006897,1.105062484741211
1761505755954213600,4.318213623046875,-0.16734638810157776,0.7259899377822876,1.4564231634140015
1761505755964249600,4.32824951171875,-0.3067074716091156,0.6568660140037537,1.6714701652526855
1761505755974285600,4.33828564453125,-0.4108165502548218,0.5986389517784119,1.753247618675232
1761505755984321500,4.348321533203125,-0.455892950296402,0.8843385577201843,1.7153630256652832
1761505755994357500,4.358357421875,-0.4583771526813507,1.3562427759170532,1.5488190650939941
1761505756004393500,4.3683935546875,-0.41876929998397827,1.6119996309280396,1.284671664237976
1761505756014429700,4.3784296875,-0.3100936710834503,1.5471251010894775,1.0137392282485962
1761505756024465700,4.388465576171875,-0.13603053987026215,1.184645414352417,0.8082478046417236
1761505756034501600,4.398501708984375,0.015802398324012756,0.6988489031791687,0.7083734273910522
1761505756044536600,4.40853662109375,0.056952763348817825,0.2432512640953064,0.702272891998291
1761505756054572500,4.418572509765625,-0.0501374676823616,-0.22873064875602722,0.7245651483535767
1761505756064608500,4.4286083984375,-0.2392440140247345,-0.5402488708496094,0.7037221789360046
1761505756074644500,4.43864453125,-0.377135306596756,-0.6494938731193542,0.5578083992004395
1761505756084680400,4.448680419921875,-0.3695775270462036,-0.6718910336494446,0.22325704991817474
1761505756094716700,4.458716552734375,-0.21526171267032623,-0.7094717025756836,-0.25925979018211365
1761505756104752600,4.468752685546875,0.013968279585242271,-0.7509022355079651,-0.7690839171409607
1761505756114788600,4.47878857421875,0.2615719437599182,-0.74134761095047,-1.1716949939727783
1761505756124824600,4.488824462890625,0.4499722123146057,-0.6614440083503723,-1.393768310546875
1761505756134860500,4.498860595703125,0.5353611707687378,-0.46725907921791077,-1.4407049417495728
1761505756144896500,4.508896484375,0.5601117610931396,-0.2682783305644989,-1.3920135498046875
1761505756154932500,4.518932373046875,0.5635645389556885,-0.10946284234523773,-1.3179001808166504
1761505756164968700,4.52896875,0.5297906398773193,-0.007446730975061655,-1.246069312095642
1761505756175004700,4.539004638671875,0.4451407194137573,0.026673689484596252,-1.1783279180526733
1761505756185040600,4.54904052734375,0.31216269731521606,-0.002305498579517007,-1.1179670095443726
1761505756195076600,4.55907666015625,0.15308675169944763,-0.09218105673789978,-1.072201132774353
1761505756205112600,4.569112548828125,-0.021289575845003128,-0.3023015260696411,-1.0214279890060425
1761505756215148800,4.579148681640625,-0.17415688931941986,-0.5646191835403442,-0.9296607971191406
1761505756225185500,4.589185546875,-0.26890257000923157,-0.7312750220298767,-0.7967738509178162
1761505756235221500,4.599221435546875,-0.310072124004364,-0.7386831045150757,-0.6223745942115784
1761505756245257700,4.6092578125,-0.32100412249565125,-0.6054262518882751,-0.4135654866695404
1761505756255293700,4.619293701171875,-0.3020669221878052,-0.3935462236404419,-0.19161443412303925
1761505756265329700,4.62932958984375,-0.27374711632728577,-0.17617502808570862,0.005914348177611828
1761505756275365600,4.63936572265625,-0.2414831966161728,0.016594422981142998,0.1652696579694748
1761505756285401600,4.649401611328125,-0.22408822178840637,0.1720133125782013,0.2796122133731842
1761505756295437600,4.6594375,-0.21395888924598694,0.2885074317455292,0.34751003980636597
1761505756305473500,4.6694736328125,-0.20513024926185608,0.30967235565185547,0.38083523511886597
1761505756315509500,4.679509521484375,-0.1802922785282135,0.2833419740200043,0.3927776515483856
1761505756325545500,4.68954541015625,-0.15892626345157623,0.27464115619659424,0.40421298146247864
1761505756335581400,4.69958154296875,-0.1387898474931717,0.3214954733848572,0.39510124921798706
1761505756345617400,4.709617431640625,-0.12242285162210464,0.3869067132472992,0.3501918315887451
1761505756355653600,4.719653564453125,-0.0951898992061615,0.4145479202270508,0.2814905345439911
1761505756365689600,4.729689697265625,-0.03768080100417137,0.42326605319976807,0.22363175451755524
1761505756375725600,4.7397255859375,0.07381057739257812,0.46439269185066223,0.20677395164966583
1761505756385761500,4.749761474609375,0.22360539436340332,0.5310340523719788,0.22452551126480103
1761505756395797800,4.7597978515625,0.37205904722213745,0.5466039776802063,0.27816930413246155
1761505756405833700,4.769833740234375,0.46907535195350647,0.4846460521221161,0.3771560788154602
1761505756415869700,4.77986962890625,0.48273494839668274,0.4201437532901764,0.5163629651069641
1761505756425905700,4.78990576171875,0.392529159784317,0.35146430134773254,0.6640506982803345
1761505756435940600,4.799940673828125,0.24314740300178528,0.1910565048456192,0.8094180226325989
1761505756445976600,4.8099765625,0.07238045334815979,-0.06698968261480331,0.9311795830726624
1761505756456012800,4.8200126953125,-0.07134981453418732,-0.37802213430404663,0.9900698065757751
1761505756466048800,4.830048828125,-0.17053020000457764,-0.6451084017753601,0.9314277768135071
1761505756476084700,4.840084716796875,-0.25590500235557556,-0.749348521232605,0.7013046145439148
1761505756486120700,4.85012060546875,-0.31093737483024597,-0.4380095601081848,0.32651740312576294
1761505756496156700,4.86015673828125,-0.38002750277519226,0.2709830403327942,-0.1118016317486763
1761505756506192600,4.870192626953125,-0.4621015787124634,0.8988029956817627,-0.4927076995372772
1761505756516228600,4.880228515625,-0.4793657958507538,1.0271798372268677,-0.7148557901382446
1761505756526264600,4.8902646484375,-0.3935987055301666,0.7373771071434021,-0.7231374382972717
1761505756536300500,4.900300537109375,-0.19444137811660767,0.3378153145313263,-0.5195707678794861
1761505756546336800,4.910336669921875,0.015245265327394009,-0.11625363677740097,-0.23455871641635895
1761505756556372700,4.920372802734375,0.12600374221801758,-0.6133022904396057,0.013482785783708096
1761505756566408700,4.93040869140625,0.10561830550432205,-1.0819281339645386,0.19940285384655
1761505756576444700,4.940444580078125,0.047921985387802124,-1.3536254167556763,0.3261866271495819
1761505756586480600,4.950480712890625,0.018453309312462807,-1.426954984664917,0.3603006601333618
1761505756596516600,4.9605166015625,0.021031782031059265,-1.433739185333252,0.3134673833847046
1761505756606552600,4.970552490234375,0.045629002153873444,-1.398111343383789,0.2048247903585434
1761505756616588500,4.980588623046875,0.09261035919189453,-1.4051433801651,0.01612304337322712
1761505756626624500,4.99062451171875,0.17433398962020874,-1.383242130279541,-0.25663790106773376
1761505756636660500,5.000660400390625,0.26522767543792725,-1.231933832168579,-0.5588701963424683
1761505756646696400,5.010696533203125,0.3538888394832611,-0.9638017416000366,-0.845430314540863
1761505756656732700,5.020732666015625,0.4215698838233948,-0.660580575466156,-1.0800050497055054
1761505756666768600,5.0307685546875,0.4376830756664276,-0.39585599303245544,-1.2482643127441406
1761505756676804600,5.0408046875,0.37435683608055115,-0.14261387288570404,-1.3324207067489624
1761505756686840600,5.050840576171875,0.24853764474391937,0.04192161560058594,-1.367307424545288
1761505756696876500,5.06087646484375,0.09209290891885757,0.11691516637802124,-1.368903398513794
1761505756706912500,5.07091259765625,-0.06842672824859619,0.10254794359207153,-1.3552008867263794
1761505756716948500,5.080948486328125,-0.19717192649841309,0.03201146051287651,-1.3537726402282715
1761505756726983400,5.0909833984375,-0.2591809630393982,-0.11101440340280533,-1.315421223640442
1761505756737019600,5.10101953125,-0.2345733642578125,-0.22036992013454437,-1.1722908020019531
1761505756747055600,5.1110556640625,-0.1202867329120636,-0.12209128588438034,-0.9242122173309326
1761505756757091600,5.121091552734375,0.043905939906835556,0.1572311669588089,-0.5958313941955566
1761505756767127600,5.13112744140625,0.2080858200788498,0.4759010374546051,-0.23335762321949005
1761505756777163500,5.14116357421875,0.3203745484352112,0.7255920767784119,0.1308208703994751
1761505756787199500,5.151199462890625,0.3472689986228943,0.888170063495636,0.4507301449775696
1761505756797235700,5.161235595703125,0.32460257411003113,0.990088701248169,0.7196156978607178
1761505756807271700,5.171271728515625,0.26224198937416077,1.021613597869873,0.9209205508232117
1761505756817307600,5.1813076171875,0.18222147226333618,0.9565570950508118,1.0454456806182861
1761505756827343600,5.191343505859375,0.0904148519039154,0.8152149319648743,1.1081175804138184
1761505756837379600,5.201379638671875,-0.020198479294776917,0.6247419118881226,1.0974454879760742
1761505756847415800,5.211415771484375,-0.1410873532295227,0.43244171142578125,1.0452971458435059
1761505756857451800,5.22145166015625,-0.22529757022857666,0.36303919553756714,0.9359996318817139
1761505756867488000,5.231488037109375,-0.24724015593528748,0.4847400486469269,0.7847020030021667
1761505756877524000,5.24152392578125,-0.18729345500469208,0.7562487721443176,0.6328336596488953
1761505756887560000,5.251559814453125,-0.06764482706785202,1.0517326593399048,0.4924086332321167
1761505756897596000,5.261595947265625,0.0383809432387352,1.2206041812896729,0.3723123073577881
1761505756907631900,5.2716318359375,0.06727384775876999,1.146759033203125,0.31034907698631287
1761505756917667800,5.281667724609375,-0.009217998944222927,0.804862380027771,0.36413267254829407
1761505756927703800,5.291703857421875,-0.15569639205932617,0.40703460574150085,0.5853718519210815
1761505756937739800,5.30173974609375,-0.27549469470977783,0.19020509719848633,0.947036862373352
1761505756947775700,5.311775634765625,-0.3152671456336975,0.17500697076320648,1.341917634010315
1761505756957811700,5.321811767578125,-0.3214901387691498,0.32126671075820923,1.7032403945922852
1761505756967848000,5.331847900390625,-0.3615584671497345,0.577337384223938,1.9651542901992798
1761505756977884000,5.3418837890625,-0.3869120180606842,0.9290879368782043,2.0290491580963135
1761505756987920000,5.351919921875,-0.32130560278892517,1.185843586921692,1.7911345958709717
1761505756997955800,5.361955810546875,-0.14457662403583527,1.1791877746582031,1.2973154783248901
1761505757007990800,5.37199072265625,0.10539912432432175,0.8529646992683411,0.7060242295265198
1761505757018026800,5.38202685546875,0.3512919843196869,0.38678181171417236,0.2313022017478943
1761505757028062700,5.392062744140625,0.529820442199707,-0.024568192660808563,-0.018145980313420296
1761505757038098700,5.4020986328125,0.5695955753326416,-0.3383881747722626,-0.07653126120567322
1761505757048135000,5.412135009765625,0.44863346219062805,-0.6202078461647034,-0.014809039421379566
1761505757058171000,5.4221708984375,0.2367829829454422,-0.8436340093612671,0.07583270967006683
1761505757068206800,5.432206787109375,0.013610883615911007,-1.0347856283187866,0.07788947224617004
1761505757078242800,5.442242919921875,-0.17165911197662354,-1.2387858629226685,-0.09190195798873901
1761505757088278800,5.45227880859375,-0.2607479691505432,-1.4216326475143433,-0.43398287892341614
1761505757098314800,5.462314697265625,-0.23819871246814728,-1.4286059141159058,-0.8459853529930115
1761505757108350700,5.472350830078125,-0.16920819878578186,-1.2082860469818115,-1.205110788345337
1761505757118386700,5.48238671875,-0.1205620989203453,-0.8912686705589294,-1.445841908454895
1761505757128423000,5.4924228515625,-0.0880022943019867,-0.5578011870384216,-1.5492950677871704
1761505757138459000,5.502458984375,-0.047148335725069046,-0.2201414257287979,-1.5335229635238647
1761505757148494800,5.512494873046875,0.024946095421910286,0.022055501118302345,-1.4560835361480713
1761505757158531000,5.522531005859375,0.10793445259332657,0.13262994587421417,-1.3584321737289429
1761505757168567000,5.532567138671875,0.16237373650074005,0.12425830215215683,-1.2546546459197998
1761505757178603000,5.54260302734375,0.15491315722465515,0.05181020125746727,-1.154698133468628
1761505757188639000,5.552638916015625,0.07641115039587021,-0.020114855840802193,-1.0648322105407715
1761505757198675000,5.562675048828125,-0.04379035905003548,-0.08134465664625168,-0.9984891414642334
1761505757208711000,5.5727109375,-0.15265771746635437,-0.09945601969957352,-0.942934513092041
1761505757218747000,5.582746826171875,-0.22319473326206207,-0.043059319257736206,-0.8798647522926331
1761505757228782800,5.592782958984375,-0.24849769473075867,0.05871817469596863,-0.8009680509567261
1761505757238818800,5.60281884765625,-0.24056360125541687,0.16489121317863464,-0.7121828198432922
1761505757248854800,5.612854736328125,-0.1981104165315628,0.18074847757816315,-0.6188696026802063
1761505757258890800,5.622890869140625,-0.1262596696615219,0.11988645792007446,-0.5029670000076294
1761505757268926000,5.632926025390625,-0.0442257858812809,0.020534569397568703,-0.34164682030677795
1761505757278962000,5.6429619140625,0.02858210913836956,-0.053635530173778534,-0.13655491173267365
1761505757288998000,5.652997802734375,0.06425914913415909,-0.05474074184894562,0.08459557592868805
1761505757299033900,5.663033935546875,0.049914829432964325,-0.04657815396785736,0.2875675857067108
1761505757309069800,5.67306982421875,0.0011891013709828258,-0.030479345470666885,0.4503314793109894
1761505757319105800,5.683105712890625,-0.07980188727378845,0.029998645186424255,0.5676810145378113
1761505757329141800,5.693141845703125,-0.17310893535614014,0.1411302238702774,0.6550276279449463
1761505757339177700,5.703177734375,-0.2521326541900635,0.2513432800769806,0.7212756276130676
1761505757349214000,5.7132138671875,-0.2982833683490753,0.271819531917572,0.7621352076530457
1761505757359250000,5.72325,-0.3007936477661133,0.0955054834485054,0.793579638004303
1761505757369286000,5.733285888671875,-0.2732989192008972,-0.14205381274223328,0.8242962956428528
1761505757379321900,5.74332177734375,-0.22285811603069305,-0.18725670874118805,0.8453299403190613
1761505757389357800,5.75335791015625,-0.16687393188476562,-0.014997857622802258,0.8808397054672241
1761505757399393800,5.763393798828125,-0.12579600512981415,0.29395198822021484,0.9307830333709717
1761505757409429800,5.7734296875,-0.09446045756340027,0.550292432308197,0.9718090295791626
1761505757419465700,5.7834658203125,-0.06308655440807343,0.6290298700332642,0.9623447060585022
1761505757429501700,5.793501708984375,-0.004508199170231819,0.4527762532234192,0.944277286529541
1761505757439537700,5.80353759765625,0.07964742183685303,0.39949652552604675,0.9283446669578552
1761505757449573600,5.81357373046875,0.12065264582633972,0.7428703904151917,0.9233168959617615
1761505757459609900,5.82360986328125,0.0427786223590374,1.1935886144638062,0.943158745765686
1761505757469646000,5.83364599609375,-0.14298191666603088,1.510319709777832,0.9658768773078918
1761505757479682000,5.84368212890625,-0.34006622433662415,1.4992645978927612,0.988807737827301
1761505757489718000,5.853718017578125,-0.47696441411972046,1.2358596324920654,1.0254709720611572
1761505757499754000,5.86375390625,-0.5074989199638367,0.7540341019630432,1.0498244762420654
1761505757509788700,5.87378857421875,-0.39437127113342285,0.1522742211818695,1.028871774673462
1761505757519824600,5.88382470703125,-0.16327068209648132,-0.3093983232975006,0.8808016180992126
1761505757529860900,5.89386083984375,0.011256649158895016,-0.6483327150344849,0.5577806830406189
1761505757539897000,5.90389697265625,0.04634778946638107,-0.7738370895385742,0.11099150031805038
1761505757549933000,5.91393310546875,0.011565842665731907,-0.6717680096626282,-0.372052401304245
1761505757559969000,5.923968994140625,-0.03327406570315361,-0.577648401260376,-0.8527681231498718
1761505757570005000,5.9340048828125,-0.07415811717510223,-0.7565351128578186,-1.2794981002807617
1761505757580041000,5.944041015625,-0.08959166705608368,-1.0446268320083618,-1.6092305183410645
1761505757590077000,5.954076904296875,-0.09980355948209763,-1.3276859521865845,-1.8610515594482422
1761505757600113000,5.96411279296875,-0.13277535140514374,-1.497496485710144,-2.0243124961853027
1761505757610148900,5.97414892578125,-0.1549845188856125,-1.4346696138381958,-2.0608866214752197
1761505757620184800,5.984184814453125,-0.11852318793535233,-1.148026943206787,-1.9932352304458618
1761505757630220800,5.994220703125,-0.04472166672348976,-0.7492766380310059,-1.859358310699463
1761505757640256800,6.0042568359375,0.03918415307998657,-0.43932995200157166,-1.6748331785202026
1761505757650293000,6.01429296875,0.12803120911121368,-0.15373949706554413,-1.4676859378814697
1761505757660329000,6.024328857421875,0.15681011974811554,0.10429311543703079,-1.2885446548461914
1761505757670365000,6.034364990234375,0.09170275926589966,0.283442884683609,-1.1937263011932373
1761505757680401000,6.04440087890625,-0.038418762385845184,0.3576239049434662,-1.209975242614746
1761505757690436900,6.054436767578125,-0.18451951444149017,0.3079221248626709,-1.2852425575256348
1761505757700472800,6.064472900390625,-0.25117284059524536,0.18479354679584503,-1.311050534248352
1761505757710508800,6.0745087890625,-0.18020252883434296,0.13818290829658508,-1.2399070262908936
1761505757720543700,6.084543701171875,-0.01728151924908161,0.2544005811214447,-1.090070128440857
1761505757730580000,6.094580078125,0.14431217312812805,0.4456224739551544,-0.8724329471588135
1761505757740616000,6.104615966796875,0.26998433470726013,0.5648471713066101,-0.6076686382293701
1761505757750652000,6.11465185546875,0.3570031225681305,0.6244944930076599,-0.30617085099220276
1761505757760687900,6.12468798828125,0.38498762249946594,0.6500962376594543,-0.011988752521574497
1761505757770723800,6.134723876953125,0.34983575344085693,0.6171543002128601,0.25916579365730286
1761505757780759800,6.144759765625,0.259125292301178,0.5862312316894531,0.48839470744132996
1761505757790795800,6.154795654296875,0.15949591994285583,0.5865039825439453,0.6680965423583984
1761505757800831700,6.164831787109375,0.0891442596912384,0.5353342294692993,0.7544479370117188
1761505757810867700,6.17486767578125,0.08364616334438324,0.40520554780960083,0.7338625192642212
1761505757820903700,6.184903564453125,0.15466360747814178,0.2727995812892914,0.6219202876091003
1761505757830939600,6.194939697265625,0.259418249130249,0.15798990428447723,0.4229179620742798
1761505757840976000,6.204975830078125,0.35670778155326843,-0.07363507151603699,0.15737497806549072
1761505757851011800,6.21501171875,0.5383252501487732,-0.31915029883384705,-0.16790351271629333
1761505757861047800,6.2250478515625,0.8862784504890442,-0.3344738483428955,-0.4598544239997864
1761505757871083800,6.235083740234375,1.2053741216659546,0.2111804187297821,-0.6364483833312988
1761505757881119700,6.24511962890625,1.1362110376358032,1.8067587614059448,0.35025253891944885
1761505757891155700,6.25515576171875,0.7643948793411255,2.0297577381134033,1.1395528316497803
1761505757901191700,6.265191650390625,0.2110038548707962,1.2449015378952026,1.6834216117858887
1761505757911227600,6.2752275390625,-0.06692869961261749,-0.5542850494384766,1.8829824924468994
1761505757921263600,6.285263671875,-0.14709463715553284,-1.7428420782089233,1.836556315422058
1761505757931299600,6.295299560546875,-0.17475582659244537,-1.4411512613296509,1.7757468223571777
1761505757941334800,6.305334716796875,-0.21000835299491882,-0.6764770150184631,1.8042281866073608
