time,seconds_elapsed,z,y,x
1761505751740361700,0.10436181640625,0.005434300750494003,-0.046473193913698196,-0.08007428795099258
1761505751750397700,0.114397705078125,-0.02923150360584259,-0.03930463269352913,-0.08219505846500397
1761505751760433700,0.12443359375,-0.04998445138335228,0.004276402294635773,-0.07174134999513626
1761505751770469600,0.1344697265625,-0.05896566063165665,0.05125017464160919,-0.05892056226730347
1761505751780505600,0.144505615234375,-0.05585934966802597,0.06709464639425278,-0.0364469476044178
1761505751790541600,0.15454150390625,-0.039604030549526215,0.0764877125620842,0.0035763722844421864
1761505751800577500,0.16457763671875,-0.009498857893049717,0.0925082266330719,0.06352865695953369
1761505751810613800,0.17461376953125,0.02057637646794319,0.07903052121400833,0.1328662782907486
1761505751820649700,0.184649658203125,0.0529034249484539,0.021803978830575943,0.18856389820575714
1761505751830684700,0.1946845703125,0.10523608326911926,-0.057642944157123566,0.246908500790596
1761505751840720600,0.204720703125,0.18266484141349792,-0.10013900697231293,0.30282315611839294
1761505751850756600,0.214756591796875,0.27299633622169495,-0.13757506012916565,0.36684635281562805
1761505751860792800,0.224792724609375,0.3524749279022217,-0.1463717520236969,0.4786607623100281
1761505751870829000,0.2348291015625,0.4253537356853485,-0.04401329159736633,0.6079376935958862
1761505751880865000,0.244864990234375,0.47879087924957275,0.03997242450714111,0.6973738074302673
1761505751890901000,0.25490087890625,0.5008462071418762,0.12403295934200287,0.7447681427001953
1761505751900937000,0.26493701171875,0.48544222116470337,0.21325019001960754,0.7687016725540161
1761505751910973200,0.27497314453125,0.4160519540309906,0.2947216033935547,0.7789987921714783
1761505751921009200,0.285009033203125,0.2752136290073395,0.38396358489990234,0.813169538974762
1761505751931045000,0.295045166015625,0.047168999910354614,0.41353267431259155,0.8695433139801025
1761505751941081000,0.3050810546875,-0.21926167607307434,0.33852484822273254,0.9362209439277649
1761505751951117000,0.315116943359375,-0.46879106760025024,0.3133337199687958,1.0340412855148315
1761505751961153000,0.325153076171875,-0.6407663226127625,0.35772594809532166,1.1333987712860107
1761505751971189000,0.33518896484375,-0.6936417818069458,0.5003724694252014,1.2038710117340088
1761505751981225000,0.345224853515625,-0.614351212978363,0.7403680086135864,1.19143545627594
1761505751991261000,0.355260986328125,-0.4769568145275116,1.0281057357788086,1.0922646522521973
1761505752001297000,0.365296875,-0.3376476466655731,1.3378729820251465,0.9433462023735046
1761505752011332900,0.375332763671875,-0.25046634674072266,1.544526219367981,0.7887813448905945
1761505752021369000,0.385369140625,-0.20220693945884705,1.4379339218139648,0.6320985555648804
1761505752031405000,0.395405029296875,-0.18047411739826202,0.9889681339263916,0.47627633810043335
1761505752041441000,0.40544091796875,-0.1596556454896927,0.32577046751976013,0.3380734622478485
1761505752051477000,0.41547705078125,-0.11120589077472687,-0.33064860105514526,0.2120785415172577
1761505752061513000,0.425512939453125,-0.03967764228582382,-0.903963029384613,0.10059196501970291
1761505752071549000,0.435548828125,-0.00228210911154747,-1.3166494369506836,0.018058018758893013
1761505752081585000,0.4455849609375,-0.039977289736270905,-1.5839910507202148,-0.02619999088346958
1761505752091620900,0.455620849609375,-0.15952037274837494,-1.6645909547805786,-0.019932104274630547
1761505752101656000,0.465656005859375,-0.3049263060092926,-1.5567939281463623,-0.0035456744953989983
1761505752111692000,0.475692138671875,-0.39125707745552063,-1.3442946672439575,-0.03163359314203262
1761505752121728000,0.48572802734375,-0.36271917819976807,-1.0687222480773926,-0.11381448060274124
1761505752131764000,0.495763916015625,-0.21454809606075287,-0.7533749938011169,-0.23181729018688202
1761505752141800000,0.505800048828125,0.0048700133338570595,-0.47910165786743164,-0.37679871916770935
1761505752151836000,0.5158359375,0.2107784003019333,-0.2234140932559967,-0.5177227258682251
1761505752161872000,0.525871826171875,0.43622830510139465,-0.05776999890804291,-0.6238845586776733
1761505752171907800,0.535907958984375,0.6262505650520325,-0.020563451573252678,-0.7325934171676636
1761505752181943800,0.54594384765625,0.7516670823097229,-0.014711953699588776,-0.8415399193763733
1761505752191979800,0.555979736328125,0.8294474482536316,-0.02176491729915142,-0.9300106763839722
1761505752202016000,0.56601611328125,0.8778194785118103,-0.05339794605970383,-0.9873738288879395
1761505752212052000,0.576052001953125,0.8972092866897583,-0.19817829132080078,-1.013515591621399
1761505752222088200,0.586088134765625,0.8725902438163757,-0.4145206809043884,-0.9901170134544373
1761505752232124200,0.596124267578125,0.7753064632415771,-0.5455411076545715,-0.9137980937957764
1761505752242160000,0.60616015625,0.6073043942451477,-0.5738568902015686,-0.8084295988082886
1761505752252196000,0.616196044921875,0.39108842611312866,-0.5326112508773804,-0.6939929723739624
1761505752262232000,0.626232177734375,0.1550510972738266,-0.4581061005592346,-0.5811865329742432
1761505752272268000,0.63626806640625,-0.061235327273607254,-0.4099959135055542,-0.46093133091926575
1761505752282304000,0.646303955078125,-0.24109724164009094,-0.3842806816101074,-0.3152550756931305
1761505752292340000,0.656340087890625,-0.373067170381546,-0.3402318060398102,-0.14428982138633728
1761505752302376000,0.6663759765625,-0.45591971278190613,-0.2411195933818817,0.05258622393012047
1761505752312412000,0.676411865234375,-0.499763160943985,-0.09293745458126068,0.2748851776123047
1761505752322448100,0.6864482421875,-0.5244287848472595,0.09090694785118103,0.501407265663147
1761505752332484000,0.696484130859375,-0.5356577038764954,0.24894842505455017,0.7064833641052246
1761505752342520000,0.70652001953125,-0.5366387963294983,0.4080757796764374,0.8852091431617737
1761505752352556000,0.71655615234375,-0.5197641849517822,0.5916071534156799,1.0339280366897583
1761505752362592000,0.726592041015625,-0.49420663714408875,0.7690991163253784,1.1359010934829712
1761505752372628000,0.7366279296875,-0.4640786349773407,0.8827149271965027,1.1748788356781006
1761505752382663000,0.746662841796875,-0.4306112229824066,0.8792840242385864,1.16660737991333
1761505752392699000,0.756698974609375,-0.3857711851596832,0.6715997457504272,1.1462616920471191
1761505752402735000,0.766735107421875,-0.32504257559776306,0.40496405959129333,1.1794170141220093
1761505752412771000,0.77677099609375,-0.24072028696537018,0.3201448917388916,1.2996249198913574
1761505752422807000,0.78680712890625,-0.15826402604579926,0.4473036527633667,1.4649041891098022
1761505752432843000,0.796843017578125,-0.09105537831783295,0.6969167590141296,1.547113299369812
1761505752442879000,0.80687890625,-0.027913160622119904,0.9246053099632263,1.417555332183838
1761505752452915000,0.8169150390625,0.00002040807157754898,1.0498157739639282,1.106334924697876
1761505752462951000,0.826950927734375,-0.01848536729812622,1.059165120124817,0.6438511610031128
1761505752472987000,0.83698681640625,-0.051339127123355865,0.9160517454147339,0.09862131625413895
1761505752483022800,0.84702294921875,-0.048995815217494965,0.5239564180374146,-0.4382099211215973
1761505752493058800,0.857058837890625,0.05809395760297775,0.008258212357759476,-0.871842622756958
1761505752503094800,0.8670947265625,0.2542349696159363,-0.2665291428565979,-1.092941403388977
1761505752513131000,0.877131103515625,0.4369215667247772,-0.46861669421195984,-1.0673781633377075
1761505752523167000,0.8871669921875,0.49157950282096863,-0.522723376750946,-0.8070842623710632
1761505752533203000,0.897202880859375,0.3800983130931854,-0.5216946005821228,-0.45519524812698364
1761505752543239000,0.907239013671875,0.1750383824110031,-0.47402217984199524,-0.19623425602912903
1761505752553275000,0.91727490234375,-0.029026836156845093,-0.3753223121166229,-0.16539359092712402
1761505752563311000,0.92731103515625,-0.15448355674743652,-0.3121553361415863,-0.35845547914505005
1761505752573347000,0.93734716796875,-0.19304123520851135,-0.2544670104980469,-0.682477593421936
1761505752583383000,0.947383056640625,-0.18138830363750458,-0.23877939581871033,-1.016048789024353
1761505752593419000,0.9574189453125,-0.18023376166820526,-0.19056719541549683,-1.2823375463485718
1761505752603455000,0.967455078125,-0.1930912286043167,-0.09357353299856186,-1.4459714889526367
1761505752613491000,0.977490966796875,-0.22864572703838348,0.04537516087293625,-1.5368162393569946
1761505752623527200,0.987527099609375,-0.25031614303588867,0.18391333520412445,-1.5957821607589722
1761505752633563100,0.997563232421875,-0.2239741086959839,0.2682894468307495,-1.643898367881775
1761505752643599000,1.00759912109375,-0.16895213723182678,0.2599811851978302,-1.6737226247787476
1761505752653635000,1.017635009765625,-0.13934732973575592,0.18746334314346313,-1.6701385974884033
1761505752663671000,1.027671142578125,-0.15058772265911102,0.05874931067228317,-1.619947075843811
1761505752673707000,1.03770703125,-0.18376603722572327,-0.12989547848701477,-1.5604485273361206
1761505752683743000,1.047742919921875,-0.23533043265342712,-0.3447342813014984,-1.4999420642852783
1761505752693779000,1.057779052734375,-0.2810479998588562,-0.54561448097229,-1.434120535850525
1761505752703815000,1.06781494140625,-0.3070785403251648,-0.7330434918403625,-1.3626899719238281
1761505752713851000,1.077850830078125,-0.29017990827560425,-0.8952475786209106,-1.2695432901382446
1761505752723886800,1.087886962890625,-0.21795818209648132,-0.9864882826805115,-1.1646419763565063
1761505752733922000,1.097922119140625,-0.11050400137901306,-1.0042474269866943,-1.0495569705963135
1761505752743958000,1.1079580078125,0.023216506466269493,-1.0627453327178955,-0.9025141000747681
1761505752753994000,1.117993896484375,0.16102837026119232,-1.1352845430374146,-0.6885769963264465
1761505752764030000,1.128030029296875,0.26079678535461426,-1.0624593496322632,-0.39852437376976013
1761505752774066000,1.13806591796875,0.2995253801345825,-0.8507910966873169,-0.08129379153251648
1761505752784102000,1.148101806640625,0.24428102374076843,-0.5914346575737,0.2282738983631134
1761505752794137900,1.158137939453125,0.1352812498807907,-0.4072166681289673,0.5101951360702515
1761505752804173800,1.168173828125,0.026749446988105774,-0.269157350063324,0.7604957818984985
1761505752814210000,1.1782099609375,-0.08121472597122192,-0.09859014302492142,0.9339920878410339
1761505752824246000,1.18824609375,-0.18306225538253784,0.06770801544189453,1.000152826309204
1761505752834282000,1.198281982421875,-0.23976874351501465,0.20455752313137054,0.9705405831336975
1761505752844318000,1.20831787109375,-0.2227703183889389,0.25617334246635437,0.8857042193412781
1761505752854354000,1.21835400390625,-0.1490851640701294,0.35798221826553345,0.7772241234779358
1761505752864390000,1.228389892578125,-0.04731672629714012,0.5624522566795349,0.6684049963951111
1761505752874425900,1.23842578125,0.02581499144434929,0.7434915900230408,0.577351987361908
1761505752884461800,1.2484619140625,0.05326233059167862,0.771726667881012,0.5296846032142639
1761505752894497800,1.258497802734375,0.049459464848041534,0.6367554068565369,0.5749638676643372
1761505752904534000,1.268533935546875,0.030654355883598328,0.5043851137161255,0.7114426493644714
1761505752914570000,1.278570068359375,0.005789885297417641,0.42822739481925964,0.9032667279243469
1761505752924606200,1.288606201171875,-0.07350999861955643,0.3331911563873291,1.1229496002197266
1761505752934642200,1.29864208984375,-0.22911380231380463,0.23548267781734467,1.3468046188354492
1761505752944678100,1.30867822265625,-0.42704710364341736,0.2665572166442871,1.5433858633041382
1761505752954714000,1.318714111328125,-0.5974625945091248,0.43000829219818115,1.6673299074172974
1761505752964750000,1.32875,-0.7226913571357727,0.4482661187648773,1.629332184791565
1761505752974786000,1.3387861328125,-0.7849323153495789,0.32308200001716614,1.3845983743667603
1761505752984822000,1.348822021484375,-0.751886248588562,0.3977106809616089,0.9984895586967468
1761505752994858000,1.35885791015625,-0.6335895657539368,0.7262254953384399,0.5742250084877014
1761505753004894000,1.36889404296875,-0.4560244083404541,1.066980004310608,0.1912432461977005
1761505753014930000,1.378929931640625,-0.2549378275871277,1.1677510738372803,-0.047179486602544785
1761505753024966000,1.3889658203125,-0.05293706804513931,0.8031620383262634,-0.04625510051846504
1761505753035002000,1.399002197265625,0.14737676084041595,0.23738396167755127,0.22291256487369537
1761505753045038000,1.4090380859375,0.282672256231308,-0.25097960233688354,0.6486595869064331
1761505753055074000,1.419073974609375,0.300541490316391,-0.4704343378543854,1.072888731956482
1761505753065110000,1.429110107421875,0.22822095453739166,-0.4627455174922943,1.3345685005187988
1761505753075146000,1.43914599609375,0.10688978433609009,-0.3804672062397003,1.3414887189865112
1761505753085182000,1.449181884765625,0.02927728183567524,-0.36942681670188904,1.0245895385742188
1761505753095218000,1.459218017578125,0.061831265687942505,-0.48436471819877625,0.4640931487083435
1761505753105254000,1.46925390625,0.20684970915317535,-0.6673166751861572,-0.196687713265419
1761505753115289900,1.479289794921875,0.37586382031440735,-0.8436189889907837,-0.7646985054016113
1761505753125325800,1.489325927734375,0.4934927225112915,-0.9230725169181824,-1.0927280187606812
1761505753135361800,1.49936181640625,0.5627774596214294,-0.9317948222160339,-1.1571444272994995
1761505753145398000,1.50939794921875,0.6118690967559814,-0.7516596913337708,-1.0290839672088623
1761505753155433000,1.519432861328125,0.640424907207489,-0.43941429257392883,-0.8087780475616455
1761505753165469000,1.529468994140625,0.5914813280105591,-0.0797988697886467,-0.6131762862205505
1761505753175505000,1.5395048828125,0.4544859230518341,0.17084090411663055,-0.5295637249946594
1761505753185540900,1.549540771484375,0.23114046454429626,0.26288771629333496,-0.5904912948608398
1761505753195576800,1.559576904296875,-0.006758532952517271,0.25033038854599,-0.7545998096466064
1761505753205612800,1.56961279296875,-0.18008770048618317,0.09838374704122543,-0.9609466195106506
1761505753215648800,1.579648681640625,-0.2513015568256378,-0.22351981699466705,-1.1339284181594849
1761505753225685000,1.58968505859375,-0.20516814291477203,-0.5302606225013733,-1.2190184593200684
1761505753235721000,1.599720947265625,-0.07958625257015228,-0.6777054667472839,-1.1892563104629517
1761505753245757200,1.609757080078125,0.09678718447685242,-0.6706904172897339,-1.0478837490081787
1761505753255793200,1.619793212890625,0.27812594175338745,-0.46874359250068665,-0.8552678823471069
1761505753265829000,1.6298291015625,0.4279899597167969,-0.10010965168476105,-0.6491730213165283
1761505753275865000,1.639864990234375,0.5355358719825745,0.26175573468208313,-0.4546184837818146
1761505753285901000,1.649901123046875,0.6094526648521423,0.5158543586730957,-0.27815502882003784
1761505753295937000,1.65993701171875,0.6599456071853638,0.6301519274711609,-0.11262053996324539
1761505753305973000,1.669972900390625,0.6813489198684692,0.6659234762191772,0.06850424408912659
1761505753316009000,1.680009033203125,0.6611713767051697,0.6573644876480103,0.24957214295864105
1761505753326045000,1.690044921875,0.5893230438232422,0.5754706859588623,0.4143397808074951
1761505753336081200,1.7000810546875,0.4785309135913849,0.4552915394306183,0.5457125306129456
1761505753346117000,1.7101171875,0.3730867803096771,0.3769964575767517,0.6686962246894836
1761505753356153000,1.720153076171875,0.2699217200279236,0.35105353593826294,0.7652842402458191
1761505753366189000,1.73018896484375,0.1846209317445755,0.36186835169792175,0.8266006112098694
1761505753376225000,1.74022509765625,0.13488908112049103,0.42227527499198914,0.859096884727478
1761505753386261000,1.750260986328125,0.10910196602344513,0.4950424134731293,0.8578843474388123
1761505753396297000,1.760296875,0.08871098607778549,0.5281199812889099,0.8317181468009949
1761505753406333000,1.7703330078125,0.05361158773303032,0.5045872330665588,0.7917957901954651
1761505753416369000,1.780368896484375,-0.001639260444790125,0.42106038331985474,0.7527382373809814
1761505753426404900,1.79040478515625,-0.07964777201414108,0.2596323490142822,0.7084277868270874
1761505753436440800,1.80044091796875,-0.16801172494888306,0.020382747054100037,0.6914730072021484
1761505753446477000,1.81047705078125,-0.2659635841846466,-0.23272940516471863,0.7245361804962158
1761505753456513000,1.820512939453125,-0.35600244998931885,-0.2532554864883423,0.7799317836761475
1761505753466549000,1.830549072265625,-0.4233066737651825,-0.007750657852739096,0.7653243541717529
1761505753476585000,1.8405849609375,-0.5056725740432739,0.33789658546447754,0.6719541549682617
1761505753486621000,1.850620849609375,-0.5997583270072937,0.5676621198654175,0.5508546233177185
1761505753496657000,1.860656982421875,-0.6759108304977417,0.5878951549530029,0.4480072855949402
1761505753506692900,1.87069287109375,-0.6792062520980835,0.42110636830329895,0.33884644508361816
1761505753516728800,1.880728759765625,-0.5577890276908875,0.09289832413196564,0.21903535723686218
1761505753526764800,1.890764892578125,-0.31641045212745667,-0.23317059874534607,0.09593446552753448
1761505753536801000,1.900801025390625,-0.006613452453166246,-0.426014244556427,0.011944771744310856
1761505753546837000,1.9108369140625,0.23259539902210236,-0.42122694849967957,0.04685668647289276
1761505753556873000,1.920873046875,0.3162902593612671,-0.2761313021183014,0.22957728803157806
1761505753566909200,1.9309091796875,0.26880690455436707,0.011841362342238426,0.48577311635017395
1761505753576945200,1.940945068359375,0.14076945185661316,0.43347862362861633,0.6784119009971619
1761505753586981000,1.950981201171875,-0.01663615182042122,0.7873863577842712,0.6454379558563232
1761505753597017000,1.96101708984375,-0.19606593251228333,0.9611806273460388,0.3352152407169342
1761505753607053000,1.971052978515625,-0.36093637347221375,0.8094414472579956,-0.22411781549453735
1761505753617089000,1.981089111328125,-0.45538923144340515,0.4441909193992615,-0.8986253142356873
1761505753627124000,1.9911240234375,-0.5077338814735413,0.049553319811820984,-1.482192873954773
1761505753637160000,2.001159912109375,-0.5835789442062378,-0.2623944878578186,-1.8369615077972412
1761505753647196200,2.011196044921875,-0.6453427076339722,-0.4980962574481964,-1.9218822717666626
1761505753657232100,2.021232177734375,-0.6358993649482727,-0.670727014541626,-1.7298082113265991
1761505753667268000,2.03126806640625,-0.5151178240776062,-0.5759714841842651,-1.3400905132293701
1761505753677304000,2.041303955078125,-0.29534879326820374,-0.40510693192481995,-0.9032085537910461
1761505753687340000,2.051340087890625,-0.03711884468793869,-0.3918033838272095,-0.5459244251251221
1761505753697376000,2.0613759765625,0.24160514771938324,-0.5767850279808044,-0.3326975405216217
1761505753707412000,2.071411865234375,0.5196492671966553,-0.8807086944580078,-0.25899484753608704
1761505753717448000,2.081447998046875,0.7379273176193237,-1.2473198175430298,-0.290210098028183
1761505753727484000,2.09148388671875,0.8874494433403015,-1.583606243133545,-0.3750581443309784
1761505753737519900,2.101519775390625,0.9736021757125854,-1.8448141813278198,-0.45349863171577454
1761505753747556000,2.11155615234375,0.9833897948265076,-1.9328950643539429,-0.48243120312690735
1761505753757592000,2.121592041015625,0.8983771800994873,-1.6900453567504883,-0.44299188256263733
1761505753767628000,2.1316279296875,0.7117606997489929,-1.194622278213501,-0.3919113874435425
1761505753777664000,2.1416640625,0.46081170439720154,-0.6502504348754883,-0.39139121770858765
1761505753787700000,2.151699951171875,0.2122650295495987,-0.1317073553800583,-0.4573710262775421
1761505753797736000,2.16173583984375,0.026674659922719002,0.2684808671474457,-0.563071072101593
1761505753807772000,2.17177197265625,-0.07876148819923401,0.4780186414718628,-0.644808292388916
1761505753817808000,2.181807861328125,-0.13290485739707947,0.5351317524909973,-0.6591848134994507
1761505753827843800,2.19184375,-0.19019824266433716,0.5365791916847229,-0.6032291650772095
1761505753837879800,2.2018798828125,-0.26964977383613586,0.5136075019836426,-0.5152533650398254
1761505753847915800,2.211915771484375,-0.3237769305706024,0.4454018473625183,-0.4082460105419159
1761505753857952000,2.221951904296875,-0.34125423431396484,0.3373319208621979,-0.31241366267204285
1761505753867987000,2.231987060546875,-0.3070531189441681,0.20535072684288025,-0.21949836611747742
1761505753878023000,2.24202294921875,-0.2259601503610611,0.03695141151547432,-0.11272241175174713
1761505753888059000,2.252058837890625,-0.10863565653562546,-0.12863755226135254,0.029397446662187576
1761505753898094800,2.2620947265625,-0.00980185717344284,-0.1884153187274933,0.22953569889068604
1761505753908130800,2.272130859375,0.06554829329252243,-0.12325523048639297,0.44612419605255127
1761505753918166800,2.282166748046875,0.1007181704044342,0.01785985752940178,0.666369616985321
1761505753928203000,2.292203125,0.08387260884046555,0.29614102840423584,0.8533331155776978
1761505753938239000,2.302239013671875,0.02992095798254013,0.7446286678314209,0.9627594947814941
1761505753948275200,2.312275146484375,-0.05426396057009697,1.1472275257110596,0.9691438674926758
1761505753958311200,2.322311279296875,-0.14377403259277344,1.400349497795105,0.8695915937423706
1761505753968347100,2.33234716796875,-0.21953511238098145,1.5161738395690918,0.7028716206550598
1761505753978383000,2.342383056640625,-0.29171690344810486,1.423370599746704,0.5712839961051941
1761505753988419000,2.352419189453125,-0.378757506608963,1.285652995109558,0.5658314824104309
1761505753998455000,2.362455078125,-0.45522087812423706,1.2062702178955078,0.6676416993141174
1761505754008491000,2.372490966796875,-0.5391570329666138,1.1485742330551147,0.7935879230499268
1761505754018527000,2.38252685546875,-0.6150496006011963,0.9712941646575928,0.8641259074211121
1761505754028563000,2.39256298828125,-0.6524326205253601,0.6065859794616699,0.8362551331520081
1761505754038599000,2.402598876953125,-0.6571364402770996,0.1571471393108368,0.699430525302887
1761505754048634000,2.412634033203125,-0.6259268522262573,-0.28957921266555786,0.4765300452709198
1761505754058670000,2.422670166015625,-0.5346596240997314,-0.6849472522735596,0.18531224131584167
1761505754068706000,2.4327060546875,-0.36912739276885986,-0.887182891368866,-0.14475008845329285
1761505754078742000,2.442741943359375,-0.16913191974163055,-0.9062500596046448,-0.46818846464157104
1761505754088778000,2.452778076171875,-0.01014759298413992,-0.8001169562339783,-0.7212226390838623
1761505754098814000,2.46281396484375,0.07024727761745453,-0.5977780818939209,-0.8871395587921143
1761505754108850000,2.472849853515625,0.10749638080596924,-0.4825396239757538,-1.0253101587295532
1761505754118886000,2.482885986328125,0.14547806978225708,-0.5464548468589783,-1.1265605688095093
1761505754128922000,2.492922119140625,0.19678625464439392,-0.6270753741264343,-1.174834132194519
1761505754138958000,2.5029580078125,0.24632462859153748,-0.6254082322120667,-1.152653455734253
1761505754148994000,2.512994140625,0.27198177576065063,-0.49085626006126404,-1.0527328252792358
1761505754159030000,2.523030029296875,0.2821933627128601,-0.2805771231651306,-0.905985414981842
1761505754169066000,2.53306591796875,0.2750398516654968,-0.1287044882774353,-0.7823086977005005
1761505754179102000,2.54310205078125,0.20699924230575562,0.003694957820698619,-0.723738968372345
1761505754189138000,2.553137939453125,0.05192390829324722,0.08809798955917358,-0.7469696998596191
1761505754199174000,2.563173828125,-0.1326770782470703,-0.007970521226525307,-0.7973958253860474
1761505754209209900,2.5732099609375,-0.2529688775539398,-0.1569829136133194,-0.8105683326721191
1761505754219245800,2.583245849609375,-0.2867271304130554,-0.22942891716957092,-0.772334635257721
1761505754229281800,2.59328173828125,-0.2440100461244583,-0.2804822325706482,-0.6929274201393127
1761505754239318000,2.603318115234375,-0.15576034784317017,-0.3217683434486389,-0.5840286612510681
1761505754249354000,2.61335400390625,-0.06387597322463989,-0.3161831796169281,-0.46148809790611267
1761505754259390000,2.623389892578125,0.0011693132109940052,-0.2688705623149872,-0.3460465967655182
1761505754269426000,2.633426025390625,0.0772467702627182,-0.19618918001651764,-0.24673254787921906
1761505754279462100,2.643462158203125,0.16635462641716003,-0.07428009063005447,-0.1577463448047638
1761505754289498000,2.653498046875,0.23922058939933777,0.06882087141275406,-0.07052862644195557
1761505754299534000,2.6635341796875,0.26615697145462036,0.13801920413970947,0.011061223223805428
1761505754309570000,2.673570068359375,0.24871806800365448,0.10010192543268204,0.11737780272960663
1761505754319606000,2.68360595703125,0.2110324651002884,0.06967084109783173,0.2522442936897278
1761505754329642000,2.69364208984375,0.1660948246717453,0.0819472149014473,0.400399386882782
1761505754339678000,2.703677978515625,0.12844395637512207,0.10354356467723846,0.5350921154022217
1761505754349714000,2.7137138671875,0.12118818610906601,0.11778774857521057,0.6171597838401794
1761505754359750100,2.723750244140625,0.13548807799816132,0.12756478786468506,0.6460700035095215
1761505754369786000,2.7337861328125,0.15706446766853333,0.15644915401935577,0.6285865902900696
1761505754379822000,2.743822021484375,0.1646210253238678,0.20727066695690155,0.5841439366340637
1761505754389858000,2.753858154296875,0.16741494834423065,0.24779120087623596,0.5337129831314087
1761505754399894000,2.76389404296875,0.16140222549438477,0.25245484709739685,0.4995916187763214
1761505754409930000,2.773929931640625,0.13577622175216675,0.22243888676166534,0.5167482495307922
1761505754419965000,2.78396484375,0.12131641805171967,0.1747261881828308,0.6096676588058472
1761505754430002000,2.794001953125,0.1306510716676712,0.22362422943115234,0.7609426379203796
1761505754440037000,2.804037109375,0.13684260845184326,0.3964945375919342,0.9098698496818542
1761505754450073000,2.814072998046875,0.12590713798999786,0.5855310559272766,1.018548846244812
1761505754460109000,2.824109130859375,0.10502216964960098,0.581934928894043,1.0557456016540527
1761505754470145000,2.83414501953125,0.0195059422403574,0.38275155425071716,1.0649693012237549
1761505754480181000,2.844180908203125,-0.15503834187984467,0.21426261961460114,1.043238639831543
1761505754490217000,2.854217041015625,-0.364728182554245,0.15801239013671875,0.9501423239707947
1761505754500253000,2.8642529296875,-0.5793201327323914,0.2045612633228302,0.8013517260551453
1761505754510289000,2.874288818359375,-0.7012258768081665,0.2193114459514618,0.677913248538971
1761505754520324900,2.884324951171875,-0.6983453035354614,0.1261824369430542,0.6184074282646179
1761505754530360800,2.89436083984375,-0.6216558218002319,-0.0891764834523201,0.6320324540138245
1761505754540397000,2.90439697265625,-0.4989504814147949,-0.29838451743125916,0.6748223900794983
1761505754550433000,2.91443310546875,-0.36474448442459106,-0.3529204726219177,0.7235430479049683
1761505754560469000,2.924468994140625,-0.261997789144516,-0.1954578012228012,0.7500107288360596
1761505754570505000,2.9345048828125,-0.19743555784225464,0.0406668446958065,0.7292130589485168
1761505754580541000,2.944541015625,-0.15295076370239258,0.17165842652320862,0.6497955918312073
1761505754590577000,2.954576904296875,-0.1458880603313446,0.17362891137599945,0.48449474573135376
1761505754600612900,2.96461279296875,-0.20842839777469635,0.09697269648313522,0.23035967350006104
1761505754610648800,2.97464892578125,-0.2608644664287567,0.026879090815782547,-0.10125793516635895
1761505754620685000,2.98468505859375,-0.23962271213531494,-0.0747060477733612,-0.4831143319606781
1761505754630721000,2.994720947265625,-0.1545829176902771,-0.20592957735061646,-0.8501887917518616
1761505754640757000,3.004757080078125,-0.06872446835041046,-0.3075786530971527,-1.099485993385315
1761505754650793000,3.01479296875,-0.007006243336945772,-0.3172254264354706,-1.156887412071228
1761505754660829200,3.0248291015625,0.051753632724285126,-0.17131879925727844,-1.0486547946929932
1761505754670865200,3.034865234375,0.12660124897956848,0.04190985485911369,-0.860653817653656
1761505754680901000,3.044901123046875,0.2169223576784134,0.25966405868530273,-0.6741840243339539
1761505754690937000,3.05493701171875,0.2823317050933838,0.40614140033721924,-0.5456705093383789
1761505754700973000,3.06497314453125,0.30234575271606445,0.47044166922569275,-0.5012899041175842
1761505754711009000,3.075009033203125,0.2698512077331543,0.5385266542434692,-0.5284852981567383
1761505754721045000,3.085044921875,0.18404358625411987,0.6061893701553345,-0.5939334630966187
1761505754731081000,3.0950810546875,0.08163464069366455,0.591354489326477,-0.6784017086029053
1761505754741117000,3.105116943359375,0.001861784141510725,0.5065144300460815,-0.7467232346534729
1761505754751153000,3.11515283203125,-0.02409977652132511,0.3990345299243927,-0.7619869112968445
1761505754761188900,3.12518896484375,0.01579735055565834,0.32002440094947815,-0.7033417820930481
1761505754771224000,3.13522412109375,0.08695940673351288,0.312527060508728,-0.5632485747337341
1761505754781260000,3.145260009765625,0.17615297436714172,0.36044883728027344,-0.35541075468063354
1761505754791296000,3.1552958984375,0.25132736563682556,0.41106781363487244,-0.10821294784545898
1761505754801332000,3.16533203125,0.2778874337673187,0.48986324667930603,0.11909999698400497
1761505754811368000,3.175367919921875,0.27615636587142944,0.5643259882926941,0.3022701144218445
1761505754821404000,3.18540380859375,0.22398605942726135,0.6463666558265686,0.4657924771308899
1761505754831440000,3.19543994140625,0.13855238258838654,0.6573407649993896,0.5940897464752197
1761505754841475800,3.205475830078125,0.028305143117904663,0.6738377213478088,0.6953688263893127
1761505754851512000,3.215511962890625,-0.06719928234815598,0.6401130557060242,0.7819404602050781
1761505754861548500,3.225548583984375,-0.15320977568626404,0.5021327137947083,0.8820734024047852
1761505754871584800,3.235584716796875,-0.21612349152565002,0.39079156517982483,0.9693787693977356
1761505754881620700,3.245620849609375,-0.24266095459461212,0.3421085476875305,1.0351300239562988
1761505754891656700,3.25565673828125,-0.22646573185920715,0.322124719619751,1.0758055448532104
1761505754901692700,3.265692626953125,-0.17576739192008972,0.29808396100997925,1.0934078693389893
1761505754911728600,3.275728759765625,-0.10578379034996033,0.2342032492160797,1.0722267627716064
1761505754921764900,3.285764892578125,-0.02893507294356823,0.0015250557335093617,1.0507149696350098
1761505754931800800,3.29580078125,0.03442446142435074,-0.11489129811525345,1.0331426858901978
1761505754941836800,3.3058369140625,0.024187635630369186,-0.13691310584545135,1.053053855895996
1761505754951872800,3.315872802734375,-0.04552566632628441,-0.16344378888607025,1.1195341348648071
1761505754961908700,3.32590869140625,-0.1378549039363861,-0.20961691439151764,1.1668938398361206
1761505754971944700,3.33594482421875,-0.2298780381679535,-0.347682923078537,1.1411347389221191
1761505754981981000,3.34598095703125,-0.3336960971355438,-0.47368794679641724,1.0070264339447021
1761505754992017000,3.356016845703125,-0.47858697175979614,-0.5583149790763855,0.7996016144752502
1761505755002052900,3.366052978515625,-0.6875028610229492,-0.5627870559692383,0.5702717304229736
1761505755012088800,3.3760888671875,-0.8753142952919006,-0.459440678358078,0.34758830070495605
1761505755022124800,3.386124755859375,-0.918265163898468,-0.29660680890083313,0.13732314109802246
1761505755032160800,3.396160888671875,-0.7198370099067688,-0.029717838391661644,-0.09087299555540085
1761505755042196700,3.40619677734375,-0.31503018736839294,0.24535593390464783,-0.3144862949848175
1761505755052232700,3.416232666015625,0.10532314330339432,0.25097334384918213,-0.48755741119384766
1761505755062268700,3.4262685546875,0.4058801531791687,-0.0004617965314537287,-0.5971197485923767
1761505755072303900,3.436303955078125,0.5279532670974731,-0.3739081025123596,-0.624462366104126
1761505755082339800,3.44633984375,0.48608043789863586,-0.7904277443885803,-0.5721989274024963
1761505755092375800,3.456375732421875,0.4163362383842468,-1.0445125102996826,-0.49547457695007324
1761505755102411800,3.466411865234375,0.3874322474002838,-1.0651262998580933,-0.4437073767185211
1761505755112447700,3.47644775390625,0.3493479788303375,-0.8185146450996399,-0.44186392426490784
1761505755122483700,3.486483642578125,0.24742498993873596,-0.30688613653182983,-0.48359236121177673
1761505755132519700,3.496519775390625,0.11240564286708832,0.2085636407136917,-0.5864282250404358
1761505755142555600,3.5065556640625,-0.0011631529778242111,0.6057729721069336,-0.7622472643852234
1761505755152591600,3.516591552734375,-0.04945638030767441,0.731792151927948,-0.9873184561729431
1761505755162627600,3.526627685546875,-0.033570729196071625,0.5305922627449036,-1.2292786836624146
1761505755172663800,3.536663818359375,0.014068692922592163,0.0958501547574997,-1.4322638511657715
1761505755182699800,3.54669970703125,0.05008925497531891,-0.4733019769191742,-1.538031816482544
1761505755192735700,3.55673583984375,0.05857861414551735,-0.9816011190414429,-1.5142823457717896
1761505755202771700,3.566771728515625,0.03554416447877884,-1.2732518911361694,-1.3734194040298462
1761505755212807700,3.5768076171875,-0.05162855237722397,-1.33799409866333,-1.1640214920043945
1761505755222843600,3.58684375,-0.1975155472755432,-1.2075369358062744,-0.9322571158409119
1761505755232879600,3.596879638671875,-0.3553653657436371,-0.8937313556671143,-0.7330891489982605
1761505755242915600,3.60691552734375,-0.45658552646636963,-0.5613410472869873,-0.5864312052726746
1761505755252951600,3.61695166015625,-0.4465733766555786,-0.29850491881370544,-0.4963604509830475
1761505755262987800,3.62698779296875,-0.32445386052131653,-0.10918746143579483,-0.48417919874191284
1761505755273023700,3.637023681640625,-0.13721075654029846,-0.008299462497234344,-0.5414441227912903
1761505755283059700,3.647059814453125,0.05907990410923958,0.025698967278003693,-0.6077526807785034
1761505755293096000,3.657095947265625,0.23030012845993042,-0.012869727797806263,-0.6475510001182556
1761505755303132000,3.6671318359375,0.3632577061653137,-0.12860381603240967,-0.6485944986343384
1761505755313168000,3.67716796875,0.43603870272636414,-0.2992793917655945,-0.6064941883087158
1761505755323203800,3.687203857421875,0.45449984073638916,-0.5242142081260681,-0.5190941095352173
1761505755333239800,3.69723974609375,0.45136183500289917,-0.7270288467407227,-0.38940373063087463
1761505755343275800,3.70727587890625,0.417724072933197,-0.8781952261924744,-0.23492905497550964
1761505755353311700,3.717311767578125,0.35874703526496887,-0.9523152709007263,-0.05675532668828964
1761505755363347700,3.72734765625,0.28413787484169006,-0.93433678150177,0.12178632616996765
1761505755373383000,3.7373828125,0.21070599555969238,-0.8492287993431091,0.2774379551410675
1761505755383419000,3.7474189453125,0.16116800904273987,-0.6286729574203491,0.38027700781822205
1761505755393454800,3.757454833984375,0.1482788473367691,-0.26741093397140503,0.3851500451564789
1761505755403490800,3.76749072265625,0.1459842324256897,0.15997453033924103,0.3052438497543335
1761505755413526800,3.77752685546875,0.153995543718338,0.5486596822738647,0.21682369709014893
1761505755423562800,3.787562744140625,0.17956139147281647,0.9874403476715088,0.18601348996162415
1761505755433598700,3.7975986328125,0.19180606305599213,1.289649486541748,0.23976700007915497
1761505755443634700,3.807634765625,0.13749569654464722,1.0431541204452515,0.40440312027931213
1761505755453670700,3.817670654296875,0.017985288053750992,0.7888011336326599,0.6681636571884155
1761505755463706600,3.82770654296875,-0.14881952106952667,0.7384395599365234,0.8883664011955261
1761505755473742800,3.837742919921875,-0.3424198627471924,0.7674051523208618,0.9133521914482117
1761505755483778800,3.84777880859375,-0.5079514980316162,0.6186513900756836,0.7130154967308044
1761505755493814800,3.857814697265625,-0.5493995547294617,0.4642921984195709,0.4602991044521332
1761505755503850800,3.867850830078125,-0.4370027780532837,0.3806285560131073,0.31936925649642944
1761505755513886700,3.87788671875,-0.2522616684436798,0.2934105694293976,0.36880871653556824
1761505755523922700,3.887922607421875,-0.12334457039833069,0.1979156732559204,0.5651053786277771
1761505755533958700,3.897958740234375,-0.07493150234222412,0.11931142210960388,0.8263907432556152
1761505755543994600,3.90799462890625,-0.1228787899017334,0.005154752172529697,1.0187031030654907
1761505755554030600,3.918030517578125,-0.20908105373382568,-0.18281568586826324,1.0704954862594604
1761505755564066600,3.928066650390625,-0.2786466181278229,-0.38102978467941284,0.9692584276199341
1761505755574102500,3.9381025390625,-0.2989867627620697,-0.5702601075172424,0.7445331811904907
1761505755584138800,3.948138671875,-0.2657261788845062,-0.559843122959137,0.450234055519104
1761505755594174700,3.9581748046875,-0.18508991599082947,-0.3882383704185486,0.10311790555715561
1761505755604211000,3.9682109375,-0.11119560152292252,-0.27885180711746216,-0.26041749119758606
1761505755614247000,3.978246826171875,-0.08149415999650955,-0.14676034450531006,-0.6029825806617737
1761505755624283000,3.988282958984375,-0.09708409756422043,-0.019503207877278328,-0.8919272422790527
1761505755634318800,3.99831884765625,-0.10488556325435638,0.009650150313973427,-1.1292146444320679
1761505755644354800,4.008354736328125,-0.06496056914329529,0.021866774186491966,-1.3020148277282715
1761505755654389500,4.018389404296875,0.019915709272027016,-0.021346209570765495,-1.4126335382461548
1761505755664424700,4.0284248046875,0.11837229877710342,-0.19446884095668793,-1.463205337524414
1761505755674460700,4.038460693359375,0.20577724277973175,-0.4447726905345917,-1.449460506439209
1761505755684496600,4.04849658203125,0.2524917721748352,-0.6490418314933777,-1.3943558931350708
1761505755694532600,4.05853271484375,0.24214966595172882,-0.7607723474502563,-1.323965311050415
1761505755704568600,4.068568603515625,0.1907811462879181,-0.8338754177093506,-1.2621909379959106
1761505755714604800,4.078604736328125,0.1006469875574112,-0.8956876397132874,-1.1859703063964844
1761505755724640800,4.088640869140625,0.005605161190032959,-0.8782772421836853,-1.0432466268539429
1761505755734676700,4.0986767578125,-0.06521548330783844,-0.7262938022613525,-0.8248069286346436
1761505755744712700,4.108712646484375,-0.08125374466180801,-0.4729917347431183,-0.551265299320221
1761505755754749000,4.1187490234375,-0.029819048941135406,-0.22818249464035034,-0.26900508999824524
1761505755764785000,4.128784912109375,0.07101171463727951,-0.021541686728596687,0.003489856142550707
1761505755774820900,4.13882080078125,0.1782257854938507,0.14146506786346436,0.2381974309682846
1761505755784856800,4.14885693359375,0.24470554292201996,0.2630068063735962,0.4124593436717987
1761505755794892800,4.158892822265625,0.24947740137577057,0.3473259210586548,0.5209378600120544
1761505755804928800,4.1689287109375,0.19809794425964355,0.3609062433242798,0.5620407462120056
1761505755814964700,4.17896484375,0.12637636065483093,0.30649757385253906,0.5419320464134216
1761505755825000700,4.189000732421875,0.05905894935131073,0.23819229006767273,0.48518580198287964
1761505755835036700,4.19903662109375,0.015360204502940178,0.18771232664585114,0.4213908612728119
1761505755845072600,4.20907275390625,-0.026217013597488403,0.15508043766021729,0.36007580161094666
1761505755855108900,4.21910888671875,-0.08051487803459167,0.1428527981042862,0.2948209047317505
1761505755865144800,4.229144775390625,-0.1489347368478775,0.14790865778923035,0.21628537774085999
1761505755875180800,4.239180908203125,-0.19085529446601868,0.20180891454219818,0.11514464020729065
1761505755885216800,4.249216796875,-0.17887388169765472,0.3054824471473694,-0.0006843407172709703
1761505755895252700,4.259252685546875,-0.11609093844890594,0.4245166778564453,-0.09601938724517822
1761505755905288700,4.269288818359375,-0.04467884823679924,0.4899952709674835,-0.10029075294733047
1761505755915323400,4.279323486328125,-0.014429335482418537,0.46548619866371155,0.04401901364326477
1761505755925359600,4.289359619140625,-0.01804179698228836,0.4710703492164612,0.34017840027809143
1761505755935395800,4.299395751953125,-0.03547431528568268,0.5622918605804443,0.742825448513031
1761505755945431800,4.309431884765625,-0.0830875113606453,0.6438860297203064,1.1563386917114258
1761505755955467800,4.3194677734375,-0.17671386897563934,0.7313812375068665,1.4896916151046753
1761505755965503700,4.329503662109375,-0.3171434998512268,0.6431084275245667,1.6934860944747925
1761505755975539700,4.339539794921875,-0.41450732946395874,0.6132655739784241,1.7574533224105835
1761505755985575700,4.34957568359375,-0.4526759386062622,0.9445895552635193,1.7021925449371338
1761505755995611600,4.359611572265625,-0.44948095083236694,1.408987283706665,1.522704839706421
1761505756005647600,4.369647705078125,-0.4054826498031616,1.6268577575683594,1.2502992153167725
1761505756015683600,4.37968359375,-0.2862348258495331,1.5201265811920166,0.9819337725639343
1761505756025719600,4.389719482421875,-0.10821117460727692,1.1272040605545044,0.794297456741333
1761505756035755500,4.399755615234375,0.03390549123287201,0.6442355513572693,0.7061718702316284
1761505756045791700,4.409791748046875,0.05850261449813843,0.19003140926361084,0.7089041471481323
1761505756055827700,4.41982763671875,-0.06733867526054382,-0.27926844358444214,0.7257025241851807
1761505756065863700,4.42986376953125,-0.25674936175346375,-0.5616840124130249,0.6956919431686401
1761505756075899600,4.439899658203125,-0.3811645209789276,-0.6513470411300659,0.5291855335235596
1761505756085935600,4.449935546875,-0.3514452576637268,-0.6718505024909973,0.16954566538333893
1761505756095971600,4.4599716796875,-0.18620356917381287,-0.7137159109115601,-0.32024428248405457
1761505756106007600,4.470007568359375,0.05272185429930687,-0.7485767602920532,-0.8256094455718994
1761505756116043500,4.48004345703125,0.2972349226474762,-0.7343479990959167,-1.2078262567520142
1761505756126079500,4.49007958984375,0.4730503261089325,-0.6385061144828796,-1.406956672668457
1761505756136115500,4.500115478515625,0.5491847395896912,-0.4368065595626831,-1.4361180067062378
1761505756146151400,4.5101513671875,0.5663701295852661,-0.24259868264198303,-1.3818141222000122
1761505756156187600,4.520187744140625,0.5665919780731201,-0.09241610765457153,-1.3071924448013306
1761505756166223600,4.5302236328125,0.528517484664917,0.003548119217157364,-1.2350826263427734
1761505756176258600,4.540258544921875,0.43417075276374817,0.03042660467326641,-1.1688097715377808
1761505756186294500,4.55029443359375,0.29830747842788696,-0.0053816670551896095,-1.1112797260284424
1761505756196330500,4.56033056640625,0.13777637481689453,-0.10660921782255173,-1.0664438009262085
1761505756206366500,4.570366455078125,-0.034859880805015564,-0.3345518410205841,-1.0100234746932983
1761505756216402400,4.58040234375,-0.18570584058761597,-0.591401219367981,-0.9134038090705872
1761505756226439700,4.590439697265625,-0.26954129338264465,-0.7366280555725098,-0.7733284831047058
1761505756236475600,4.6004755859375,-0.30689746141433716,-0.7254406809806824,-0.5972874164581299
1761505756246511600,4.61051171875,-0.3124968707561493,-0.5780414938926697,-0.38447144627571106
1761505756256547600,4.620547607421875,-0.29370561242103577,-0.35952457785606384,-0.16516011953353882
1761505756266583800,4.630583740234375,-0.26325154304504395,-0.14980565011501312,0.029161158949136734
1761505756276619800,4.640619873046875,-0.23363640904426575,0.04114512726664543,0.18437232077121735
1761505756286655700,4.65065576171875,-0.21399575471878052,0.1945105791091919,0.292868047952652
1761505756296691700,4.660691650390625,-0.20687152445316315,0.2974745035171509,0.35588428378105164
1761505756306727700,4.670727783203125,-0.19689778983592987,0.31074458360671997,0.3879935145378113
1761505756316763600,4.680763671875,-0.1717117428779602,0.28234755992889404,0.39878731966018677
1761505756326799600,4.690799560546875,-0.1492442935705185,0.2801523804664612,0.40474438667297363
1761505756336835600,4.700835693359375,-0.130454882979393,0.3322954773902893,0.39430689811706543
1761505756346871600,4.71087158203125,-0.11389291286468506,0.39443984627723694,0.34475234150886536
1761505756356907500,4.720907470703125,-0.08326389640569687,0.41879817843437195,0.2751820385456085
1761505756366943500,4.730943603515625,-0.021492086350917816,0.4287033677101135,0.21768701076507568
1761505756376979700,4.740979736328125,0.0975903570652008,0.47330865263938904,0.20709002017974854
1761505756387015700,4.751015625,0.24915972352027893,0.5416839718818665,0.22914977371692657
1761505756397051600,4.7610517578125,0.392687052488327,0.5432467460632324,0.286896675825119
1761505756407087600,4.771087646484375,0.48213323950767517,0.48060595989227295,0.39544475078582764
1761505756417123600,4.78112353515625,0.48309066891670227,0.41727545857429504,0.5372766852378845
1761505756427159600,4.79115966796875,0.38372135162353516,0.3409576117992401,0.6820068359375
1761505756437194500,4.801194580078125,0.22797836363315582,0.1678183376789093,0.8294349312782288
1761505756447230500,4.81123046875,0.059236034750938416,-0.10065699368715286,0.9443339705467224
1761505756457266700,4.8212666015625,-0.08061054348945618,-0.41218557953834534,0.9935979247093201
1761505756467302700,4.831302734375,-0.17704394459724426,-0.672521710395813,0.9128526449203491
1761505756477338600,4.841338623046875,-0.2615218162536621,-0.7348910570144653,0.6618376970291138
1761505756487374600,4.85137451171875,-0.3121952712535858,-0.36170560121536255,0.27479320764541626
1761505756497410600,4.86141064453125,-0.3836638629436493,0.367420494556427,-0.16449709236621857
1761505756507446500,4.871446533203125,-0.46230220794677734,0.9459332823753357,-0.5281497240066528
1761505756517482500,4.881482421875,-0.4694378972053528,1.009423851966858,-0.7263006567955017
1761505756527518500,4.8915185546875,-0.365553617477417,0.690679669380188,-0.7051154971122742
1761505756537554400,4.901554443359375,-0.15802200138568878,0.2902526259422302,-0.4835306704044342
1761505756547590400,4.91159033203125,0.042349543422460556,-0.17666834592819214,-0.1973203420639038
1761505756557626600,4.921626708984375,0.13593249022960663,-0.6735939383506775,0.040948156267404556
1761505756567662600,4.93166259765625,0.10643072426319122,-1.1288608312606812,0.2193341702222824
1761505756577698800,4.94169873046875,0.049041468650102615,-1.3658959865570068,0.3376528024673462
1761505756587734800,4.95173486328125,0.023144327104091644,-1.4279407262802124,0.3593667447566986
1761505756597770800,4.961770751953125,0.028312988579273224,-1.4254586696624756,0.3017213046550751
1761505756607806700,4.971806640625,0.05464557558298111,-1.3928624391555786,0.1885395348072052
1761505756617842700,4.9818427734375,0.10731837153434753,-1.4031352996826172,-0.011389021761715412
1761505756627878700,4.991878662109375,0.19217029213905334,-1.3698976039886475,-0.2919633388519287
1761505756637914600,5.00191455078125,0.2852059602737427,-1.1992547512054443,-0.5948531627655029
1761505756647950600,5.01195068359375,0.3690186142921448,-0.9227041602134705,-0.8759293556213379
1761505756657986600,5.021986572265625,0.43136852979660034,-0.6220804452896118,-1.1051719188690186
1761505756668022500,5.0320224609375,0.4371926784515381,-0.3600161671638489,-1.2620975971221924
1761505756678058800,5.042058837890625,0.3668455481529236,-0.11018528789281845,-1.340198040008545
1761505756688094700,5.0520947265625,0.23599869012832642,0.061207957565784454,-1.3654893636703491
1761505756698130700,5.062130615234375,0.0783051922917366,0.12118714302778244,-1.3680471181869507
1761505756708166700,5.072166748046875,-0.08238889276981354,0.09851899743080139,-1.3527134656906128
1761505756718202600,5.08220263671875,-0.20391185581684113,0.02033604495227337,-1.35076105594635
1761505756728237600,5.092237548828125,-0.25654137134552,-0.13019531965255737,-1.299707055091858
1761505756738273500,5.1022734375,-0.21891652047634125,-0.22112149000167847,-1.1477526426315308
1761505756748309500,5.1123095703125,-0.09598153084516525,-0.09143181890249252,-0.8866685032844543
1761505756758345700,5.122345703125,0.07152943313121796,0.200648233294487,-0.5511235594749451
1761505756768381700,5.132381591796875,0.23091647028923035,0.5149334073066711,-0.18697232007980347
1761505756778417700,5.142417724609375,0.3318542540073395,0.7533951997756958,0.17264683544635773
1761505756788453600,5.15245361328125,0.3547145426273346,0.9045918583869934,0.49006590247154236
1761505756798489600,5.162489501953125,0.32365143299102783,1.0012692213058472,0.750149667263031
1761505756808525600,5.172525634765625,0.2616535425186157,1.023582935333252,0.9403414130210876
1761505756818561500,5.1825615234375,0.17752215266227722,0.945735514163971,1.0596492290496826
1761505756828597500,5.192597412109375,0.0844779908657074,0.797509491443634,1.1109768152236938
1761505756838633500,5.202633544921875,-0.030288007110357285,0.6006947159767151,1.092822790145874
1761505756848669400,5.21266943359375,-0.14950382709503174,0.42064565420150757,1.0361427068710327
1761505756858705400,5.222705322265625,-0.22861994802951813,0.36748871207237244,0.9201825857162476
1761505756868741600,5.23274169921875,-0.23804691433906555,0.5167645812034607,0.7668331265449524
1761505756878777900,5.24277783203125,-0.16753944754600525,0.7978338003158569,0.6169235110282898
1761505756888814000,5.25281396484375,-0.04658503085374832,1.0878565311431885,0.4766126871109009
1761505756898850000,5.26285009765625,0.05170585215091705,1.2253315448760986,0.36211007833480835
1761505756908886000,5.272885986328125,0.06870385259389877,1.1227761507034302,0.31030455231666565
1761505756918922000,5.282921875,-0.020515769720077515,0.7545917630195618,0.38335052132606506
1761505756928958000,5.2929580078125,-0.16957300901412964,0.3711346387863159,0.6266908645629883
1761505756938994000,5.302993896484375,-0.2782454192638397,0.1828925609588623,0.9958257675170898
1761505756949030000,5.31302978515625,-0.3121165633201599,0.18840837478637695,1.392500400543213
1761505756959065900,5.32306591796875,-0.3200480043888092,0.34755250811576843,1.744330644607544
1761505756969101800,5.333101806640625,-0.36036068201065063,0.6205791234970093,1.988232135772705
1761505756979137800,5.3431376953125,-0.37825578451156616,0.9700337648391724,2.015303611755371
1761505756989174000,5.353174072265625,-0.30007728934288025,1.2061680555343628,1.7430256605148315
1761505756999210000,5.3632099609375,-0.1086529940366745,1.1594988107681274,1.2255338430404663
1761505757009245000,5.373244873046875,0.14415787160396576,0.7990926504135132,0.6390898823738098
1761505757019281000,5.383281005859375,0.38413292169570923,0.3320647180080414,0.19136539101600647
1761505757029316900,5.39331689453125,0.5473744869232178,-0.06424735486507416,-0.03274383023381233
1761505757039352800,5.403352783203125,0.5667354464530945,-0.3721545934677124,-0.07283052802085876
1761505757049388800,5.413388916015625,0.4292314350605011,-0.6488268375396729,0.0004913398297503591
1761505757059424800,5.4234248046875,0.21361978352069855,-0.8649508953094482,0.08615405112504959
1761505757069461000,5.4334609375,-0.008740853518247604,-1.055806040763855,0.07120439410209656
1761505757079497000,5.4434970703125,-0.18451392650604248,-1.2607132196426392,-0.12470588088035583
1761505757089533000,5.453532958984375,-0.2556767463684082,-1.4317106008529663,-0.4848015010356903
1761505757099569000,5.46356884765625,-0.22321145236492157,-1.4086023569107056,-0.8951416611671448
1761505757109604900,5.47360498046875,-0.1559889018535614,-1.166616439819336,-1.2417925596237183
1761505757119640800,5.483640869140625,-0.10918545722961426,-0.8467909693717957,-1.4645545482635498
1761505757129676800,5.4936767578125,-0.07952998578548431,-0.5087802410125732,-1.5518385171890259
1761505757139712800,5.503712646484375,-0.03341894596815109,-0.18129107356071472,-1.5243885517120361
1761505757149748700,5.513748779296875,0.041303910315036774,0.047656040638685226,-1.4433585405349731
1761505757159784700,5.52378466796875,0.12307919561862946,0.14047466218471527,-1.341378092765808
1761505757169820700,5.533820556640625,0.17265990376472473,0.1217150166630745,-1.2403850555419922
1761505757179857000,5.54385693359375,0.15216076374053955,0.0451885461807251,-1.1403825283050537
1761505757189892900,5.553892822265625,0.06762447953224182,-0.02759166620671749,-1.0541661977767944
1761505757199928800,5.5639287109375,-0.050600696355104446,-0.08466506749391556,-0.9914141893386841
1761505757209964800,5.57396484375,-0.15731781721115112,-0.09293146431446075,-0.9342326521873474
1761505757220000800,5.584000732421875,-0.222930908203125,-0.028364988043904305,-0.8699002861976624
1761505757230037000,5.594037109375,-0.2435413897037506,0.07497891783714294,-0.7906099557876587
1761505757240073000,5.604072998046875,-0.23188287019729614,0.17568793892860413,-0.6995487809181213
1761505757250109000,5.61410888671875,-0.184998020529747,0.17876191437244415,-0.6061809062957764
1761505757260145000,5.624144775390625,-0.10947024077177048,0.11392645537853241,-0.4818997085094452
1761505757270179800,5.634179931640625,-0.03036552295088768,0.011602988466620445,-0.31684452295303345
1761505757280216000,5.644216064453125,0.043131861835718155,-0.05238025635480881,-0.10686545073986053
1761505757290252000,5.654251953125,0.07095256447792053,-0.05084266513586044,0.11354173719882965
1761505757300288000,5.6642880859375,0.05033889785408974,-0.04172027111053467,0.31093630194664
1761505757310324000,5.674323974609375,-0.002883502282202244,-0.02546374313533306,0.46862098574638367
1761505757320360000,5.68435986328125,-0.08527211844921112,0.047920726239681244,0.5819672346115112
1761505757330396000,5.69439599609375,-0.17750325798988342,0.1590770184993744,0.6648046374320984
1761505757340432000,5.704431884765625,-0.2544441223144531,0.2659030556678772,0.7298547625541687
1761505757350467800,5.7144677734375,-0.2938081622123718,0.2617395222187042,0.7663462162017822
1761505757360503800,5.72450390625,-0.29233917593955994,0.06543073803186417,0.7972878813743591
1761505757370539800,5.734539794921875,-0.261121928691864,-0.15816748142242432,0.8283247947692871
1761505757380576000,5.744575927734375,-0.2110782116651535,-0.17511850595474243,0.8523571491241455
1761505757390612000,5.754612060546875,-0.1544582098722458,0.023387763649225235,0.8884764313697815
1761505757400648000,5.76464794921875,-0.11562427133321762,0.3322473168373108,0.9389811754226685
1761505757410684000,5.774683837890625,-0.0858711302280426,0.5739137530326843,0.9744802117347717
1761505757420719900,5.784719970703125,-0.054829586297273636,0.6230514645576477,0.9611849188804626
1761505757430755800,5.794755859375,0.01223642099648714,0.42871740460395813,0.9434099793434143
1761505757440791800,5.804791748046875,0.0936250165104866,0.4276593327522278,0.9267172813415527
1761505757450827800,5.814827880859375,0.12314073741436005,0.7985385060310364,0.9262929558753967
1761505757460863700,5.82486376953125,0.028305843472480774,1.2490410804748535,0.9470781087875366
1761505757470899700,5.834899658203125,-0.1613798439502716,1.530117392539978,0.9687259793281555
1761505757480936000,5.84493603515625,-0.35388484597206116,1.480143427848816,0.9942481517791748
1761505757490972000,5.854971923828125,-0.4814254343509674,1.1941384077072144,1.0312598943710327
1761505757501008000,5.8650078125,-0.4927729070186615,0.6827191114425659,1.0526901483535767
1761505757511042800,5.875042724609375,-0.3615487217903137,0.0893816351890564,1.0198534727096558
1761505757521078800,5.885078857421875,-0.12845206260681152,-0.3576187491416931,0.850701093673706
1761505757531114800,5.89511474609375,0.02889600768685341,-0.6716622114181519,0.5075874328613281
1761505757541150700,5.905150634765625,0.049211129546165466,-0.7716796398162842,0.05263402685523033
1761505757551186700,5.915186767578125,0.014319416135549545,-0.6486512422561646,-0.4314982295036316
1761505757561223000,5.925222900390625,-0.032808415591716766,-0.5817550420761108,-0.9096677303314209
1761505757571259000,5.9352587890625,-0.07364233583211899,-0.7907817959785461,-1.3265795707702637
1761505757581294800,5.945294921875,-0.0855376124382019,-1.073921799659729,-1.6442451477050781
1761505757591330800,5.955330810546875,-0.09701533615589142,-1.3556411266326904,-1.8858311176300049
1761505757601366800,5.96536669921875,-0.1326897144317627,-1.4979772567749023,-2.033024311065674
1761505757611402800,5.97540283203125,-0.146891251206398,-1.4090590476989746,-2.0551676750183105
1761505757621439000,5.98543896484375,-0.10518935322761536,-1.097482442855835,-1.9771759510040283
1761505757631475000,5.995474853515625,-0.028962116688489914,-0.7034534215927124,-1.8371284008026123
1761505757641511000,6.005510986328125,0.05688434839248657,-0.4022032916545868,-1.647657036781311
1761505757651547000,6.015546875,0.14190825819969177,-0.11591888964176178,-1.4432435035705566
1761505757661582800,6.025582763671875,0.16067451238632202,0.1379152536392212,-1.2691547870635986
1761505757671618800,6.035618896484375,0.08511480689048767,0.30000537633895874,-1.187370777130127
1761505757681655000,6.045655029296875,-0.05135862156748772,0.36078858375549316,-1.216457486152649
1761505757691691000,6.05569091796875,-0.19010543823242188,0.2992117702960968,-1.2914855480194092
1761505757701727000,6.06572705078125,-0.24117155373096466,0.17333613336086273,-1.3061635494232178
1761505757711763000,6.075762939453125,-0.15563234686851501,0.1514611542224884,-1.2243620157241821
1761505757721798000,6.0857978515625,0.00941493920981884,0.2831331491470337,-1.063886046409607
1761505757731833900,6.095833740234375,0.1671823412179947,0.4685010612010956,-0.8408622145652771
1761505757741869800,6.105869873046875,0.28823816776275635,0.5759095549583435,-0.568452775478363
1761505757751905800,6.11590576171875,0.36986827850341797,0.6341466307640076,-0.2660302221775055
1761505757761942000,6.12594189453125,0.39104199409484863,0.6517264246940613,0.02575342357158661
1761505757771978000,6.13597802734375,0.3463395833969116,0.6152213215827942,0.29172319173812866
1761505757782014000,6.146013916015625,0.2535523772239685,0.5905449986457825,0.5149450898170471
1761505757792050000,6.1560498046875,0.1543610394001007,0.5882407426834106,0.6851805448532104
1761505757802086000,6.1660859375,0.08963637799024582,0.526267409324646,0.759473443031311
1761505757812121900,6.176121826171875,0.09665030241012573,0.38752707839012146,0.7281251549720764
1761505757822157800,6.18615771484375,0.17348463833332062,0.2616783380508423,0.6010258197784424
1761505757832193800,6.19619384765625,0.2789613604545593,0.14142894744873047,0.3939974009990692
1761505757842229800,6.206229736328125,0.37817132472991943,-0.10422608256340027,0.12154192477464676
1761505757852265700,6.216265625,0.5800490975379944,-0.3396698832511902,-0.2092456817626953
1761505757862302000,6.226302001953125,0.9366327524185181,-0.29692429304122925,-0.48685121536254883
1761505757872337700,6.236337646484375,1.2440094947814941,0.3716926872730255,-0.5841912031173706
1761505757882373600,6.24637353515625,1.1095092296600342,1.8805694580078125,0.4453789293766022
1761505757892409600,6.25640966796875,0.7023540139198303,2.0111870765686035,1.2264760732650757
1761505757902445600,6.266445556640625,0.16114778816699982,1.0566960573196411,1.7291339635849
1761505757912481500,6.2764814453125,-0.07537191361188889,-0.7656382918357849,1.8890349864959717
1761505757922517500,6.286517578125,-0.14593476057052612,-1.7704472541809082,1.8307639360427856
1761505757932553700,6.2965537109375,-0.17406876385211945,-1.3497563600540161,1.7727417945861816
1761505757942588700,6.306588623046875,-0.21976406872272491,-0.5805126428604126,1.8240108489990234
