time,seconds_elapsed,z,y,x
1761478205592803800,0.069803955078125,-1.062225341796875,-0.0677337646484375,-0.2295074462890625
1761478205602839800,0.07983984375,-1.05010986328125,-0.072418212890625,-0.2251739501953125
1761478205612876500,0.08987646484375,-1.0194854736328125,-0.073944091796875,-0.21539306640625
1761478205622912800,0.099912841796875,-0.9913482666015625,-0.075897216796875,-0.200225830078125
1761478205632948700,0.10994873046875,-0.9659576416015625,-0.0765838623046875,-0.183258056640625
1761478205642984700,0.119984619140625,-0.9469146728515625,-0.0825042724609375,-0.1718902587890625
1761478205653021700,0.130021728515625,-0.9383697509765625,-0.087249755859375,-0.1737060546875
1761478205663057700,0.1400576171875,-0.958831787109375,-0.08258056640625,-0.1936492919921875
1761478205673093600,0.15009375,-0.9813385009765625,-0.079498291015625,-0.21856689453125
1761478205683130600,0.160130615234375,-0.9869842529296875,-0.0865325927734375,-0.2236785888671875
1761478205693166800,0.170166748046875,-0.980621337890625,-0.09100341796875,-0.2213287353515625
1761478205703202800,0.180202880859375,-0.969573974609375,-0.0910491943359375,-0.215972900390625
1761478205713239600,0.190239501953125,-0.960723876953125,-0.0887298583984375,-0.2032623291015625
1761478205723275800,0.20027587890625,-0.955108642578125,-0.0888671875,-0.190643310546875
1761478205733311700,0.210311767578125,-0.9537811279296875,-0.090240478515625,-0.18267822265625
1761478205743347700,0.22034765625,-0.95782470703125,-0.086517333984375,-0.1848602294921875
1761478205753385500,0.230385498046875,-0.97479248046875,-0.0820465087890625,-0.1907501220703125
1761478205763421400,0.24042138671875,-0.9985504150390625,-0.0771942138671875,-0.2010955810546875
1761478205773457400,0.25045751953125,-1.0170745849609375,-0.0742034912109375,-0.20965576171875
1761478205783494400,0.260494384765625,-1.0247802734375,-0.071624755859375,-0.211944580078125
1761478205793530400,0.2705302734375,-1.025299072265625,-0.07171630859375,-0.2100372314453125
1761478205803566300,0.28056640625,-1.0175018310546875,-0.0761871337890625,-0.20770263671875
1761478205813603300,0.290603271484375,-1.0095672607421875,-0.0757293701171875,-0.2059478759765625
1761478205823639300,0.300639404296875,-1.005767822265625,-0.0749359130859375,-0.1990509033203125
1761478205833675300,0.31067529296875,-1.0078582763671875,-0.076690673828125,-0.1959991455078125
1761478205843711500,0.32071142578125,-1.0086517333984375,-0.078643798828125,-0.2006683349609375
1761478205853748200,0.330748291015625,-1.00274658203125,-0.0828094482421875,-0.2100372314453125
1761478205863784200,0.3407841796875,-0.9904632568359375,-0.087677001953125,-0.2157135009765625
1761478205873820400,0.3508203125,-0.97900390625,-0.0882110595703125,-0.2127685546875
1761478205883857400,0.360857421875,-0.971405029296875,-0.0870819091796875,-0.20758056640625
1761478205893893400,0.370893310546875,-0.9685821533203125,-0.0850677490234375,-0.2001495361328125
1761478205903929300,0.380929443359375,-0.97576904296875,-0.08447265625,-0.1968841552734375
1761478205913966300,0.39096630859375,-0.9869537353515625,-0.07763671875,-0.2053375244140625
1761478205924002300,0.401002197265625,-0.9920654296875,-0.0752410888671875,-0.20709228515625
1761478205934038500,0.41103857421875,-0.9923095703125,-0.0808563232421875,-0.2025604248046875
1761478205944074500,0.421074462890625,-0.9845733642578125,-0.082794189453125,-0.195159912109375
1761478205954111200,0.431111328125,-0.9793548583984375,-0.0828704833984375,-0.18792724609375
1761478205964147500,0.4411474609375,-0.9839935302734375,-0.0814208984375,-0.187255859375
1761478205974183400,0.451183349609375,-0.991424560546875,-0.0781097412109375,-0.195281982421875
1761478205984220400,0.461220458984375,-0.9974212646484375,-0.0753326416015625,-0.2071685791015625
1761478205994256400,0.47125634765625,-0.9967803955078125,-0.074493408203125,-0.214874267578125
1761478206004292600,0.481292724609375,-0.98974609375,-0.0767059326171875,-0.2108001708984375
1761478206014328600,0.49132861328125,-0.98175048828125,-0.07720947265625,-0.201385498046875
1761478206024365300,0.501365234375,-0.9774932861328125,-0.0740814208984375,-0.1956634521484375
1761478206034401500,0.511401611328125,-0.9808502197265625,-0.068817138671875,-0.197906494140625
1761478206044437500,0.5214375,-0.993743896484375,-0.065673828125,-0.20361328125
1761478206054474200,0.53147412109375,-1.00543212890625,-0.06793212890625,-0.2140655517578125
1761478206064510500,0.541510498046875,-1.0052337646484375,-0.0695343017578125,-0.223876953125
1761478206074546400,0.55154638671875,-0.999725341796875,-0.072906494140625,-0.2251434326171875
1761478206084583400,0.56158349609375,-0.991973876953125,-0.07763671875,-0.219451904296875
1761478206094619400,0.571619384765625,-0.9861602783203125,-0.07757568359375,-0.2130279541015625
1761478206104655600,0.581655517578125,-0.9863739013671875,-0.0763397216796875,-0.2081756591796875
1761478206114691600,0.591691650390625,-0.9844207763671875,-0.07574462890625,-0.2051849365234375
1761478206124728300,0.601728271484375,-0.97869873046875,-0.0757904052734375,-0.205596923828125
1761478206134764500,0.6117646484375,-0.97857666015625,-0.0755462646484375,-0.207244873046875
1761478206144800500,0.621800537109375,-0.980224609375,-0.0762176513671875,-0.2030487060546875
1761478206154837200,0.631837158203125,-0.9909515380859375,-0.0719146728515625,-0.2003631591796875
1761478206164873500,0.64187353515625,-0.998016357421875,-0.06951904296875,-0.1959381103515625
1761478206174909400,0.651909423828125,-1.0053558349609375,-0.0729217529296875,-0.19573974609375
1761478206184946400,0.661946533203125,-1.0082550048828125,-0.0710296630859375,-0.2073974609375
1761478206194982700,0.671982666015625,-1.0016021728515625,-0.0761871337890625,-0.218353271484375
1761478206205018600,0.6820185546875,-0.992218017578125,-0.0833282470703125,-0.2150421142578125
1761478206215054600,0.6920546875,-0.9825592041015625,-0.083404541015625,-0.2057647705078125
1761478206225091600,0.702091552734375,-0.97882080078125,-0.083709716796875,-0.1994171142578125
1761478206235127600,0.71212744140625,-0.9785308837890625,-0.08251953125,-0.196502685546875
1761478206245163500,0.72216357421875,-0.982696533203125,-0.079986572265625,-0.1989593505859375
1761478206255200500,0.732200439453125,-0.98486328125,-0.07958984375,-0.1983642578125
1761478206265236500,0.742236572265625,-0.9823150634765625,-0.0798187255859375,-0.1947784423828125
1761478206275272400,0.7522724609375,-0.9792327880859375,-0.0801239013671875,-0.19024658203125
1761478206285308400,0.762308349609375,-0.9747314453125,-0.0801544189453125,-0.189483642578125
1761478206295345700,0.772345703125,-0.975830078125,-0.078857421875,-0.1896514892578125
1761478206305381600,0.782381591796875,-0.99053955078125,-0.0754241943359375,-0.196441650390625
1761478206315417600,0.79241748046875,-1.006011962890625,-0.07379150390625,-0.2051849365234375
1761478206325454600,0.80245458984375,-1.018890380859375,-0.0746307373046875,-0.20648193359375
1761478206335490600,0.812490478515625,-1.0225830078125,-0.0707550048828125,-0.20635986328125
1761478206345526500,0.822526611328125,-1.018768310546875,-0.066131591796875,-0.2075958251953125
1761478206355563500,0.8325634765625,-1.01580810546875,-0.0665740966796875,-0.2082672119140625
1761478206365599500,0.842599609375,-1.007080078125,-0.0704803466796875,-0.210357666015625
1761478206375635500,0.852635498046875,-0.9974365234375,-0.0729522705078125,-0.2080535888671875
1761478206385672400,0.86267236328125,-0.9912109375,-0.07415771484375,-0.2047882080078125
1761478206395708400,0.87270849609375,-0.986297607421875,-0.076202392578125,-0.2063446044921875
1761478206405744400,0.882744384765625,-0.982818603515625,-0.0751953125,-0.208251953125
1761478206415780600,0.892780517578125,-0.9812774658203125,-0.0697174072265625,-0.2079925537109375
1761478206425817600,0.902817626953125,-0.9841461181640625,-0.0673828125,-0.2081146240234375
1761478206435853600,0.912853515625,-0.9842071533203125,-0.0702056884765625,-0.2037811279296875
1761478206445889500,0.9228896484375,-0.9806671142578125,-0.0720367431640625,-0.2010498046875
1761478206455926500,0.932926513671875,-0.9735870361328125,-0.076171875,-0.2016448974609375
1761478206465962500,0.94296240234375,-0.968780517578125,-0.080596923828125,-0.2055816650390625
1761478206475998500,0.95299853515625,-0.9673614501953125,-0.08148193359375,-0.2103424072265625
1761478206486035500,0.963035400390625,-0.9747161865234375,-0.0791473388671875,-0.212371826171875
1761478206496071400,0.973071533203125,-0.98809814453125,-0.07476806640625,-0.207763671875
1761478206506107400,0.983107421875,-0.998443603515625,-0.0745849609375,-0.19354248046875
1761478206516143400,0.993143310546875,-1.0059356689453125,-0.0751953125,-0.181121826171875
1761478206526180600,1.0031806640625,-1.005340576171875,-0.0695037841796875,-0.1832427978515625
1761478206536216600,1.013216552734375,-1.0046539306640625,-0.067626953125,-0.194580078125
1761478206546252500,1.02325244140625,-1.0096588134765625,-0.0693511962890625,-0.20831298828125
1761478206556289500,1.03328955078125,-1.01434326171875,-0.0695037841796875,-0.2155609130859375
1761478206566325500,1.043325439453125,-1.01580810546875,-0.070281982421875,-0.215179443359375
1761478206576361500,1.053361572265625,-1.0114898681640625,-0.07452392578125,-0.2109832763671875
1761478206586398500,1.0633984375,-1.00067138671875,-0.0767822265625,-0.211273193359375
1761478206596434400,1.073434326171875,-0.983489990234375,-0.0768890380859375,-0.2146759033203125
1761478206606470400,1.083470458984375,-0.96771240234375,-0.0785369873046875,-0.2154083251953125
1761478206616507600,1.093507568359375,-0.9581146240234375,-0.0768890380859375,-0.212799072265625
1761478206626543600,1.103543701171875,-0.95880126953125,-0.071624755859375,-0.2071075439453125
1761478206636579600,1.11357958984375,-0.968780517578125,-0.066162109375,-0.2000732421875
1761478206646615600,1.123615478515625,-0.98675537109375,-0.0652313232421875,-0.202484130859375
1761478206656652500,1.133652587890625,-0.9993896484375,-0.0672760009765625,-0.2136077880859375
1761478206666688500,1.1436884765625,-0.9990081787109375,-0.069061279296875,-0.22528076171875
1761478206676724500,1.153724365234375,-0.9949798583984375,-0.0726318359375,-0.231719970703125
1761478206686761500,1.163761474609375,-0.9929046630859375,-0.0734100341796875,-0.2285308837890625
1761478206696797400,1.17379736328125,-0.9894866943359375,-0.075897216796875,-0.2149658203125
1761478206706833400,1.18383349609375,-0.9918212890625,-0.07647705078125,-0.2058868408203125
1761478206716870700,1.19387060546875,-0.9924163818359375,-0.075347900390625,-0.203582763671875
1761478206726906600,1.20390673828125,-0.9949493408203125,-0.0771331787109375,-0.2004852294921875
1761478206736942600,1.213942626953125,-0.9949188232421875,-0.07452392578125,-0.2000274658203125
1761478206746979800,1.223979736328125,-0.9904327392578125,-0.0714874267578125,-0.19793701171875
1761478206757015800,1.234015869140625,-0.9865570068359375,-0.0725860595703125,-0.194580078125
1761478206767051800,1.2440517578125,-0.979461669921875,-0.07427978515625,-0.1945953369140625
1761478206777087700,1.254087646484375,-0.979583740234375,-0.0748748779296875,-0.196502685546875
1761478206787124700,1.264124755859375,-0.986572265625,-0.0738067626953125,-0.2057952880859375
1761478206797160700,1.27416064453125,-0.992889404296875,-0.074127197265625,-0.207275390625
1761478206807196700,1.28419677734375,-0.9953460693359375,-0.0767059326171875,-0.2010040283203125
1761478206817233700,1.294233642578125,-0.993743896484375,-0.076812744140625,-0.1985321044921875
1761478206827269600,1.30426953125,-0.9931793212890625,-0.073211669921875,-0.200225830078125
1761478206837305600,1.3143056640625,-0.997467041015625,-0.0750274658203125,-0.2025604248046875
1761478206847342800,1.3243427734375,-0.9997711181640625,-0.0743408203125,-0.2027587890625
1761478206857378800,1.33437890625,-0.9978179931640625,-0.0738677978515625,-0.205718994140625
1761478206867414800,1.344414794921875,-0.9958648681640625,-0.0747222900390625,-0.2085113525390625
1761478206877451800,1.35445166015625,-0.989044189453125,-0.077239990234375,-0.21197509765625
1761478206887487700,1.36448779296875,-0.987274169921875,-0.077392578125,-0.212432861328125
1761478206897523700,1.374523681640625,-0.987152099609375,-0.0756378173828125,-0.2095184326171875
1761478206907559700,1.3845595703125,-0.9920501708984375,-0.0740509033203125,-0.2044219970703125
1761478206917596700,1.3945966796875,-0.9971466064453125,-0.070831298828125,-0.2038421630859375
1761478206927632600,1.404632568359375,-0.995330810546875,-0.0705718994140625,-0.2082672119140625
1761478206937668600,1.414668701171875,-0.98828125,-0.076934814453125,-0.2104034423828125
1761478206947705900,1.424705810546875,-0.9830780029296875,-0.0788116455078125,-0.212890625
1761478206957741800,1.434741943359375,-0.984893798828125,-0.07928466796875,-0.2133941650390625
1761478206967777800,1.44477783203125,-0.987030029296875,-0.07733154296875,-0.2075653076171875
1761478206977814800,1.454814697265625,-0.9832763671875,-0.076385498046875,-0.2035369873046875
1761478206987850800,1.464850830078125,-0.978546142578125,-0.079010009765625,-0.206939697265625
1761478206997886700,1.47488671875,-0.9771575927734375,-0.0782012939453125,-0.2098541259765625
1761478207007923700,1.484923828125,-0.977386474609375,-0.0751800537109375,-0.2086639404296875
1761478207017959700,1.494959716796875,-0.982208251953125,-0.07373046875,-0.2020721435546875
1761478207027995600,1.50499560546875,-0.9965057373046875,-0.0736846923828125,-0.196533203125
1761478207038032600,1.51503271484375,-1.00604248046875,-0.0721435546875,-0.196441650390625
1761478207048068600,1.525068603515625,-1.007843017578125,-0.074066162109375,-0.199005126953125
1761478207058104800,1.535104736328125,-0.99896240234375,-0.07623291015625,-0.2049407958984375
1761478207068140800,1.545140869140625,-0.9893951416015625,-0.07684326171875,-0.213531494140625
1761478207078177800,1.555177734375,-0.987518310546875,-0.0778656005859375,-0.2170562744140625
1761478207088213800,1.5652138671875,-0.9888153076171875,-0.076904296875,-0.21502685546875
1761478207098249700,1.575249755859375,-0.995880126953125,-0.0713958740234375,-0.2102508544921875
1761478207108286700,1.58528662109375,-1.001495361328125,-0.068572998046875,-0.206939697265625
1761478207118322700,1.59532275390625,-0.9988861083984375,-0.0683441162109375,-0.2083892822265625
1761478207128358700,1.605358642578125,-0.99676513671875,-0.0705413818359375,-0.216552734375
1761478207138395600,1.615395751953125,-0.9864044189453125,-0.077880859375,-0.2266998291015625
1761478207148431600,1.625431640625,-0.977142333984375,-0.0811309814453125,-0.230621337890625
1761478207158467600,1.635467529296875,-0.9716949462890625,-0.0840301513671875,-0.2213897705078125
1761478207168504800,1.6455048828125,-0.9776763916015625,-0.0819091796875,-0.2064208984375
1761478207178540800,1.655540771484375,-0.9810638427734375,-0.0776519775390625,-0.1950531005859375
1761478207188576800,1.66557666015625,-0.986968994140625,-0.0748443603515625,-0.1922454833984375
1761478207198612700,1.67561279296875,-0.9910736083984375,-0.0745697021484375,-0.19219970703125
1761478207208649700,1.685649658203125,-0.992645263671875,-0.07696533203125,-0.1985015869140625
1761478207218685700,1.695685791015625,-0.9944915771484375,-0.077911376953125,-0.2031402587890625
1761478207228721700,1.7057216796875,-1.001861572265625,-0.0761871337890625,-0.2034454345703125
1761478207238758700,1.715758544921875,-1.0091705322265625,-0.0758514404296875,-0.2028961181640625
1761478207248794600,1.725794677734375,-1.0118408203125,-0.077728271484375,-0.2039337158203125
1761478207258830600,1.73583056640625,-1.0051422119140625,-0.0795135498046875,-0.20281982421875
1761478207268867800,1.745867919921875,-0.9958953857421875,-0.0779266357421875,-0.1972808837890625
1761478207278903800,1.75590380859375,-0.9894256591796875,-0.07696533203125,-0.1874847412109375
1761478207288939800,1.765939697265625,-0.9833221435546875,-0.0782470703125,-0.1845550537109375
1761478207298976800,1.775976806640625,-0.9758758544921875,-0.076141357421875,-0.187591552734375
1761478207309012700,1.7860126953125,-0.9695281982421875,-0.079132080078125,-0.1932220458984375
1761478207319048700,1.796048583984375,-0.9646453857421875,-0.080169677734375,-0.20220947265625
1761478207329085700,1.806085693359375,-0.960174560546875,-0.0790557861328125,-0.2114105224609375
1761478207339121700,1.81612158203125,-0.9706878662109375,-0.07659912109375,-0.2165679931640625
1761478207349157600,1.82615771484375,-0.9872589111328125,-0.0690155029296875,-0.2187347412109375
1761478207359193600,1.836193603515625,-0.9999847412109375,-0.0673980712890625,-0.2133941650390625
1761478207369230800,1.84623095703125,-1.01019287109375,-0.0724945068359375,-0.2083892822265625
1761478207379266800,1.856266845703125,-1.0128631591796875,-0.072601318359375,-0.2086334228515625
1761478207389302800,1.866302734375,-1.01068115234375,-0.0741729736328125,-0.2069091796875
1761478207399339800,1.87633984375,-1.010406494140625,-0.0750885009765625,-0.204193115234375
1761478207409375700,1.886375732421875,-1.008148193359375,-0.0739288330078125,-0.2027130126953125
1761478207419411700,1.89641162109375,-1.0074920654296875,-0.075286865234375,-0.2013397216796875
1761478207429448700,1.90644873046875,-1.0074310302734375,-0.075286865234375,-0.2023468017578125
1761478207439484700,1.916484619140625,-1.0040435791015625,-0.075653076171875,-0.204071044921875
1761478207449520600,1.926520751953125,-0.9984893798828125,-0.0764007568359375,-0.208251953125
1761478207459557600,1.9365576171875,-0.9904022216796875,-0.0765380859375,-0.2078399658203125
1761478207469593600,1.946593505859375,-0.9842376708984375,-0.07537841796875,-0.2036590576171875
1761478207479629800,1.9566298828125,-0.98187255859375,-0.076568603515625,-0.1968231201171875
1761478207489665800,1.966665771484375,-0.9771881103515625,-0.0782470703125,-0.1928863525390625
1761478207499702800,1.976702880859375,-0.9748687744140625,-0.077880859375,-0.1976318359375
1761478207509738800,1.98673876953125,-0.9763336181640625,-0.0768280029296875,-0.2012481689453125
1761478207519774700,1.996774658203125,-0.978118896484375,-0.07489013671875,-0.20269775390625
1761478207529811700,2.006811767578125,-0.977783203125,-0.0777740478515625,-0.2027130126953125
1761478207539847700,2.01684765625,-0.98455810546875,-0.0778961181640625,-0.204833984375
1761478207549883600,2.026883544921875,-0.9936676025390625,-0.0772857666015625,-0.2100830078125
1761478207559920600,2.036920654296875,-0.9990997314453125,-0.0774688720703125,-0.2118072509765625
1761478207569956600,2.04695654296875,-0.997100830078125,-0.0776519775390625,-0.206787109375
1761478207579992600,2.05699267578125,-0.98809814453125,-0.077392578125,-0.200927734375
1761478207590029800,2.06702978515625,-0.985687255859375,-0.076202392578125,-0.197235107421875
1761478207600065800,2.077065673828125,-0.9898223876953125,-0.072723388671875,-0.199462890625
1761478207610101800,2.087101806640625,-0.9900970458984375,-0.0748291015625,-0.2028656005859375
1761478207620137700,2.0971376953125,-0.9927520751953125,-0.0772857666015625,-0.2049713134765625
1761478207630174700,2.1071748046875,-0.9967193603515625,-0.0786590576171875,-0.2057952880859375
1761478207640210700,2.117210693359375,-1.0001678466796875,-0.0767669677734375,-0.2058868408203125
1761478207650246700,2.12724658203125,-1.0041656494140625,-0.0771484375,-0.20501708984375
1761478207660283600,2.13728369140625,-1.0069580078125,-0.077362060546875,-0.2079620361328125
1761478207670319600,2.147319580078125,-1.00927734375,-0.07720947265625,-0.2069244384765625
1761478207680355600,2.15735546875,-1.00360107421875,-0.07421875,-0.2019195556640625
1761478207690392800,2.167392822265625,-0.99713134765625,-0.072998046875,-0.199310302734375
1761478207700428800,2.1774287109375,-0.99072265625,-0.07623291015625,-0.201690673828125
1761478207710464800,2.18746484375,-0.9799041748046875,-0.0790557861328125,-0.2057647705078125
1761478207720501800,2.197501708984375,-0.9716796875,-0.0806427001953125,-0.2058868408203125
1761478207730537700,2.207537841796875,-0.9640045166015625,-0.0813751220703125,-0.201507568359375
1761478207740573700,2.21757373046875,-0.9691619873046875,-0.0827789306640625,-0.1952056884765625
1761478207750609400,2.227609375,-0.97869873046875,-0.0794677734375,-0.191375732421875
1761478207760646400,2.237646484375,-0.986846923828125,-0.077972412109375,-0.1915130615234375
1761478207770682400,2.247682373046875,-0.9979095458984375,-0.080810546875,-0.1992034912109375
1761478207780718300,2.25771826171875,-1.0056304931640625,-0.0834503173828125,-0.211181640625
1761478207790755600,2.267755615234375,-1.01092529296875,-0.08001708984375,-0.21636962890625
1761478207800791600,2.27779150390625,-1.009429931640625,-0.0751800537109375,-0.2120361328125
1761478207810827500,2.28782763671875,-1.0054168701171875,-0.0704193115234375,-0.203277587890625
1761478207820864500,2.297864501953125,-0.9965972900390625,-0.068023681640625,-0.20123291015625
1761478207830900500,2.307900390625,-0.988861083984375,-0.0712432861328125,-0.206451416015625
1761478207840936400,2.3179365234375,-0.9834136962890625,-0.0774078369140625,-0.2121734619140625
1761478207850973400,2.327973388671875,-0.9849700927734375,-0.0792694091796875,-0.21392822265625
1761478207861009400,2.338009521484375,-0.9904937744140625,-0.078155517578125,-0.2117156982421875
1761478207871045400,2.34804541015625,-0.995697021484375,-0.076995849609375,-0.2090301513671875
1761478207881081300,2.358081298828125,-0.9929656982421875,-0.07672119140625,-0.2100067138671875
1761478207891118600,2.36811865234375,-0.98681640625,-0.0796661376953125,-0.2134246826171875
1761478207901154600,2.378154541015625,-0.9816131591796875,-0.0826568603515625,-0.2120361328125
1761478207911190500,2.3881904296875,-0.98095703125,-0.08001708984375,-0.2082977294921875
1761478207921227500,2.3982275390625,-0.9863739013671875,-0.0778656005859375,-0.2001800537109375
1761478207931263500,2.408263427734375,-0.9943389892578125,-0.0753326416015625,-0.1941986083984375
1761478207941299500,2.418299560546875,-0.99847412109375,-0.072845458984375,-0.1968994140625
1761478207951336400,2.42833642578125,-0.9961090087890625,-0.0753021240234375,-0.2034912109375
1761478207961372400,2.438372314453125,-0.9909515380859375,-0.0810699462890625,-0.2054901123046875
1761478207971408400,2.448408447265625,-0.986236572265625,-0.0847625732421875,-0.20269775390625
1761478207981444400,2.4584443359375,-0.9898529052734375,-0.0799102783203125,-0.203765869140625
1761478207991481600,2.468481689453125,-0.9982452392578125,-0.0771484375,-0.207000732421875
1761478208001517600,2.478517578125,-1.0013275146484375,-0.079742431640625,-0.210479736328125
1761478208011553500,2.488553466796875,-0.99920654296875,-0.0803070068359375,-0.2153167724609375
1761478208021590500,2.498590576171875,-0.9912109375,-0.0796661376953125,-0.214324951171875
1761478208031626500,2.50862646484375,-0.9833526611328125,-0.080535888671875,-0.2075347900390625
1761478208041662500,2.518662353515625,-0.97955322265625,-0.08038330078125,-0.196136474609375
1761478208051699500,2.528699462890625,-0.980255126953125,-0.0777130126953125,-0.1858673095703125
1761478208061735400,2.5387353515625,-0.9836578369140625,-0.0767059326171875,-0.18408203125
1761478208071771400,2.548771484375,-0.98736572265625,-0.079986572265625,-0.1924285888671875
1761478208081808400,2.558808349609375,-0.9918060302734375,-0.082733154296875,-0.20404052734375
1761478208091844400,2.56884423828125,-0.995849609375,-0.08111572265625,-0.2099761962890625
1761478208101880300,2.57888037109375,-1.0001373291015625,-0.0787353515625,-0.210235595703125
1761478208111916500,2.58891650390625,-1.00360107421875,-0.0777740478515625,-0.208831787109375
1761478208121953500,2.59895361328125,-0.9991455078125,-0.0787200927734375,-0.206817626953125
1761478208131989500,2.608989501953125,-0.991119384765625,-0.0800323486328125,-0.2050323486328125
1761478208142025500,2.619025390625,-0.9816131591796875,-0.0826263427734375,-0.2058258056640625
1761478208152062500,2.6290625,-0.979217529296875,-0.0839691162109375,-0.205352783203125
1761478208162098400,2.639098388671875,-0.9799957275390625,-0.08074951171875,-0.206817626953125
1761478208172134400,2.649134521484375,-0.9845733642578125,-0.0797576904296875,-0.2089080810546875
1761478208182171400,2.65917138671875,-0.987396240234375,-0.0776214599609375,-0.2113037109375
1761478208192207400,2.669207275390625,-0.9888153076171875,-0.0751190185546875,-0.20947265625
1761478208202243300,2.679243408203125,-0.9932403564453125,-0.0750732421875,-0.2084503173828125
1761478208212279300,2.689279296875,-0.9921417236328125,-0.078094482421875,-0.207794189453125
1761478208222316500,2.699316650390625,-0.9932403564453125,-0.0785980224609375,-0.207794189453125
1761478208232352500,2.7093525390625,-0.9994659423828125,-0.0759124755859375,-0.211761474609375
1761478208242388500,2.719388427734375,-0.9993743896484375,-0.0748138427734375,-0.2177581787109375
1761478208252425500,2.729425537109375,-0.991729736328125,-0.0780487060546875,-0.2167816162109375
1761478208262461400,2.73946142578125,-0.979583740234375,-0.082000732421875,-0.21044921875
1761478208272497400,2.749497314453125,-0.9739990234375,-0.085296630859375,-0.2049407958984375
1761478208282534400,2.759534423828125,-0.972869873046875,-0.0878448486328125,-0.2046356201171875
1761478208292570400,2.7695703125,-0.970611572265625,-0.087371826171875,-0.20574951171875
1761478208302606300,2.7796064453125,-0.9754180908203125,-0.0827178955078125,-0.20623779296875
1761478208312642300,2.789642333984375,-0.9896240234375,-0.077850341796875,-0.20245361328125
1761478208322679600,2.799679443359375,-1.0050811767578125,-0.0743560791015625,-0.195770263671875
1761478208332715500,2.809715576171875,-1.011627197265625,-0.0740966796875,-0.19256591796875
1761478208342751500,2.81975146484375,-1.011322021484375,-0.0786590576171875,-0.1954498291015625
1761478208352788500,2.82978857421875,-1.00799560546875,-0.0819854736328125,-0.202239990234375
1761478208362824400,2.839824462890625,-1.0019683837890625,-0.0826263427734375,-0.2071075439453125
1761478208372860400,2.8498603515625,-0.9934844970703125,-0.0822296142578125,-0.20831298828125
1761478208382897400,2.8598974609375,-0.9864501953125,-0.0845794677734375,-0.2060546875
1761478208392933400,2.869933349609375,-0.9882965087890625,-0.082794189453125,-0.19989013671875
1761478208402969300,2.87996923828125,-0.990692138671875,-0.07806396484375,-0.196014404296875
1761478208413005300,2.89000537109375,-0.993316650390625,-0.07666015625,-0.1930999755859375
1761478208423042600,2.90004248046875,-0.990936279296875,-0.0751495361328125,-0.1935272216796875
1761478208433078500,2.91007861328125,-0.9900360107421875,-0.073516845703125,-0.202056884765625
1761478208443114500,2.920114501953125,-0.9924774169921875,-0.075714111328125,-0.209503173828125
1761478208453151500,2.9301513671875,-0.9926910400390625,-0.0813751220703125,-0.2143707275390625
1761478208463187500,2.9401875,-0.9908599853515625,-0.081329345703125,-0.2145538330078125
1761478208473223400,2.950223388671875,-0.9939117431640625,-0.081146240234375,-0.2064666748046875
1761478208483260400,2.960260498046875,-0.9947052001953125,-0.0789031982421875,-0.201934814453125
1761478208493296400,2.97029638671875,-0.9925689697265625,-0.0753631591796875,-0.2048797607421875
1761478208503332400,2.980332275390625,-0.99261474609375,-0.07464599609375,-0.2083892822265625
1761478208513368300,2.990368408203125,-0.9944000244140625,-0.076202392578125,-0.20831298828125
1761478208523405300,3.0004052734375,-0.9986114501953125,-0.0766143798828125,-0.2055816650390625
1761478208533441500,3.010441650390625,-1.0025634765625,-0.0760345458984375,-0.2058868408203125
1761478208543477500,3.0204775390625,-1.0013275146484375,-0.0767669677734375,-0.20672607421875
1761478208553514500,3.030514404296875,-0.994049072265625,-0.0792694091796875,-0.2088775634765625
1761478208563550500,3.040550537109375,-0.9843292236328125,-0.083282470703125,-0.2121734619140625
1761478208573586400,3.05058642578125,-0.977569580078125,-0.0843658447265625,-0.2126007080078125
1761478208583622400,3.060622314453125,-0.97540283203125,-0.08477783203125,-0.2073516845703125
1761478208593659400,3.070659423828125,-0.97784423828125,-0.0833740234375,-0.2003173828125
1761478208603695400,3.0806953125,-0.97650146484375,-0.07855224609375,-0.1983795166015625
1761478208613731300,3.0907314453125,-0.9817047119140625,-0.0782012939453125,-0.19976806640625
1761478208623768300,3.100768310546875,-0.9898529052734375,-0.07989501953125,-0.205718994140625
1761478208633804300,3.11080419921875,-0.994781494140625,-0.0794525146484375,-0.2127227783203125
1761478208643840300,3.12084033203125,-0.997772216796875,-0.0808868408203125,-0.2129974365234375
1761478208653877500,3.13087744140625,-1.0016632080078125,-0.0814666748046875,-0.21221923828125
1761478208663913500,3.14091357421875,-1.002105712890625,-0.0791778564453125,-0.2128448486328125
1761478208673949400,3.150949462890625,-0.9991912841796875,-0.080291748046875,-0.2110748291015625
1761478208683985400,3.1609853515625,-0.9953765869140625,-0.082183837890625,-0.2114105224609375
1761478208694022400,3.1710224609375,-0.9894256591796875,-0.0845489501953125,-0.20880126953125
1761478208704058400,3.181058349609375,-0.9882049560546875,-0.0845794677734375,-0.201751708984375
1761478208714094300,3.19109423828125,-0.991302490234375,-0.0826416015625,-0.196624755859375
1761478208724131300,3.20113134765625,-0.993927001953125,-0.08087158203125,-0.199310302734375
1761478208734167300,3.211167236328125,-0.9906005859375,-0.081787109375,-0.2034759521484375
1761478208744203300,3.221203369140625,-0.9843597412109375,-0.084259033203125,-0.2078704833984375
1761478208754240000,3.231239990234375,-0.97991943359375,-0.0871124267578125,-0.2101593017578125
1761478208764276000,3.24127587890625,-0.9826202392578125,-0.08856201171875,-0.21136474609375
1761478208774312000,3.25131201171875,-0.989013671875,-0.0878143310546875,-0.2080841064453125
1761478208784348200,3.26134814453125,-1.0037994384765625,-0.0811767578125,-0.2061614990234375
1761478208794385200,3.27138525390625,-1.00872802734375,-0.076019287109375,-0.206329345703125
1761478208804421000,3.281421142578125,-1.004669189453125,-0.0791473388671875,-0.202850341796875
1761478208814457000,3.29145703125,-0.9911041259765625,-0.083038330078125,-0.2037200927734375
1761478208824494000,3.301494140625,-0.9765472412109375,-0.0882110595703125,-0.208251953125
1761478208834530000,3.311530029296875,-0.97222900390625,-0.0909423828125,-0.2136383056640625
1761478208844566000,3.32156591796875,-0.974700927734375,-0.089691162109375,-0.2131500244140625
1761478208854602000,3.33160205078125,-0.9761962890625,-0.0859527587890625,-0.2101593017578125
1761478208864639000,3.341638916015625,-0.9781494140625,-0.0843048095703125,-0.2063446044921875
1761478208874675000,3.351675048828125,-0.9825592041015625,-0.085052490234375,-0.206085205078125
1761478208884711000,3.3617109375,-0.987457275390625,-0.0845947265625,-0.2080230712890625
1761478208894748200,3.371748046875,-0.993865966796875,-0.0843048095703125,-0.213348388671875
1761478208904784100,3.3817841796875,-0.996734619140625,-0.0841217041015625,-0.2179718017578125
1761478208914820000,3.391820068359375,-0.995513916015625,-0.0847930908203125,-0.214599609375
1761478208924856000,3.40185595703125,-0.9972991943359375,-0.0818939208984375,-0.2081146240234375
1761478208934893000,3.41189306640625,-0.99932861328125,-0.0794677734375,-0.203521728515625
1761478208944929000,3.421928955078125,-1.0007476806640625,-0.080780029296875,-0.2008514404296875
1761478208954965000,3.431965087890625,-1.000946044921875,-0.0804901123046875,-0.2042236328125
1761478208965002000,3.442001953125,-0.9973907470703125,-0.0830230712890625,-0.209442138671875
1761478208975038000,3.452037841796875,-0.9983673095703125,-0.08514404296875,-0.2100830078125
1761478208985074000,3.462073974609375,-0.997711181640625,-0.0864105224609375,-0.2104034423828125
1761478208995111200,3.472111083984375,-0.9921112060546875,-0.086761474609375,-0.2125396728515625
1761478209005147100,3.482147216796875,-0.9844818115234375,-0.0882110595703125,-0.215240478515625
1761478209015183000,3.49218310546875,-0.9765777587890625,-0.0895233154296875,-0.2156524658203125
1761478209025219300,3.50221923828125,-0.97003173828125,-0.0894927978515625,-0.21240234375
1761478209035256000,3.512256103515625,-0.9679718017578125,-0.089141845703125,-0.2042236328125
1761478209045292000,3.5222919921875,-0.970947265625,-0.0886993408203125,-0.193634033203125
1761478209055328300,3.532328369140625,-0.974395751953125,-0.086212158203125,-0.19024658203125
1761478209065365000,3.542364990234375,-0.9826507568359375,-0.0857391357421875,-0.19390869140625
1761478209075401000,3.55240087890625,-0.990203857421875,-0.0875091552734375,-0.1995697021484375
1761478209085437200,3.562437255859375,-0.9944915771484375,-0.0861663818359375,-0.2078094482421875
1761478209095473200,3.57247314453125,-0.9984588623046875,-0.084228515625,-0.2123260498046875
1761478209105510100,3.58251025390625,-1.007110595703125,-0.0832366943359375,-0.209197998046875
1761478209115546000,3.592546142578125,-1.012908935546875,-0.0822601318359375,-0.20892333984375
1761478209125582300,3.602582275390625,-1.012786865234375,-0.0831146240234375,-0.21197509765625
1761478209135619000,3.612619140625,-1.00225830078125,-0.08697509765625,-0.2139434814453125
1761478209145655000,3.622655029296875,-0.99017333984375,-0.09130859375,-0.2154693603515625
1761478209155691300,3.632691162109375,-0.981658935546875,-0.0902252197265625,-0.216339111328125
1761478209165727200,3.642727294921875,-0.98443603515625,-0.088623046875,-0.21319580078125
1761478209175764000,3.652763916015625,-0.9900054931640625,-0.086212158203125,-0.2039642333984375
1761478209185800200,3.66280029296875,-0.9953765869140625,-0.084564208984375,-0.198822021484375
1761478209195836200,3.672836181640625,-1,-0.0829925537109375,-0.2014923095703125
1761478209205873200,3.682873046875,-1.0002899169921875,-0.0843048095703125,-0.2114715576171875
1761478209215909000,3.6929091796875,-0.9953460693359375,-0.0877227783203125,-0.216094970703125
1761478209225945300,3.7029453125,-0.988311767578125,-0.090667724609375,-0.2131500244140625
1761478209235981300,3.712981201171875,-0.9786376953125,-0.090576171875,-0.210174560546875
1761478209246018000,3.72301806640625,-0.971771240234375,-0.092987060546875,-0.20611572265625
1761478209256054300,3.73305419921875,-0.965179443359375,-0.0962982177734375,-0.201812744140625
1761478209266090200,3.74309033203125,-0.96441650390625,-0.09637451171875,-0.200225830078125
1761478209276127000,3.753126953125,-0.9718780517578125,-0.0950164794921875,-0.202362060546875
1761478209286163200,3.7631630859375,-0.98065185546875,-0.0936279296875,-0.2074127197265625
1761478209296199200,3.77319921875,-0.992950439453125,-0.09124755859375,-0.21221923828125
1761478209306235100,3.783235107421875,-1.0003662109375,-0.089447021484375,-0.210205078125
1761478209316272000,3.793272216796875,-0.998138427734375,-0.091094970703125,-0.2033538818359375
1761478209326308400,3.803308349609375,-0.9948577880859375,-0.0887451171875,-0.19720458984375
1761478209336344300,3.81334423828125,-0.9898529052734375,-0.088165283203125,-0.1975250244140625
1761478209346381300,3.82338134765625,-0.9897918701171875,-0.0955047607421875,-0.198822021484375
1761478209356417300,3.833417236328125,-0.988311767578125,-0.093841552734375,-0.2029266357421875
1761478209366453200,3.843453369140625,-0.983917236328125,-0.0882415771484375,-0.20855712890625
1761478209376489200,3.8534892578125,-0.979339599609375,-0.0861358642578125,-0.212310791015625
1761478209386526200,3.863526123046875,-0.9763946533203125,-0.08624267578125,-0.21832275390625
1761478209396562200,3.873562255859375,-0.9819488525390625,-0.084259033203125,-0.2240753173828125
1761478209406598100,3.88359814453125,-0.9891204833984375,-0.0862579345703125,-0.2264862060546875
1761478209416635100,3.89363525390625,-0.993896484375,-0.085479736328125,-0.2238922119140625
1761478209426671000,3.903671142578125,-0.9961395263671875,-0.0849609375,-0.2213897705078125
1761478209436707000,3.91370703125,-0.9970245361328125,-0.0887908935546875,-0.2247161865234375
1761478209446743300,3.923743408203125,-0.9977874755859375,-0.09454345703125,-0.2298126220703125
1761478209456780300,3.9337802734375,-0.996917724609375,-0.09149169921875,-0.228607177734375
1761478209466816300,3.943816162109375,-0.9960174560546875,-0.08843994140625,-0.218353271484375
1761478209476852200,3.953852294921875,-0.9969635009765625,-0.0863800048828125,-0.2071685791015625
1761478209486889200,3.96388916015625,-0.9923248291015625,-0.083770751953125,-0.200592041015625
1761478209496925200,3.97392529296875,-0.984954833984375,-0.0847930908203125,-0.1972503662109375
1761478209506961200,3.983961181640625,-0.977935791015625,-0.088531494140625,-0.1941375732421875
1761478209516997000,3.9939970703125,-0.977020263671875,-0.090301513671875,-0.197174072265625
1761478209527032000,4.004031982421875,-0.9806060791015625,-0.088104248046875,-0.202117919921875
1761478209537068000,4.014068115234375,-0.9860687255859375,-0.08660888671875,-0.2039337158203125
1761478209547105000,4.02410498046875,-0.9929656982421875,-0.0901641845703125,-0.2053375244140625
1761478209557141000,4.03414111328125,-0.9946136474609375,-0.0941619873046875,-0.2078704833984375
1761478209567177000,4.044177001953125,-0.993316650390625,-0.0950164794921875,-0.20831298828125
1761478209577214200,4.054214111328125,-0.985382080078125,-0.0945587158203125,-0.206268310546875
1761478209587250200,4.064250244140625,-0.9754791259765625,-0.09417724609375,-0.2071380615234375
1761478209597286100,4.0742861328125,-0.968597412109375,-0.09368896484375,-0.207183837890625
1761478209607322000,4.084322021484375,-0.96697998046875,-0.0915069580078125,-0.20452880859375
1761478209617359000,4.094359130859375,-0.9706573486328125,-0.088714599609375,-0.2019805908203125
1761478209627395000,4.10439501953125,-0.9786834716796875,-0.0830078125,-0.2028350830078125
1761478209637431000,4.11443115234375,-0.9921722412109375,-0.081787109375,-0.205291748046875
1761478209647468000,4.124468017578125,-1.001800537109375,-0.083282470703125,-0.211090087890625
1761478209657504000,4.13450390625,-1.0045166015625,-0.0875244140625,-0.2191162109375
1761478209667540000,4.1445400390625,-1.00274658203125,-0.0927734375,-0.220977783203125
1761478209677576200,4.154576171875,-1.0057373046875,-0.0899810791015625,-0.21826171875
1761478209687613200,4.16461328125,-1.0015106201171875,-0.0890045166015625,-0.213043212890625
1761478209697649200,4.174649169921875,-0.997283935546875,-0.09039306640625,-0.2059173583984375
1761478209707685000,4.18468505859375,-0.9951171875,-0.0871124267578125,-0.2000732421875
1761478209717722000,4.19472216796875,-0.9965057373046875,-0.08685302734375,-0.197601318359375
1761478209727758000,4.204758056640625,-0.9952850341796875,-0.08587646484375,-0.2017822265625
1761478209737794000,4.2147939453125,-0.993896484375,-0.0858306884765625,-0.2081756591796875
1761478209747830300,4.224830322265625,-0.992156982421875,-0.08734130859375,-0.2120361328125
1761478209757868000,4.234867919921875,-0.99517822265625,-0.0876007080078125,-0.2114410400390625
1761478209767904000,4.244904052734375,-1.0008544921875,-0.087310791015625,-0.2111968994140625
1761478209777940000,4.25493994140625,-0.9986572265625,-0.0883636474609375,-0.21197509765625
1761478209787977000,4.26497705078125,-0.983978271484375,-0.0879669189453125,-0.212188720703125
1761478209798013000,4.275012939453125,-0.969024658203125,-0.0923614501953125,-0.20635986328125
1761478209808049000,4.285048828125,-0.9591827392578125,-0.0953826904296875,-0.2028045654296875
1761478209818084900,4.2950849609375,-0.9595489501953125,-0.0917816162109375,-0.201507568359375
1761478209828121900,4.305121826171875,-0.9694061279296875,-0.0933074951171875,-0.1986083984375
1761478209838158000,4.315157958984375,-0.9857635498046875,-0.0899810791015625,-0.197479248046875
1761478209848194000,4.325194091796875,-0.9954833984375,-0.0849609375,-0.2018280029296875
1761478209858231000,4.33523095703125,-0.992645263671875,-0.08648681640625,-0.2043609619140625
1761478209868267000,4.34526708984375,-0.9886627197265625,-0.0903167724609375,-0.20501708984375
1761478209878303000,4.355302978515625,-0.9820404052734375,-0.091766357421875,-0.20794677734375
1761478209888339000,4.3653388671875,-0.9775848388671875,-0.0931243896484375,-0.20751953125
1761478209898376000,4.3753759765625,-0.977569580078125,-0.0899505615234375,-0.206390380859375
1761478209908412000,4.385411865234375,-0.9905242919921875,-0.084320068359375,-0.2040252685546875
1761478209918447900,4.39544775390625,-1.01324462890625,-0.078460693359375,-0.21014404296875
1761478209928484900,4.40548486328125,-1.021148681640625,-0.08013916015625,-0.2161712646484375
1761478209938520800,4.415520751953125,-1.01678466796875,-0.086883544921875,-0.217498779296875
1761478209948556800,4.425556884765625,-0.9982452392578125,-0.091949462890625,-0.2168731689453125
1761478209958593000,4.435593017578125,-0.978851318359375,-0.0947113037109375,-0.2094879150390625
1761478209968630000,4.445630126953125,-0.9696807861328125,-0.098297119140625,-0.196197509765625
1761478209978666000,4.455666015625,-0.97076416015625,-0.093292236328125,-0.1897430419921875
1761478209988702000,4.465701904296875,-0.9813385009765625,-0.0867919921875,-0.1929473876953125
1761478209998739000,4.475739013671875,-0.996307373046875,-0.087127685546875,-0.2061309814453125
1761478210008775000,4.48577490234375,-1.006927490234375,-0.0883026123046875,-0.221954345703125
1761478210018811000,4.495810791015625,-1.0158843994140625,-0.08941650390625,-0.2280426025390625
1761478210028847000,4.50584716796875,-1.0131683349609375,-0.091461181640625,-0.2207489013671875
1761478210038883800,4.5158837890625,-1.002777099609375,-0.092437744140625,-0.2062530517578125
1761478210048919800,4.525919921875,-0.9910125732421875,-0.0906982421875,-0.197509765625
1761478210058956000,4.5359560546875,-0.979766845703125,-0.0931549072265625,-0.193084716796875
1761478210068993000,4.545992919921875,-0.9737091064453125,-0.0978240966796875,-0.1923065185546875
1761478210079029000,4.556029052734375,-0.9759368896484375,-0.0953826904296875,-0.19891357421875
1761478210089065000,4.56606494140625,-0.9784698486328125,-0.08978271484375,-0.204132080078125
1761478210099102000,4.57610205078125,-0.9840850830078125,-0.0864715576171875,-0.20501708984375
1761478210109138000,4.586137939453125,-0.9840850830078125,-0.0902099609375,-0.207061767578125
1761478210119174000,4.596173828125,-0.982574462890625,-0.092987060546875,-0.211669921875
1761478210129210000,4.606210205078125,-0.981170654296875,-0.09368896484375,-0.211944580078125
1761478210139246800,4.616246826171875,-0.9813995361328125,-0.09375,-0.2113800048828125
1761478210149282800,4.62628271484375,-0.9807891845703125,-0.0925140380859375,-0.210693359375
1761478210159319000,4.636319091796875,-0.983734130859375,-0.092071533203125,-0.209686279296875
1761478210169356000,4.64635595703125,-0.9828338623046875,-0.091766357421875,-0.209808349609375
1761478210179392000,4.65639208984375,-0.9769744873046875,-0.0930938720703125,-0.2085723876953125
1761478210189428000,4.666427978515625,-0.975250244140625,-0.0953216552734375,-0.208343505859375
1761478210199464200,4.676464111328125,-0.9764862060546875,-0.0928955078125,-0.2095489501953125
1761478210209501000,4.6865009765625,-0.986328125,-0.088409423828125,-0.207763671875
1761478210219537000,4.696536865234375,-0.996002197265625,-0.0855712890625,-0.201324462890625
1761478210229573000,4.706572998046875,-1.00140380859375,-0.0872344970703125,-0.1946258544921875
1761478210239609900,4.71660986328125,-1.011444091796875,-0.0842742919921875,-0.200653076171875
1761478210249645800,4.726645751953125,-1.0117645263671875,-0.0863189697265625,-0.2113189697265625
1761478210259682000,4.73668212890625,-1.0039520263671875,-0.0919952392578125,-0.21624755859375
1761478210269719000,4.746718994140625,-0.992401123046875,-0.096038818359375,-0.218963623046875
1761478210279755000,4.756755126953125,-0.982269287109375,-0.097503662109375,-0.21435546875
1761478210289791200,4.766791259765625,-0.97808837890625,-0.0955657958984375,-0.207550048828125
1761478210299828000,4.776827880859375,-0.97674560546875,-0.091583251953125,-0.1997833251953125
1761478210309864000,4.786864013671875,-0.98193359375,-0.0884246826171875,-0.196868896484375
1761478210319900200,4.796900146484375,-0.9864654541015625,-0.084197998046875,-0.201080322265625
1761478210329936100,4.80693603515625,-0.99041748046875,-0.0830230712890625,-0.2086181640625
1761478210339972900,4.816972900390625,-0.990631103515625,-0.086029052734375,-0.2128143310546875
1761478210350009000,4.827009033203125,-0.9902191162109375,-0.0843353271484375,-0.2140960693359375
1761478210360045000,4.837045166015625,-0.990478515625,-0.0853118896484375,-0.211456298828125
1761478210370081800,4.847081787109375,-0.99462890625,-0.091033935546875,-0.2073516845703125
1761478210380118000,4.857117919921875,-0.994842529296875,-0.0925140380859375,-0.212432861328125
1761478210390154200,4.867154296875,-0.99078369140625,-0.094635009765625,-0.2145233154296875
1761478210400191000,4.87719091796875,-0.9808349609375,-0.094573974609375,-0.2103729248046875
1761478210410227000,4.88722705078125,-0.9734954833984375,-0.0954437255859375,-0.2043914794921875
1761478210420263200,4.89726318359375,-0.9723663330078125,-0.0936737060546875,-0.1975860595703125
1761478210430299100,4.907299072265625,-0.979766845703125,-0.0920867919921875,-0.1940460205078125
1761478210440336000,4.9173359375,-0.998504638671875,-0.0905914306640625,-0.1986541748046875
1761478210450372000,4.9273720703125,-1.01605224609375,-0.088470458984375,-0.2095794677734375
1761478210460408000,4.937407958984375,-1.0202789306640625,-0.0907135009765625,-0.2154541015625
1761478210470444800,4.94744482421875,-1.011474609375,-0.0931549072265625,-0.2128143310546875
1761478210480481000,4.95748095703125,-0.9912261962890625,-0.095428466796875,-0.2064208984375
1761478210490517000,4.96751708984375,-0.9734954833984375,-0.0958099365234375,-0.198516845703125
1761478210500554000,4.977553955078125,-0.9593048095703125,-0.09588623046875,-0.1949005126953125
1761478210510590000,4.98758984375,-0.95513916015625,-0.09765625,-0.1963348388671875
1761478210520626200,4.997626220703125,-0.9609222412109375,-0.0948944091796875,-0.200927734375
1761478210530663000,5.007662841796875,-0.9765167236328125,-0.094573974609375,-0.2071075439453125
1761478210540699000,5.017698974609375,-0.9915618896484375,-0.09271240234375,-0.2145233154296875
1761478210550735000,5.027735107421875,-1.0043182373046875,-0.09283447265625,-0.2195892333984375
1761478210560771000,5.03777099609375,-1.0095672607421875,-0.0926055908203125,-0.2199249267578125
1761478210570807800,5.047807861328125,-1.0054931640625,-0.092132568359375,-0.2133941650390625
1761478210580844000,5.057843994140625,-0.9940643310546875,-0.09417724609375,-0.2044830322265625
1761478210590880000,5.0678798828125,-0.98089599609375,-0.0927276611328125,-0.197601318359375
1761478210600917000,5.0779169921875,-0.974822998046875,-0.092132568359375,-0.19305419921875
1761478210610953200,5.087953125,-0.9746551513671875,-0.0928497314453125,-0.192840576171875
1761478210620989200,5.0979892578125,-0.9772491455078125,-0.0890350341796875,-0.1995086669921875
1761478210631026000,5.10802587890625,-0.9852142333984375,-0.090179443359375,-0.2081756591796875
1761478210641062100,5.118062255859375,-0.9962005615234375,-0.0922088623046875,-0.215667724609375
1761478210651098000,5.12809814453125,-1.0063323974609375,-0.0929412841796875,-0.2220611572265625
1761478210661134000,5.138134033203125,-1.0100250244140625,-0.0932769775390625,-0.2211151123046875
1761478210671171000,5.148171142578125,-1.0064544677734375,-0.09356689453125,-0.2093505859375
1761478210681207000,5.15820703125,-0.9944610595703125,-0.0927276611328125,-0.199462890625
1761478210691243000,5.168242919921875,-0.984283447265625,-0.0902862548828125,-0.1944580078125
1761478210701280000,5.178280029296875,-0.97900390625,-0.08892822265625,-0.191375732421875
1761478210711316200,5.188316162109375,-0.9775390625,-0.0906829833984375,-0.1911468505859375
1761478210721352200,5.198352294921875,-0.9820098876953125,-0.093505859375,-0.1956787109375
1761478210731389000,5.208388916015625,-0.9892425537109375,-0.0944061279296875,-0.202362060546875
1761478210741425200,5.218425048828125,-0.99798583984375,-0.0937042236328125,-0.208282470703125
1761478210751461000,5.228461181640625,-0.99822998046875,-0.0923614501953125,-0.2108917236328125
1761478210761497900,5.238497802734375,-0.9936370849609375,-0.0937652587890625,-0.2107391357421875
1761478210771534000,5.2485341796875,-0.9862518310546875,-0.0960845947265625,-0.2102813720703125
1761478210781570000,5.258570068359375,-0.9813385009765625,-0.093353271484375,-0.2087554931640625
1761478210791606000,5.26860595703125,-0.9786224365234375,-0.09039306640625,-0.20654296875
1761478210801643000,5.27864306640625,-0.9789276123046875,-0.087158203125,-0.206787109375
1761478210811679000,5.288678955078125,-0.9812469482421875,-0.0864410400390625,-0.2076873779296875
1761478210821715000,5.29871484375,-0.9849700927734375,-0.08526611328125,-0.2095794677734375
1761478210831752000,5.308751953125,-0.994049072265625,-0.0833587646484375,-0.2121124267578125
1761478210841788000,5.318787841796875,-0.9971466064453125,-0.0854339599609375,-0.214996337890625
1761478210851823900,5.328823974609375,-0.9944305419921875,-0.0894012451171875,-0.214263916015625
1761478210861860900,5.33886083984375,-0.99127197265625,-0.0907440185546875,-0.212646484375
1761478210871897000,5.34889697265625,-0.9925689697265625,-0.093048095703125,-0.20819091796875
1761478210881933000,5.35893310546875,-0.9930267333984375,-0.094268798828125,-0.2020111083984375
1761478210891969800,5.3689697265625,-0.9923858642578125,-0.0931854248046875,-0.200775146484375
1761478210902006000,5.379006103515625,-0.994781494140625,-0.0921630859375,-0.202056884765625
1761478210912042000,5.3890419921875,-0.9982147216796875,-0.0936279296875,-0.2010650634765625
1761478210922078700,5.39907861328125,-0.999237060546875,-0.0937652587890625,-0.1981658935546875
1761478210932115000,5.409114990234375,-0.9952545166015625,-0.0902099609375,-0.1962890625
1761478210942151000,5.41915087890625,-0.9888763427734375,-0.0902252197265625,-0.1992340087890625
1761478210952187000,5.429186767578125,-0.981964111328125,-0.092071533203125,-0.2024078369140625
1761478210962224000,5.43922412109375,-0.9759979248046875,-0.094451904296875,-0.202880859375
1761478210972260000,5.449260009765625,-0.981536865234375,-0.096160888671875,-0.2036590576171875
1761478210982296000,5.459296142578125,-0.98651123046875,-0.0946044921875,-0.2049560546875
1761478210992333000,5.4693330078125,-0.9943695068359375,-0.0903778076171875,-0.206390380859375
1761478211002369000,5.479369140625,-0.99908447265625,-0.088226318359375,-0.21075439453125
1761478211012405000,5.489405029296875,-0.9987335205078125,-0.09210205078125,-0.21795654296875
1761478211022442000,5.49944189453125,-0.99066162109375,-0.095916748046875,-0.2229766845703125
1761478211032478000,5.50947802734375,-0.9794464111328125,-0.09564208984375,-0.2215118408203125
1761478211042514000,5.519513916015625,-0.9724884033203125,-0.0962982177734375,-0.21075439453125
1761478211052551000,5.529551025390625,-0.96612548828125,-0.09423828125,-0.2026214599609375
1761478211062587000,5.5395869140625,-0.9685821533203125,-0.0903472900390625,-0.2015533447265625
1761478211072622800,5.549622802734375,-0.9753875732421875,-0.0883331298828125,-0.201751708984375
1761478211082659000,5.5596591796875,-0.9794921875,-0.08795166015625,-0.2029571533203125
1761478211092696000,5.569696044921875,-0.982177734375,-0.0908203125,-0.203155517578125
1761478211102732000,5.57973193359375,-0.9888763427734375,-0.0935821533203125,-0.2028961181640625
1761478211112768000,5.58976806640625,-1.00048828125,-0.0929718017578125,-0.204742431640625
1761478211122805000,5.599804931640625,-1.007720947265625,-0.089263916015625,-0.2093505859375
1761478211132841000,5.609841064453125,-1.0076141357421875,-0.0879669189453125,-0.2113189697265625
1761478211142877000,5.619876953125,-1.002593994140625,-0.0926666259765625,-0.208740234375
1761478211152914000,5.629913818359375,-0.996856689453125,-0.092315673828125,-0.20654296875
1761478211162950000,5.639949951171875,-0.9945831298828125,-0.0894317626953125,-0.2042388916015625
1761478211172985900,5.64998583984375,-0.993194580078125,-0.08990478515625,-0.2058868408203125
1761478211183022800,5.66002294921875,-0.993621826171875,-0.086761474609375,-0.2117767333984375
1761478211193059000,5.67005908203125,-0.99786376953125,-0.0819091796875,-0.21954345703125
1761478211203095000,5.680094970703125,-0.996307373046875,-0.079986572265625,-0.2221527099609375
1761478211213131000,5.690131103515625,-0.9911041259765625,-0.08258056640625,-0.211944580078125
1761478211223168000,5.70016796875,-0.9781494140625,-0.0830535888671875,-0.206787109375
1761478211233204000,5.710203857421875,-0.9667816162109375,-0.0883026123046875,-0.2059478759765625
1761478211243240000,5.720239990234375,-0.9647064208984375,-0.092254638671875,-0.2003173828125
1761478211253277000,5.73027685546875,-0.965789794921875,-0.097991943359375,-0.19091796875
1761478211263313000,5.74031298828125,-0.961761474609375,-0.09759521484375,-0.2079620361328125
1761478211273348900,5.750348876953125,-0.9856414794921875,-0.0925750732421875,-0.215118408203125
1761478211283386000,5.76038623046875,-1.004486083984375,-0.0964202880859375,-0.20751953125
1761478211293422000,5.770422119140625,-1.0035552978515625,-0.0950775146484375,-0.199066162109375
1761478211303458000,5.7804580078125,-1.0042266845703125,-0.092193603515625,-0.189208984375
1761478211313495000,5.7904951171875,-1.0026397705078125,-0.0896759033203125,-0.186004638671875
1761478211323531000,5.800531005859375,-1.0028076171875,-0.0855560302734375,-0.1925048828125
1761478211333567000,5.81056689453125,-1.00408935546875,-0.0859375,-0.19915771484375
1761478211343603000,5.82060302734375,-1.0027923583984375,-0.088470458984375,-0.1992645263671875
1761478211353640000,5.830639892578125,-1.0035552978515625,-0.089019775390625,-0.19580078125
1761478211363676000,5.840676025390625,-1.001129150390625,-0.089569091796875,-0.196502685546875
1761478211373712000,5.8507119140625,-0.9999237060546875,-0.0876312255859375,-0.2007293701171875
1761478211383748900,5.860748779296875,-0.996368408203125,-0.08697509765625,-0.206695556640625
1761478211393785000,5.87078515625,-0.9958038330078125,-0.0849151611328125,-0.2119903564453125
1761478211403821000,5.880821044921875,-0.995758056640625,-0.084442138671875,-0.2147216796875
1761478211413858000,5.890858154296875,-0.9923248291015625,-0.081329345703125,-0.2163543701171875
1761478211423894000,5.90089404296875,-0.984222412109375,-0.0829620361328125,-0.213165283203125
1761478211433930000,5.910929931640625,-0.9716644287109375,-0.08648681640625,-0.2100372314453125
1761478211443967000,5.920967041015625,-0.9627532958984375,-0.08428955078125,-0.209014892578125
1761478211454003000,5.9310029296875,-0.9636077880859375,-0.084381103515625,-0.2043304443359375
1761478211464039000,5.941038818359375,-0.9734649658203125,-0.083831787109375,-0.2013702392578125
1761478211474075000,5.951074951171875,-0.98553466796875,-0.081146240234375,-0.2040557861328125
1761478211484112000,5.96111181640625,-0.9925384521484375,-0.0825042724609375,-0.2158050537109375
1761478211494147800,5.97114794921875,-0.9949493408203125,-0.0845947265625,-0.2244415283203125
1761478211504183800,5.981183837890625,-0.992095947265625,-0.0863494873046875,-0.2232208251953125
1761478211514221000,5.991220947265625,-0.984466552734375,-0.0871124267578125,-0.21295166015625
1761478211524257000,6.001257080078125,-0.9821929931640625,-0.086151123046875,-0.1997222900390625
1761478211534293000,6.01129296875,-0.9857177734375,-0.084808349609375,-0.1936798095703125
1761478211544330000,6.021330078125,-0.99420166015625,-0.0821685791015625,-0.1963958740234375
1761478211554366000,6.031365966796875,-1.0038909912109375,-0.0793609619140625,-0.203826904296875
1761478211564402000,6.04140185546875,-1.0058441162109375,-0.0783233642578125,-0.209442138671875
1761478211574438000,6.05143798828125,-0.9998016357421875,-0.0833587646484375,-0.209930419921875
1761478211584475000,6.061474853515625,-0.9940185546875,-0.0904083251953125,-0.208770751953125
1761478211594510800,6.0715107421875,-0.98681640625,-0.0941925048828125,-0.2077789306640625
1761478211604546800,6.081546875,-0.9787445068359375,-0.093597412109375,-0.203582763671875
1761478211614584000,6.091583984375,-0.98077392578125,-0.0887603759765625,-0.1976318359375
1761478211624620000,6.1016201171875,-0.9852142333984375,-0.085845947265625,-0.19482421875
1761478211634656000,6.111656005859375,-0.9926605224609375,-0.0864410400390625,-0.1955108642578125
1761478211644693000,6.12169287109375,-1.0046539306640625,-0.083984375,-0.20074462890625
1761478211654729000,6.13172900390625,-1.0134735107421875,-0.0841522216796875,-0.208465576171875
1761478211664765000,6.141764892578125,-1.01727294921875,-0.0840301513671875,-0.2158966064453125
1761478211674802000,6.151802001953125,-1.01153564453125,-0.0836639404296875,-0.2180328369140625
1761478211684838000,6.161837890625,-1.00262451171875,-0.084320068359375,-0.2114715576171875
1761478211694873900,6.171873779296875,-0.989898681640625,-0.0846099853515625,-0.1998443603515625
1761478211704909800,6.181909912109375,-0.98504638671875,-0.0838623046875,-0.1923980712890625
1761478211714947000,6.191947021484375,-0.98321533203125,-0.0825653076171875,-0.1952667236328125
1761478211724983000,6.201983154296875,-0.982818603515625,-0.0833740234375,-0.204315185546875
1761478211735019000,6.21201904296875,-0.9808349609375,-0.0844268798828125,-0.2119293212890625
1761478211745056000,6.222055908203125,-0.9788665771484375,-0.0831756591796875,-0.2144775390625
1761478211755092200,6.23209228515625,-0.97760009765625,-0.082000732421875,-0.210601806640625
1761478211765128200,6.242128173828125,-0.972686767578125,-0.07952880859375,-0.2078094482421875
1761478211775165200,6.252165283203125,-0.9746246337890625,-0.0764007568359375,-0.207061767578125
1761478211785201200,6.262201171875,-0.9782257080078125,-0.0790863037109375,-0.208465576171875
1761478211795237000,6.272237060546875,-0.9814453125,-0.079315185546875,-0.2162017822265625
1761478211805273300,6.2822734375,-0.98785400390625,-0.0771636962890625,-0.222015380859375
1761478211815310300,6.292310302734375,-0.9913482666015625,-0.0811614990234375,-0.2184295654296875
1761478211825346300,6.30234619140625,-0.994964599609375,-0.0825042724609375,-0.20989990234375
1761478211835382300,6.31238232421875,-1.0000762939453125,-0.079833984375,-0.2069091796875
1761478211845419300,6.322419189453125,-1.001068115234375,-0.0838470458984375,-0.209197998046875
1761478211855455200,6.332455322265625,-0.9971466064453125,-0.0844879150390625,-0.2110137939453125
1761478211865491200,6.3424912109375,-0.9934234619140625,-0.083740234375,-0.2106170654296875
1761478211875528200,6.352528076171875,-0.996063232421875,-0.0831756591796875,-0.2062225341796875
1761478211885564200,6.362564208984375,-0.9990386962890625,-0.0812835693359375,-0.2041778564453125
1761478211895600000,6.37260009765625,-0.9986572265625,-0.079986572265625,-0.203277587890625
1761478211905636000,6.382635986328125,-0.996368408203125,-0.0805511474609375,-0.198699951171875
1761478211915673300,6.39267333984375,-0.9988861083984375,-0.080322265625,-0.1957855224609375
1761478211925709300,6.402709228515625,-0.996490478515625,-0.0833282470703125,-0.199066162109375
1761478211935745300,6.412745361328125,-0.9968414306640625,-0.087921142578125,-0.2056732177734375
1761478211945782300,6.4227822265625,-0.9988861083984375,-0.090057373046875,-0.21038818359375
1761478211955818200,6.432818359375,-0.996337890625,-0.0875701904296875,-0.210235595703125
1761478211965854200,6.442854248046875,-0.9906768798828125,-0.08575439453125,-0.2050323486328125
1761478211975891200,6.45289111328125,-0.982147216796875,-0.0830078125,-0.203826904296875
1761478211985927200,6.46292724609375,-0.9743499755859375,-0.082763671875,-0.2012176513671875
1761478211995963100,6.472963134765625,-0.9693450927734375,-0.0844573974609375,-0.1953125
1761478212005999000,6.4829990234375,-0.967315673828125,-0.0860443115234375,-0.192626953125
1761478212016036400,6.493036376953125,-0.975006103515625,-0.0858154296875,-0.197784423828125
1761478212026072300,6.503072265625,-0.9854888916015625,-0.08453369140625,-0.2097930908203125
1761478212036108300,6.5131083984375,-0.992919921875,-0.0836944580078125,-0.2174224853515625
1761478212046145300,6.523145263671875,-0.9958648681640625,-0.0848846435546875,-0.2178802490234375
1761478212056181200,6.53318115234375,-0.9978485107421875,-0.0859222412109375,-0.21435546875
1761478212066217200,6.54321728515625,-1.0014801025390625,-0.0850830078125,-0.207366943359375
1761478212076254200,6.553254150390625,-1.002227783203125,-0.08514404296875,-0.2032470703125
1761478212086290200,6.563290283203125,-1.0021209716796875,-0.0825653076171875,-0.2016448974609375
1761478212096326100,6.573326171875,-1.0006866455078125,-0.086181640625,-0.20147705078125
1761478212106362000,6.583362060546875,-0.99481201171875,-0.0882720947265625,-0.2035064697265625
1761478212116399400,6.5933994140625,-0.9909210205078125,-0.0913543701171875,-0.2026519775390625
1761478212126435300,6.603435302734375,-0.9863128662109375,-0.092987060546875,-0.19927978515625
1761478212136471300,6.61347119140625,-0.982208251953125,-0.0921630859375,-0.1961669921875
1761478212146508300,6.62350830078125,-0.983428955078125,-0.091583251953125,-0.1953125
1761478212156544300,6.633544189453125,-0.985382080078125,-0.089874267578125,-0.1951751708984375
1761478212166580200,6.643580322265625,-0.990570068359375,-0.087646484375,-0.192718505859375
1761478212176617200,6.6536171875,-0.99462890625,-0.0874481201171875,-0.1940460205078125
1761478212186653200,6.663653076171875,-0.9957122802734375,-0.0867767333984375,-0.199920654296875
1761478212196689200,6.673689208984375,-0.9929656982421875,-0.0903167724609375,-0.2080230712890625
1761478212206725000,6.68372509765625,-0.98638916015625,-0.09307861328125,-0.215484619140625
1761478212216762000,6.69376220703125,-0.9827728271484375,-0.09002685546875,-0.21392822265625
1761478212226798300,6.70379833984375,-0.9786529541015625,-0.0847930908203125,-0.2064361572265625
1761478212236834300,6.713834228515625,-0.9842681884765625,-0.082000732421875,-0.1966552734375
1761478212246871300,6.723871337890625,-0.994842529296875,-0.0800323486328125,-0.1976165771484375
1761478212256907300,6.7339072265625,-1.0044708251953125,-0.0821380615234375,-0.205291748046875
1761478212266943200,6.743943115234375,-1.0044403076171875,-0.0859375,-0.2114715576171875
1761478212276980200,6.753980224609375,-0.997100830078125,-0.088043212890625,-0.2131805419921875
1761478212287016200,6.76401611328125,-0.9848480224609375,-0.090911865234375,-0.2121734619140625
1761478212297052200,6.77405224609375,-0.9741058349609375,-0.0921630859375,-0.2093505859375
1761478212307088100,6.784088134765625,-0.97039794921875,-0.090545654296875,-0.20513916015625
1761478212317125000,6.794125,-0.9744415283203125,-0.0899810791015625,-0.197265625
1761478212327161000,6.8041611328125,-0.9865264892578125,-0.0903472900390625,-0.191650390625
1761478212337197000,6.814197021484375,-0.99951171875,-0.0863189697265625,-0.1971588134765625
1761478212347234300,6.824234375,-1.00384521484375,-0.08599853515625,-0.2036590576171875
1761478212357270300,6.834270263671875,-0.9966583251953125,-0.0852813720703125,-0.206451416015625
1761478212367306200,6.84430615234375,-0.9885101318359375,-0.08612060546875,-0.2062225341796875
1761478212377342200,6.85434228515625,-0.988800048828125,-0.0888824462890625,-0.204254150390625
1761478212387379200,6.864379150390625,-0.9948272705078125,-0.0872955322265625,-0.204010009765625
1761478212397415200,6.874415283203125,-1.00054931640625,-0.08380126953125,-0.2065887451171875
1761478212407451100,6.884451171875,-1.0038604736328125,-0.081756591796875,-0.207672119140625
1761478212417488100,6.894488037109375,-0.994537353515625,-0.0845947265625,-0.204132080078125
1761478212427524000,6.904524169921875,-0.9808349609375,-0.088409423828125,-0.2093658447265625
1761478212437560000,6.91456005859375,-0.9710845947265625,-0.08636474609375,-0.210540771484375
1761478212447596000,6.924595947265625,-0.9704132080078125,-0.083648681640625,-0.210174560546875
1761478212457633300,6.93463330078125,-0.979217529296875,-0.0814361572265625,-0.208160400390625
1761478212467669200,6.944669189453125,-0.9859619140625,-0.0809478759765625,-0.203125
1761478212477705200,6.954705322265625,-0.98834228515625,-0.081939697265625,-0.1981353759765625
1761478212487742200,6.9647421875,-0.9879150390625,-0.0863494873046875,-0.198486328125
1761478212497778200,6.974778076171875,-0.9852752685546875,-0.0908050537109375,-0.2011260986328125
1761478212507814100,6.984814208984375,-0.9874267578125,-0.092193603515625,-0.2070159912109375
1761478212517851100,6.99485107421875,-0.99212646484375,-0.090576171875,-0.2086181640625
1761478212527887000,7.00488720703125,-0.9951934814453125,-0.0870361328125,-0.2081146240234375
1761478212537923000,7.014923095703125,-0.9957427978515625,-0.0841064453125,-0.201629638671875
1761478212547959000,7.024958984375,-0.9951934814453125,-0.0831756591796875,-0.191650390625
1761478212557996300,7.034996337890625,-0.994598388671875,-0.082061767578125,-0.186981201171875
1761478212568032300,7.0450322265625,-1.000732421875,-0.0810394287109375,-0.1947479248046875
1761478212578068200,7.055068115234375,-1.006805419921875,-0.082489013671875,-0.20947265625
1761478212588105200,7.065105224609375,-1.008209228515625,-0.0877227783203125,-0.2148284912109375
1761478212598141200,7.07514111328125,-1.0071258544921875,-0.0875396728515625,-0.2119293212890625
1761478212608177200,7.08517724609375,-1.0003814697265625,-0.0886688232421875,-0.20013427734375
1761478212618213000,7.095213134765625,-0.9950408935546875,-0.0909881591796875,-0.1873626708984375
1761478212628250000,7.10525,-0.9950714111328125,-0.0860443115234375,-0.183624267578125
1761478212638286000,7.1152861328125,-0.9904632568359375,-0.0825958251953125,-0.192962646484375
1761478212648322000,7.125322021484375,-0.9850311279296875,-0.0864105224609375,-0.203582763671875
1761478212658359300,7.135359375,-0.9850616455078125,-0.0847320556640625,-0.2108612060546875
1761478212668395300,7.145395263671875,-0.9830474853515625,-0.08624267578125,-0.2115325927734375
1761478212678431200,7.15543115234375,-0.9808502197265625,-0.087249755859375,-0.205780029296875
1761478212688467200,7.16546728515625,-0.9806671142578125,-0.0824127197265625,-0.2030792236328125
1761478212698504200,7.175504150390625,-0.978240966796875,-0.082183837890625,-0.202178955078125
1761478212708540200,7.1855400390625,-0.9746551513671875,-0.08526611328125,-0.198516845703125
1761478212718576000,7.195576171875,-0.979095458984375,-0.08355712890625,-0.1970977783203125
1761478212728613000,7.205613037109375,-0.9916839599609375,-0.0812530517578125,-0.2006072998046875
1761478212738649000,7.215649169921875,-0.999267578125,-0.079071044921875,-0.207244873046875
1761478212748685000,7.22568505859375,-1.0045318603515625,-0.0794830322265625,-0.20819091796875
1761478212758721300,7.23572119140625,-1.00408935546875,-0.0772705078125,-0.20782470703125
1761478212768758300,7.24575830078125,-0.99725341796875,-0.078369140625,-0.206268310546875
1761478212778794200,7.255794189453125,-0.9906158447265625,-0.0802001953125,-0.2036895751953125
1761478212788830200,7.265830322265625,-0.9865875244140625,-0.0789794921875,-0.2008514404296875
1761478212798867200,7.2758671875,-0.988189697265625,-0.079681396484375,-0.2017364501953125
1761478212808903200,7.285903076171875,-0.9928741455078125,-0.08099365234375,-0.208343505859375
1761478212818939100,7.295939208984375,-1.0041351318359375,-0.078948974609375,-0.2122039794921875
1761478212828975000,7.30597509765625,-1.0111541748046875,-0.0743560791015625,-0.2118682861328125
1761478212839012000,7.31601220703125,-1.0093231201171875,-0.0721435546875,-0.2082977294921875
1761478212849048300,7.32604833984375,-1.0044097900390625,-0.071746826171875,-0.2085113525390625
1761478212859084300,7.336084228515625,-0.9913787841796875,-0.0774078369140625,-0.209014892578125
1761478212869121300,7.346121337890625,-0.978546142578125,-0.085052490234375,-0.2059173583984375
1761478212879157200,7.3561572265625,-0.969573974609375,-0.086761474609375,-0.2001495361328125
1761478212889193200,7.366193115234375,-0.968841552734375,-0.0881195068359375,-0.1921234130859375
1761478212899229200,7.376229248046875,-0.973846435546875,-0.085174560546875,-0.1887664794921875
1761478212909266200,7.38626611328125,-0.98248291015625,-0.081298828125,-0.1923065185546875
1761478212919302100,7.39630224609375,-0.984771728515625,-0.080474853515625,-0.197998046875
1761478212929338000,7.406338134765625,-0.9853668212890625,-0.0783233642578125,-0.2044677734375
1761478212939375000,7.416375,-0.9899444580078125,-0.0774383544921875,-0.2052764892578125
1761478212949411000,7.4264111328125,-0.9962310791015625,-0.0776214599609375,-0.2035980224609375
1761478212959447000,7.436447021484375,-1.0045623779296875,-0.078460693359375,-0.2024078369140625
1761478212969483300,7.446483154296875,-1.01116943359375,-0.0800628662109375,-0.2047119140625
1761478212979520300,7.456520263671875,-1.0114898681640625,-0.08123779296875,-0.207366943359375
1761478212989556200,7.46655615234375,-1.0091400146484375,-0.0833740234375,-0.2043609619140625
1761478212999592200,7.47659228515625,-1.001220703125,-0.0836334228515625,-0.1989593505859375
1761478213009629200,7.486629150390625,-0.9909820556640625,-0.0779571533203125,-0.194244384765625
1761478213019665200,7.4966650390625,-0.9806365966796875,-0.07537841796875,-0.19232177734375
1761478213029701000,7.506701171875,-0.9781036376953125,-0.0780792236328125,-0.197021484375
1761478213039737300,7.5167373046875,-0.983123779296875,-0.0777130126953125,-0.20745849609375
1761478213049774000,7.526774169921875,-0.9943084716796875,-0.075164794921875,-0.2163543701171875
1761478213059810000,7.53681005859375,-1.0005950927734375,-0.07904052734375,-0.2181243896484375
1761478213069846300,7.54684619140625,-0.9991455078125,-0.08135986328125,-0.2176666259765625
1761478213079883300,7.55688330078125,-0.993560791015625,-0.0815277099609375,-0.2122650146484375
1761478213089919200,7.566919189453125,-0.985687255859375,-0.0798797607421875,-0.201812744140625
1761478213099955200,7.576955078125,-0.982757568359375,-0.08123779296875,-0.1866607666015625
1761478213109991400,7.586991455078125,-0.9851837158203125,-0.0787353515625,-0.1814422607421875
1761478213120028200,7.597028076171875,-0.985931396484375,-0.0794830322265625,-0.1903076171875
1761478213130064100,7.607064208984375,-0.984771728515625,-0.0803680419921875,-0.2064666748046875
1761478213140100400,7.617100341796875,-0.988037109375,-0.0788116455078125,-0.218048095703125
1761478213150136300,7.62713623046875,-0.994659423828125,-0.080596923828125,-0.21954345703125
1761478213160173000,7.637173095703125,-1.003509521484375,-0.080596923828125,-0.2140655517578125
1761478213170209300,7.647209228515625,-1.005584716796875,-0.0776824951171875,-0.2078704833984375
1761478213180245200,7.657245361328125,-1.0036773681640625,-0.0789031982421875,-0.20574951171875
1761478213190282200,7.6672822265625,-0.9971466064453125,-0.0811309814453125,-0.2099456787109375
1761478213200318500,7.677318359375,-0.978515625,-0.0818634033203125,-0.2161407470703125
1761478213210354400,7.6873544921875,-0.9559478759765625,-0.0863189697265625,-0.21868896484375
1761478213220390400,7.697390380859375,-0.951690673828125,-0.0861968994140625,-0.214996337890625
1761478213230427400,7.707427490234375,-0.9576263427734375,-0.0800323486328125,-0.211212158203125
1761478213240463400,7.71746337890625,-0.9728851318359375,-0.074066162109375,-0.2075347900390625
1761478213250499300,7.727499267578125,-0.9863433837890625,-0.073944091796875,-0.202667236328125
1761478213260536300,7.737536376953125,-0.988250732421875,-0.0795440673828125,-0.2003326416015625
1761478213270572300,7.747572265625,-0.98919677734375,-0.0816650390625,-0.1964111328125
1761478213280608300,7.757608154296875,-0.9925384521484375,-0.08160400390625,-0.1951446533203125
1761478213290644200,7.767644287109375,-0.9987030029296875,-0.0811920166015625,-0.201202392578125
1761478213300681500,7.777681396484375,-1.0024566650390625,-0.0843048095703125,-0.20965576171875
1761478213310717400,7.787717529296875,-1.009033203125,-0.0816497802734375,-0.214385986328125
1761478213320753400,7.79775341796875,-1.0101470947265625,-0.0739898681640625,-0.2157135009765625
1761478213330790400,7.807790283203125,-1.0111236572265625,-0.0726318359375,-0.2028656005859375
1761478213340826400,7.817826416015625,-1.004364013671875,-0.0750732421875,-0.182403564453125
1761478213350862300,7.8278623046875,-0.9957275390625,-0.0740966796875,-0.1753997802734375
1761478213360898300,7.837898193359375,-0.98895263671875,-0.07720947265625,-0.1860198974609375
1761478213370935300,7.847935302734375,-0.99542236328125,-0.0792999267578125,-0.2035369873046875
1761478213380971300,7.85797119140625,-1.002716064453125,-0.0803375244140625,-0.219085693359375
1761478213391007200,7.86800732421875,-1.002471923828125,-0.079315185546875,-0.2248687744140625
1761478213401043200,7.878043212890625,-0.998748779296875,-0.0757598876953125,-0.2172088623046875
1761478213411080400,7.88808056640625,-0.991485595703125,-0.0733795166015625,-0.206512451171875
1761478213421116400,7.898116455078125,-0.983367919921875,-0.070281982421875,-0.2044830322265625
1761478213431152400,7.90815234375,-0.980438232421875,-0.0666656494140625,-0.21075439453125
1761478213441189400,7.918189453125,-0.983642578125,-0.06903076171875,-0.21563720703125
1761478213451225300,7.928225341796875,-0.986328125,-0.0701141357421875,-0.207855224609375
1761478213461261300,7.93826123046875,-0.983306884765625,-0.07232666015625,-0.2030029296875
1761478213471297300,7.94829736328125,-0.986480712890625,-0.0721893310546875,-0.206634521484375
1761478213481334300,7.958334228515625,-0.994293212890625,-0.0730743408203125,-0.21026611328125
1761478213491370200,7.968370361328125,-0.9940948486328125,-0.0742340087890625,-0.216033935546875
1761478213501406200,7.97840625,-0.9923858642578125,-0.0737762451171875,-0.2167205810546875
1761478213511442200,7.988442138671875,-0.9884185791015625,-0.076141357421875,-0.211395263671875
1761478213521479400,7.9984794921875,-0.9886932373046875,-0.0776519775390625,-0.2076416015625
1761478213531515400,8.008515380859375,-0.994842529296875,-0.0781707763671875,-0.1993408203125
1761478213541551400,8.01855126953125,-0.9953460693359375,-0.0812835693359375,-0.1960296630859375
1761478213551587300,8.02858740234375,-0.9951324462890625,-0.0801849365234375,-0.1933441162109375
1761478213561624300,8.038624267578125,-0.996063232421875,-0.077667236328125,-0.188446044921875
1761478213571660300,8.048660400390625,-0.992523193359375,-0.0755767822265625,-0.18572998046875
1761478213581696300,8.0586962890625,-0.9990692138671875,-0.0703277587890625,-0.1845245361328125
1761478213591733200,8.068733154296876,-1.000274658203125,-0.070343017578125,-0.1875762939453125
1761478213601769200,8.078769287109376,-0.9994964599609375,-0.0718536376953125,-0.1944580078125
1761478213611805200,8.08880517578125,-1.0006866455078125,-0.0757904052734375,-0.207183837890625
1761478213621841200,8.098841064453126,-1.0025787353515625,-0.075439453125,-0.2175140380859375
1761478213631878400,8.10887841796875,-0.995361328125,-0.0748443603515625,-0.21783447265625
1761478213641914400,8.118914306640624,-0.989593505859375,-0.0753631591796875,-0.2104034423828125
1761478213651950300,8.128950439453124,-0.9935760498046875,-0.0731353759765625,-0.2011871337890625
1761478213661986300,8.138986328125,-0.9945220947265625,-0.067138671875,-0.2000732421875
1761478213672023300,8.149023193359374,-0.994140625,-0.0648956298828125,-0.203887939453125
1761478213682059300,8.159059326171874,-0.9855499267578125,-0.0696563720703125,-0.2088623046875
1761478213692095200,8.16909521484375,-0.9763336181640625,-0.0717315673828125,-0.2107086181640625
1761478213702132200,8.17913232421875,-0.975067138671875,-0.0720367431640625,-0.2126617431640625
1761478213712168200,8.189168212890625,-0.98486328125,-0.0738525390625,-0.2127532958984375
1761478213722204200,8.1992041015625,-0.995269775390625,-0.070465087890625,-0.2148284912109375
1761478213732240100,8.209240234375,-1.0005645751953125,-0.06878662109375,-0.2214508056640625
1761478213742277000,8.219277099609375,-1.0004425048828125,-0.069122314453125,-0.2212677001953125
1761478213752313300,8.229313232421875,-0.9936370849609375,-0.06829833984375,-0.2172393798828125
1761478213762348500,8.2393486328125,-0.986480712890625,-0.072540283203125,-0.213348388671875
1761478213772384800,8.249384765625,-0.98681640625,-0.080535888671875,-0.2147369384765625
1761478213782421800,8.259421875,-0.9969482421875,-0.0764923095703125,-0.2134857177734375
1761478213792457700,8.269457763671875,-0.982177734375,-0.0705108642578125,-0.199493408203125
1761478213802493700,8.27949365234375,-0.9657440185546875,-0.0754241943359375,-0.1789398193359375
1761478213812530000,8.289530029296875,-0.9609832763671875,-0.08001708984375,-0.1726837158203125
1761478213822566700,8.299566650390625,-0.9573211669921875,-0.0872039794921875,-0.194580078125
1761478213832602600,8.3096025390625,-0.997528076171875,-0.0797271728515625,-0.238189697265625
1761478213842638800,8.319638916015625,-1.024566650390625,-0.075836181640625,-0.2601776123046875
1761478213852675600,8.329675537109376,-1.00433349609375,-0.011566162109375,-0.2245941162109375
1761478213862711600,8.339711669921876,-0.9212799072265625,-0.0765380859375,-0.1326751708984375
1761478213872747800,8.349747802734376,-0.9266510009765625,-0.144622802734375,-0.12200927734375
1761478213882783700,8.35978369140625,-1.0125274658203125,-0.1331939697265625,-0.1766815185546875
1761478213892820700,8.36982080078125,-1.040557861328125,-0.0636138916015625,-0.2023468017578125
1761478213902856700,8.379856689453124,-1.02105712890625,-0.0717010498046875,-0.2057647705078125
1761478213912893000,8.389892822265624,-1.0029449462890625,-0.071868896484375,-0.1864776611328125
1761478213922929000,8.399928955078124,-1.000579833984375,-0.0608673095703125,-0.1672515869140625
1761478213932965600,8.409965576171874,-1.005889892578125,-0.068115234375,-0.1639251708984375
1761478213943001900,8.420001953125,-1.006103515625,-0.04754638671875,-0.196563720703125
