time,seconds_elapsed,z,y,x
1761478205605347600,0.08234765625,-0.6495446892172098,-0.0028328853383660316,-0.2528260294251144
1761478205615384600,0.092384521484375,-0.3342775473177433,0.0016493746422231196,-0.14102262788861988
1761478205625420500,0.102420654296875,-0.07510054143071174,0.006778408093750477,0.009824351660907268
1761478205635456500,0.11245654296875,0.16675065112411974,0.004972527715563774,0.1728355239957571
1761478205645492500,0.122492431640625,0.32869419422745705,-0.046479134841263293,0.259206962633878
1761478205655529700,0.13252978515625,0.36106034030318257,-0.07374635034278035,0.20785130779743194
1761478205665565700,0.142565673828125,0.10656067857742309,-0.008579831492528318,-0.02522138888761401
1761478205675601700,0.1526015625,-0.07567161931693553,-0.007800152356922626,-0.22250366413667796
1761478205685638700,0.162638671875,-0.09437573526501655,-0.0745669460106641,-0.2392838262848556
1761478205695674600,0.172674560546875,-0.009747487032413482,-0.10311090344972908,-0.219672532363981
1761478205705710600,0.182710693359375,0.09483341590464114,-0.09045666212514042,-0.14704159591719507
1761478205715747600,0.19274755859375,0.1746732608169317,-0.06728855250552296,-0.023477613960206506
1761478205725783600,0.202783447265625,0.22503566683232784,-0.08375131926760077,0.09336348948255181
1761478205735819500,0.212819580078125,0.2194078900784254,-0.09434826273620128,0.15094941701069473
1761478205745855500,0.22285546875,0.16576222460865975,-0.06283069631382823,0.11926599250212311
1761478205755893500,0.2328935546875,-0.041964580026268954,-0.02957125466018915,0.057695817643404
1761478205765929500,0.242929443359375,-0.2603326056629419,0.002340864037722349,-0.04152852669656276
1761478205775965400,0.25296533203125,-0.4229021717101335,0.022521409213915464,-0.10945026253908872
1761478205786002400,0.26300244140625,-0.4799643676251173,0.04271335256695747,-0.11453940237164496
1761478205796038400,0.273038330078125,-0.45835050171017644,0.024063451024144887,-0.09582330372482538
1761478205806074400,0.283074462890625,-0.3782593123853206,-0.01041566861756146,-0.07766819996163249
1761478205816111400,0.293111328125,-0.30349604008495806,0.00407996279001236,-0.05311915737763047
1761478205826147300,0.303147216796875,-0.28415421075522895,0.009003463732078672,0.016139526157081127
1761478205836183600,0.31318359375,-0.30523557722866534,-0.003171981099620461,0.02340674068108201
1761478205846219500,0.323219482421875,-0.3072188600003719,-0.02125131621286273,-0.040224458360672
1761478205856256500,0.333256591796875,-0.22529285646378994,-0.06191650407835841,-0.13166633213087917
1761478205866292500,0.34329248046875,-0.10120879615545272,-0.09484905186519026,-0.16611790617853403
1761478205876328400,0.353328369140625,-0.0020148469537496568,-0.08897022295966744,-0.12764759800881145
1761478205886365400,0.363365478515625,0.07178630231618881,-0.0717618985272944,-0.07073913135081529
1761478205896401400,0.3734013671875,0.07189210077822208,-0.056902329178154465,0.006587415566295385
1761478205906437400,0.383437255859375,-0.02255377711355686,-0.0386468337804079,0.00848667331635952
1761478205916474400,0.393474365234375,-0.11518003836274146,0.03009403642527759,-0.07501286314725876
1761478205926510300,0.40351025390625,-0.16086451569497584,0.028956629893183705,-0.06860577258393168
1761478205936546300,0.41354638671875,-0.1351765322089195,-0.024154928699880836,-0.016933306883275507
1761478205946582300,0.423582275390625,-0.05875321774184703,-0.033563100775331256,0.059131549534946676
1761478205956619500,0.43361962890625,-0.02798047833740711,-0.03171250447258353,0.12454817068874835
1761478205966655500,0.443655517578125,-0.09260755654871464,-0.016473799612745643,0.11002674725279211
1761478205976691500,0.45369140625,-0.1610539007872343,0.0183921273894608,0.02053410785421729
1761478205986728400,0.463728515625,-0.21365970181524752,0.03825900350660085,-0.09028817369043826
1761478205996764400,0.473764404296875,-0.18812135593295096,0.03919876857474446,-0.1399127669505775
1761478206006800400,0.48380029296875,-0.10755962648689746,0.01786540010161698,-0.07824497693628073
1761478206016836400,0.49383642578125,-0.038458033210039134,0.021115926330164073,0.013028554529696703
1761478206026873300,0.503873291015625,-0.010420856249332427,0.05978285305052995,0.048196021761745214
1761478206036909300,0.513909423828125,-0.0631897388845682,0.10836962769553064,0.010585106900334358
1761478206046945300,0.5239453125,-0.20759411816596984,0.11873707325719296,-0.055839814513176676
1761478206056982500,0.533982421875,-0.28784312840104104,0.0976975731641054,-0.1688160592213273
1761478206067018500,0.5440185546875,-0.26952947307527064,0.08162190602347254,-0.24742446264252066
1761478206077054500,0.554054443359375,-0.20788579458892345,0.044294192017614836,-0.2444469081364572
1761478206087091500,0.564091552734375,-0.13168635200560092,0.0061126376613974565,-0.18095774791389702
1761478206097127400,0.57412744140625,-0.08619242880940436,0.019703721444681285,-0.1231139001019299
1761478206107163400,0.584163330078125,-0.09451543599665164,0.02282638350985944,-0.08140066448822617
1761478206117199400,0.594199462890625,-0.056578211790323255,0.029932343057543036,-0.06066723466962576
1761478206127236400,0.604236328125,-0.015237901142239569,0.026951792876794934,-0.0730345488116145
1761478206137272300,0.614272216796875,-0.011779869642853736,0.02324614329189062,-0.07831321986690164
1761478206147308300,0.624308349609375,-0.05404430939853191,0.02008957895711064,-0.03144859283939004
1761478206157345500,0.634345458984375,-0.15946166315972804,0.0661485886901617,-0.0018975041843950747
1761478206167381500,0.644381591796875,-0.2250152085661888,0.06448197065219283,0.044157121634483334
1761478206177417500,0.65441748046875,-0.29219781647920606,0.040751989366114134,0.01986030024588108
1761478206187454500,0.664454345703125,-0.2994114011198282,0.051845264984294766,-0.10910875562503933
1761478206197490400,0.674490478515625,-0.21708032391369342,-0.016987813549488782,-0.18764058667868375
1761478206207526400,0.6845263671875,-0.12813128987252712,-0.06794387460909783,-0.12940525533109903
1761478206217562400,0.694562255859375,-0.03763444186747074,-0.0655248307686299,-0.04101210160702467
1761478206227599400,0.704599365234375,-0.019255320090055466,-0.06931560135371982,0.015847119081765414
1761478206237635300,0.71463525390625,-0.022068623945116994,-0.05545483378358185,0.03269172476828098
1761478206247671300,0.72467138671875,-0.06660977646112441,-0.03398344507925212,0.012517244006693363
1761478206257708300,0.734708251953125,-0.077172087007761,-0.04357639913707971,0.02736249256953597
1761478206267744500,0.74474462890625,-0.04463292245268821,-0.04550532137304544,0.06597425503656268
1761478206277780500,0.754780517578125,-0.015478139638900755,-0.052337432415410876,0.10761442541405558
1761478206287816400,0.76481640625,0.03274140912890434,-0.05643982623293996,0.11196166083812713
1761478206297853400,0.774853515625,-0.015702596044540405,-0.04850391866713762,0.09914528775438666
1761478206307889400,0.784889404296875,-0.17737667455673217,-0.01733750376999378,0.026135142731666564
1761478206317925400,0.79492529296875,-0.3187035460889339,-0.020633330444991587,-0.0457379610851407
1761478206327962400,0.80496240234375,-0.4363239633411169,-0.02107040668800473,-0.04299129272550344
1761478206337998300,0.814998291015625,-0.44125674356818195,0.021204116070270538,-0.05061331203654408
1761478206348034300,0.825034423828125,-0.39999066720008847,0.061608095716312525,-0.05678600932210683
1761478206358071300,0.8350712890625,-0.37354514334499833,0.049782706431299444,-0.07522226811423897
1761478206368107300,0.845107177734375,-0.2696750190258026,0.015411504143476485,-0.08417597442045807
1761478206378143200,0.855143310546875,-0.18664076198637483,0.0035781507477164265,-0.05595438080355525
1761478206388180500,0.865180419921875,-0.13100538400411604,-0.0065339318133890625,-0.029705110172927377
1761478206398216400,0.875216552734375,-0.08617606219649314,-0.022097046322003006,-0.04866086279451847
1761478206408252400,0.88525244140625,-0.054601358759403223,0.00790441644899547,-0.056203825519978996
1761478206418288400,0.895288330078125,-0.0557657263636589,0.05976246784962713,-0.052941462723165744
1761478206428325400,0.905325439453125,-0.07882277682423591,0.06758936208300292,-0.044824791762977836
1761478206438361300,0.915361328125,-0.07302022802531719,0.043596345946565265,0.0018808453105390072
1761478206448397300,0.925397216796875,-0.024856208837032316,0.021110811763629316,0.019465747970342635
1761478206458434300,0.935434326171875,0.04244447249770164,-0.023025778539478778,0.004743102873861789
1761478206468470300,0.94547021484375,0.07957622554004191,-0.06476663281247019,-0.040891982358694075
1761478206478506200,0.95550634765625,0.07837094140350818,-0.06439714191295207,-0.07812514994889497
1761478206488543500,0.96554345703125,-0.01443009189069271,-0.04198642653189599,-0.08585998198464512
1761478206498579500,0.975579345703125,-0.14587094470262527,-0.005558291714265942,-0.01651449694931507
1761478206508615400,0.985615478515625,-0.2384960369080305,-0.02488872286714613,0.13652341677322982
1761478206518651400,0.9956513671875,-0.2992278612464666,-0.013827303691953419,0.22619345856532452
1761478206528688400,1.0056884765625,-0.2742278600245714,0.0382565923538059,0.17771832760125397
1761478206538724400,1.015724365234375,-0.2890916671574116,0.04169723432697355,0.05463862202987074
1761478206548760300,1.02576025390625,-0.3388981928557157,0.02411459668949246,-0.06513955777809023
1761478206558797300,1.03579736328125,-0.38581776494085784,0.031684593552350995,-0.11239581447169184
1761478206568833300,1.045833251953125,-0.3821311853826046,0.0159989486426115,-0.09090601332783699
1761478206578869200,1.055869140625,-0.33038696961998937,-0.01856668023876846,-0.0530916848488152
1761478206588906500,1.065906494140625,-0.20482523797452448,-0.02495857323296368,-0.07060337614193558
1761478206598942500,1.0759423828125,-0.03282791836857796,-0.02006020673215389,-0.10570932244509458
1761478206608978400,1.085978515625,0.11202946537733077,-0.03271802825331688,-0.10144318943321705
1761478206619015400,1.096015380859375,0.18340017262995242,-0.0013181699264794588,-0.07541252998933196
1761478206629051400,1.106051513671875,0.15391396590471268,0.0508058389339596,-0.004438128577917814
1761478206639087400,1.11608740234375,0.02948620672523975,0.09396145537570118,0.0527574844583869
1761478206649123300,1.126123291015625,-0.1485936476647854,0.08666932560615241,0.001331686995178461
1761478206659160300,1.136160400390625,-0.2372019054442644,0.0655409781858325,-0.11625891964063048
1761478206669196300,1.1461962890625,-0.2154652899324894,0.045670156545937056,-0.21975436542853713
1761478206679232300,1.156232177734375,-0.18086042501926422,0.014050591053813694,-0.26879575197324157
1761478206689269500,1.16626953125,-0.15512918691337108,0.007784370265901088,-0.20762246747761964
1761478206699305500,1.176305419921875,-0.1324497375935316,-0.01727262184023857,-0.07010214862152933
1761478206709341400,1.186341552734375,-0.16078151358664036,-0.015459288807958363,-0.005674246244132519
1761478206719378400,1.19637841796875,-0.162326404941082,-0.009049860157072544,0.017611790666729212
1761478206729414400,1.206414306640625,-0.1933142484009266,-0.022861454823240635,0.04418152542337775
1761478206739450400,1.216450439453125,-0.17628946384191513,0.012513152353465557,0.044556496215611696
1761478206749487600,1.226487548828125,-0.13180091829597948,0.03593530979938805,0.07892579880729317
1761478206759523600,1.236523681640625,-0.09141688545942306,0.016546207261830568,0.10094006221666932
1761478206769559600,1.2465595703125,-0.017841361638903618,0.005549523885920643,0.10215703679099679
1761478206779595500,1.256595458984375,-0.05621230108737945,-0.00019245383217930792,0.0652446255877614
1761478206789632500,1.266632568359375,-0.11674538798332214,0.009965659827739,-0.026507629305869338
1761478206799668500,1.27666845703125,-0.17886778989732263,0.0005014467161148787,-0.011490239046514033
1761478206809704400,1.286704345703125,-0.1859592094630003,-0.02760945306792855,0.0451053622700274
1761478206819741700,1.29674169921875,-0.1670353132843971,-0.01112856612727046,0.057512423900514836
1761478206829777700,1.306777587890625,-0.17673779213130472,0.010872180213406682,0.03218742850795388
1761478206839813600,1.316813720703125,-0.21911329104602337,-0.006297492709010839,0.014757424148917198
1761478206849850600,1.3268505859375,-0.22911913675367832,0.0070494070548564195,0.005756225439161062
1761478206859886600,1.336886474609375,-0.20876725359857082,0.011040449452400207,-0.027251871801912783
1761478206869922600,1.346922607421875,-0.17797814758121966,-0.0036653906397521494,-0.053909869363903996
1761478206879959600,1.35695947265625,-0.11704115605950355,-0.018135741475597024,-0.0900939662925899
1761478206889995500,1.36699560546875,-0.10680617777109146,-0.014906184969842433,-0.08403042846992612
1761478206900031500,1.377031494140625,-0.1133224277973175,0.006520049418509006,-0.04951061149165034
1761478206910067500,1.3870673828125,-0.1698077006071806,0.02047178320772946,-0.0010403028331696987
1761478206920104700,1.397104736328125,-0.21185586726367472,0.05532777333781123,-0.011110299818217755
1761478206930140700,1.407140625,-0.17366963673233984,0.042693405757471915,-0.05560308314785361
1761478206940176600,1.4171767578125,-0.10134265166819095,-0.018403306370601058,-0.07433511001616716
1761478206950213600,1.427213623046875,-0.06611468642055988,-0.022531346086040138,-0.10092588756084442
1761478206960249600,1.43724951171875,-0.09421849887669086,-0.024664997113868593,-0.08900456362068652
1761478206970285600,1.44728564453125,-0.10091185903549194,-0.0011316343784332275,-0.029060090267658233
1761478206980322600,1.457322509765625,-0.053290860682725906,-0.0016194178953766823,-0.00991071477010846
1761478206990358500,1.467358642578125,-0.019323709151148796,-0.0261313433393836,-0.049624885521084065
1761478207000394500,1.47739453125,-0.006172551155090331,-0.01046009228117764,-0.0729575380526483
1761478207010431500,1.487431396484375,-0.016125205370783807,0.017307547023147345,-0.04607654538974166
1761478207020467500,1.497467529296875,-0.08731646440327168,0.01892564974427223,0.024181524445861576
1761478207030503700,1.507503662109375,-0.22826222766339777,0.021814795314520595,0.06605126579552889
1761478207040540700,1.517540771484375,-0.30756957313418387,0.030661022658273578,0.05994330430924892
1761478207050576600,1.52757666015625,-0.28939094236493107,0.006439531528204679,0.02317863101363182
1761478207060612600,1.537612548828125,-0.1955705028951168,-0.009594342297315596,-0.04824000703394413
1761478207070648600,1.547648681640625,-0.1153396128386259,-0.009767068515717982,-0.12859510799199342
1761478207080685600,1.557685546875,-0.10818623395264149,-0.02156228185817599,-0.14705094826743006
1761478207090721500,1.567721435546875,-0.13411153332591055,-0.0002968640547245741,-0.11759820542037486
1761478207100757500,1.577757568359375,-0.21010639324784278,0.054262920585274696,-0.07382204592749476
1761478207110794500,1.58779443359375,-0.2437760231375694,0.06888466259054839,-0.04498597367405891
1761478207120830500,1.59783056640625,-0.21520985386669633,0.06965915409438311,-0.07491232538223266
1761478207130866400,1.607866455078125,-0.182233466938138,0.03823006967306137,-0.16768486323431134
1761478207140903700,1.617903564453125,-0.06934709247052669,-0.029372078826278448,-0.2622074596241116
1761478207150939600,1.627939697265625,0.014541735571622848,-0.051051922649517655,-0.27295360230505467
1761478207160975600,1.6379755859375,0.03869242648780346,-0.0690156685590744,-0.16067615351602435
1761478207171012600,1.6480126953125,-0.023943185645341872,-0.03886507964096963,-0.014063596665859221
1761478207181048600,1.658048583984375,-0.054094578281044955,-0.0014813245989382267,0.07557809581458567
1761478207191084500,1.66808447265625,-0.11695990751683712,0.022388868875429034,0.09134791187644005
1761478207201120500,1.67812060546875,-0.14784721321165561,0.01038914593681693,0.0785135647445917
1761478207211157500,1.688157470703125,-0.1583265216499567,-0.012180340202525257,0.010468640913814305
1761478207221193500,1.698193359375,-0.18963994380235671,-0.02078442935347557,-0.018442104011029005
1761478207231229400,1.7082294921875,-0.26957272769510743,-0.002060951117798686,-0.014165011213719844
1761478207241266700,1.7182666015625,-0.33597967506051063,-0.0013040683358907699,-0.010003215359151362
1761478207251302700,1.728302734375,-0.3369996657580137,-0.02444017538204789,-0.017599515707045793
1761478207261338600,1.738338623046875,-0.258338801497221,-0.026566081494838,-0.0010769815817475317
1761478207271375600,1.748375732421875,-0.1720902585864067,-0.006047682666406035,0.0693808486096561
1761478207281411600,1.75841162109375,-0.1146340949177742,-0.001629427832737565,0.15654796767011284
1761478207291447600,1.768447509765625,-0.051903790238499635,-0.00320829452201724,0.16526742682904005
1761478207301484500,1.778484619140625,0.02436930210292339,0.00412350967079401,0.1306377197355032
1761478207311520500,1.7885205078125,0.07574410003125667,-0.02635316939651966,0.07251797759160399
1761478207321556500,1.798556396484375,0.13154314414262772,-0.032228783431649206,-0.025898849757760762
1761478207331593700,1.80859375,0.15000877515971658,-0.03346665466353297,-0.10233546209782361
1761478207341629700,1.818629638671875,0.014649287599325178,0.0005156213719397783,-0.14701763051971792
1761478207351665700,1.828665771484375,-0.1389332543939352,0.064497971938923,-0.151338708589226
1761478207361701600,1.83870166015625,-0.25946459065675737,0.04829093350358307,-0.0935052360408008
1761478207371738600,1.848738525390625,-0.3417565048962831,0.005716258754953742,-0.0629553456068039
1761478207381774600,1.858774658203125,-0.35161505108773705,0.004486205503344535,-0.06752016930431128
1761478207391810600,1.868810546875,-0.3309183000177145,-0.014255173715204,-0.046091742958873506
1761478207401847600,1.87884765625,-0.32638007206618785,-0.014379823008179663,-0.026384002926200627
1761478207411883500,1.888883544921875,-0.3054337301492691,-0.0025194354750216006,-0.010694412493705749
1761478207421919500,1.89891943359375,-0.30021628776192666,-0.014222586619853973,-0.0016170798078179358
1761478207431956500,1.90895654296875,-0.2987140665054321,-0.010285539431869982,-0.00956540846377611
1761478207441992400,1.918992431640625,-0.25551380720436573,-0.01006605146229267,-0.03470613333061337
1761478207452028700,1.929028564453125,-0.19840601858198642,-0.012507891656458377,-0.06988909039273858
1761478207462065700,1.939065673828125,-0.11400339579880236,-0.007576353538408875,-0.05538344904780387
1761478207472101600,1.9491015625,-0.07230185062289238,0.00888787452839315,-0.0017740239351987839
1761478207482137600,1.9591376953125,-0.04253215078115463,-0.010157967529445887,0.06635843204855918
1761478207492173600,1.969173583984375,0.00033960721790790555,-0.01756122952327132,0.08301730590462685
1761478207502210600,1.97921044921875,0.01799801350533962,-0.010926540749147534,0.030878391736000776
1761478207512246500,1.98924658203125,-0.007762450695037841,0.004144406328350305,0.0010687982752919196
1761478207522282500,1.999282470703125,-0.0167354462236166,0.010603446274623275,-0.011767740813642739
1761478207532319500,2.009319580078125,-0.020429040044546126,-0.01785655920803547,-0.009098667734861373
1761478207542355500,2.01935546875,-0.10271043289005756,-0.015107698891311883,-0.041565643836557864
1761478207552391400,2.029391357421875,-0.18610943158864973,-0.011519465140998364,-0.09270444105193018
1761478207562428700,2.0394287109375,-0.22650340129733085,-0.017625819192081688,-0.09000701866149902
1761478207572464600,2.049464599609375,-0.17823825982213018,-0.018125147016346453,-0.038690234530717134
1761478207582500600,2.05950048828125,-0.09834113176465034,-0.015855156257748602,0.014255319845676422
1761478207592537600,2.06953759765625,-0.09880231953561305,0.004347454619780183,0.039348552308976645
1761478207602573600,2.079573486328125,-0.1352554426640272,0.027586510583758352,0.0049719431936740876
1761478207612609500,2.089609619140625,-0.13574936366081236,-0.003912058877199888,-0.024253566768765448
1761478207622645500,2.0996455078125,-0.16698562892377375,-0.025067951891571284,-0.041494770557433364
1761478207632682500,2.1096826171875,-0.20503157420158385,-0.03374620225727558,-0.049259997731447215
1761478207642718500,2.119718505859375,-0.2401034721046686,-0.015883651699870823,-0.04391936735585332
1761478207652754400,2.12975439453125,-0.2774883231252432,-0.02363952652364969,-0.045122021143883466
1761478207662791700,2.139791748046875,-0.30607261257469653,-0.02367204055376351,-0.0668351096495986
1761478207672827600,2.14982763671875,-0.31330431739389897,-0.015249226253852248,-0.04292202688157558
1761478207682863600,2.159863525390625,-0.24840777459144592,0.01981573045179248,0.007220160511881113
1761478207692900600,2.169900634765625,-0.19038170208036898,0.02561725633740425,0.019973697492480277
1761478207702936600,2.1799365234375,-0.11151567063629626,-0.00605783873423934,-0.01539586818292737
1761478207712972500,2.18997265625,-0.013287351596355437,-0.024187223534286022,-0.05004252641126513
1761478207723009500,2.200009521484375,0.07248889762759209,-0.034331016407907006,-0.044484453892707825
1761478207733045500,2.21004541015625,0.12378478510081767,-0.04342544635906815,0.005981412497162819
1761478207743081500,2.22008154296875,0.047234044861793514,-0.048075464121997355,0.059827422844618554
1761478207753117400,2.230117431640625,-0.03838730606138706,-0.017942337795346975,0.09138210640698671
1761478207763154400,2.240154541015625,-0.1276835461050272,-0.01762413869164884,0.07557444255277514
1761478207773190400,2.2501904296875,-0.22965455880463123,-0.05863982049524784,-0.014559417358785867
1761478207783226400,2.260226318359375,-0.30077859781980515,-0.0680854019716382,-0.1307384036310017
1761478207793263400,2.270263427734375,-0.3367594272613525,-0.030010595925524828,-0.15151318837329744
1761478207803299300,2.28029931640625,-0.31239246324598785,0.018643544867262243,-0.09046922934576869
1761478207813335300,2.290335205078125,-0.2647387316673994,0.06902151377797126,-0.013867197310924529
1761478207823372300,2.300372314453125,-0.1711181986838579,0.0784419608131051,-0.01566504051312804
1761478207833408300,2.310408203125,-0.1033405474871397,0.03958236106485128,-0.07394201904535293
1761478207843444200,2.3204443359375,-0.06508475885093212,-0.01659508790485561,-0.1210366554364562
1761478207853481500,2.3304814453125,-0.09448211824893951,-0.02153992389589548,-0.12635668141543865
1761478207863517400,2.340517333984375,-0.15323884312212466,-0.008064648512005805,-0.09641615505144
1761478207873553400,2.350553466796875,-0.18680325907170772,0.004358195209503174,-0.0719036450855434
1761478207883589600,2.360589599609375,-0.14880349102318285,-0.0009448065694421529,-0.09780264097377657
1761478207893626400,2.37062646484375,-0.08466916476488114,-0.03182831287197768,-0.1177240237571299
1761478207903662300,2.380662353515625,-0.04514788623750209,-0.04632350588813424,-0.1008252036653459
1761478207913698600,2.390698486328125,-0.05105857158601284,-0.014702040699869393,-0.05232230791151523
1761478207923735300,2.4007353515625,-0.12043138301968574,0.004426438140124082,0.031004648464173078
1761478207933771300,2.410771240234375,-0.18791209709644316,0.030161183377355336,0.07426613643318414
1761478207943807500,2.420807373046875,-0.21506196982860565,0.046770153677091,0.025697481966763733
1761478207953844500,2.430844482421875,-0.18116320735812186,0.014930004236847162,-0.03143368753120303
1761478207963880400,2.44088037109375,-0.12947685926258562,-0.04584726667851209,-0.03733034435436129
1761478207973916400,2.45091650390625,-0.09378010745942592,-0.05735781786069274,-0.009259411254525184
1761478207983952600,2.46095263671875,-0.15264379983842372,-0.005839665938913822,-0.028560177921503782
1761478207993989400,2.4709892578125,-0.22938684777915477,0.0040731677230447525,-0.061207186765223735
1761478208004025300,2.481025390625,-0.24573124885857103,-0.016487389746680854,-0.09773629773929715
1761478208014061600,2.4910615234375,-0.20945465134084224,-0.0157822371520102,-0.13810206426680088
1761478208024098300,2.501098388671875,-0.12427636801004409,-0.010401859287917613,-0.11187515159845351
1761478208034134300,2.51113427734375,-0.051852936834096905,-0.013631927250325679,-0.03415507531911135
1761478208044170500,2.52117041015625,-0.033473230534791946,-0.00643339404836297,0.08223989179134368
1761478208054207200,2.531207275390625,-0.04403612560331821,0.02339366200380027,0.1694710159987211
1761478208064243200,2.5412431640625,-0.08431552902162075,0.018720263365283606,0.1605186248667538
1761478208074279400,2.551279541015625,-0.11943185058832168,-0.021407091296464204,0.06323460093960166
1761478208084316400,2.56131640625,-0.1648351728916168,-0.03607230711728334,-0.040436639806628226
1761478208094352400,2.571352294921875,-0.20208909100890157,-0.019777444268018005,-0.07811170594543218
1761478208104388400,2.581388427734375,-0.24727380212545394,0.004309679892659187,-0.07080372101962566
1761478208114424600,2.591424560546875,-0.26868366990089415,0.007423866390436887,-0.05746303180083632
1761478208124461300,2.60146142578125,-0.20626491538882255,0.0013015841178596018,-0.034376755245774986
1761478208134497300,2.611497314453125,-0.12650047380030155,-0.015024258391559122,-0.027565467795729635
1761478208144533500,2.621533447265625,-0.039731706407666205,-0.040827831081300975,-0.031683424508571624
1761478208154570200,2.6315703125,-0.03240940069556236,-0.04022438529543578,-0.029208266566693782
1761478208164606200,2.641606201171875,-0.04498772723972797,-0.009690130821987986,-0.04467895355150103
1761478208174642400,2.651642333984375,-0.09457155009806155,-0.00581204727962613,-0.067025517655164
1761478208184679400,2.661679443359375,-0.1158276886165142,0.017721096260100603,-0.07854439827427268
1761478208194715400,2.67171533203125,-0.1350380005210638,0.039047450470551845,-0.05877484505176544
1761478208204751600,2.681751708984375,-0.1705740088045597,0.02849098514281213,-0.05332096356004476
1761478208214787600,2.69178759765625,-0.15457622920572756,-0.0026402853757143017,-0.04715849540755152
1761478208224824300,2.70182421875,-0.18163024034798145,0.006667202804237604,-0.055549745525419705
1761478208234860500,2.711860595703125,-0.24197569571733474,0.02960661823451519,-0.10120967293828725
1761478208244896500,2.721896484375,-0.2167225965172052,0.03451141447611153,-0.15161255709454416
1761478208254933200,2.731933349609375,-0.12463000375330448,-0.0030471856761723755,-0.12162000828236341
1761478208264969500,2.741969482421875,-0.016772271102666853,-0.03878375803306699,-0.05809022378847003
1761478208275005400,2.75200537109375,0.023808745610713958,-0.07238726388402283,-0.014452888244390488
1761478208285042400,2.76204248046875,0.035730654072761533,-0.09086188192516564,-0.024069296243041754
1761478208295078400,2.772078369140625,0.05135960035920143,-0.08408815000653266,-0.031549276734888554
1761478208305114600,2.782114501953125,-0.02183013901412487,-0.03234123083017766,-0.03075008918121457
1761478208315150600,2.792150634765625,-0.16982114461064338,0.004521130686253309,0.01735606233999133
1761478208325187300,2.802187255859375,-0.31145664370059967,0.03337883024960756,0.07771072392910719
1761478208335223600,2.8122236328125,-0.34877427470386024,0.01793481207601726,0.09505743391886352
1761478208345259500,2.822259521484375,-0.3384422657817602,-0.02802943204566836,0.05618146755769848
1761478208355296300,2.832296142578125,-0.29686639281213284,-0.05416143297217786,-0.012806728472560643
1761478208365332500,2.84233251953125,-0.2353331889629364,-0.04941051211804151,-0.04953574593290686
1761478208375368400,2.852368408203125,-0.1435217512279749,-0.052629693360254165,-0.055821255943179125
1761478208385405400,2.862405517578125,-0.09909399595856666,-0.07218911096341908,-0.023423399554938076
1761478208395441400,2.87244140625,-0.12737316498160361,-0.03962437357567251,0.040283056680113075
1761478208405477600,2.8824775390625,-0.14701017786562443,0.0020583938345313073,0.06926628231927752
1761478208415513600,2.892513671875,-0.16660101352035997,0.01146240119151771,0.09759776605144142
1761478208425550300,2.90255029296875,-0.13608312565982342,0.03023622137494385,0.06811316676139831
1761478208435586600,2.912586669921875,-0.13997136527001858,0.04165215307623148,-0.020579408300668
1761478208445622500,2.92262255859375,-0.16434592806994913,0.006929872328415513,-0.08510361065939068
1761478208455659300,2.9326591796875,-0.15437281558811664,-0.03792933316081762,-0.12737228819876908
1761478208465695500,2.942695556640625,-0.14842764344811438,-0.028192221391946076,-0.10662848311662673
1761478208475731500,2.9527314453125,-0.1810831278592348,-0.027253625367581844,-0.02505713823661208
1761478208485768200,2.962768310546875,-0.17789163834154606,0.0033102205265313385,0.0015532207913696765
1761478208495804700,2.9728046875,-0.1557213075876236,0.03689597152508795,-0.03736088562309742
1761478208505840600,2.982840576171875,-0.16319091281592846,0.03070318129956722,-0.061924833515286444
1761478208515876600,2.992876708984375,-0.18763795633018016,0.02047740923091769,-0.05021729845628142
1761478208525913600,3.00291357421875,-0.23393267451524732,0.01827588059864938,-0.025848580875247714
1761478208535949600,3.012949462890625,-0.26290567102134227,0.02947824261449277,-0.028947569803893566
1761478208545985500,3.022985595703125,-0.2357505375921726,0.019397358909249304,-0.03658639411926269
1761478208556022500,3.0330224609375,-0.153062902033329,-0.004683920032531022,-0.06393646559864283
1761478208566058500,3.04305859375,-0.06198562379181385,-0.03822480897605419,-0.093163582996279
1761478208576094500,3.053094482421875,-0.00783610045313835,-0.03845364929586649,-0.08575374513119459
1761478208586130400,3.06313037109375,-0.0035427871733903884,-0.04389101804420352,-0.020084318260103463
1761478208596167400,3.07316748046875,-0.014427169281244278,-0.017354308774322272,0.03821706406101584
1761478208606203400,3.083203369140625,-0.01343757372200489,0.025548355819657444,0.04691927982419729
1761478208616239600,3.093239501953125,-0.07753098344802856,0.01432443955913186,0.022362638455629347
1761478208626276600,3.103276611328125,-0.15168635298311708,0.005026595990359783,-0.042323476466536517
1761478208636312600,3.1133125,-0.19373451963961122,0.0035651451356709003,-0.10339432350099086
1761478208646348500,3.1233486328125,-0.22333061648011207,-0.01077536877542734,-0.08703764746189117
1761478208656385500,3.133385498046875,-0.2587888833522797,-0.0051236996892839665,-0.09069616996943951
1761478208666421500,3.14342138671875,-0.25284195764660833,0.01084273492321372,-0.08787775154784322
1761478208676457500,3.15345751953125,-0.22351415635347366,0.0006475771885365247,-0.07570406028181315
1761478208686493400,3.163493408203125,-0.17724515713155267,-0.01746434502005577,-0.0785378224030137
1761478208696530400,3.173530517578125,-0.12585925328731537,-0.03618548516817391,-0.03841653215587139
1761478208706566400,3.18356640625,-0.1250304012477398,-0.028198285806551576,0.03641118368282914
1761478208716602400,3.193602294921875,-0.16371055277585983,-0.007081774954497814,0.06829641437381506
1761478208726639600,3.2036396484375,-0.18018880936801432,0.011276450165361166,0.03060191288217902
1761478208736675600,3.213675537109375,-0.13270517365932463,-0.0041638416811823845,-0.008652239141613245
1761478208746711600,3.223711669921875,-0.07136310846805573,-0.027963234941661357,-0.04945727386921644
1761478208756748300,3.233748291015625,-0.047965281745791434,-0.05493548608459532,-0.07134323472380638
1761478208766784300,3.2437841796875,-0.07428513339459895,-0.06408332672342658,-0.07084916759654879
1761478208776820200,3.2538203125,-0.16696341709196566,-0.04561557681448757,-0.03397007414102554
1761478208786856200,3.263856201171875,-0.30212124460041523,0.03163680888786912,-0.020215689554810522
1761478208796893200,3.27389306640625,-0.3267138340651989,0.06049107438512146,-0.015369126306474207
1761478208806929200,3.28392919921875,-0.259513690495491,0.0315023688532412,0.016243424922972916
1761478208816965000,3.293965087890625,-0.11674538798332214,-0.007205839725583791,-0.0048969782613217825
1761478208827002000,3.304002197265625,0.011064414849877358,-0.05236658544465899,-0.054302814204245806
1761478208837038000,3.3140380859375,0.03028407910466194,-0.06826536164842546,-0.09638181439042091
1761478208847074000,3.324073974609375,0.0002262099713087082,-0.04505808906219899,-0.08123173766210674
1761478208857110000,3.334110107421875,-0.009584989947080612,-0.009237637814134359,-0.0496048656463623
1761478208867147300,3.344147216796875,-0.03981295495033264,-0.004650090828165412,-0.012864450009167194
1761478208877183200,3.354183349609375,-0.07971008105278014,-0.012601780484989285,-0.021322043361514807
1761478208887219200,3.36421923828125,-0.13560031057894228,-0.012732494192570448,-0.04356690065637231
1761478208897256200,3.374256103515625,-0.19392448925375938,-0.007139569556340574,-0.10218933162540197
1761478208907292200,3.384292236328125,-0.20928981616795062,-0.013076777585595846,-0.1326874918721616
1761478208917328100,3.394328125,-0.19788637862205505,-0.009972966351360081,-0.08201105147153138
1761478208927364000,3.404364013671875,-0.22142273703217505,0.025209990710765122,-0.02375643090158701
1761478208937401000,3.414401123046875,-0.2372323005825281,0.03916515856608748,0.016455460238456725
1761478208947437000,3.42443701171875,-0.25234745212793347,0.02827325073890388,0.03282908741235733
1761478208957473000,3.43447314453125,-0.24169570973217486,0.032800591970235105,-0.013619798421114682
1761478208967510300,3.44451025390625,-0.21225275762677193,0.0037355332665145397,-0.05100888722538948
1761478208977546200,3.454546142578125,-0.23373569063842295,-0.006780380855128169,-0.05076645677164197
1761478208987582200,3.464582275390625,-0.20991583911180495,-0.016960487151145932,-0.053522915872931474
1761478208997619200,3.474619140625,-0.14891221209466457,-0.016551175697892904,-0.07934139387086034
1761478209007655200,3.4846552734375,-0.07472294028997421,-0.027265315805375574,-0.10203823271691799
1761478209017691100,3.494691162109375,0.0022509937971830368,-0.036150413854792715,-0.09619213703721761
1761478209027727000,3.50472705078125,0.06046119070351123,-0.031440555663406845,-0.05821311951577663
1761478209037764000,3.51476416015625,0.06064648414254188,-0.02804156087487936,0.035560119811445474
1761478209047800000,3.524800048828125,0.034978374400734896,-0.023608181537315247,0.12973960185199976
1761478209057836000,3.5348359375,-0.012083236503601073,-0.0008842354886233806,0.14175605672970412
1761478209067873300,3.544873291015625,-0.09831891993284225,-0.009460632915049791,0.10201718992888927
1761478209077909200,3.5549091796875,-0.16303075381815432,-0.02867737456038594,0.03718640583902597
1761478209087945200,3.5649453125,-0.19874504127800463,-0.010062982722371817,-0.041052433617413044
1761478209097981200,3.574981201171875,-0.24787410610616206,-0.002506575993448496,-0.059056876863539214
1761478209108018200,3.58501806640625,-0.33476737666130063,0.012498247045278549,-0.028886487266421318
1761478209118054100,3.59505419921875,-0.37849721279442305,0.01554777080900967,-0.036384734067320824
1761478209128090000,3.605090087890625,-0.35481413938999173,0.007302358902618288,-0.06892784414514899
1761478209138127000,3.615127197265625,-0.23475626585781573,-0.034855478673428295,-0.08584054663181305
1761478209148163000,3.6251630859375,-0.12178455119431018,-0.060479749273508784,-0.10453764831721782
1761478209158199000,3.635198974609375,-0.06187690272033214,-0.041760070430114864,-0.10632599303871393
1761478209168235000,3.645235107421875,-0.10714578498899936,-0.017910189091414213,-0.05692571005374193
1761478209178272300,3.655272216796875,-0.16187164691090583,0.0012215046189725399,0.032637218102067704
1761478209188308200,3.66530810546875,-0.2149023953527212,0.021232465381920338,0.07368979784995316
1761478209198344200,3.67534423828125,-0.2529015788793564,0.0353361748624593,0.022876433196663853
1761478209208381200,3.685381103515625,-0.24267186128795146,0.016660773552209136,-0.0712204851269722
1761478209218417200,3.695417236328125,-0.1856798079997301,-0.014322393732517957,-0.09105199766978621
1761478209228453000,3.705453125,-0.11480594435334204,-0.02908990088403225,-0.05778203462213277
1761478209238489000,3.715489013671875,-0.017374328649044035,-0.02701543269753456,-0.029755232924968
1761478209248526000,3.725526123046875,0.039810032340884205,-0.05244637268260121,0.012505699699372052
1761478209258562000,3.73556201171875,0.10708499471247196,-0.08013122907429933,0.04939268420040607
1761478209268598000,3.745597900390625,0.08013152133524418,-0.07426160638853907,0.05654255595505237
1761478209278635000,3.755635009765625,0.009447627303004264,-0.0657299979519099,0.02646422855556011
1761478209288671200,3.765671142578125,-0.09248772956132888,-0.05502871732600033,-0.01999269445389509
1761478209298707200,3.775707275390625,-0.20565525905787943,-0.03198109228089452,-0.059940527830272906
1761478209308743200,3.7857431640625,-0.25604455308020113,-0.024638839759305118,-0.023599779035151005
1761478209318780200,3.7957802734375,-0.2154512614071369,-0.044644028368592256,0.04978124512657523
1761478209328816000,3.805816162109375,-0.1919283470004797,0.0026275720246136188,0.09205810597240924
1761478209338852000,3.81585205078125,-0.14042436973452568,-0.0286082548469305,0.0781833098769188
1761478209348889000,3.82588916015625,-0.150754040569067,-0.08492401630878448,0.06542845772206783
1761478209358925000,3.835925048828125,-0.12411679353415965,-0.0495765163347125,0.01448693664446473
1761478209368961000,3.8459609375,-0.07781389204263686,0.001986570707336068,-0.03728957395255565
1761478209378997000,3.8559970703125,-0.038134792605042454,0.009824424726143479,-0.07463920752927661
1761478209389034000,3.866033935546875,-0.017427520141005515,0.010993176244571804,-0.1400336168512702
1761478209399070000,3.876070068359375,-0.09285890096127987,0.024356442621350286,-0.194701026584208
1761478209409106200,3.886106201171875,-0.15446049387156963,0.004366963037848472,-0.20979235886260866
1761478209419143200,3.89614306640625,-0.19520576123595237,0.013397022515907882,-0.17871332998797296
1761478209429179100,3.90617919921875,-0.20945523586273193,0.015903233183175325,-0.16956570854485034
1761478209439215000,3.916215087890625,-0.21753917359709737,-0.03703632984384894,-0.21822233355566859
1761478209449251000,3.9262509765625,-0.22146131547689438,-0.07151632626838982,-0.2527066408291459
1761478209459288000,3.9362880859375,-0.21033786391615866,-0.031325039524957535,-0.2228982164122164
1761478209469324000,3.946323974609375,-0.20907412759065627,-0.004696706448867917,-0.10378697608038782
1761478209479360000,3.956360107421875,-0.21163257990181444,0.017456746235489845,-0.0041799160331487655
1761478209489397000,3.96639697265625,-0.15366963575482367,0.04601122506856918,0.05092763868272304
1761478209499433000,3.976432861328125,-0.07979366768300533,0.022258593559265134,0.08298720302730798
1761478209509469000,3.986468994140625,-0.022647885137796402,-0.007628449051827192,0.10515943347737193
1761478209519505000,3.9965048828125,-0.027897476229071617,-0.01696823206618428,0.06402019835934042
1761478209529541400,4.006541259765625,-0.0696685795098543,0.00855959242209792,0.025294454123824833
1761478209539577300,4.016577392578125,-0.12897884661257267,0.011559651020914316,0.012079437111318111
1761478209549614000,4.026614013671875,-0.1897229459106922,-0.02970174917206168,-0.009876666370034218
1761478209559650300,4.036650390625,-0.19252865098118782,-0.058941287659853694,-0.031465105582773684
1761478209569686300,4.046686279296875,-0.170543613666296,-0.059090194611251354,-0.029440321756899354
1761478209579723000,4.056722900390625,-0.07818506344258785,-0.056488414615020154,-0.01629062506556511
1761478209589759200,4.06675927734375,0.016388824743032455,-0.053717342466488474,-0.028696079260855913
1761478209599795200,4.076795166015625,0.06986030268967151,-0.04506612623818219,-0.02171995663791895
1761478209609831200,4.0868310546875,0.07551496745049953,-0.03215980984866619,0.009257803819328546
1761478209619868200,4.0968681640625,0.02640636088848114,0.0025811025343835353,0.028546733918040988
1761478209629904100,4.106904052734375,-0.0683007982879877,0.04192380962446332,0.013729250144958495
1761478209639940000,4.116940185546875,-0.1950958711206913,0.03938376975283026,-0.016171382600069045
1761478209649977000,4.12697705078125,-0.27691607619524,0.017817250110954044,-0.08563304136097431
1761478209660013300,4.137013427734375,-0.28382454040944577,-0.03600055705532432,-0.15635916709974407
1761478209670049300,4.14704931640625,-0.2729945188373327,-0.0693801910225302,-0.16511603565961122
1761478209680085200,4.157085205078125,-0.2976379617065191,-0.030230741482228037,-0.13161650163978336
1761478209690122200,4.167122314453125,-0.24103403095304965,-0.03835829916261136,-0.07629545030370354
1761478209700158200,4.177158203125,-0.21001696139872073,-0.03235124076753854,-0.01155117545351386
1761478209710194200,4.187194091796875,-0.19803776979148388,-0.006804565448313951,0.04575461995899677
1761478209720231200,4.197231201171875,-0.20700433557927608,0.00047448564395308494,0.052143005821853876
1761478209730267100,4.20726708984375,-0.19417934079766272,0.010950579211860895,0.003289250803738832
1761478209740303000,4.21730322265625,-0.17767302715480326,0.007973828423395753,-0.05763415058404207
1761478209750339000,4.227339111328125,-0.16704641920030117,-0.0024320494525134563,-0.07666998270452022
1761478209760376800,4.237376953125,-0.2155295873403549,-0.0009211334329098463,-0.06845978824198246
1761478209770412800,4.247412841796875,-0.25606442682445046,0.004113572798669338,-0.0658393766105175
1761478209780449000,4.257448974609375,-0.2109896058231592,0.006154284846037626,-0.07882190004140138
1761478209790486000,4.267486083984375,-0.045613165661692615,0.004987725284695625,-0.06911766762882471
1761478209800522000,4.27752197265625,0.08416004619896411,-0.039054610863700503,-0.01069631218984723
1761478209810558200,4.28755810546875,0.1636409946709871,-0.05048961259163916,0.013030746486783026
1761478209820594200,4.29759423828125,0.1374731187134981,-0.022995967923104762,0.03197890032380819
1761478209830631000,4.307630859375,0.012532149314880371,-0.045752208806201816,0.06425576068088412
1761478209840667100,4.317667236328125,-0.1407896959155798,0.003505231641978025,0.06145020174086094
1761478209850703000,4.327703125,-0.205769825348258,0.03232961345762014,0.01717500668466091
1761478209860739800,4.33773974609375,-0.16143150192797184,0.005420563744008541,0.00012362637966871262
1761478209870776000,4.347776123046875,-0.12314648719727993,-0.030792101692035792,-0.015197715262323616
1761478209880812000,4.35781201171875,-0.053712885487079615,-0.04758052021190524,-0.03330927214473486
1761478209890848000,4.367847900390625,-0.018004443246126173,-0.055357730084657664,-0.02769903104752302
1761478209900885000,4.377885009765625,-0.04387479756176471,-0.021553952421247958,-0.008755553385615348
1761478209910921200,4.387921142578125,-0.21007366002202033,0.031827728350088,0.0018115794666111469
1761478209920957200,4.397957275390625,-0.41031858446896075,0.07465783916451037,-0.07105740351974964
1761478209930994000,4.407993896484375,-0.4533686216443777,0.04332512778975069,-0.11952946574389933
1761478209941030100,4.418030029296875,-0.3736550334602594,-0.0246150935575366,-0.134783002846688
1761478209951066000,4.428066162109375,-0.17065058117210863,-0.05435622489191591,-0.1202380524046719
1761478209961102000,4.43810205078125,-0.004003390422463417,-0.08416516076549888,-0.030399814438819884
1761478209971139000,4.44813916015625,0.060380526682734484,-0.10531864262707531,0.09572495791688561
1761478209981175000,4.458175048828125,0.024523031359910963,-0.038179362399131056,0.13557459161579608
1761478209991211000,4.4682109375,-0.09453238713145255,0.00224953249245882,0.08267258412018418
1761478210001248000,4.478248046875,-0.23623276815116404,-0.008476298052817582,-0.0676506638161838
1761478210011284200,4.4882841796875,-0.3384972108393907,-0.017676088074594736,-0.20509514095708728
1761478210021320200,4.4983203125,-0.4016378498852253,-0.027653073013946414,-0.2322447214283049
1761478210031357000,4.50835693359375,-0.35025253056287764,-0.04074329460300505,-0.13959040312841534
1761478210041393200,4.51839306640625,-0.24192659587860105,-0.03476224743202328,-0.001530716698616743
1761478210051429000,4.52842919921875,-0.12653145346045494,-0.012439064203947782,0.0620028671875596
1761478210061465000,4.538465087890625,-0.024865561187267304,-0.04840922612100839,0.09987827820405364
1761478210071502000,4.548502197265625,0.01316869365274906,-0.0735205056976527,0.09093056324720382
1761478210081538000,4.5585380859375,-0.01527531054317951,-0.03824826291687786,0.02088219063952565
1761478210091574000,4.568573974609375,-0.05000000244379043,0.022650807747244834,-0.012481149780005215
1761478210101611000,4.578611083984375,-0.09575988309979439,0.03843384861685335,-0.016654343811422584
1761478210111648000,4.58864794921875,-0.08593231656849384,-0.004005143988132477,-0.048088761994987725
1761478210121684000,4.59868408203125,-0.0738818132907152,-0.022491890858486293,-0.08722250250950456
1761478210131721000,4.608720947265625,-0.0585194089859724,-0.02938764172159135,-0.08197510337531566
1761478210141757000,4.6187568359375,-0.06359247446656227,-0.02342266890257597,-0.08167582816779613
1761478210151793000,4.62879296875,-0.05721826325953006,-0.009938479559868573,-0.07360445765405893
1761478210161829000,4.6388291015625,-0.09554945521950721,-0.009013035278022288,-0.06374547307118773
1761478210171865900,4.648865966796875,-0.05990472586452961,-0.009384425873681903,-0.06813552472367883
1761478210181901800,4.65890185546875,-0.013290858727693557,-0.030642317957803606,-0.052202773185074325
1761478210191938000,4.66893798828125,-0.001035188266634941,-0.0452484970677644,-0.054564972271770235
1761478210201975000,4.67897509765625,-0.02977729862630367,-0.019482699105143546,-0.065533525531739
1761478210212011000,4.689010986328125,-0.1439911223053932,0.025961612795665858,-0.03278261792212724
1761478210222047000,4.699046875,-0.21725451143682,0.025713556318730114,0.04290492961630225
1761478210232084000,4.709083984375,-0.27767303204238414,0.022371187088266013,0.08236059556156397
1761478210242120000,4.719119873046875,-0.37571138146817684,0.04568805752880871,-0.0005222703084349631
1761478210252156000,4.729156005859375,-0.34008301872611046,0.013512538654357194,-0.09363543829172849
1761478210262192000,4.739192138671875,-0.26092355729341504,-0.0374775708053261,-0.14285495788231492
1761478210272228900,4.749228759765625,-0.13893150082826614,-0.06441365465633571,-0.15005772886797786
1761478210282264800,4.759264892578125,-0.0588636923789978,-0.07407689747139812,-0.10017419241070746
1761478210292301000,4.769301025390625,-0.0214279879540205,-0.04132197127379477,-0.02678177007213235
1761478210302338000,4.779338134765625,-0.025158991175889968,-0.006322700215503573,0.04151639786735177
1761478210312374000,4.7893740234375,-0.07993629102408885,0.027388138467445967,0.056413084356486794
1761478210322410000,4.799409912109375,-0.12359598453044891,0.06404862073622644,0.0011325111612677573
1761478210332447000,4.809447021484375,-0.15758300980627535,0.05944339196309447,-0.06725552701875567
1761478210342483000,4.81948291015625,-0.15049509737193584,0.0391220500767231,-0.09787146842628718
1761478210352519000,4.829518798828125,-0.15210253256857395,0.05784450539909303,-0.10630772672966123
1761478210362555100,4.83955517578125,-0.15425006599128246,0.031411841025575996,-0.06564268499463796
1761478210372591900,4.849591796875,-0.20474340490996837,-0.015112082805484532,-0.0470787081696093
1761478210382627800,4.8596279296875,-0.18616613021194933,-0.026842706479132172,-0.10248846070244907
1761478210392664000,4.8696640625,-0.13602467347085476,-0.04187134878486395,-0.1063359299108386
1761478210402700800,4.87970068359375,-0.03407937973439693,-0.040531843809410925,-0.06348199982941151
1761478210412737000,4.889737060546875,0.022084406036138534,-0.049233036659285426,0.00008387889117002487
1761478210422773200,4.899773193359375,0.018570260435342788,-0.02695785729140043,0.06678221041858196
1761478210432810000,4.90981005859375,-0.08395487901568412,-0.024045476976037025,0.08869505928009748
1761478210442846000,4.919845947265625,-0.28133447715938087,-0.002567658530920744,0.023080285205692053
1761478210452882200,4.929882080078125,-0.42853871629238127,0.0072412032999098295,-0.07920929192379117
1761478210462918100,4.939918212890625,-0.43585459226369855,-0.014956161591410637,-0.11357596416696905
1761478210472955000,4.949954833984375,-0.3152881846874952,-0.03122501321658492,-0.08129545054808258
1761478210482991000,4.9599912109375,-0.10665011042654514,-0.04447612445577979,-0.00822568429261446
1761478210493027000,4.970027099609375,0.0480845242112875,-0.039959231553226705,0.0547483660146594
1761478210503063800,4.980063720703125,0.17688567616939543,-0.044138416934013366,0.07854220631718635
1761478210513100000,4.99010009765625,0.19035072242021558,-0.05193382005058229,0.05271408370807767
1761478210523136000,5.000135986328125,0.10770751052498817,-0.03208272602446377,0.00602861263975501
1761478210533173000,5.010173095703125,-0.05466390260159969,-0.0320410788398236,-0.056983577720820904
1761478210543209000,5.020208984375,-0.19715923339128494,-0.02163425111584365,-0.13084551726728677
1761478210553245200,5.0302451171875,-0.310547712162137,-0.02892338521070778,-0.16910554368719458
1761478210563282000,5.040281982421875,-0.335247853654623,-0.01877374711818993,-0.1600171050854027
1761478210573318000,5.05031787109375,-0.27777649241685864,-0.02269062830097973,-0.08938070345669984
1761478210583354000,5.06035400390625,-0.15068039081096649,-0.034141046793758865,-0.003002396686375141
1761478210593390800,5.070390869140625,-0.033142391145229336,-0.010061740613356232,0.05451338821500539
1761478210603426800,5.0804267578125,0.008974749094247817,-0.019961714793741703,0.09501169508099555
1761478210613463000,5.090463134765625,-0.001693359914422035,-0.012262903919443487,0.08040624662339686
1761478210623499000,5.1004990234375,-0.03245440888106823,0.013333674956113099,0.0031115561492741106
1761478210633536000,5.110535888671875,-0.1239320846170187,-0.010131517913937568,-0.07656725298240781
1761478210643572000,5.120572021484375,-0.23386896162927148,-0.02834785034507513,-0.14300021157190204
1761478210653608200,5.130608154296875,-0.3212877173632383,-0.03576594458185136,-0.19956307966262102
1761478210663645000,5.14064501953125,-0.34104046558141704,-0.036212811566516755,-0.1568940046288073
1761478210673681000,5.150680908203125,-0.2835901471316814,-0.03609977964609861,-0.04077040180563926
1761478210683717000,5.160717041015625,-0.15869126330912112,-0.017504092508554458,0.046400224386155604
1761478210693753900,5.17075390625,-0.0760258395820856,0.005578676915168762,0.08692161986678838
1761478210703789800,5.180789794921875,-0.026020576441287992,0.015201733850315213,0.10997355576083064
1761478210713826000,5.190825927734375,-0.03400046927928924,-0.01299362934678793,0.10479147694781422
1761478210723862000,5.200862060546875,-0.08032850521206855,-0.03502104449868202,0.052256256937980645
1761478210733899000,5.21089892578125,-0.16670388937294484,-0.04198145809583366,-0.01248071138858795
1761478210743935200,5.220935302734375,-0.23229718226790427,-0.030736425982043146,-0.06416501365751028
1761478210753971000,5.230970947265625,-0.22165829935371875,-0.0195647513654083,-0.0818032539397478
1761478210764007700,5.241007568359375,-0.16401333511471747,-0.04186959521919489,-0.07800956074520946
1761478210774044000,5.2510439453125,-0.09633622168302536,-0.05170476053506136,-0.07460135973691939
1761478210784080000,5.261079833984375,-0.048557986941933626,-0.018868585794791577,-0.051896045323461294
1761478210794116900,5.271116943359375,-0.035574002206325527,0.0028183453563600776,-0.0365641822874546
1761478210804153000,5.281153076171875,-0.044106268230080604,0.03810118259638548,-0.04063172398731112
1761478210814189000,5.29118896484375,-0.06416004522144794,0.03270575329363346,-0.05431991146951914
1761478210824225800,5.301225830078125,-0.11701076092123984,0.052020767681673165,-0.07516147783771157
1761478210834262000,5.311261962890625,-0.20072072526514528,0.05849347082711756,-0.10142243890613317
1761478210844298000,5.321298095703125,-0.21448095507025716,0.03320990342348814,-0.11964476268664001
1761478210854334000,5.331333984375,-0.17827216209173202,-0.006131780753284692,-0.11390315029472112
1761478210864371000,5.341370849609375,-0.15766250478327273,-0.012956293011084198,-0.09087693336382507
1761478210874407000,5.351406982421875,-0.17285013704299926,-0.04132138675190508,-0.04332081694081425
1761478210884443000,5.36144287109375,-0.17411913406550883,-0.04108560523465275,0.015612725804001092
1761478210894480000,5.37147998046875,-0.16886720488667487,-0.03249335265196859,0.017133944021910427
1761478210904516000,5.38151611328125,-0.20403321081399917,-0.027614932960644364,0.005699526815861463
1761478210914552000,5.391552001953125,-0.23158698817193507,-0.04552278396449983,0.027199410962313413
1761478210924588800,5.4015888671875,-0.23407179072499273,-0.03286474324762821,0.0574345363587141
1761478210934625000,5.411625,-0.1813537614941597,-0.0024704817667603493,0.06603241496458649
1761478210944661000,5.421660888671875,-0.12070318569839,-0.009681874450296163,0.03136354490444064
1761478210954697700,5.43169775390625,-0.0493044213950634,-0.024712270321696997,0.006488777497410773
1761478210964734000,5.44173388671875,-0.01785772825181484,-0.04807911738380789,0.004293897801637649
1761478210974770000,5.45177001953125,-0.07769172696769237,-0.06295030410550534,-0.005524754770845175
1761478210984806700,5.461806640625,-0.13426876971423626,-0.03664572309106588,-0.015791151110827923
1761478210994843000,5.4718427734375,-0.20771043802201747,-0.0010138532176613808,-0.029066666138917206
1761478211004879000,5.481879150390625,-0.24340134460628032,0.008723331616446376,-0.08195844450145959
1761478211014915000,5.4919150390625,-0.22175766807496547,-0.03997764399275183,-0.14916326424628495
1761478211024951800,5.501951904296875,-0.12663432931303978,-0.056971448891609905,-0.19061083466112613
1761478211034988000,5.511988037109375,-0.02607201436758041,-0.05377535626403987,-0.15010580579340457
1761478211045024000,5.52202392578125,0.044350013858079906,-0.058323448022454975,-0.04354410430267453
1761478211055060700,5.532060791015625,0.08865560405254364,-0.02880691922418773,0.019888357296586036
1761478211065097000,5.542096923828125,0.04773614916503429,0.0029757278751581908,0.016922493228316307
1761478211075133000,5.5521328125,-0.01779167727828026,0.01631101026646793,0.02002016698271036
1761478211085170000,5.562169921875,-0.050634208694100374,0.008319207794964313,-0.0017601415403187275
1761478211095206000,5.572205810546875,-0.08164134137630462,-0.033773236394673584,0.004944616795331239
1761478211105241900,5.582241943359375,-0.16085457882285117,-0.05667173529267311,0.0026768179938197133
1761478211115278800,5.59227880859375,-0.2746475467413664,-0.04662190431281924,-0.023324030833691358
1761478211125315000,5.602315185546875,-0.3240302940696478,-0.007819441579282283,-0.06857055514007807
1761478211135351000,5.61235107421875,-0.3081739687681198,-0.01443900584951043,-0.08098185455426574
1761478211145387000,5.622386962890625,-0.2527034259587526,-0.057878772994875906,-0.05625117179304361
1761478211155424000,5.632424072265625,-0.19980945563912392,-0.03745382460355758,-0.03089154347851872
1761478211165460000,5.6424599609375,-0.1842903994679451,-0.018395926781743763,-0.01369490948393941
1761478211175496000,5.652495849609375,-0.17511983554065227,-0.016041764871031046,-0.039977497862279415
1761478211185533000,5.662532958984375,-0.18434943617880342,0.018258125746250152,-0.10667743682488798
1761478211195569000,5.67256884765625,-0.2343254732251167,0.07072817156538366,-0.18024229312092066
1761478211205604900,5.68260498046875,-0.19125380873978137,0.07328282448425888,-0.17037512523159384
1761478211215641900,5.692641845703125,-0.13567922103404997,0.05726736309826374,-0.07272445994913578
1761478211225678000,5.702677978515625,0.008902268379926682,0.04980944830775261,-0.04408551770299673
1761478211235714000,5.712714111328125,0.09626198740303515,-0.012408596000447868,-0.039297991165518756
1761478211245750800,5.722750732421875,0.09525310262143612,-0.03734875679388642,0.051457946167141194
1761478211255787000,5.732787109375,0.11416823097169398,-0.11551124307848512,0.08156637644395232
1761478211265823000,5.742822998046875,0.09909165787100792,-0.07533011240288615,-0.09306552944928408
1761478211275859000,5.75285888671875,-0.1658247684508562,-0.06367006974741816,-0.11773600645586847
1761478211285896000,5.76289599609375,-0.2924491608917713,-0.10485358239859342,-0.030602497404068705
1761478211295932000,5.772931884765625,-0.26927754414081573,-0.08131327846571802,0.056600715883076184
1761478211305967900,5.7829677734375,-0.2785194197386503,-0.06305712548084556,0.14264073060974478
1761478211316004900,5.7930048828125,-0.2624240249842405,-0.03236015472635627,0.14517492526248096
1761478211326041000,5.803041015625,-0.26951076837480065,0.003556815698742866,0.07015066393837333
1761478211336077000,5.8130771484375,-0.2759697352558374,-0.01318367202617228,0.019029548510164022
1761478211346114000,5.823114013671875,-0.26745968106389045,-0.028907822315394877,0.03045738984495401
1761478211356150000,5.83314990234375,-0.2697761413127184,-0.03740180215537548,0.06283084244430065
1761478211366186000,5.84318603515625,-0.24443127217590807,-0.03365867010429501,0.045897389430552715
1761478211376223000,5.853222900390625,-0.2322527586042881,-0.016946385560557244,0.00272357974499464
1761478211386259000,5.863259033203125,-0.1957926212131977,-0.0018630173929035663,-0.05681757350414991
1761478211396295000,5.873294921875,-0.200135618853569,0.016177300884202123,-0.09988616924956441
1761478211406331000,5.883330810546875,-0.19585750314295292,0.02673588510379195,-0.1222018998235464
1761478211416367900,5.893367919921875,-0.14977029022872448,0.062050140395388004,-0.12950579309612512
1761478211426404000,5.903404052734375,-0.06151566819250583,0.02688588803373277,-0.0895917158588767
1761478211436440000,5.913440185546875,0.06989303591549396,0.015445990934967993,-0.06832900146916508
1761478211446477000,5.92347705078125,0.12455576947331427,0.03392038978040218,-0.05015446235314011
1761478211456513000,5.933512939453125,0.10165829348862171,0.02985993540845811,-0.003996668420732021
1761478211466549000,5.943549072265625,-0.016883914783596993,0.03529233572073281,0.021970424267649648
1761478211476586000,5.9535859375,-0.12195698515176773,0.05469809713214636,-0.032642186538130044
1761478211486622000,5.9636220703125,-0.17770985203385353,0.028461101461201906,-0.1496044321425259
1761478211496658000,5.973657958984375,-0.19304419928789138,0.01501687880270183,-0.2174986954562366
1761478211506695000,5.98369482421875,-0.1431687000066042,-0.00743117291405797,-0.1820363369308412
1761478211516731000,5.99373095703125,-0.07626257094740867,-0.009688450321555138,-0.0666278966397047
1761478211526766800,6.003766845703125,-0.07127893731594086,-0.001569587404280901,0.05232230791151523
1761478211536802800,6.013802734375,-0.11389876638054847,0.009761734753474593,0.0909121508076787
1761478211546840000,6.023840087890625,-0.21039514706134796,0.03312090996578335,0.04965571905076503
1761478211556876000,6.0338759765625,-0.2913391538232565,0.05507087596729397,-0.024145284088701008
1761478211566912000,6.043912109375,-0.2872626981645822,0.050779462383687496,-0.06869608121588826
1761478211576949000,6.053948974609375,-0.22214228347837925,-0.011433175097033382,-0.06384367274865507
1761478211586985000,6.06398486328125,-0.16838322076201437,-0.07326368139237165,-0.05597089354693889
1761478211597021000,6.07402099609375,-0.08312076627910137,-0.1002783834375441,-0.04139145631343126
1761478211607058000,6.084057861328125,-0.030601474490761754,-0.08556604053936898,0.00704684977158904
1761478211617094000,6.094093994140625,-0.059230772125720976,-0.0369105115070939,0.06116466279774904
1761478211627129900,6.1041298828125,-0.10478899272978305,-0.027393983686342833,0.07708733133375645
1761478211637165800,6.114165771484375,-0.19551614235937595,-0.026425503980368373,0.06271729906722903
1761478211647203000,6.124203125,-0.3076023063600063,-0.009426292254030704,0.005696896467357874
1761478211657239000,6.134239013671875,-0.3891507087558508,-0.016456994608417153,-0.07171469838470221
1761478211667275000,6.14427490234375,-0.39962124936580656,-0.009689692430570721,-0.1348227503351867
1761478211677312000,6.15431201171875,-0.3350993850946426,-0.0029162527728825807,-0.13546572441384194
1761478211687348000,6.164347900390625,-0.234500245270133,-0.007161854453384876,-0.051766573724895716
1761478211697384000,6.174384033203125,-0.12206745978891849,-0.0001344400346279144,0.06330620487108826
1761478211707421000,6.1844208984375,-0.08685703019797801,0.014460413963720201,0.11392916151881217
1761478211717457000,6.194456787109375,-0.07815466830432415,0.025270488726347684,0.0650204614430666
1761478211727492900,6.204492919921875,-0.07239712769091129,0.01351838387325406,-0.021535101590305566
1761478211737528800,6.21452880859375,-0.05032791922390461,0.012688728116080164,-0.08504165133908391
1761478211747566000,6.224566162109375,-0.02863397381007671,0.026214126252010462,-0.0962089420415461
1761478211757602300,6.234602294921875,-0.0214279879540205,0.04072817009910941,-0.053232408493757245
1761478211767638300,6.24463818359375,0.030901334220170974,0.0708667763184756,-0.03402121980637312
1761478211777675300,6.25467529296875,-0.0044803602844476695,0.08596431914195418,-0.03247895880043507
1761478211787711200,6.264711181640625,-0.034299744486808774,0.05514942109622061,-0.06124693425372243
1761478211797747200,6.274747314453125,-0.07282324414849281,0.06021876024976373,-0.14543401459008454
1761478211807784200,6.2847841796875,-0.13758534691631794,0.06811791600175202,-0.18499138734415171
1761478211817820200,6.294820068359375,-0.15506898115873335,0.01765621433034539,-0.1295285894498229
1761478211827856100,6.304856201171875,-0.2081967602342367,0.024801848301291465,-0.05127192207574844
1761478211837893000,6.31489306640625,-0.24550562340915202,0.02890373066216707,-0.040589492280781264
1761478211847929300,6.324929443359375,-0.24722587133049964,-0.008489742056280374,-0.06500073382928967
1761478211857965300,6.33496533203125,-0.1981184338122606,-0.0076076254595071075,-0.08058321062549949
1761478211868001300,6.345001220703125,-0.17581892372071742,-0.0045576633043587205,-0.06726809423938393
1761478211878038300,6.355038330078125,-0.21383856551349162,0.004707812364771962,-0.023210487456619737
1761478211888074200,6.36507421875,-0.2306008997440338,0.025589783808588982,-0.010690320840477942
1761478211898110200,6.375110107421875,-0.2199088253378868,0.0339974736046046,0.006976122622936964
1761478211908147200,6.385147216796875,-0.20999825669825076,0.027493133211880922,0.05407894232049584
1761478211918183200,6.39518310546875,-0.22461948724687097,0.032312443127110596,0.06740005005598068
1761478211928219100,6.40521923828125,-0.20112813702225685,-0.008867197066545486,0.027173691999167204
1761478211938256400,6.41525634765625,-0.21576398061811922,-0.04639832469001412,-0.03460281908661127
1761478211948292400,6.425292236328125,-0.22988018425405024,-0.05090703428611159,-0.07409355634525418
1761478211958328300,6.435328369140625,-0.19239654903411865,-0.021449249937757847,-0.05449336834028363
1761478211968364300,6.4453642578125,-0.12801730810403822,0.004566723393648863,-0.0073012629240751265
1761478211978401300,6.4554013671875,-0.04953823015093803,0.02905994413718581,-0.002150456032156944
1761478211988437200,6.465437255859375,0.026669980260729788,0.030413185377046466,0.037106910862028594
1761478211998473200,6.47547314453125,0.06504325779676437,0.010392945329099894,0.08970233662649989
1761478212008510200,6.48551025390625,0.07238719081878661,-0.004190583557635546,0.10326149090155959
1761478212018546200,6.495546142578125,-0.029370471391081808,-0.004650163893401622,0.030066929222643375
1761478212028582100,6.50558203125,-0.11851999644041061,0.006747428433597088,-0.0843961930423975
1761478212038619400,6.515619384765625,-0.18474457297623156,0.009328823228925465,-0.1423473006211221
1761478212048655400,6.5256552734375,-0.2043143658429384,-0.007874021310731769,-0.13535568816810845
1761478212058691300,6.53569140625,-0.2307195576876402,-0.010462211173027753,-0.09432897351384162
1761478212068727300,6.545727294921875,-0.25533435898423196,-0.00915346666201949,-0.024738135415315627
1761478212078764300,6.555764404296875,-0.2640986801981926,0.00023271277733147143,0.0033279753789305683
1761478212088800300,6.56580029296875,-0.26055355493724347,0.018509543224051593,0.017613251971453428
1761478212098836200,6.575836181640625,-0.23583470874428747,-0.02193937154226005,0.011869301491975784
1761478212108873200,6.585873291015625,-0.18154373110830782,-0.0359269072972238,-0.0015036825612187385
1761478212118909200,6.5959091796875,-0.1416033503860235,-0.06864332811534404,0.013457447466254234
1761478212128945200,6.605945068359375,-0.09186521374881267,-0.07262268007509409,0.050911564330756665
1761478212138982400,6.615982421875,-0.06609890432953834,-0.062235068508237595,0.07391103938519954
1761478212149018400,6.626018310546875,-0.08073065627217292,-0.05626870744973421,0.07795841507986187
1761478212159054300,6.636054443359375,-0.10901917764544486,-0.03423120929524302,0.08325827505365013
1761478212169090300,6.64609033203125,-0.16228081223368643,-0.01344561089798808,0.10464256999641657
1761478212179127300,6.656127197265625,-0.19177286417782305,-0.014248451713472604,0.0781407859094441
1761478212189163300,6.666163330078125,-0.19796938073039053,-0.01122530450001359,0.01669204547330737
1761478212199199200,6.67619921875,-0.16015315255522727,-0.050032297278195616,-0.07247720718979835
1761478212209236200,6.686236328125,-0.09450725269019603,-0.06513904632143676,-0.1262491293877363
1761478212219272200,6.696272216796875,-0.06292261238098144,-0.022696984976530075,-0.09408946566954254
1761478212229308200,6.70630810546875,-0.033303719186782835,0.01936038789972663,-0.012070230891555548
1761478212239344000,6.71634423828125,-0.1104249527901411,0.0500254291459918,0.06879851867705583
1761478212249381000,6.726381103515625,-0.217938986569643,0.056260231882333755,0.030544045215100048
1761478212259417300,6.736417236328125,-0.2934738277643919,0.03047039545699954,-0.04886325349882245
1761478212269453300,6.746453369140625,-0.27072306677401065,-0.00341156200915575,-0.10099310757815837
1761478212279490300,6.756490234375,-0.18619184917509554,-0.020583207692950963,-0.1093617074728012
1761478212289526300,6.7665263671875,-0.061735448423027986,-0.048613808782398696,-0.09470847435072063
1761478212299562200,6.776562255859375,0.03236789964139462,-0.05285444202683866,-0.06391936833336949
1761478212309599200,6.78659912109375,0.04630173244774341,-0.03632255555130541,-0.017706483212858438
1761478212319635200,6.79663525390625,-0.010507950010895729,-0.04144055615216494,0.06604951222985983
1761478212329671200,6.806671142578125,-0.14382453356683253,-0.036970132739841934,0.09191811297982931
1761478212339707100,6.81670703125,-0.251648948469758,-0.0008294365614652633,0.0222340436398983
1761478212349744000,6.826744140625,-0.26708032635748385,-0.004087269313633441,-0.034952070915699004
1761478212359780000,6.836780029296875,-0.17896423600912092,0.007668707996979355,-0.057248658397793764
1761478212369816000,6.846816162109375,-0.11772446214854716,-0.013370353704690932,-0.049935412774980065
1761478212379853300,6.856853271484375,-0.1393114400565624,-0.03097922176197171,-0.02941591796800494
1761478212389889300,6.86688916015625,-0.2026987473398447,-0.011838906353712082,-0.029963468848168848
1761478212399925200,6.87692529296875,-0.2579658765316009,0.022233678313717246,-0.05909370174258947
1761478212409961200,6.886961181640625,-0.26483225516974923,0.03795592890679836,-0.052549979187548154
1761478212419998200,6.896998291015625,-0.14889116930663585,-0.004771890576928854,-0.03373568086326122
1761478212430034200,6.9070341796875,-0.022525135540962218,-0.024553426498174664,-0.08828297134786844
1761478212440070100,6.917070068359375,0.06292728855609893,-0.005437953270226717,-0.09092281833216548
1761478212450107100,6.927107177734375,0.03441723338663578,0.021966405679658053,-0.08850582031831145
1761478212460143000,6.93714306640625,-0.05289572388529777,0.03481193179264665,-0.062968205088377
1761478212470179000,6.947178955078125,-0.10334230105280875,0.03541165125146508,-0.00815115775167942
1761478212480216300,6.95721630859375,-0.12408055317699908,0.012224836931377648,0.024780367121845483
1761478212490252300,6.967252197265625,-0.10727204171717167,-0.037122766018286346,0.013621113595366477
1761478212500288300,6.977288330078125,-0.08751052567064761,-0.07869440120421349,-0.024029548754543065
1761478212510324200,6.98732421875,-0.12007657823264598,-0.08782061453312635,-0.07840265171602367
1761478212520361200,6.997361328125,-0.1612105526536703,-0.07043371866345405,-0.08647636031731963
1761478212530397200,7.007397216796875,-0.19062310962080956,-0.03753770349472761,-0.07500190336182713
1761478212540433200,7.01743310546875,-0.1833621787071228,-0.019404811563342807,0.0034203298375010487
1761478212550470100,7.02747021484375,-0.18389643171429634,-0.01262793783955276,0.09323927858099341
1761478212560506000,7.037506103515625,-0.17891455164849757,-0.010905936352536082,0.11593626355752348
1761478212570542000,7.0475419921875,-0.2611965290158987,0.0029861762039363384,0.003942746276408434
1761478212580578000,7.057578125,-0.2990805617302656,-0.03411313587352633,-0.11958952536806464
1761478212590615300,7.067615234375,-0.31034020689129826,-0.07136391218565404,-0.1545480260245502
1761478212600651300,7.0776513671875,-0.2917997570723295,-0.06636924570351839,-0.09790025612935423
1761478212610687200,7.087687255859375,-0.21271160731017588,-0.08361497953683138,0.026961072161793706
1761478212620724200,7.09772412109375,-0.18137421976029872,-0.09054675156138836,0.1398041920095682
1761478212630760200,7.10776025390625,-0.17694646644592285,-0.03183627698272466,0.14460457802861929
1761478212640796200,7.117796142578125,-0.11787000809907912,-0.021964579048752784,0.03833309165611863
1761478212650832100,7.12783203125,-0.08629822727143764,-0.04679748007543385,-0.05263692681863904
1761478212660869000,7.137869140625,-0.08021919961869717,-0.03250431243740022,-0.11422361442074179
1761478212670905000,7.147905029296875,-0.05890636247694492,-0.05273585714846849,-0.09444485497847199
1761478212680941000,7.157941162109375,-0.04625555521845817,-0.04890870007574558,-0.036143326526880265
1761478212690978300,7.167978271484375,-0.038837972438335415,-0.001553878378495574,-0.026266075634956358
1761478212701014300,7.17801416015625,-0.009826397487521172,-0.019739377279952168,-0.010798457390069962
1761478212711050200,7.18805029296875,0.016757073533535,-0.04158215657994151,0.020983897448331117
1761478212721086200,7.198086181640625,-0.05230594129860401,-0.024901509283483027,0.027906536318361756
1761478212731123200,7.208123291015625,-0.17390929070711134,-0.0024600334379822016,-0.02265036935582757
1761478212741159200,7.2181591796875,-0.2382259877949953,0.005524973966553807,-0.0749118869908154
1761478212751195100,7.228195068359375,-0.2824117510020733,0.007119549681618809,-0.07418605693429708
1761478212761232400,7.238232421875,-0.2554652918875217,0.023673501858487725,-0.07251096332892776
1761478212771268400,7.248268310546875,-0.1848638154417276,0.0037550416845828294,-0.05501943804100155
1761478212781304300,7.25830419921875,-0.12277531579732893,-0.006080269761756062,-0.03140767630711198
1761478212791340300,7.26834033203125,-0.10082242718636988,0.003952610083296895,-0.006463789186626673
1761478212801377300,7.278377197265625,-0.11968202595710754,-0.00921732567846775,-0.02903407904356718
1761478212811413200,7.288413330078125,-0.18298925374150274,-0.01873553399965167,-0.09346168916001915
1761478212821449200,7.29844921875,-0.3005629092425108,0.0032372283555567264,-0.11489961398616433
1761478212831486200,7.308486328125,-0.33844460386931896,0.05230221497155726,-0.10112681696042418
1761478212841522200,7.318522216796875,-0.31781799542605876,0.07068652438074349,-0.06750526399612426
1761478212851558100,7.32855810546875,-0.24422668951451776,0.06854505537264048,-0.07834843731075525
1761478212861594000,7.338593994140625,-0.11453881784975528,0.001070259580016136,-0.07798720278292894
1761478212871631000,7.348631103515625,0.008727496334910392,-0.055173824885115026,-0.03984203491434455
1761478212881667300,7.358667236328125,0.07554302450120448,-0.0704853027202189,0.024494974309206007
1761478212891703300,7.368703369140625,0.06986439434289932,-0.07543854121342301,0.10106383472681045
1761478212901740300,7.378740234375,0.0015495675295591354,-0.044373102472722525,0.11630948078408837
1761478212911776300,7.3887763671875,-0.0737690005660057,-0.018988924238830803,0.07497033917978406
1761478212921812200,7.398812255859375,-0.07946165924966335,-0.010262377751991153,0.011957564297318458
1761478212931848200,7.40884814453125,-0.09424187975227832,-0.0010202829584479332,-0.0417994525924325
1761478212941885200,7.41888525390625,-0.14462591307759284,0.004555617477744817,-0.03778013394847512
1761478212951921200,7.428921142578125,-0.21251286986768245,-0.0011741583459079265,-0.021017361326515674
1761478212961957000,7.43895703125,-0.2960164979845285,-0.012313245867192745,-0.018327391590178013
1761478212971994000,7.448994140625,-0.346223421177268,-0.029123291696980594,-0.04742036121413112
1761478212982030000,7.459030029296875,-0.34159050067961216,-0.039446971182152624,-0.06702434861138462
1761478212992066000,7.469066162109375,-0.30256431219279767,-0.061847676625847815,-0.022501754665374754
1761478213002102300,7.479102294921875,-0.22179157034456728,-0.044154491285979744,0.025618571511656044
1761478213012139300,7.48913916015625,-0.10883680681586265,0.013570114060491323,0.07357713125571608
1761478213022175200,7.49917529296875,-0.030264789882302284,0.023807722697407007,0.07990458071157336
1761478213032211200,7.509211181640625,-0.015779752933979034,-0.0065500061653554435,0.020621640007197857
1761478213042248200,7.519248291015625,-0.0955325040847063,0.013745178366452455,-0.08441723583042621
1761478213052284200,7.5292841796875,-0.19608488215804099,0.02146357072405517,-0.1553670873224735
1761478213062320000,7.539320068359375,-0.24185996038317678,-0.018578005350381135,-0.16349398741573096
1761478213072356400,7.5493564453125,-0.21326748762726783,-0.03094721918851137,-0.1509552622295916
1761478213082393000,7.55939306640625,-0.1457476105839014,-0.023894451132789252,-0.08951178249046206
1761478213092429000,7.569428955078125,-0.07845803516507148,-0.011037380712479353,0.0286487329877913
1761478213102465300,7.57946533203125,-0.06374561920166015,-0.022837635556235907,0.17096870721057056
1761478213112502300,7.589502197265625,-0.09355740461945533,0.005582549372687935,0.18522241962105035
1761478213122538200,7.599538330078125,-0.09222644827663898,-0.01829984599612653,0.07877294633314014
1761478213132574200,7.60957421875,-0.08828969334959984,-0.014453034374862908,-0.077693334402889
1761478213142610400,7.6196103515625,-0.13016425700485706,-0.009731924137100577,-0.16614055640175937
1761478213152647200,7.629647216796875,-0.20339900456368923,-0.031238749480992554,-0.1546101314753294
1761478213162683100,7.63968310546875,-0.28242694857120515,-0.014127163421362637,-0.09299363325685261
1761478213172719400,7.64971923828125,-0.28590193120539187,0.006870689487084746,-0.03703969084471464
1761478213182755300,7.65975537109375,-0.2634673965573311,-0.010491948724165558,-0.031043080778419968
1761478213192792000,7.6697919921875,-0.17118308061361312,-0.020977467707544564,-0.08577201144024729
1761478213202828300,7.679828369140625,0.033195582637190815,-0.03584916588589549,-0.1388679340727627
1761478213212864300,7.6898642578125,0.22898645028471945,-0.07737579288631677,-0.15109335552603007
1761478213222901200,7.6999013671875,0.22511282372176647,-0.05814034654051065,-0.10488704627677797
1761478213232937200,7.709937255859375,0.15415888057649135,-0.003537964867800474,-0.06847162481024861
1761478213242973400,7.719973388671875,-0.013246435064077376,0.043669045856595035,-0.028143267683684824
1761478213253009400,7.730009521484375,-0.11024608909189701,0.01907294926047325,0.01227832068428397
1761478213263046100,7.740046142578125,-0.11882394782304763,-0.038281361468881364,0.031742168958485126
1761478213273082400,7.750082275390625,-0.13054887240827082,-0.05703362740762531,0.0677161302678287
1761478213283118300,7.760118408203125,-0.17232874351739882,-0.05799918450415134,0.06314604587331414
1761478213293155000,7.770155029296875,-0.23067688758969307,-0.06812719528675079,-0.008995499621331692
1761478213303191300,7.78019140625,-0.2688637026429176,-0.10151545095182955,-0.08369827390611172
1761478213313227300,7.790227294921875,-0.3284744139969349,-0.05594517458379268,-0.12502893994301556
1761478213323263200,7.80026318359375,-0.33081951581835745,0.012280512641370296,-0.11831453699618577
1761478213333300500,7.810300537109375,-0.3268827608913183,0.007367460028082132,0.041497693166881795
1761478213343336400,7.82033642578125,-0.25160920098125933,-0.008938143410906195,0.2228844801478088
1761478213353372400,7.830372314453125,-0.16470774711966513,0.00036021161451935764,0.24302535090073943
1761478213363408400,7.840408447265625,-0.12497487166821956,-0.04276500968895852,0.11133812211230397
1761478213373445400,7.8504453125,-0.20929273877739904,-0.05327164452560246,-0.05900295471921563
1761478213383481300,7.8604814453125,-0.26068799497187134,-0.06288651815429329,-0.1930605659008026
1761478213393517300,7.870517333984375,-0.24886603975296018,-0.04295907095633447,-0.21434593051373957
1761478213403554300,7.88055419921875,-0.20417057345807552,-0.008237228599935769,-0.116036947453022
1761478213413590300,7.89059033203125,-0.12690613199174403,0.017665712811052798,-0.02512552729770541
1761478213423626200,7.900626220703125,-0.053175709870457645,0.05495331400223076,-0.028289105895161627
1761478213433662200,7.910662109375,-0.04136953674256801,0.07611644047498703,-0.10316796739920973
1761478213443699500,7.920699462890625,-0.08244213636517524,0.05047039643451571,-0.12098901690244673
1761478213453735400,7.9307353515625,-0.09436989004611969,0.04190313216261565,-0.03024228578954935
1761478213463771400,7.940771484375,-0.060116907310485836,0.01866115358918905,-0.012443009726703166
1761478213473807400,7.950807373046875,-0.12380582788884639,0.02278700134754181,-0.04966171040013432
1761478213483844400,7.96084423828125,-0.17815291962623594,0.007267506784945726,-0.09057751202583313
1761478213493880300,7.97088037109375,-0.17067688465714453,-0.00039754795022308825,-0.14492548054605722
1761478213503916300,7.980916259765625,-0.14533552265167235,0.0032077100001275537,-0.12831512200683354
1761478213513953300,7.990953369140625,-0.11168284389674663,-0.022713059328496456,-0.08221519574150443
1761478213523989200,8.0009892578125,-0.13199790217280388,-0.036299978393316265,-0.033847909066081046
1761478213534024200,8.011024169921875,-0.18651859691143036,-0.04207417788058519,0.039266719244420524
1761478213544060200,8.02106005859375,-0.1812175678938627,-0.0774522191233933,0.06457476350218057
1761478213554097200,8.03109716796875,-0.18572189357578753,-0.048323374468460675,0.0930455095745623
1761478213564133000,8.041133056640625,-0.18200316531360147,-0.031052286998182535,0.13928119104877112
1761478213574169000,8.051169189453125,-0.1600683968812227,0.0001581131711602211,0.15864815481975675
1761478213584205000,8.061205078125,-0.2370499297529459,0.0440718545038253,0.16759163199290633
1761478213594242300,8.0712421875,-0.22258009037375448,0.040822789580002426,0.12530337297022343
1761478213604278300,8.0812783203125,-0.2298901211261749,0.014205124028399586,0.04593275300487876
1761478213614314200,8.091314208984375,-0.23653613501191137,-0.009546265371888876,-0.09152589879184961
1761478213624350200,8.10135009765625,-0.2484521982550621,0.0024294921692460773,-0.17062924612313507
1761478213634387200,8.11138720703125,-0.15645838969051837,0.009399769573286176,-0.15127704152986407
1761478213644423200,8.121423095703125,-0.13506488852798937,0.00759717713072896,-0.06511763820722699
1761478213654459100,8.131459228515626,-0.17238310405313967,0.044087052072957156,0.01103723458200693
1761478213664496000,8.14149609375,-0.1805599807679653,0.10585106900334358,0.00425488096550107
1761478213674532000,8.151531982421876,-0.16096797606945037,0.11225450630486011,-0.033982641361653805
1761478213684568000,8.161568115234376,-0.06563304038345813,0.060569254187867044,-0.08127075449824332
1761478213694604000,8.17160400390625,0.014715338572859763,0.05854951186329126,-0.09165902365222572
1761478213704641300,8.181641357421874,-0.004533551776409149,0.04258154288083315,-0.11115282867327332
1761478213714677200,8.19167724609375,-0.11231880371272564,0.03436689143888652,-0.10196531361117958
1761478213724713200,8.201713134765624,-0.20214578963220117,0.07316146312691271,-0.14031404122784732
1761478213734749400,8.21174951171875,-0.24681612148582935,0.08052154356613754,-0.1934993957094848
1761478213744786200,8.2217861328125,-0.22275193980932234,0.08129303939528763,-0.17487258278131484
1761478213754822100,8.231822265625,-0.15256079773008824,0.08784099973402917,-0.13724837004691362
1761478213764857900,8.24185791015625,-0.08521803081929682,0.0328154242131859,-0.10939794782996178
1761478213774894600,8.25189453125,-0.13398527659773826,-0.027277006243169307,-0.13549962668344379
1761478213784930800,8.261930908203125,-0.1911784054160118,0.04448518454506993,-0.09652633742764592
1761478213794966800,8.271966796875,-0.0015215104788541792,0.07743212618343531,0.06575695902407169
1761478213805002800,8.282002685546875,0.11874153023660182,0.02094341930747032,0.25249431325271726
1761478213815040000,8.2920400390625,0.16935469614267348,-0.03909326237365603,0.25707360386699435
1761478213825076000,8.302075927734375,0.14815876337885855,-0.092697792115435,-0.03609875673279166
1761478213835112000,8.31211181640625,-0.35469548144638535,-0.008987754706293344,-0.44042219244018194
1761478213845148000,8.32214794921875,-0.45166181772649283,0.020376286944001912,-0.568526740436256
1761478213855185000,8.332184814453125,-0.06446107399463653,0.8377156564455479,-0.03572627015858888
1761478213865220900,8.342220947265625,0.6256371594071388,-0.3346908042937517,0.7613445836223661
1761478213875256800,8.3522568359375,0.33644729257225986,-0.6920872152619063,0.598005786768347
1761478213885292800,8.362292724609375,-0.5057184020847082,-0.3962502385627478,0.07937398096621036
1761478213895329800,8.372329833984375,-0.5642115075856446,0.1616392263945192,-0.10326149090155959
1761478213905365800,8.38236572265625,-0.37243688984215256,-0.030319369613751767,-0.08486161859706044
1761478213915401700,8.392401611328125,-0.2234685636460781,0.07272730949334799,0.1308214057393372
1761478213925439000,8.40243896484375,-0.22527473628520964,0.09537197976075112,0.29349443216100335
1761478213935475000,8.412474853515626,-0.2976818008482456,0.05919117076769471,0.2781595003850758
1761478213945511000,8.422510986328126,-0.2553407887250185,0.27806480783894655,-0.10638707557618618
