time,seconds_elapsed,z,y,x
1761478205592803800,0.069803955078125,0.02822764404118061,0.0019885823130607605,0.14739824831485748
1761478205602839800,0.07983984375,0.020011525601148605,0.028795961290597916,0.1975594162940979
1761478205612876500,0.08987646484375,0.01594381220638752,0.0309858787804842,0.2121913582086563
1761478205622912800,0.099912841796875,0.012794358655810356,0.016342220827937126,0.19578495621681213
1761478205632948700,0.10994873046875,0.020061857998371124,-0.004574778024107218,0.14922277629375458
1761478205642984700,0.119984619140625,0.035708993673324585,-0.03363092988729477,0.0931943953037262
1761478205653021700,0.130021728515625,0.04758882522583008,-0.06139518320560455,0.03738092631101608
1761478205663057700,0.1400576171875,0.04086540639400482,-0.05070978403091431,0.03164953738451004
1761478205673093600,0.15009375,0.024879250675439835,-0.01005130261182785,0.04814169555902481
1761478205683130600,0.160130615234375,0.0067543089389801025,0.01852414943277836,0.056476857513189316
1761478205693166800,0.170166748046875,-0.00990269798785448,0.03388925641775131,0.04758189991116524
1761478205703202800,0.180202880859375,-0.017914285883307457,0.03632871434092522,0.024712802842259407
1761478205713239600,0.190239501953125,-0.02052365057170391,0.025186846032738686,-0.009165002964437008
1761478205723275800,0.20027587890625,-0.00689119566231966,-0.006327670533210039,-0.05048927292227745
1761478205733311700,0.210311767578125,0.007193730678409338,-0.03518248721957207,-0.09182712435722351
1761478205743347700,0.22034765625,0.02341637574136257,-0.04339247941970825,-0.12377387285232544
1761478205753385500,0.230385498046875,0.025834793224930763,-0.04805620759725571,-0.1336003988981247
1761478205763421400,0.24042138671875,0.022647788748145103,-0.03290202468633652,-0.11932878941297531
1761478205773457400,0.25045751953125,0.015139537863433361,-0.008645419962704182,-0.08332684636116028
1761478205783494400,0.260494384765625,0.011255583725869656,0.0020511667244136333,-0.04205157980322838
1761478205793530400,0.2705302734375,0.003964381758123636,0.009800166822969913,-0.011932292953133583
1761478205803566300,0.28056640625,-0.0025840650778263807,0.016202671453356743,0.01347586140036583
1761478205813603300,0.290603271484375,0.0007086671539582312,0.019638948142528534,0.02478097938001156
1761478205823639300,0.300639404296875,0.008582036942243576,0.0031071100383996964,0.0353822261095047
1761478205833675300,0.31067529296875,0.017894843593239784,0.00774820102378726,0.05374978110194206
1761478205843711500,0.32071142578125,0.01895212009549141,0.015809589996933937,0.07056444883346558
1761478205853748200,0.330748291015625,0.016224775463342667,0.017467673867940903,0.07523670047521591
1761478205863784200,0.3407841796875,0.008637163788080215,0.00606348505243659,0.06555504351854324
1761478205873820400,0.3508203125,0.00415399856865406,-0.012736568227410316,0.04842052981257439
1761478205883857400,0.360857421875,0.009561813436448574,-0.024270985275506973,0.025197764858603477
1761478205893893400,0.370893310546875,0.016625581309199333,-0.03629276156425476,0.006639260333031416
1761478205903929300,0.380929443359375,0.015084411017596722,-0.030955519527196884,0.0014282532501965761
1761478205913966300,0.39096630859375,0.012979447841644287,-0.009367402642965317,0.010971690528094769
1761478205924002300,0.401002197265625,0.008622516877949238,0.01146623957902193,0.017893780022859573
1761478205934038500,0.41103857421875,0.003311374457553029,0.015476161614060402,0.01504046842455864
1761478205944074500,0.421074462890625,0.008827580139040947,0.006340986583381891,0.00036938043194822967
1761478205954111200,0.431111328125,0.019222164526581764,-0.021020330488681793,-0.018397649750113487
1761478205964147500,0.4411474609375,0.031126759946346283,-0.04731318727135658,-0.02550562657415867
1761478205974183400,0.451183349609375,0.03321414440870285,-0.052914079278707504,-0.018925221636891365
1761478205984220400,0.461220458984375,0.023185480386018753,-0.026192987337708473,-0.002008023438975215
1761478205994256400,0.47125634765625,0.01932176575064659,0.0004106594424229115,0.011424960568547249
1761478206004292600,0.481292724609375,0.019279688596725464,0.014491324312984943,0.009250756353139877
1761478206014328600,0.49132861328125,0.021142570301890373,0.0033606430515646935,-0.008504805155098438
1761478206024365300,0.501365234375,0.028415929526090622,-0.0013992248568683863,-0.02008928917348385
1761478206034401500,0.511401611328125,0.029692647978663445,-0.003644003299996257,-0.02094123512506485
1761478206044437500,0.5214375,0.02472691796720028,-0.001511610229499638,-0.010991664603352547
1761478206054474200,0.53147412109375,0.010555438697338104,0.01990739442408085,0.011783954687416553
1761478206064510500,0.541510498046875,-0.001868207473307848,0.038778554648160934,0.02190929278731346
1761478206074546400,0.55154638671875,-0.012534167617559433,0.020311396569013596,0.016636500135064125
1761478206084583400,0.56158349609375,-0.022062424570322037,0.010213488712906837,0.007783621083945036
1761478206094619400,0.571619384765625,-0.016325710341334343,0.011756258085370064,0.004004595335572958
1761478206104655600,0.581655517578125,-0.01732759177684784,0.00833649281412363,-0.0002932140196207911
1761478206114691600,0.591691650390625,-0.007901598699390888,0.011831359006464481,-0.006748982705175877
1761478206124728300,0.601728271484375,-0.01113494299352169,0.005768939387053251,-0.01510118879377842
1761478206134764500,0.6117646484375,-0.01236239355057478,0.0013941648649051785,-0.02942366898059845
1761478206144800500,0.621800537109375,-0.017784057185053825,-0.009641974233090878,-0.041480064392089844
1761478206154837200,0.631837158203125,-0.01708950474858284,-0.014613031409680843,-0.040470194071531296
1761478206164873500,0.64187353515625,-0.01625060848891735,-0.022068018093705177,-0.036316197365522385
1761478206174909400,0.651909423828125,-0.012001534923911095,-0.01774304360151291,-0.022298380732536316
1761478206184946400,0.661946533203125,-0.020564664155244827,0.0019145464757457376,-0.0015968313673511147
1761478206194982700,0.671982666015625,-0.034807514399290085,0.009505088441073895,0.0037055222783237696
1761478206205018600,0.6820185546875,-0.04001133143901825,0.0010897654574364424,-0.0024738102219998837
1761478206215054600,0.6920546875,-0.03780783340334892,-0.017646638676524162,-0.016652746126055717
1761478206225091600,0.702091552734375,-0.032390695065259933,-0.030785609036684036,-0.025375131517648697
1761478206235127600,0.71212744140625,-0.031072964891791344,-0.03478514403104782,-0.03337926045060158
1761478206245163500,0.72216357421875,-0.03128548339009285,-0.029135514050722122,-0.03704456984996796
1761478206255200500,0.732200439453125,-0.03067615255713463,-0.012281966395676136,-0.037698376923799515
1761478206265236500,0.742236572265625,-0.021512215957045555,-0.00549197057262063,-0.04276717081665993
1761478206275272400,0.7522724609375,-0.01336001418530941,-0.01209740899503231,-0.05633624270558357
1761478206285308400,0.762308349609375,-0.0016639430541545153,-0.01625460386276245,-0.07511312514543533
1761478206295345700,0.772345703125,0.008560997433960438,-0.029755499213933945,-0.08702171593904495
1761478206305381600,0.782381591796875,0.00891173630952835,-0.03674443066120148,-0.08347545564174652
1761478206315417600,0.79241748046875,0.0026993800420314074,-0.020112991333007812,-0.0579029805958271
1761478206325454600,0.80245458984375,0.0020178770646452904,-0.016997093334794044,-0.035885296761989594
1761478206335490600,0.812490478515625,-0.0034999263007193804,-0.0048858351074159145,-0.001773132593370974
1761478206345526500,0.822526611328125,-0.006129531655460596,-0.002555303042754531,0.023487215861678123
1761478206355563500,0.8325634765625,-0.011129883117973804,-0.003463174682110548,0.04391206428408623
1761478206365599500,0.842599609375,-0.017792312428355217,-0.0020394488237798214,0.0528232678771019
1761478206375635500,0.852635498046875,-0.017361147329211235,-0.017472999170422554,0.048397358506917953
1761478206385672400,0.86267236328125,-0.01398852001875639,-0.03480139002203941,0.041239313781261444
1761478206395708400,0.87270849609375,-0.017712684348225594,-0.0436212457716465,0.02924230694770813
1761478206405744400,0.882744384765625,-0.016172844916582108,-0.04302842542529106,0.021040836349129677
1761478206415780600,0.892780517578125,-0.022967899218201637,-0.032095085829496384,0.016350477933883667
1761478206425817600,0.902817626953125,-0.020366523414850235,-0.007125820033252239,0.018580075353384018
1761478206435853600,0.912853515625,-0.01558109000325203,0.0013677994720637798,0.017960891127586365
1761478206445889500,0.9228896484375,-0.0034381409641355276,-0.0008356999605894089,0.006998520810157061
1761478206455926500,0.932926513671875,0.0036274916492402554,-0.011384480632841587,-0.009152485989034176
1761478206465962500,0.94296240234375,0.003466370515525341,-0.019406454637646675,-0.03093740902841091
1761478206475998500,0.95299853515625,-0.004883171990513802,-0.024928519502282143,-0.049961965531110764
1761478206486035500,0.963035400390625,-0.011900601908564568,-0.021457888185977936,-0.05541425570845604
1761478206496071400,0.973071533203125,-0.012813267298042774,-0.002147306688129902,-0.04597628116607666
1761478206506107400,0.983107421875,0.002332130214199424,0.007888815365731716,-0.03371428698301315
1761478206516143400,0.993143310546875,0.02136281318962574,-0.0035228293854743242,-0.026446787640452385
1761478206526180600,1.0031806640625,0.03705096244812012,-0.01727113127708435,-0.019465576857328415
1761478206536216600,1.013216552734375,0.0357646569609642,-0.033972349017858505,-0.006999586243182421
1761478206546252500,1.02325244140625,0.0292377807199955,-0.04682343080639839,0.006386526394635439
1761478206556289500,1.03328955078125,0.02040620520710945,-0.038787342607975006,0.02829155884683132
1761478206566325500,1.043325439453125,0.01715341955423355,-0.025361815467476845,0.05133296176791191
1761478206576361500,1.053361572265625,0.014576545916497707,-0.007984423078596592,0.06854496896266937
1761478206586398500,1.0633984375,0.013605291023850441,0.00390339526347816,0.07875872403383255
1761478206596434400,1.073434326171875,0.008858739398419857,0.0075426045805215836,0.06677636504173279
1761478206606470400,1.083470458984375,-0.000577107013668865,0.0021736719645559788,0.0446644052863121
1761478206616507600,1.093507568359375,-0.008047007024288177,-0.00977326836436987,0.009432383812963963
1761478206626543600,1.103543701171875,-0.0027105652261525393,-0.01865411177277565,-0.019630426540970802
1761478206636579600,1.11357958984375,0.002365952357649803,-0.028195418417453766,-0.031929969787597656
1761478206646615600,1.123615478515625,0.0024639565963298082,-0.020488230511546135,-0.024645958095788956
1761478206656652500,1.133652587890625,-0.010357299819588661,-0.008820123039186,-0.017736120149493217
1761478206666688500,1.1436884765625,-0.031434886157512665,0.010939200408756733,-0.010980745777487755
1761478206676724500,1.153724365234375,-0.05546965077519417,0.018192585557699203,-0.007144995033740997
1761478206686761500,1.163761474609375,-0.06698835641145706,0.01810763031244278,-0.007050719112157822
1761478206696797400,1.17379736328125,-0.061101436614990234,0.0032080437522381544,-0.010401774197816849
1761478206706833400,1.18383349609375,-0.05323658883571625,-0.006100236903876066,-0.009281116537749767
1761478206716870700,1.19387060546875,-0.04580556973814964,-0.014682806096971035,-0.002633333671838045
1761478206726906600,1.20390673828125,-0.039204660803079605,-0.015632756054401398,0.0068150293081998825
1761478206736942600,1.213942626953125,-0.033779799938201904,0.00096113485051319,0.014284397475421429
1761478206746979800,1.223979736328125,-0.024938639253377914,0.0065138256177306175,0.010608169250190258
1761478206757015800,1.234015869140625,-0.016016783192753792,0.004338023252785206,0.00705737667158246
1761478206767051800,1.2440517578125,-0.012295548804104328,-0.002344913315027952,-0.008977249264717102
1761478206777087700,1.254087646484375,-0.009584183804690838,0.003485811408609152,-0.015278289094567299
1761478206787124700,1.264124755859375,-0.012921124696731567,0.007270429749041796,-0.012777580879628658
1761478206797160700,1.27416064453125,-0.009794574230909348,0.010780476033687592,-0.008814796805381775
1761478206807196700,1.28419677734375,-0.002669286448508501,0.011138937436044216,-0.004432831425219774
1761478206817233700,1.294233642578125,0.00541394017636776,0.008800415322184563,-0.0032764871139079332
1761478206827269600,1.30426953125,0.011799135245382786,0.003999535460025072,0.00361683894880116
1761478206837305600,1.3143056640625,0.018908176571130753,0.0036490634083747864,0.010302172042429447
1761478206847342800,1.3243427734375,0.021329790353775024,0.007960188202559948,0.024519458413124084
1761478206857378800,1.33437890625,0.024925323203206062,0.013054815120995045,0.03062342293560505
1761478206867414800,1.344414794921875,0.019237875938415527,0.012921657413244247,0.03279762715101242
1761478206877451800,1.35445166015625,0.009610549546778202,0.012499812990427017,0.020780378952622414
1761478206887487700,1.36448779296875,0.002983273006975651,-0.005342567339539528,0.013943245634436607
1761478206897523700,1.374523681640625,-0.006164685357362032,-0.013249225914478302,0.004612594842910767
1761478206907559700,1.3845595703125,-0.003572630463168025,-0.01895478181540966,0.00845819991081953
1761478206917596700,1.3945966796875,-0.0026019082870334387,-0.004083691164851189,0.02004721201956272
1761478206927632600,1.404632568359375,-0.0065471152774989605,0.004384362138807774,0.02629472129046917
1761478206937668600,1.414668701171875,-0.009969543665647507,0.005116198677569628,0.02382889948785305
1761478206947705900,1.424705810546875,-0.012888900935649872,0.009558884426951408,0.016884973272681236
1761478206957741800,1.434741943359375,-0.01426362432539463,0.008983640931546688,0.014088388532400131
1761478206967777800,1.44477783203125,-0.006726878695189953,0.007099188398569822,0.011508051306009293
1761478206977814800,1.454814697265625,0.001005343277938664,0.00914183259010315,0.003591006388887763
1761478206987850800,1.464850830078125,-0.0005675196298398077,0.005112470127642155,-0.009149023331701756
1761478206997886700,1.47488671875,-0.005689843557775021,-0.0010836402652785182,-0.025399100035429
1761478207007923700,1.484923828125,-0.0032232238445430994,-0.0032056469935923815,-0.0346573144197464
1761478207017959700,1.494959716796875,-0.0005347627447918057,-0.010840130969882011,-0.038358572870492935
1761478207027995600,1.50499560546875,0.011058243922889233,-0.0007068029372021556,-0.02160915546119213
1761478207038032600,1.51503271484375,0.02936428040266037,0.021791847422719002,0.00034115093876607716
1761478207048068600,1.525068603515625,0.03738865256309509,0.03160746023058891,0.0182929877191782
1761478207058104800,1.535104736328125,0.040344491600990295,0.036021117120981216,0.026928020641207695
1761478207068140800,1.545140869140625,0.03416196629405022,0.030665766447782516,0.019702332094311714
1761478207078177800,1.555177734375,0.021743111312389374,0.004688761197030544,-0.0003275688213761896
1761478207088213800,1.5652138671875,0.011877166107296944,-0.0044112601317465305,-0.006226204335689545
1761478207098249700,1.575249755859375,0.007539675105363131,-0.01847168430685997,-0.0067931911908090115
1761478207108286700,1.58528662109375,0.004441886208951473,-0.018854914233088493,0.005684517323970795
1761478207118322700,1.59532275390625,0.0004093278548680246,-0.01185053400695324,0.01751134917140007
1761478207128358700,1.605358642578125,-0.012653743848204613,-0.002147573046386242,0.02835041470825672
1761478207138395600,1.615395751953125,-0.032879654318094254,0.01281406544148922,0.030782412737607956
1761478207148431600,1.625431640625,-0.05337880179286003,0.02696264162659645,0.019893813878297806
1761478207158467600,1.635467529296875,-0.06011979654431343,0.014335263520479202,0.004503138829022646
1761478207168504800,1.6455048828125,-0.05534661188721657,0.008503739722073078,-0.010247843340039253
1761478207178540800,1.655540771484375,-0.04751665145158768,0.002670884132385254,-0.017305221408605576
1761478207188576800,1.66557666015625,-0.03700222447514534,-0.00022317290131468326,-0.02671949565410614
1761478207198612700,1.67561279296875,-0.03347380459308624,-0.003519101068377495,-0.029943784698843956
1761478207208649700,1.685649658203125,-0.033665284514427185,-0.00755086075514555,-0.03278724104166031
1761478207218685700,1.695685791015625,-0.03530579432845116,-0.012891563586890697,-0.03249402716755867
1761478207228721700,1.7057216796875,-0.03327513113617897,-0.0157651137560606,-0.016587233170866966
1761478207238758700,1.715758544921875,-0.028968002647161484,-0.010965831577777863,0.004248540848493576
1761478207248794600,1.725794677734375,-0.027475832030177116,-0.008206530474126339,0.024776453152298927
1761478207258830600,1.73583056640625,-0.021219268441200256,-0.006776413414627314,0.03219042718410492
1761478207268867800,1.745867919921875,-0.011344533413648605,-0.0017699368763715029,0.03567330911755562
1761478207278903800,1.75590380859375,0.0062275356613099575,-0.009325590915977955,0.031149396672844887
1761478207288939800,1.765939697265625,0.020724186673760414,-0.013115801848471165,0.019049324095249176
1761478207298976800,1.775976806640625,0.03195313736796379,-0.01577230542898178,0.0012159993639215827
1761478207309012700,1.7860126953125,0.036616601049900055,-0.017532920464873314,-0.0231159720569849
1761478207319048700,1.796048583984375,0.03201279416680336,-0.01733344979584217,-0.04792278632521629
1761478207329085700,1.806085693359375,0.024592960253357887,-0.018484201282262802,-0.075164794921875
1761478207339121700,1.81612158203125,0.01218742411583662,-0.01992523856461048,-0.08287277817726135
1761478207349157600,1.82615771484375,0.0014982944121584296,-0.0010793792316690087,-0.07188218086957932
1761478207359193600,1.836193603515625,-0.001320927869528532,0.013679326511919498,-0.05270155891776085
1761478207369230800,1.84623095703125,-0.005697034299373627,0.015838084742426872,-0.029933132231235504
1761478207379266800,1.856266845703125,-0.011218300089240074,0.023391341790556908,-0.010368751361966133
1761478207389302800,1.866302734375,-0.01739869825541973,0.01834438554942608,0.003989947959780693
1761478207399339800,1.87633984375,-0.020811006426811218,0.004122839774936438,0.007081078831106424
1761478207409375700,1.886375732421875,-0.022302376106381416,-0.0029316076543182135,0.014792528003454208
1761478207419411700,1.89641162109375,-0.024080568924546242,-0.009170861914753914,0.0237058624625206
1761478207429448700,1.90644873046875,-0.02267974615097046,-0.00811944529414177,0.034918833523988724
1761478207439484700,1.916484619140625,-0.023131152614951134,-0.004969724919646978,0.04340313374996185
1761478207449520600,1.926520751953125,-0.028071582317352295,-0.013888917863368988,0.046844471246004105
1761478207459557600,1.9365576171875,-0.03141145035624504,-0.016648750752210617,0.04138552397489548
1761478207469593600,1.946593505859375,-0.02588352933526039,-0.016259130090475082,0.03398193418979645
1761478207479629800,1.9566298828125,-0.014800251461565495,-0.016275109723210335,0.027705663815140724
1761478207489665800,1.966665771484375,-0.008228369057178497,-0.014978150837123394,0.018627213314175606
1761478207499702800,1.976702880859375,-0.006324741058051586,0.002671150490641594,0.008685633540153503
1761478207509738800,1.98673876953125,-0.004156128969043493,0.00894076470285654,-0.00038402783684432507
1761478207519774700,1.996774658203125,-0.0036040558479726315,0.0012665993999689817,-0.014583736658096313
1761478207529811700,2.006811767578125,-0.002415220718830824,-0.009729859419167042,-0.024623854085803032
1761478207539847700,2.01684765625,-0.0020066918805241585,-0.007466970942914486,-0.028415396809577942
1761478207549883600,2.026883544921875,-0.0029137644451111555,0.004496481269598007,-0.016527844592928886
1761478207559920600,2.036920654296875,-0.00746004655957222,0.012010590173304081,-0.007922371849417686
1761478207569956600,2.04695654296875,-0.006112487055361271,0.01823439821600914,-0.005745769944041967
1761478207579992600,2.05699267578125,-0.0033601103350520134,0.013650830835103989,-0.008169246837496758
1761478207590029800,2.06702978515625,0.0032650355715304613,0.004110322799533606,-0.015476960688829422
1761478207600065800,2.077065673828125,0.005155613645911217,0.00700864102691412,-0.014480938203632832
1761478207610101800,2.087101806640625,0.007482950109988451,0.004284493625164032,-0.016772855073213577
1761478207620137700,2.0971376953125,0.0030503845773637295,0.003216566052287817,-0.01577097363770008
1761478207630174700,2.1071748046875,0.002168612089008093,0.001823466387577355,-0.014552843756973743
1761478207640210700,2.117210693359375,0.0007784419576637447,-0.011026285588741302,-0.010188455693423748
1761478207650246700,2.12724658203125,-0.003990214318037033,-0.022155102342367172,-0.004062385763972998
1761478207660283600,2.13728369140625,-0.0093919038772583,-0.030781613662838936,0.0060112872160971165
1761478207670319600,2.147319580078125,-0.012170912697911263,-0.021881863474845886,0.02269625850021839
1761478207680355600,2.15735546875,-0.010456102900207043,-0.003372893435880542,0.04139883816242218
1761478207690392800,2.167392822265625,-0.003370496677234769,0.011482751928269863,0.05638338252902031
1761478207700428800,2.1774287109375,-0.004585164599120617,0.02273833565413952,0.05606992542743683
1761478207710464800,2.18746484375,-0.008162322454154491,0.02906414121389389,0.04658427834510803
1761478207720501800,2.197501708984375,-0.012081430293619633,0.034319356083869934,0.025974608957767487
1761478207730537700,2.207537841796875,-0.010831075720489025,0.02244671992957592,-0.0010237190872430801
1761478207740573700,2.21757373046875,0.0008660599705763161,0.005231513641774654,-0.024998560547828674
1761478207750609400,2.227609375,0.015621037222445011,-0.005892776418477297,-0.036794234067201614
1761478207760646400,2.237646484375,0.02995922975242138,-0.015025022439658642,-0.03928934782743454
1761478207770682400,2.247682373046875,0.030611971393227577,-0.0156106511130929,-0.029503297060728073
1761478207780718300,2.25771826171875,0.02135349251329899,-0.00929176900535822,-0.016575781628489494
1761478207790755600,2.267755615234375,0.011435613967478275,0.0008785768295638263,0.0000900148443179205
1761478207800791600,2.27779150390625,0.008227569982409477,0.0062738750129938126,0.020748687908053398
1761478207810827500,2.28782763671875,0.011270764283835888,0.0031438616570085287,0.026030002161860466
1761478207820864500,2.297864501953125,0.014130999334156513,-0.0036519928835332394,0.028319522738456726
1761478207830900500,2.307900390625,0.007463508751243353,-0.019178487360477448,0.018037322908639908
1761478207840936400,2.3179365234375,-0.002852511825039983,-0.02400813065469265,0.0065045044757425785
1761478207850973400,2.327973388671875,-0.009241169318556786,-0.022977221757173538,-0.00010146643762709573
1761478207861009400,2.338009521484375,-0.010153035633265972,-0.02172606810927391,0.007570568006485701
1761478207871045400,2.34804541015625,-0.003507116809487343,-0.012236160226166248,0.019842414185404778
1761478207881081300,2.358081298828125,-0.00774820102378726,-0.0034762241411954165,0.023185480386018753
1761478207891118600,2.36811865234375,-0.016227971762418747,-0.004444282967597246,0.01775742508471012
1761478207901154600,2.378154541015625,-0.02219345234334469,-0.011828962713479996,0.013084109872579575
1761478207911190500,2.3881904296875,-0.024866200983524323,-0.0008839031797833741,0.0014969628537073731
1761478207921227500,2.3982275390625,-0.022760173305869102,-0.0018042916199192405,-0.0014303837670013309
1761478207931263500,2.408263427734375,-0.014794392511248589,-0.0025811356026679277,0.002525741932913661
1761478207941299500,2.418299560546875,-0.01254269015043974,0.004429901950061321,0.010970892384648323
1761478207951336400,2.42833642578125,-0.013310745358467102,0.0044077979400753975,0.012344283983111382
1761478207961372400,2.438372314453125,-0.015803463757038116,-0.0046211169101297855,0.005648564547300339
1761478207971408400,2.448408447265625,-0.01170139666646719,-0.008156729862093925,-0.005695968866348267
1761478207981444400,2.4584443359375,-0.007818774320185184,-0.01600266806781292,-0.0007310376968234777
1761478207991481600,2.468481689453125,-0.0036309538409113884,-0.019092468544840813,0.008766327053308487
1761478208001517600,2.478517578125,-0.00520674604922533,-0.015546469017863274,0.022468557581305504
1761478208011553500,2.488553466796875,-0.014659103937447071,-0.0002210423699580133,0.02858477272093296
1761478208021590500,2.498590576171875,-0.01980033703148365,0.0036796897184103727,0.026041720062494278
1761478208031626500,2.50862646484375,-0.019270101562142372,0.005074386950582266,0.01619068719446659
1761478208041662500,2.518662353515625,-0.008869391866028309,0.0008263788768090308,0.009491239674389362
1761478208051699500,2.528699462890625,0.00923131499439478,-0.008205732330679893,-0.00004900216299574822
1761478208061735400,2.5387353515625,0.03031875751912594,-0.01577150635421276,-0.005287706386297941
1761478208071771400,2.548771484375,0.03133102506399155,-0.02263393998146057,-0.01104652602225542
1761478208081808400,2.558808349609375,0.026799390092492104,-0.023965787142515182,-0.015735287219285965
1761478208091844400,2.56884423828125,0.0225596372038126,-0.021219534799456596,-0.009294964373111725
1761478208101880300,2.57888037109375,0.01835237629711628,-0.019690081477165222,-0.00033582461765035987
1761478208111916500,2.58891650390625,0.01937662810087204,0.0037944719661027193,0.019525498151779175
1761478208121953500,2.59895361328125,0.017492707818746567,0.013087039813399315,0.02912326343357563
1761478208131989500,2.608989501953125,0.019335348159074783,0.0004988100845366716,0.026011893525719643
1761478208142025500,2.619025390625,0.01889832317829132,-0.01269848458468914,0.009938917122781277
1761478208152062500,2.6290625,0.016327841207385063,-0.030797060579061508,-0.007187871728092432
1761478208162098400,2.639098388671875,0.01369290892034769,-0.03409964591264725,-0.014181865379214287
1761478208172134400,2.649134521484375,0.0065444521605968475,-0.01937263272702694,-0.015810122713446617
1761478208182171400,2.65917138671875,-0.0008639294537715614,-0.002701244316995144,-0.011234012432396412
1761478208192207400,2.669207275390625,-0.003939081449061632,0.002892192918807268,-0.007585748098790646
1761478208202243300,2.679243408203125,-0.006176403257995844,0.004982774145901203,-0.00660437298938632
1761478208212279300,2.689279296875,-0.011804994195699692,-0.0011496866354718804,-0.009250756353139877
1761478208222316500,2.699316650390625,-0.01600826159119606,-0.011606588959693909,-0.01173202320933342
1761478208232352500,2.7093525390625,-0.025379393249750137,-0.0073071811348199844,-0.00026764770154841244
1761478208242388500,2.719388427734375,-0.037218209356069565,-0.005142031237483025,0.0117352195084095
1761478208252425500,2.729425537109375,-0.0408659391105175,0.0017310547409579158,0.008097607642412186
1761478208262461400,2.73946142578125,-0.03779930993914604,0.009357282891869545,-0.0023015039041638374
1761478208272497400,2.749497314453125,-0.032347019761800766,0.007910920307040215,-0.016156598925590515
1761478208282534400,2.759534423828125,-0.029225263744592667,0.006268016062676907,-0.026211364194750786
1761478208292570400,2.7695703125,-0.02779700979590416,-0.0023161512799561024,-0.042813245207071304
1761478208302606300,2.7796064453125,-0.03279656171798706,0.0008740494376979768,-0.052615273743867874
1761478208312642300,2.789642333984375,-0.03261999413371086,0.005000350996851921,-0.04655418545007706
1761478208322679600,2.799679443359375,-0.024148212745785713,0.00046072687837295234,-0.03296274319291115
1761478208332715500,2.809715576171875,-0.017763817682862282,0.0038418760523200035,-0.017822140827775
1761478208342751500,2.81975146484375,-0.013688648119568825,-0.0029997846577316523,-0.005116198677569628
1761478208352788500,2.82978857421875,-0.013529391027987003,0.0007001450285315514,0.005483182147145271
1761478208362824400,2.839824462890625,-0.012968262657523155,0.0004673847579397261,0.013828730210661888
1761478208372860400,2.8498603515625,-0.011810054071247578,0.004592621233314276,0.01197144202888012
1761478208382897400,2.8598974609375,-0.007439540233463049,-0.010433466173708439,0.0065593658946454525
1761478208392933400,2.869933349609375,-0.0016554208705201745,-0.010602310299873352,0.005188902840018272
1761478208402969300,2.87996923828125,0.005329518113285303,-0.0024985778145492077,0.009895240887999535
1761478208413005300,2.89000537109375,0.016626646742224693,-0.002576075727120042,0.012256666086614132
1761478208423042600,2.90004248046875,0.018802182748913765,0.0060208747163414955,0.012656939215958118
1761478208433078500,2.91007861328125,0.019665580242872238,0.011665178462862968,0.013787184841930866
1761478208443114500,2.920114501953125,0.011530422605574131,0.0033358754590153694,0.015443138778209686
1761478208453151500,2.9301513671875,0.0019888486713171005,-0.0004471447318792343,0.010281932540237904
1761478208463187500,2.9401875,-0.004208859521895647,-0.009800964966416359,0.010871822014451027
1761478208473223400,2.950223388671875,0.0017638115677982569,-0.013640711084008217,0.010423346422612667
1761478208483260400,2.960260498046875,0.004352137912064791,-0.008684035390615463,0.012582903727889061
1761478208493296400,2.97029638671875,0.004286091309040785,-0.012708337977528572,0.011407650075852871
1761478208503332400,2.980332275390625,0.0024141555186361074,-0.025235315784811974,0.006111954804509878
1761478208513368300,2.990368408203125,0.0010761833982542157,-0.0319020077586174,0.009517072699964046
1761478208523405300,3.0004052734375,0.0008338357438333333,-0.02472425438463688,0.01690574735403061
1761478208533441500,3.010441650390625,0.0019054916920140386,-0.02160702459514141,0.029653232544660568
1761478208543477500,3.0204775390625,0.0011848403373733163,-0.008250473067164421,0.04581329599022865
1761478208553514500,3.030514404296875,-0.002205097349360585,-0.0009531453251838684,0.0461115688085556
1761478208563550500,3.040550537109375,-0.010645187459886074,-0.0025505092926323414,0.039260853081941605
1761478208573586400,3.05058642578125,-0.013974937610328197,-0.003430684097111225,0.026573287323117256
1761478208583622400,3.060622314453125,-0.01170219574123621,-0.010834005661308765,0.01335521973669529
1761478208593659400,3.070659423828125,-0.003004844533279538,-0.006742058787494898,0.003108707955107093
1761478208603695400,3.0806953125,0.00439075380563736,-0.0020426444243639708,-0.005309810396283865
1761478208613731300,3.0907314453125,0.011118697002530098,-0.010434531606733799,-0.013133645057678223
1761478208623768300,3.100768310546875,0.008016914129257202,-0.005898901727050543,-0.011114702560007572
1761478208633804300,3.11080419921875,-0.0024730113800615072,-0.0018703379901126027,-0.004763862583786249
1761478208643840300,3.12084033203125,-0.005801696330308914,-0.001973402453586459,-0.0011470235185697675
1761478208653877500,3.13087744140625,-0.007182279136031866,-0.0010514160385355353,0.010215086862444878
1761478208663913500,3.14091357421875,-0.008517853915691376,-0.00407516909763217,0.02159424126148224
1761478208673949400,3.150949462890625,-0.011376225389540195,-0.0022053637076169252,0.029080653563141823
1761478208683985400,3.1609853515625,-0.015058577992022038,-0.004652276169508696,0.025190042331814766
1761478208694022400,3.1710224609375,-0.016622653231024742,-0.01317998394370079,0.01913108304142952
1761478208704058400,3.181058349609375,-0.011354120448231697,-0.01655021496117115,0.012514459900557995
1761478208714094300,3.19109423828125,-0.00390339526347816,-0.019114039838314056,0.016879647970199585
1761478208724131300,3.20113134765625,-0.002734267385676503,-0.008845689706504345,0.021565746515989304
1761478208734167300,3.211167236328125,0.0013962953817099333,0.0032754219137132168,0.023802535608410835
1761478208744203300,3.221203369140625,0.0014594122767448425,0.006959639023989439,0.018399514257907867
1761478208754240000,3.231239990234375,0.003686880227178335,-0.001662877737544477,0.008520251139998436
1761478208764276000,3.24127587890625,0.004114849958568811,-0.015157381072640419,0.004195543937385082
1761478208774312000,3.25131201171875,0.003197657410055399,-0.03154966980218887,0.003291134489700198
1761478208784348200,3.26134814453125,0.0027441212441772223,-0.01955985277891159,0.022518891841173172
1761478208794385200,3.27138525390625,0.0037491980474442244,-0.009615076705813408,0.038543395698070526
1761478208804421000,3.281421142578125,0.006601976230740547,-0.0031886028591543436,0.05013453960418701
1761478208814457000,3.29145703125,0.008596950210630894,0.0037702370900660753,0.0472191758453846
1761478208824494000,3.301494140625,-0.0005973470397293568,-0.001862082164734602,0.029642313718795776
1761478208834530000,3.311530029296875,-0.004894091282039881,-0.00038216362008824944,0.013540043495595455
1761478208844566000,3.32156591796875,-0.007987619377672672,-0.0025393241085112095,0.00341550400480628
1761478208854602000,3.33160205078125,-0.009402023628354073,-0.010633203200995922,-0.009468869306147099
1761478208864639000,3.341638916015625,-0.003063700394704938,-0.014072409830987453,-0.01732625998556614
1761478208874675000,3.351675048828125,-0.0007523429812863469,-0.017775801941752434,-0.024440893903374672
1761478208884711000,3.3617109375,-0.004063983913511038,-0.02021871879696846,-0.02454262785613537
1761478208894748200,3.371748046875,-0.008266718126833439,-0.007522630970925093,-0.014554974623024464
1761478208904784100,3.3817841796875,-0.020962540060281754,0.001320927869528532,-0.009664345532655716
1761478208914820000,3.391820068359375,-0.022458171471953392,0.00917112734168768,-0.0011920308461412787
1761478208924856000,3.40185595703125,-0.022312229499220848,0.011887818574905396,0.00609277980402112
1761478208934893000,3.41189306640625,-0.018577147275209427,0.006642189808189869,0.015065502375364304
1761478208944929000,3.421928955078125,-0.007680822629481554,-0.0054395063780248165,0.015140336938202381
1761478208954965000,3.431965087890625,-0.010748251341283321,-0.015896940603852272,0.022546853870153427
1761478208965002000,3.442001953125,-0.011541341431438923,-0.02809768170118332,0.022109562531113625
1761478208975038000,3.452037841796875,-0.013894244097173214,-0.03302772343158722,0.02677462249994278
1761478208985074000,3.462073974609375,-0.014036190696060658,-0.026978887617588043,0.0314258337020874
1761478208995111200,3.472111083984375,-0.014180000871419907,-0.014493455179035664,0.04222335293889046
1761478209005147100,3.482147216796875,-0.021825935691595078,-0.00788242369890213,0.03588103502988815
1761478209015183000,3.49218310546875,-0.028301678597927094,0.002251702593639493,0.026738403365015984
1761478209025219300,3.50221923828125,-0.026028404012322426,0.003338272450491786,0.012087555602192879
1761478209035256000,3.512256103515625,-0.019042933359742165,-0.002910036128014326,-0.009305351413786411
1761478209045292000,3.5222919921875,-0.005293831694871187,-0.008359395898878574,-0.02340519055724144
1761478209055328300,3.532328369140625,0.0051990230567753315,-0.01438240148127079,-0.036428049206733704
1761478209065365000,3.542364990234375,0.016896691173315048,-0.013078783638775349,-0.04236370325088501
1761478209075401000,3.55240087890625,0.01835716888308525,-0.010785269550979137,-0.03790849819779396
1761478209085437200,3.562437255859375,0.011316570453345776,-0.007000651676207781,-0.03621233254671097
1761478209095473200,3.57247314453125,0.005242965184152126,-0.009131180122494698,-0.02954004891216755
1761478209105510100,3.58251025390625,0.009781524538993835,-0.0013544837711378932,-0.0049492185935378075
1761478209115546000,3.592546142578125,0.009198558516800404,-0.00042823629337362945,0.020981181412935257
1761478209125582300,3.602582275390625,0.007333280518651009,0.011098191142082214,0.04162920266389847
1761478209135619000,3.612619140625,0.004935103934258223,0.008590292185544968,0.046843137592077255
1761478209145655000,3.622655029296875,-0.0023270701058208942,0.004135356284677982,0.0410584881901741
1761478209155691300,3.632691162109375,-0.010362892411649227,-0.014121411368250847,0.028318990021944046
1761478209165727200,3.642727294921875,-0.009886719286441803,-0.024471787735819817,0.01654808409512043
1761478209175764000,3.652763916015625,-0.0027537085115909576,-0.024685107171535492,0.015519038774073124
1761478209185800200,3.66280029296875,0.006800914648920298,-0.03345143422484398,0.020802216604351997
1761478209195836200,3.672836181640625,0.008971656672656536,-0.030005302280187607,0.029799174517393112
1761478209205873200,3.682873046875,0.0035289546940475702,-0.017082579433918,0.04345985874533653
1761478209215909000,3.6929091796875,-0.004581968765705824,-0.010277937166392803,0.048345427960157394
1761478209225945300,3.7029453125,-0.002796851797029376,-0.0018964370246976614,0.054010771214962006
1761478209235981300,3.712981201171875,0.0011113371001556516,0.008293882943689823,0.045400504022836685
1761478209246018000,3.72301806640625,0.005024053156375885,0.0025955168530344963,0.028745627030730247
1761478209256054300,3.73305419921875,0.016141152009367943,-0.00003488740912871435,0.005024585872888565
1761478209266090200,3.74309033203125,0.022191055119037628,-0.014473214745521545,-0.020477844402194023
1761478209276127000,3.753126953125,0.02442012168467045,-0.024597488343715668,-0.03265754505991936
1761478209286163200,3.7631630859375,0.018871160224080086,-0.01925944909453392,-0.03633750230073929
1761478209296199200,3.77319921875,0.01392566878348589,0.0031494542490690947,-0.024338629096746445
1761478209306235100,3.783235107421875,0.012673450633883476,0.015685752034187317,-0.004320446401834488
1761478209316272000,3.793272216796875,0.01882961392402649,0.02665744349360466,0.0032088428270071745
1761478209326308400,3.803308349609375,0.0314311608672142,0.016464194282889366,0.00980442762374878
1761478209336344300,3.81334423828125,0.03827361762523651,0.010731739923357964,0.012055863626301289
1761478209346381300,3.82338134765625,0.04542580619454384,-0.0026666230987757444,0.009632387198507786
1761478209356417300,3.833417236328125,0.04518665373325348,0.002116147894412279,0.005769472103565931
1761478209366453200,3.843453369140625,0.04218047484755516,0.00256462418474257,-0.0018492990639060736
1761478209376489200,3.8534892578125,0.036618731915950775,0.005254150368273258,-0.013341371901333332
1761478209386526200,3.863526123046875,0.02461479790508747,0.013777065090835094,-0.01721999980509281
1761478209396562200,3.873562255859375,0.008153799921274185,0.019541744142770767,-0.019932694733142853
1761478209406598100,3.88359814453125,-0.007873635739088058,0.026142921298742294,-0.007135673891752958
1761478209416635100,3.89363525390625,-0.01739710010588169,0.027183683589100838,-0.004060788080096245
1761478209426671000,3.903671142578125,-0.022594524547457695,0.02010473608970642,0.001597896683961153
1761478209436707000,3.91370703125,-0.03425517678260803,0.0024493092205375433,0.0030423952266573906
1761478209446743300,3.923743408203125,-0.0497736819088459,-0.012370916083455086,0.003719370812177658
1761478209456780300,3.9337802734375,-0.06124338507652283,-0.016941698268055916,0.0073407371528446674
1761478209466816300,3.943816162109375,-0.062073756009340286,-0.018371550366282463,0.010014817118644714
1761478209476852200,3.953852294921875,-0.058628425002098083,-0.019525498151779175,0.016161127015948296
1761478209486889200,3.96388916015625,-0.05470132827758789,-0.007866444997489452,0.0206296443939209
1761478209496925200,3.97392529296875,-0.04464736208319664,-0.009945042431354523,0.01037540938705206
1761478209506961200,3.983961181640625,-0.035351600497961044,-0.013824203051626682,-0.0007957525085657835
1761478209516997000,3.9939970703125,-0.03355636075139046,-0.008931975811719894,-0.01190885715186596
1761478209527032000,4.004031982421875,-0.02545049786567688,0.0016844493802636862,-0.007472030818462372
1761478209537068000,4.014068115234375,-0.0190740916877985,0.0023995081428438425,0.00016671388584654778
1761478209547105000,4.02410498046875,-0.01543221902102232,0.012650547549128532,0.009436910971999168
1761478209557141000,4.03414111328125,-0.009966347366571426,0.017908159643411636,0.017960092052817345
1761478209567177000,4.044177001953125,-0.009168731048703194,0.012599148787558079,0.017343303188681602
1761478209577214200,4.054214111328125,-0.005268531385809183,-0.0014977618120610714,0.00421391986310482
1761478209587250200,4.064250244140625,-0.0070310113951563835,-0.006205964367836714,-0.013641510158777237
1761478209597286100,4.0742861328125,-0.008525843732059002,-0.014517423696815968,-0.03526424616575241
1761478209607322000,4.084322021484375,-0.006566556170582771,-0.020310597494244576,-0.05920819565653801
1761478209617359000,4.094359130859375,-0.000180029688635841,-0.01178954727947712,-0.06872926652431488
1761478209627395000,4.10439501953125,0.0024410535115748644,0.0035396073944866657,-0.06577901542186737
1761478209637431000,4.11443115234375,0.0046879625879228115,0.010508833453059196,-0.05639722943305969
1761478209647468000,4.124468017578125,-0.001181378262117505,0.01672731526196003,-0.03605307638645172
1761478209657504000,4.13450390625,-0.012020976282656193,0.01979341171681881,-0.023199861869215965
1761478209667540000,4.1445400390625,-0.02034734934568405,0.024660872295498848,-0.00615243474021554
1761478209677576200,4.154576171875,-0.022892266511917114,0.02341637574136257,0.006970291491597891
1761478209687613200,4.16461328125,-0.018857577815651894,0.012064652517437935,0.016628777608275414
1761478209697649200,4.174649169921875,-0.016934508457779884,0.00509968725964427,0.017411747947335243
1761478209707685000,4.18468505859375,-0.011494203470647335,-0.00782356783747673,0.017971543595194817
1761478209717722000,4.19472216796875,-0.006042978726327419,-0.013510748744010925,0.019340142607688904
1761478209727758000,4.204758056640625,-0.010583934374153614,-0.021617410704493523,0.015793077647686005
1761478209737794000,4.2147939453125,-0.01818140037357807,-0.02646676078438759,0.017556622624397278
1761478209747830300,4.224830322265625,-0.027275295928120613,-0.024805746972560883,0.019178753718733788
1761478209757868000,4.234867919921875,-0.02803909219801426,-0.02149384096264839,0.031673774123191833
1761478209767904000,4.244904052734375,-0.027352262288331985,-0.009526659734547138,0.048943307250738144
1761478209777940000,4.25493994140625,-0.02876853197813034,0.0034826158080250025,0.06310466676950455
1761478209787977000,4.26497705078125,-0.023862188681960106,0.013519271276891232,0.05438308045268059
1761478209798013000,4.275012939453125,-0.021889319643378258,0.00694978516548872,0.028992237523198128
1761478209808049000,4.285048828125,-0.009457684122025967,-0.0100185452029109,-0.00418382603675127
1761478209818084900,4.2950849609375,-0.00746217742562294,-0.025472870096564293,-0.03455691039562225
1761478209828121900,4.305121826171875,0.00012490226072259247,-0.031189611181616783,-0.04597175121307373
1761478209838158000,4.315157958984375,0.0022562299855053425,-0.010718956589698792,-0.038355644792318344
1761478209848194000,4.325194091796875,0.008831574581563473,0.010666758753359318,-0.023797474801540375
1761478209858231000,4.33523095703125,0.013522733002901077,0.015091334469616413,-0.016340890899300575
1761478209868267000,4.34526708984375,0.013801566325128078,0.005782255437225103,-0.02275458164513111
1761478209878303000,4.355302978515625,0.016715863719582558,-0.0032032502349466085,-0.03598622977733612
1761478209888339000,4.3653388671875,0.011563711799681187,-0.01684289611876011,-0.050994738936424255
1761478209898376000,4.3753759765625,0.01047208160161972,-0.02978559210896492,-0.06562934070825577
1761478209908412000,4.385411865234375,0.01194241363555193,-0.037331391125917435,-0.05435671657323837
1761478209918447900,4.39544775390625,0.008128234185278416,0.005243764258921146,-0.014101438224315643
1761478209928484900,4.40548486328125,-0.0030458574183285236,0.03591911867260933,0.027634823694825172
1761478209938520800,4.415520751953125,-0.011781025677919388,0.04980963468551636,0.051720984280109406
1761478209948556800,4.425556884765625,-0.017130250111222267,0.04464203491806984,0.04938272759318352
1761478209958593000,4.435593017578125,-0.020170249044895172,0.01925119198858738,0.02598526142537594
1761478209968630000,4.445630126953125,-0.006446714047342539,-0.002103630919009447,-0.0023289343807846308
1761478209978666000,4.455666015625,0.007797469384968281,-0.016401875764131546,-0.021564148366451263
1761478209988702000,4.465701904296875,0.017884457483887672,-0.025293638929724693,-0.0230517890304327
1761478209998739000,4.475739013671875,0.01031522173434496,-0.017287377268075943,-0.006413158029317856
1761478210008775000,4.48577490234375,-0.006493585649877787,0.0018322548130527139,0.01570013351738453
1761478210018811000,4.495810791015625,-0.022419288754463196,0.02359613962471485,0.04602315276861191
1761478210028847000,4.50584716796875,-0.027937624603509903,0.02214152179658413,0.06586582958698273
1761478210038883800,4.5158837890625,-0.01624954305589199,0.021891450509428978,0.07669398188591003
1761478210048919800,4.525919921875,-0.0013755226973444223,0.021326594054698944,0.07143343985080719
1761478210058956000,4.5359560546875,0.01366228237748146,0.003900199430063367,0.0591362901031971
1761478210068993000,4.545992919921875,0.023693079128861427,-0.021257352083921432,0.04121747612953186
1761478210079029000,4.556029052734375,0.024178307503461838,-0.024955684319138527,0.02726277895271778
1761478210089065000,4.56606494140625,0.027114441618323326,-0.013830861076712608,0.022954585030674934
1761478210099102000,4.57610205078125,0.023265907540917397,-0.0032538501545786858,0.01787540316581726
1761478210109138000,4.586137939453125,0.019408319145441055,0.0012306467397138476,0.014088122174143791
1761478210119174000,4.596173828125,0.015252189710736275,0.001928128651343286,0.010150638408958912
1761478210129210000,4.606210205078125,0.011334147304296494,-0.001329982653260231,0.009282181970775127
1761478210139246800,4.616246826171875,0.009080314077436924,0.001933721243403852,0.0041244374588131905
1761478210149282800,4.62628271484375,0.009373261593282223,0.008099205791950226,0.0003936151915695518
1761478210159319000,4.636319091796875,0.013266270980238914,0.0014391721924766898,-0.00023515711654908955
1761478210169356000,4.64635595703125,0.012598882429301739,0.003710049670189619,-0.004620584659278393
1761478210179392000,4.65639208984375,0.010861435905098915,-0.002523078816011548,-0.023692812770605087
1761478210189428000,4.666427978515625,0.008540757931768894,-0.008374043740332127,-0.04038097709417343
1761478210199464200,4.676464111328125,0.00851492490619421,-0.008295746520161629,-0.05482703074812889
1761478210209501000,4.6865009765625,0.0010349043877795339,-0.01287798210978508,-0.04800188168883324
1761478210219537000,4.696536865234375,0.006324208807200193,-0.006973487325012684,-0.0405743233859539
1761478210229573000,4.706572998046875,0.012179434299468994,0.0025923210196197033,-0.021261079236865044
1761478210239609900,4.71660986328125,0.013177321292459965,0.012552809901535511,0.006603574380278587
1761478210249645800,4.726645751953125,0.010734137147665024,0.022856580093503,0.03200613707304001
1761478210259682000,4.73668212890625,0.005179049447178841,0.02731231413781643,0.04127979651093483
1761478210269719000,4.746718994140625,0.005185707006603479,0.019398998469114304,0.03761262446641922
1761478210279755000,4.756755126953125,0.0034679684322327375,0.007016896735876799,0.0264811422675848
1761478210289791200,4.766791259765625,0.008216651156544685,-0.005679723806679249,0.010852914303541183
1761478210299828000,4.776827880859375,0.015561116859316826,-0.02117426134645939,-0.0003989415417890996
1761478210309864000,4.786864013671875,0.017371267080307007,-0.021919148042798042,-0.005474660079926252
1761478210319900200,4.796900146484375,0.0181124247610569,-0.018579542636871338,-0.0047087352722883224
1761478210329936100,4.80693603515625,0.009257680736482143,-0.010316819883883,-0.0028418591246008873
1761478210339972900,4.816972900390625,-0.00037763622822239995,-0.002183525823056698,0.00037470675306394696
1761478210350009000,4.827009033203125,-0.005991579964756966,-0.000952080066781491,0.0006977482116781175
1761478210360045000,4.837045166015625,-0.006156163290143013,0.0014708638191223145,0.004467186518013477
1761478210370081800,4.847081787109375,-0.0044378917664289474,0.000031425301131093875,0.014290256425738335
1761478210380118000,4.857117919921875,-0.008493886329233646,0.00495054991915822,0.021573202684521675
1761478210390154200,4.867154296875,-0.010838000103831291,0.013794908300042152,0.02177427150309086
1761478210400191000,4.87719091796875,-0.012149606831371784,0.014369351789355278,0.009441172704100609
1761478210410227000,4.88722705078125,-0.006421680096536875,0.0021065603941679,-0.010183661244809628
1761478210420263200,4.89726318359375,0.00392896169796586,-0.019396068528294563,-0.033894848078489304
1761478210430299100,4.907299072265625,0.007033142261207104,-0.036011796444654465,-0.04031866043806076
1761478210440336000,4.9173359375,0.0068214209750294685,-0.03808986023068428,-0.02382676862180233
1761478210450372000,4.9273720703125,-0.006656571291387081,-0.017558753490447998,0.008393751457333565
1761478210460408000,4.937407958984375,-0.021636320278048515,0.01080045010894537,0.04506734386086464
1761478210470444800,4.94744482421875,-0.02407790534198284,0.029567480087280273,0.0676589384675026
1761478210480481000,4.95748095703125,-0.02377723529934883,0.030178409069776535,0.06214433163404465
1761478210490517000,4.96751708984375,-0.012023906223475933,0.01998888887465,0.04273974150419235
1761478210500554000,4.977553955078125,-0.004923386033624411,0.005922603886574507,0.011985556222498417
1761478210510590000,4.98758984375,-0.0026224146131426096,-0.01549507025629282,-0.024638500064611435
1761478210520626200,4.997626220703125,-0.001913214917294681,-0.016834108158946037,-0.046657782047986984
1761478210530663000,5.007662841796875,0.0013374395202845335,-0.01360316015779972,-0.050101250410079956
1761478210540699000,5.017698974609375,-0.0033302828669548035,-0.0051833102479577065,-0.040163133293390274
1761478210550735000,5.027735107421875,-0.014487862586975098,0.00824780948460102,-0.018383800983428955
1761478210560771000,5.03777099609375,-0.017432253807783127,0.02334127575159073,0.004856273997575045
1761478210570807800,5.047807861328125,-0.01625220663845539,0.02563292533159256,0.01697632111608982
1761478210580844000,5.057843994140625,-0.009786584414541721,0.02317056618630886,0.019844545051455498
1761478210590880000,5.0678798828125,-0.0018200043123215437,0.011373561806976795,0.005868541542440653
1761478210600917000,5.0779169921875,0.01019830908626318,-0.0008665926288813353,-0.013226589187979698
1761478210610953200,5.087953125,0.013770673424005508,-0.01118953712284565,-0.028794895857572556
1761478210620989200,5.0979892578125,0.017725467681884766,-0.013748569414019585,-0.040455013513565063
1761478210631026000,5.10802587890625,0.008462993428111076,-0.01074026245623827,-0.03838680312037468
1761478210641062100,5.118062255859375,-0.0017976337112486362,-0.011928032152354717,-0.024684840813279152
1761478210651098000,5.12809814453125,-0.01751108281314373,-0.004555070772767067,-0.005016063805669546
1761478210661134000,5.138134033203125,-0.021560419350862503,0.0017060210229828954,0.014819959178566933
1761478210671171000,5.148171142578125,-0.015811719000339508,0.004630970768630505,0.03001861833035946
1761478210681207000,5.15820703125,-0.012065984308719635,0.002490321872755885,0.028331240639090538
1761478210691243000,5.168242919921875,-0.0023406522814184427,-0.0038812910206615925,0.01648416742682457
1761478210701280000,5.178280029296875,0.007184942252933979,-0.007980162277817726,0.0021734058391302824
1761478210711316200,5.188316162109375,0.012707007117569447,-0.013287842273712158,-0.0080336919054389
1761478210721352200,5.198352294921875,0.01631425879895687,-0.009530654177069664,-0.010935205966234207
1761478210731389000,5.208388916015625,0.01438240148127079,-0.003483947366476059,-0.0036826191935688257
1761478210741425200,5.218425048828125,0.012987437658011913,0.006935404147952795,0.008666192181408405
1761478210751461000,5.228461181640625,0.012442555278539658,0.004281297791749239,0.014151505194604397
1761478210761497900,5.238497802734375,0.011995942331850529,0.0007278419216163456,0.015423697419464588
1761478210771534000,5.2485341796875,0.008874451741576195,-0.0057471017353236675,0.006076002027839422
1761478210781570000,5.258570068359375,0.005471996963024139,-0.009711749851703644,-0.0026557042729109526
1761478210791606000,5.26860595703125,0.007965780794620514,-0.003448527306318283,-0.010451309382915497
1761478210801643000,5.27864306640625,0.001972337020561099,-0.006613427773118019,-0.01853560097515583
1761478210811679000,5.288678955078125,-0.00043302998528815806,-0.00800359807908535,-0.025191107764840126
1761478210821715000,5.29871484375,-0.004328702110797167,-0.007494135294109583,-0.022455507889389992
1761478210831752000,5.308751953125,-0.015568573027849197,-0.002630404196679592,-0.015399196185171604
1761478210841788000,5.318787841796875,-0.018263692036271095,-0.0004884237423539162,-0.00629012007266283
1761478210851823900,5.328823974609375,-0.0293714702129364,0.0075814868323504925,-0.007614510133862495
1761478210861860900,5.33886083984375,-0.029759492725133896,0.004227501805871725,-0.00538384635001421
1761478210871897000,5.34889697265625,-0.02395460195839405,-0.003451723139733076,-0.006864830385893583
1761478210881933000,5.35893310546875,-0.016347547993063927,-0.01196984387934208,-0.007448062766343355
1761478210891969800,5.3689697265625,-0.007652859669178724,-0.02112765610218048,-0.008699482306838036
1761478210902006000,5.379006103515625,-0.0038029940333217382,-0.019704995676875114,-0.0017630126094445586
1761478210912042000,5.3890419921875,-0.001555818715132773,-0.011748800985515118,0.009342635050415993
1761478210922078700,5.39907861328125,0.002584597794339061,-0.014089720323681831,0.015509184449911118
1761478210932115000,5.409114990234375,0.004640558268874884,-0.009949569590389729,0.01913348026573658
1761478210942151000,5.41915087890625,0.008507734164595604,-0.005173456855118275,0.01780163310468197
1761478210952187000,5.429186767578125,0.00878177396953106,-0.0030831415206193924,0.011946674436330795
1761478210962224000,5.43922412109375,0.009865413419902325,-0.006854177452623844,-0.0005763080553151667
1761478210972260000,5.449260009765625,0.012899553403258324,-0.019062640145421028,-0.014425544999539852
1761478210982296000,5.459296142578125,0.02130528911948204,-0.0333225354552269,-0.014503308571875095
1761478210992333000,5.4693330078125,0.02293381094932556,-0.03313238546252251,-0.006853645201772451
1761478211002369000,5.479369140625,0.016534768044948578,-0.02413276582956314,0.008480570279061794
1761478211012405000,5.489405029296875,0.0009960222523659468,-0.004252802114933729,0.019654661417007446
1761478211022442000,5.49944189453125,-0.01338584627956152,0.015080682002007961,0.02563106082379818
1761478211032478000,5.50947802734375,-0.025887256488204002,0.00845473725348711,0.011169563978910446
1761478211042514000,5.519513916015625,-0.028379976749420166,-0.0005382248782552779,-0.0021667478140443563
1761478211052551000,5.529551025390625,-0.02526301145553589,-0.0010455570882186294,-0.022495189681649208
1761478211062587000,5.5395869140625,-0.025710156187415123,0.00321922916918993,-0.03789624944329262
1761478211072622800,5.549622802734375,-0.02106453850865364,0.006392918061465025,-0.04964158684015274
1761478211082659000,5.5596591796875,-0.022473616525530815,0.01122256089001894,-0.055870722979307175
1761478211092696000,5.569696044921875,-0.02123364992439747,0.009621202014386654,-0.06123512610793114
1761478211102732000,5.57973193359375,-0.01751268096268177,0.010076070204377174,-0.05758606269955635
1761478211112768000,5.58976806640625,-0.01284682285040617,0.019720707088708878,-0.040333572775125504
1761478211122805000,5.599804931640625,-0.013718209229409695,0.02545635774731636,-0.017658090218901634
1761478211132841000,5.609841064453125,-0.014007162302732468,0.023194268345832825,-0.005763613153249025
1761478211142877000,5.619876953125,-0.011065966449677944,0.011815913021564484,-0.0008711199625395238
1761478211152914000,5.629913818359375,-0.005842708982527256,-0.0073143718764185905,-0.00047351003740914166
1761478211162950000,5.639949951171875,-0.0008519452530890703,-0.015688948333263397,-0.003421096596866846
1761478211172985900,5.64998583984375,0.00033662354690022767,-0.015977367758750916,-0.0029981867410242558
1761478211183022800,5.66002294921875,-0.010763964615762234,-0.011086739599704742,0.0030178942251950502
1761478211193059000,5.67005908203125,-0.024295752868056297,0.0014082795241847634,0.021879199892282486
1761478211203095000,5.680094970703125,-0.041910696774721146,0.020263193175196648,0.03074379824101925
1761478211213131000,5.690131103515625,-0.03989095613360405,0.033176593482494354,0.03357607126235962
1761478211223168000,5.70016796875,-0.03886270895600319,0.04314640536904335,0.01948501728475094
1761478211233204000,5.710203857421875,-0.042698994278907776,0.028025509789586067,-0.00549303600564599
1761478211243240000,5.720239990234375,-0.028135230764746666,-0.04393523186445236,-0.03807308152318001
1761478211253277000,5.73027685546875,-0.02213219925761223,-0.03530925512313843,-0.06557608395814896
1761478211263313000,5.74031298828125,-0.04423164203763008,-0.0018378474051132798,-0.08251538127660751
1761478211273348900,5.750348876953125,-0.04616323485970497,-0.005058940965682268,-0.07872277498245239
1761478211283386000,5.76038623046875,-0.0424843430519104,0.0008990831556729972,-0.06087586656212807
1761478211293422000,5.770422119140625,-0.03331374749541283,0.00941880140453577,-0.04088085517287254
1761478211303458000,5.7804580078125,-0.018088988959789276,0.014068680815398693,-0.028116855770349503
1761478211313495000,5.7904951171875,-0.0038802255876362324,0.016770191490650177,-0.016034360975027084
1761478211323531000,5.800531005859375,-0.0011560781858861446,0.010763964615762234,-0.004853877238929272
1761478211333567000,5.81056689453125,0.0023148194886744022,0.0011211908422410488,-0.0008705873624421656
1761478211343603000,5.82060302734375,0.005179049447178841,-0.009463809430599213,0.007390538230538368
1761478211353640000,5.830639892578125,0.01073653344064951,-0.017167268320918083,0.01085717510432005
1761478211363676000,5.840676025390625,0.02062991075217724,-0.02713068760931492,0.015194931998848915
1761478211373712000,5.8507119140625,0.02474156580865383,-0.031977374106645584,0.019393138587474823
1761478211383748900,5.860748779296875,0.022409169003367424,-0.029383454471826553,0.021763619035482407
1761478211393785000,5.87078515625,0.016055665910243988,-0.03419072553515434,0.029563751071691513
1761478211403821000,5.880821044921875,0.010757306590676308,-0.02424488589167595,0.034392595291137695
1761478211413858000,5.890858154296875,0.0035023230593651533,-0.008579639717936516,0.039679769426584244
1761478211423894000,5.90089404296875,-0.0009560748003423214,-0.009528790600597858,0.03466876596212387
1761478211433930000,5.910929931640625,-0.005923935677856207,-0.005281048361212015,0.0148662980645895
1761478211443967000,5.920967041015625,-0.007119428366422653,-0.015727031975984573,-0.01441142987459898
1761478211454003000,5.9310029296875,-0.01014131773263216,-0.01720268838107586,-0.032348353415727615
1761478211464039000,5.941038818359375,-0.0001757686259225011,-0.01901310496032238,-0.037757497280836105
1761478211474075000,5.951074951171875,-0.0025507756508886814,-0.008096275851130486,-0.030949126929044724
1761478211484112000,5.96111181640625,-0.009832124225795269,0.014154701493680477,-0.020650150254368782
1761478211494147800,5.97114794921875,-0.02365872450172901,0.02990809828042984,-0.014003433287143707
1761478211504183800,5.981183837890625,-0.03038959763944149,0.0319368951022625,-0.014507836662232876
1761478211514221000,5.991220947265625,-0.026674753054976463,0.014567224308848381,-0.02617860771715641
1761478211524257000,6.001257080078125,-0.019050389528274536,-0.005054946057498455,-0.044431913644075394
1761478211534293000,6.01129296875,-0.00839481595903635,-0.0224379301071167,-0.05350077524781227
1761478211544330000,6.021330078125,-0.006837133318185806,-0.025531992316246033,-0.04662689194083214
1761478211554366000,6.031365966796875,-0.007841411046683788,-0.01338424813002348,-0.029352029785513878
1761478211564402000,6.04140185546875,-0.014882010407745838,0.006372944451868534,-0.013982661068439484
1761478211574438000,6.05143798828125,-0.01611904799938202,0.019585685804486275,-0.002189118415117264
1761478211584475000,6.061474853515625,-0.012644422240555286,0.0160098597407341,-0.0005643238546326756
1761478211594510800,6.0715107421875,-0.012516324408352375,0.008795355446636677,-0.010014550760388374
1761478211604546800,6.081546875,-0.007989749312400818,0.005553755909204483,-0.020920461043715477
1761478211614584000,6.091583984375,0.0011281149927526712,-0.002775812754407525,-0.024775121361017227
1761478211624620000,6.1016201171875,0.009155947715044022,-0.015032212249934673,-0.031851671636104584
1761478211634656000,6.111656005859375,0.018980881199240685,-0.025531193241477013,-0.032637037336826324
1761478211644693000,6.12169287109375,0.01865890622138977,-0.023992683738470078,-0.016201073303818703
1761478211654729000,6.13172900390625,0.010300042107701302,-0.021888786926865578,0.004255198873579502
1761478211664765000,6.141764892578125,-0.003201652318239212,-0.009141034446656704,0.02702655829489231
1761478211674802000,6.151802001953125,-0.014633004553616047,-0.0037204360123723745,0.04220284894108772
1761478211684838000,6.161837890625,-0.013847372494637966,-0.0006082659820094705,0.04806739464402199
1761478211694873900,6.171873779296875,-0.003335609333589673,-0.02105894684791565,0.04139111563563347
1761478211704909800,6.181909912109375,0.008808405138552189,-0.027643611654639244,0.03910426050424576
1761478211714947000,6.191947021484375,0.016500413417816162,-0.030003705993294716,0.032530777156353
1761478211724983000,6.201983154296875,0.01215599849820137,-0.03272119536995888,0.025955967605113983
1761478211735019000,6.21201904296875,0.009454487822949886,-0.016019446775317192,0.020537765696644783
1761478211745056000,6.222055908203125,0.0028216191567480564,0.0018719359068199992,0.013185043819248676
1761478211755092200,6.23209228515625,-0.001172323478385806,0.017776068300008774,0.007114634849131107
1761478211765128200,6.242128173828125,0.0026549051981419325,0.024339960888028145,-0.002808303339406848
1761478211775165200,6.252165283203125,0.004938299767673016,0.01152722630649805,-0.020019248127937317
1761478211785201200,6.262201171875,0.004250404890626669,0.011973571963608265,-0.030917968600988388
1761478211795237000,6.272237060546875,-0.0007392935222014785,0.013249492272734642,-0.03308924287557602
1761478211805273300,6.2822734375,-0.014274010434746742,0.013605557382106781,-0.03534254431724548
1761478211815310300,6.292310302734375,-0.018729746341705322,0.012882509268820286,-0.03642032667994499
1761478211825346300,6.30234619140625,-0.01967836357653141,0.0056890444830060005,-0.03247751668095589
1761478211835382300,6.31238232421875,-0.01543781254440546,0.004505536053329706,-0.023247532546520233
1761478211845419300,6.322419189453125,-0.020848290994763374,0.006525010801851749,-0.012165053747594357
1761478211855455200,6.332455322265625,-0.025861691683530807,0.011493404395878315,-0.010683270171284676
1761478211865491200,6.3424912109375,-0.030458839610219002,0.0027084348257631063,-0.009137305431067944
1761478211875528200,6.352528076171875,-0.030372552573680878,-0.006296511739492416,-0.0028298748657107353
1761478211885564200,6.362564208984375,-0.030607709661126137,-0.01031575445085764,0.006668821442872286
1761478211895600000,6.37260009765625,-0.03249189630150795,-0.005206213798373938,0.008510131388902664
1761478211905636000,6.382635986328125,-0.02364354394376278,-0.00589757040143013,0.01293204352259636
1761478211915673300,6.39267333984375,-0.01769058033823967,-0.015262043103575706,0.012722186744213104
1761478211925709300,6.402709228515625,-0.016057264059782028,-0.018148910254240036,0.016809074208140373
1761478211935745300,6.412745361328125,-0.018038388341665268,-0.02129809744656086,0.02534077689051628
1761478211945782300,6.4227822265625,-0.02442518249154091,-0.010119479149580002,0.03591006249189377
1761478211955818200,6.432818359375,-0.02153431996703148,-0.0016857809387147427,0.04120868816971779
1761478211965854200,6.442854248046875,-0.01738644763827324,0.0003299656673334539,0.04320632666349411
1761478211975891200,6.45289111328125,-0.0160085279494524,-0.0022034994326531887,0.03478461131453514
1761478211985927200,6.46292724609375,-0.011039867997169495,-0.006493052933365107,0.014288924634456635
1761478211995963100,6.472963134765625,-0.0005049353349022567,-0.0062126219272613525,-0.008708536624908447
1761478212005999000,6.4829990234375,0.0070858728140592575,-0.012862002477049828,-0.028972262516617775
1761478212016036400,6.493036376953125,0.005780390929430723,-0.01344363670796156,-0.040043290704488754
1761478212026072300,6.503072265625,0.0009408948244526982,-0.007188670802861452,-0.037519145756959915
1761478212036108300,6.5131083984375,-0.0067780110985040665,0.007279750891029835,-0.027758926153182983
1761478212046145300,6.523145263671875,-0.014707307331264019,0.014898521825671196,-0.01483274158090353
1761478212056181200,6.53318115234375,-0.01581784524023533,0.010092048905789852,-0.0036607813090085983
1761478212066217200,6.54321728515625,-0.01293177716434002,0.00609304616227746,0.0011965582380071282
1761478212076254200,6.553254150390625,-0.008340221829712391,-0.003352653468027711,0.00592686515301466
1761478212086290200,6.563290283203125,-0.007437143474817276,-0.01769244484603405,0.012587697245180607
1761478212096326100,6.573326171875,-0.007634750101715326,-0.02075321599841118,0.01769537292420864
1761478212106362000,6.583362060546875,-0.006396113894879818,-0.01059085875749588,0.02154071256518364
1761478212116399400,6.5933994140625,-0.006362025626003742,0.0009038768475875258,0.022949257865548134
1761478212126435300,6.603435302734375,-0.0006450176006183028,0.010305634699761868,0.022342324256896973
1761478212136471300,6.61347119140625,0.0031374699901789427,0.006847253534942865,0.0172069501131773
1761478212146508300,6.62350830078125,0.0041494714096188545,-0.0002998719282913953,0.014060159213840961
1761478212156544300,6.633544189453125,0.005566006526350975,-0.003197923768311739,0.007360178045928478
1761478212166580200,6.643580322265625,0.010477674193680286,-0.006580670829862356,0.007261374965310097
1761478212176617200,6.6536171875,0.023132748901844025,0.00046152580762282014,0.01203988492488861
1761478212186653200,6.663653076171875,0.028148813173174858,-0.0010050770360976458,0.013925403356552124
1761478212196689200,6.673689208984375,0.020656276494264603,-0.0011371697764843702,0.012687299400568008
1761478212206725000,6.68372509765625,0.00851572398096323,0.004710865672677755,0.0072866748087108135
1761478212216762000,6.69376220703125,0.003840810852125287,0.011934157460927963,-0.0015691345324739814
1761478212226798300,6.70379833984375,0.003734284546226263,0.013094763271510601,-0.009545302018523216
1761478212236834300,6.713834228515625,0.018249310553073883,0.0018658105982467532,-0.00945022702217102
1761478212246871300,6.723871337890625,0.025550367310643196,0.009273925796151161,0.0010101370280608535
1761478212256907300,6.7339072265625,0.026024410501122475,0.011799135245382786,0.020313793793320656
1761478212266943200,6.743943115234375,0.021379323676228523,0.013730992563068867,0.02871127240359783
1761478212276980200,6.753980224609375,0.01859472319483757,0.011988486163318157,0.026611637324094772
1761478212287016200,6.76401611328125,0.015076154842972755,0.013623400591313839,0.013461746275424957
1761478212297052200,6.77405224609375,0.014009824953973293,0.0024714134633541107,-0.002475142013281584
1761478212307088100,6.784088134765625,0.018991267308592796,-0.0008277104352600873,-0.020926853641867638
1761478212317125000,6.794125,0.027702201157808304,0.008036088198423386,-0.023433420807123184
1761478212327161000,6.8041611328125,0.04325852543115616,0.017470337450504303,-0.014463894069194794
1761478212337197000,6.814197021484375,0.04722610116004944,0.03327273577451706,0.008116249926388264
1761478212347234300,6.824234375,0.04523778706789017,0.03840091824531555,0.01661040261387825
1761478212357270300,6.834270263671875,0.03612072020769119,0.02647688053548336,0.009243032895028591
1761478212367306200,6.84430615234375,0.02761325240135193,0.0018399780383333564,-0.00455640209838748
1761478212377342200,6.85434228515625,0.024033164605498314,-0.02201581932604313,-0.018024539574980736
1761478212387379200,6.864379150390625,0.017348896712064743,-0.0253362488001585,-0.015134744346141815
1761478212397415200,6.874415283203125,0.012376775033771992,-0.01347666047513485,-0.005617139395326376
1761478212407451100,6.884451171875,0.007634217385202646,-0.00461685610935092,0.010211358778178692
1761478212417488100,6.894488037109375,0.001534779672510922,0.005537244491279125,0.00839721318334341
1761478212427524000,6.904524169921875,-0.008023305796086788,0.006083192303776741,-0.004187021870166063
1761478212437560000,6.91456005859375,-0.012190086767077446,0.003840810852125287,-0.022540995851159096
1761478212447596000,6.924595947265625,-0.019764650613069534,0.0037582528311759233,-0.03208736330270767
1761478212457633300,6.93463330078125,-0.023843547329306602,0.009036904200911522,-0.03569221869111061
1761478212467669200,6.944669189453125,-0.020242687314748764,0.0235854871571064,-0.033609624952077866
1761478212477705200,6.954705322265625,-0.013130716048181057,0.025982597842812538,-0.031867917627096176
1761478212487742200,6.9647421875,-0.0052110073156654835,0.02021818608045578,-0.037882134318351746
1761478212497778200,6.974778076171875,-0.008219313807785511,0.009246495552361012,-0.04771319404244423
1761478212507814100,6.984814208984375,-0.0075934710912406445,0.013249758630990982,-0.05173749476671219
1761478212517851100,6.99485107421875,-0.012672651559114456,0.021792646497488022,-0.04788390174508095
1761478212527887000,7.00488720703125,-0.00875221285969019,0.020988905802369118,-0.04024568945169449
1761478212537923000,7.014923095703125,-0.00640703272074461,0.019760655239224434,-0.038841139525175095
1761478212547959000,7.024958984375,0.00686110183596611,0.01492435485124588,-0.0401223860681057
1761478212557996300,7.034996337890625,0.023691480979323387,-0.0022775353863835335,-0.03946884721517563
1761478212568032300,7.0450322265625,0.020066386088728905,-0.016284430399537086,-0.03080158866941929
1761478212578068200,7.055068115234375,0.010691526345908642,-0.004796619527041912,-0.015003450214862823
1761478212588105200,7.065105224609375,0.002570216776803136,0.0009829727932810783,0.0014881744282320142
1761478212598141200,7.07514111328125,0.0005251753609627485,-0.003308178624138236,0.01471529621630907
1761478212608177200,7.08517724609375,0.00637880340218544,-0.00510021997615695,0.016440758481621742
1761478212618213000,7.095213134765625,0.023562051355838776,-0.024443557485938072,0.012235627509653568
1761478212628250000,7.10525,0.035350002348423004,-0.030640466138720512,0.01829485036432743
1761478212638286000,7.1152861328125,0.03289429843425751,-0.028425516560673714,0.016108395531773567
1761478212648322000,7.125322021484375,0.02599058859050274,-0.023496005684137344,0.013796239160001278
1761478212658359300,7.135359375,0.011233479715883732,-0.022365760058164597,0.007193730678409338
1761478212668395300,7.145395263671875,-0.0006639260682277381,-0.014157364144921303,-0.002061286708340049
1761478212678431200,7.15543115234375,-0.002133192028850317,-0.005152684170752764,-0.012827115133404732
1761478212688467200,7.16546728515625,-0.0029292108956724405,0.003141997382044792,-0.015460981987416744
1761478212698504200,7.175504150390625,-0.003763579297810793,0.011202054098248482,-0.022065088152885437
1761478212708540200,7.1855400390625,0.000648479734081775,0.007555121555924416,-0.034209102392196655
1761478212718576000,7.195576171875,0.010638529434800148,-0.009663812816143036,-0.041008684784173965
1761478212728613000,7.205613037109375,0.010718158446252346,-0.012104067020118237,-0.03440431132912636
1761478212738649000,7.215649169921875,0.005842176266014576,-0.0018104169284924865,-0.02664785645902157
1761478212748685000,7.22568505859375,0.001978195970878005,0.007166832685470581,-0.015296930447220802
1761478212758721300,7.23572119140625,-0.0051987566985189915,0.017434384673833847,-0.009076585993170738
1761478212768758300,7.24575830078125,-0.005893042776733637,0.017402159050107002,-0.008636098355054855
1761478212778794200,7.255794189453125,0.0005036037764512002,0.012806609272956848,-0.017182448878884315
1761478212788830200,7.265830322265625,0.005562810692936182,-0.014247911982238293,-0.026313895359635353
1761478212798867200,7.2758671875,0.010003631934523582,-0.026191921904683113,-0.032330241054296494
1761478212808903200,7.285903076171875,0.00049108691746369,-0.029092637822031975,-0.02598845772445202
1761478212818939100,7.295939208984375,-0.0018610169645398855,-0.034750789403915405,-0.01022973470389843
1761478212828975000,7.30597509765625,-0.010658503510057926,-0.017620272934436798,0.015614911913871765
1761478212839012000,7.31601220703125,-0.008769256994128227,-0.000955009541939944,0.03695482015609741
1761478212849048300,7.32604833984375,-0.016717195510864258,0.00646642129868269,0.044617533683776855
1761478212859084300,7.336084228515625,-0.019111642614006996,0.010743724182248116,0.03777321055531502
1761478212869121300,7.346121337890625,-0.023569241166114807,0.0009920274605974555,0.016393087804317474
1761478212879157200,7.3561572265625,-0.018257567659020424,-0.01835503801703453,-0.010297644883394241
1761478212889193200,7.366193115234375,-0.006649380549788475,-0.02292129397392273,-0.026447586715221405
1761478212899229200,7.376229248046875,0.002883670851588249,-0.011717642657458782,-0.036987580358982086
1761478212909266200,7.38626611328125,0.010193781927227974,-0.0028122980147600174,-0.03448900207877159
1761478212919302100,7.39630224609375,0.01170219574123621,0.006932741031050682,-0.03720729053020477
1761478212929338000,7.406338134765625,0.008225971832871437,0.00506852800026536,-0.03729544207453728
1761478212939375000,7.416375,0.010128800757229328,0.0028037759475409985,-0.03858920559287071
1761478212949411000,7.4264111328125,0.010536263696849346,-0.0031033814884722233,-0.03003193438053131
1761478212959447000,7.436447021484375,0.008577242493629456,-0.000494016392622143,-0.01804185099899769
1761478212969483300,7.446483154296875,0.00752050057053566,0.008117049001157284,0.0001968075957847759
1761478212979520300,7.456520263671875,0.0017390442080795765,0.010864365845918655,0.014999189414083958
1761478212989556200,7.46655615234375,0.005513542331755161,0.007466704584658146,0.02316311001777649
1761478212999592200,7.47659228515625,0.014083062298595905,-0.006669087801128626,0.028539499267935753
1761478213009629200,7.486629150390625,0.024444356560707092,-0.021310880780220032,0.015299061313271523
1761478213019665200,7.4966650390625,0.033477533608675,-0.03356222063302994,0.0029382656794041395
1761478213029701000,7.506701171875,0.034756649285554886,-0.039684295654296875,-0.00929389987140894
1761478213039737300,7.5167373046875,0.03057095780968666,-0.026100575923919678,-0.005230980925261974
1761478213049774000,7.526774169921875,0.019147062674164772,-0.006592388730496168,0.007213437929749489
1761478213059810000,7.53681005859375,0.014451909810304642,0.016626114025712013,0.02292209304869175
1761478213069846300,7.54684619140625,0.008097607642412186,0.023842215538024902,0.029092371463775635
1761478213079883300,7.55688330078125,0.0061508365906775,0.01335788331925869,0.028735773637890816
1761478213089919200,7.566919189453125,0.015595205128192902,-0.006061354652047157,0.015065502375364304
1761478213099955200,7.576955078125,0.03205513954162598,-0.019694609567523003,0.0063002402894198895
1761478213109991400,7.586991455078125,0.04839709401130676,-0.037689320743083954,-0.005138835404068232
1761478213120028200,7.597028076171875,0.052446164190769196,-0.040596429258584976,-0.011303254403173923
1761478213130064100,7.607064208984375,0.043838027864694595,-0.024216922000050545,-0.00996155384927988
1761478213140100400,7.617100341796875,0.029196500778198242,-0.010477940551936626,-0.006508233025670052
1761478213150136300,7.62713623046875,0.01883893460035324,-0.016498548910021782,-0.0010154632618650794
1761478213160173000,7.637173095703125,0.013864682987332344,-0.018190721049904823,0.009768741205334663
1761478213170209300,7.647209228515625,0.01468466967344284,-0.013281983323395252,0.024720527231693268
1761478213180245200,7.657245361328125,0.012921124696731567,-0.007843808270990849,0.03694390133023262
1761478213190282200,7.6672822265625,0.00911733228713274,-0.013255883939564228,0.039630498737096786
1761478213200318500,7.677318359375,-0.0007403587806038558,-0.004459196701645851,0.01794038526713848
1761478213210354400,7.6873544921875,-0.013466274365782738,-0.0068328725174069405,-0.014405304566025734
1761478213220390400,7.697390380859375,-0.01593875326216221,-0.01561304833739996,-0.0501348078250885
1761478213230427400,7.707427490234375,-0.021102089434862137,-0.007193997036665678,-0.0670677199959755
1761478213240463400,7.71746337890625,-0.02130528911948204,-0.0017158746486529708,-0.060627926141023636
1761478213250499300,7.727499267578125,-0.022127673029899597,0.01896277256309986,-0.05650348961353302
1761478213260536300,7.737536376953125,-0.01721307449042797,0.03566478565335274,-0.05883322283625603
1761478213270572300,7.747572265625,-0.008266185410320759,0.027246534824371338,-0.06593906879425049
1761478213280608300,7.757608154296875,0.001386707997880876,0.017524398863315582,-0.06630179286003113
1761478213290644200,7.767644287109375,0.00498064374551177,0.012167982757091522,-0.0632985457777977
1761478213300681500,7.777681396484375,-0.0032799490727484226,0.00561154680326581,-0.05714930593967438
1761478213310717400,7.787717529296875,-0.008591357618570328,0.02113031968474388,-0.03293131664395332
1761478213320753400,7.79775341796875,-0.0158319603651762,0.041904572397470474,-0.008139419369399548
1761478213330790400,7.807790283203125,-0.00794500857591629,0.024638766422867775,0.006671750918030739
1761478213340826400,7.817826416015625,0.016774719581007957,0.010234261862933636,0.009846772067248821
1761478213350862300,7.8278623046875,0.0387045182287693,-0.005138835404068232,0.0018021611031144857
1761478213360898300,7.837898193359375,0.044859882444143295,-0.017840515822172165,-0.008213721215724945
1761478213370935300,7.847935302734375,0.042928293347358704,-0.02570003643631935,-0.0026109630707651377
1761478213380971300,7.85797119140625,0.02653839997947216,-0.022889869287610054,0.010416954755783081
1761478213391007200,7.86800732421875,0.013912886381149292,-0.015297463163733482,0.02015000954270363
1761478213401043200,7.878043212890625,0.013005280867218971,-0.009638778865337372,0.025800172239542007
1761478213411080400,7.88808056640625,0.012052934616804123,-0.0137815922498703,0.023191871121525764
1761478213421116400,7.898116455078125,0.013370133936405182,-0.021992117166519165,0.010869692079722881
1761478213431152400,7.90815234375,-0.006409695837646723,-0.011393802240490913,0.0030602384358644485
1761478213441189400,7.918189453125,-0.014399711973965168,-0.00692022405564785,-0.0026027073618024588
1761478213451225300,7.928225341796875,-0.015737151727080345,-0.004203000571578741,-0.012002067640423775
1761478213461261300,7.93826123046875,-0.013519004918634892,0.008415056392550468,-0.01513128262013197
1761478213471297300,7.94829736328125,-0.015676431357860565,0.0003765709698200226,-0.016410132870078087
1761478213481334300,7.958334228515625,-0.014585600234568119,0.0006253102328628302,-0.010399644263088703
1761478213491370200,7.968370361328125,-0.024759674444794655,0.0014823154779151082,-0.0009627327090129256
1761478213501406200,7.97840625,-0.028657743707299232,-0.005516471806913614,-0.006943926215171814
1761478213511442200,7.988442138671875,-0.03302639350295067,-0.0004814995336346328,-0.0085452850908041
1761478213521479400,7.9984794921875,-0.03310256078839302,0.001683384063653648,-0.010039051994681358
1761478213531515400,8.008515380859375,-0.025907231494784355,0.009913883171975613,-0.0034045851789414883
1761478213541551400,8.01855126953125,-0.012738698162138462,0.03032168745994568,0.006987868342548609
1761478213551587300,8.02858740234375,0.0021052288357168436,0.016327841207385063,0.00902705080807209
1761478213561624300,8.038624267578125,0.019332151859998703,0.012400477193295956,0.00572952488437295
1761478213571660300,8.048660400390625,0.03417980670928955,0.002719087526202202,0.01062041986733675
1761478213581696300,8.0586962890625,0.04362337663769722,-0.004797684494405985,0.016319051384925842
1761478213591733200,8.068733154296876,0.05037342384457588,0.01269795186817646,0.022547120228409767
1761478213601769200,8.078769287109376,0.04868657886981964,0.020616861060261726,0.031024495139718056
1761478213611805200,8.08880517578125,0.03843101114034653,0.020868530496954918,0.042939476668834686
1761478213621841200,8.098841064453126,0.03063221089541912,0.011811385862529278,0.05041390657424927
1761478213631878400,8.10887841796875,0.025710955262184143,0.0028839372098445892,0.04812811315059662
1761478213641914400,8.118914306640624,0.027359718456864357,-0.02708195149898529,0.035703402012586594
1761478213651950300,8.128950439453124,0.03490445390343666,-0.03338725119829178,0.03605121001601219
1761478213661986300,8.138986328125,0.03500831872224808,-0.02822604589164257,0.038419559597969055
1761478213672023300,8.149023193359374,0.033250365406274796,-0.017774470150470734,0.03549407795071602
1761478213682059300,8.159059326171874,0.03148176148533821,-0.005195294506847858,0.02907186560332775
1761478213692095200,8.16909521484375,0.023962324485182762,-0.0010743191232904792,0.013942181132733822
1761478213702132200,8.17913232421875,0.012922722846269608,-0.013229785487055779,-0.005833121482282877
1761478213712168200,8.189168212890625,0.011316570453345776,-0.02882259339094162,-0.009158344939351082
1761478213722204200,8.1992041015625,0.004825381562113762,-0.028545092791318893,-0.0006287723081186414
1761478213732240100,8.209240234375,-0.011658254079520702,-0.021796908229589462,0.013881727121770382
1761478213742277000,8.219277099609375,-0.0232952032238245,0.007725297473371029,0.028730714693665504
1761478213752313300,8.229313232421875,-0.03013872727751732,0.02502439357340336,0.03488794341683388
1761478213762348500,8.2393486328125,-0.033495642244815826,0.03881530463695526,0.03008786030113697
1761478213772384800,8.249384765625,-0.04115063324570656,0.023619841784238815,0.02965989150106907
1761478213782421800,8.259421875,-0.043002061545848846,0.013009008951485157,0.03307512775063515
1761478213792457700,8.269457763671875,-0.035708460956811905,0.027717648074030876,0.024597488343715668
1761478213802493700,8.27949365234375,-0.009044894017279148,0.004957207944244146,-0.010812966153025627
1761478213812530000,8.289530029296875,0.009668606333434582,-0.022950056940317154,-0.05907157436013222
1761478213822566700,8.299566650390625,0.013597301207482815,-0.0030131004750728607,-0.09659072011709213
1761478213832602600,8.3096025390625,-0.011545069515705109,0.036918338388204575,-0.07217299938201904
1761478213842638800,8.319638916015625,-0.030417559668421745,0.11395373195409775,0.006842725910246372
1761478213852675600,8.329675537109376,-0.04614166170358658,0.23327399790287018,0.13363902270793915
1761478213862711600,8.339711669921876,0.026258235797286034,0.18407343327999115,-0.054840877652168274
1761478213872747800,8.349747802734376,0.024899490177631378,0.12110139429569244,-0.14472335577011108
1761478213882783700,8.35978369140625,0.03856230527162552,0.0037835529074072838,-0.10630033910274506
1761478213892820700,8.36982080078125,0.027724038809537888,0.011799667961895466,-0.0624612458050251
1761478213902856700,8.379856689453124,0.0121852932497859,0.07874967157840729,-0.02280092053115368
1761478213912893000,8.389892822265624,0.029079854488372803,0.03858121484518051,-0.04053464159369469
1761478213922929000,8.399928955078124,0.06223354861140251,-0.10609874129295349,-0.07860878854990005
1761478213932965600,8.409965576171874,0.10014737397432327,-0.17335766553878784,-0.06214379891753197
1761478213943001900,8.420001953125,0.06392039358615875,-0.08209646493196487,-0.013404222205281258
