time,seconds_elapsed,z,y,x
1761478584836256000,0.075256103515625,-0.9822235107421875,-0.047332763671875,-0.2416839599609375
1761478584846292000,0.0852919921875,-0.951507568359375,-0.0570526123046875,-0.223114013671875
1761478584856328000,0.095327880859375,-0.9369354248046875,-0.0618438720703125,-0.2057647705078125
1761478584866363100,0.105363037109375,-0.953216552734375,-0.0565948486328125,-0.1993255615234375
1761478584876399000,0.115399169921875,-0.982696533203125,-0.0460968017578125,-0.21319580078125
1761478584886435000,0.12543505859375,-0.9923248291015625,-0.054779052734375,-0.2236785888671875
1761478584896471000,0.135470947265625,-0.985015869140625,-0.0685577392578125,-0.23797607421875
1761478584906507000,0.145507080078125,-0.96673583984375,-0.0699005126953125,-0.2578582763671875
1761478584916543000,0.15554296875,-0.951416015625,-0.067230224609375,-0.2642059326171875
1761478584926578000,0.165577880859375,-0.944061279296875,-0.062591552734375,-0.253173828125
1761478584936614100,0.1756142578125,-0.9365386962890625,-0.0571441650390625,-0.242218017578125
1761478584946650000,0.185650146484375,-0.9263916015625,-0.0592498779296875,-0.242095947265625
1761478584956686000,0.19568603515625,-0.9250030517578125,-0.064910888671875,-0.252838134765625
1761478584966722000,0.20572216796875,-0.9477386474609375,-0.063873291015625,-0.272705078125
1761478584976757000,0.215757080078125,-0.988189697265625,-0.060394287109375,-0.2839813232421875
1761478584986793000,0.22579296875,-1.0146331787109375,-0.0551910400390625,-0.2838134765625
1761478584996829000,0.235828857421875,-1.018218994140625,-0.0530853271484375,-0.2779083251953125
1761478585006865200,0.245865234375,-1.0009613037109375,-0.054656982421875,-0.270477294921875
1761478585016901000,0.255901123046875,-0.979156494140625,-0.0592041015625,-0.25909423828125
1761478585026936000,0.26593603515625,-0.968780517578125,-0.060272216796875,-0.2516632080078125
1761478585036972000,0.275971923828125,-0.9638671875,-0.055999755859375,-0.25164794921875
1761478585047008000,0.286008056640625,-0.964752197265625,-0.0608062744140625,-0.2445831298828125
1761478585057044000,0.2960439453125,-0.9766387939453125,-0.0669708251953125,-0.2371978759765625
1761478585067080000,0.306079833984375,-0.9979400634765625,-0.0623931884765625,-0.24517822265625
1761478585077116000,0.316115966796875,-1.0120697021484375,-0.06402587890625,-0.252899169921875
1761478585087151000,0.326151123046875,-1.016265869140625,-0.0709075927734375,-0.251190185546875
1761478585097187000,0.33618701171875,-1.0032806396484375,-0.0694580078125,-0.24822998046875
1761478585107223000,0.34622314453125,-0.979644775390625,-0.0613250732421875,-0.2447509765625
1761478585117259000,0.356259033203125,-0.9588165283203125,-0.065216064453125,-0.2452392578125
1761478585127294000,0.3662939453125,-0.94232177734375,-0.07159423828125,-0.24871826171875
1761478585137329200,0.3763291015625,-0.944488525390625,-0.072174072265625,-0.2558135986328125
1761478585147365000,0.386365234375,-0.95855712890625,-0.0659942626953125,-0.2596282958984375
1761478585157401000,0.396401123046875,-0.9670562744140625,-0.055755615234375,-0.254974365234375
1761478585167437000,0.40643701171875,-0.9727020263671875,-0.0458831787109375,-0.2501220703125
1761478585177473000,0.41647314453125,-0.97271728515625,-0.039947509765625,-0.2481231689453125
1761478585187509000,0.426509033203125,-0.9806671142578125,-0.03350830078125,-0.24932861328125
1761478585197544200,0.436544189453125,-0.9822235107421875,-0.02496337890625,-0.2556304931640625
1761478585207580200,0.446580078125,-0.986236572265625,-0.0237884521484375,-0.265350341796875
1761478585217616100,0.4566162109375,-0.9890899658203125,-0.0275115966796875,-0.267578125
1761478585227652000,0.466652099609375,-0.985076904296875,-0.0272979736328125,-0.2682647705078125
1761478585237688000,0.47668798828125,-0.985137939453125,-0.026611328125,-0.264495849609375
1761478585247723000,0.486722900390625,-0.997955322265625,-0.02984619140625,-0.25494384765625
1761478585257759000,0.496759033203125,-1.0098114013671875,-0.026611328125,-0.253204345703125
1761478585267795200,0.506795166015625,-1.0175323486328125,-0.016693115234375,-0.2587738037109375
1761478585277831200,0.5168310546875,-1.01190185546875,-0.0172119140625,-0.2712860107421875
1761478585287867100,0.5268671875,-1.0033416748046875,-0.0247650146484375,-0.2882843017578125
1761478585297903000,0.536903076171875,-0.9860382080078125,-0.0330047607421875,-0.300811767578125
1761478585307938000,0.54693798828125,-0.9700775146484375,-0.04522705078125,-0.3104705810546875
1761478585317974000,0.55697412109375,-0.9583282470703125,-0.0549163818359375,-0.313201904296875
1761478585328010000,0.567010009765625,-0.9651336669921875,-0.055206298828125,-0.308441162109375
1761478585338046000,0.5770458984375,-0.9806671142578125,-0.05206298828125,-0.30517578125
1761478585348082200,0.587082275390625,-0.990203857421875,-0.0506744384765625,-0.3073883056640625
1761478585358118100,0.5971181640625,-0.994049072265625,-0.0481719970703125,-0.3006744384765625
1761478585368153000,0.607153076171875,-0.989654541015625,-0.05303955078125,-0.2831878662109375
1761478585378189000,0.61718896484375,-0.9798736572265625,-0.066314697265625,-0.278289794921875
1761478585388225000,0.62722509765625,-0.98406982421875,-0.075592041015625,-0.287994384765625
1761478585398261000,0.637260986328125,-0.970550537109375,-0.088775634765625,-0.3094635009765625
1761478585408297000,0.647296875,-0.9591217041015625,-0.0993804931640625,-0.322906494140625
1761478585418332200,0.657332275390625,-0.9564666748046875,-0.1093597412109375,-0.3199005126953125
1761478585428368100,0.6673681640625,-0.9570465087890625,-0.11578369140625,-0.3100433349609375
1761478585438404000,0.677404052734375,-0.9672088623046875,-0.113739013671875,-0.299560546875
1761478585448440000,0.687440185546875,-0.9859161376953125,-0.1080169677734375,-0.280548095703125
1761478585458476000,0.69747607421875,-1.007232666015625,-0.1002655029296875,-0.2626190185546875
1761478585468512000,0.707511962890625,-1.023773193359375,-0.09228515625,-0.2534027099609375
1761478585478547200,0.717547119140625,-1.0284881591796875,-0.0818328857421875,-0.2420654296875
1761478585488583200,0.727583251953125,-1.0224609375,-0.0744171142578125,-0.2281036376953125
1761478585498619100,0.737619140625,-1.014373779296875,-0.073394775390625,-0.224884033203125
1761478585508655000,0.747655029296875,-1.00146484375,-0.076629638671875,-0.2367706298828125
1761478585518691000,0.757691162109375,-0.98895263671875,-0.07373046875,-0.256683349609375
1761478585528726000,0.76772607421875,-0.9750518798828125,-0.0725860595703125,-0.2701568603515625
1761478585538762000,0.777761962890625,-0.96929931640625,-0.0813446044921875,-0.2777099609375
1761478585548798200,0.787798095703125,-0.962615966796875,-0.0877838134765625,-0.28582763671875
1761478585558834200,0.797834228515625,-0.9551849365234375,-0.0835418701171875,-0.289764404296875
1761478585568870100,0.8078701171875,-0.954010009765625,-0.08251953125,-0.2901153564453125
1761478585578906000,0.817906005859375,-0.9540863037109375,-0.0872955322265625,-0.28778076171875
1761478585588941000,0.827941162109375,-0.9517822265625,-0.0884246826171875,-0.2832794189453125
1761478585598977000,0.83797705078125,-0.950286865234375,-0.0902557373046875,-0.27642822265625
1761478585609013000,0.848012939453125,-0.95068359375,-0.09405517578125,-0.268157958984375
1761478585619049000,0.858049072265625,-0.9471435546875,-0.0964813232421875,-0.266754150390625
1761478585629085200,0.868085205078125,-0.94696044921875,-0.0961456298828125,-0.263153076171875
1761478585639121200,0.87812109375,-0.947509765625,-0.0990447998046875,-0.2523651123046875
1761478585649156000,0.888156005859375,-0.9378662109375,-0.1019287109375,-0.2378387451171875
1761478585659192000,0.898192138671875,-0.9347076416015625,-0.1089324951171875,-0.2277374267578125
1761478585669228000,0.90822802734375,-0.9349822998046875,-0.1261138916015625,-0.237213134765625
1761478585679264000,0.918263916015625,-0.94793701171875,-0.1278533935546875,-0.257720947265625
1761478585689300000,0.928300048828125,-0.9547576904296875,-0.1198883056640625,-0.2805023193359375
1761478585699336000,0.9383359375,-0.9569549560546875,-0.12115478515625,-0.2802886962890625
1761478585709371100,0.94837109375,-0.9534759521484375,-0.1202239990234375,-0.272552490234375
1761478585719407000,0.958406982421875,-0.9539794921875,-0.121917724609375,-0.2683563232421875
1761478585729443000,0.968443115234375,-0.953399658203125,-0.1238861083984375,-0.271209716796875
1761478585739479000,0.97847900390625,-0.945953369140625,-0.13018798828125,-0.275604248046875
1761478585749515000,0.988514892578125,-0.9410400390625,-0.13861083984375,-0.28118896484375
1761478585759551000,0.998551025390625,-0.9473876953125,-0.1394195556640625,-0.29376220703125
1761478585769586200,1.008586181640625,-0.9549407958984375,-0.1362152099609375,-0.3022918701171875
1761478585779622100,1.0186220703125,-0.960601806640625,-0.1349029541015625,-0.2974395751953125
1761478585789658000,1.028658203125,-0.966644287109375,-0.134490966796875,-0.2891387939453125
1761478585799694000,1.038694091796875,-0.97943115234375,-0.1342620849609375,-0.28448486328125
1761478585809730000,1.04872998046875,-0.9854736328125,-0.1307830810546875,-0.2802734375
1761478585819766000,1.05876611328125,-0.984527587890625,-0.129150390625,-0.27520751953125
1761478585829801000,1.068801025390625,-0.9857940673828125,-0.1313018798828125,-0.2686920166015625
1761478585839837200,1.078837158203125,-0.9817962646484375,-0.136260986328125,-0.261505126953125
1761478585849873200,1.088873046875,-0.969696044921875,-0.1397857666015625,-0.2582244873046875
1761478585859909000,1.0989091796875,-0.951995849609375,-0.1438751220703125,-0.2545166015625
1761478585869945000,1.108945068359375,-0.934967041015625,-0.1515045166015625,-0.24658203125
1761478585879981000,1.11898095703125,-0.92608642578125,-0.153717041015625,-0.2365570068359375
1761478585890016000,1.12901611328125,-0.9242706298828125,-0.14642333984375,-0.2320556640625
1761478585900052000,1.139052001953125,-0.9257659912109375,-0.1401214599609375,-0.233184814453125
1761478585910088000,1.149087890625,-0.926727294921875,-0.144805908203125,-0.2400970458984375
1761478585920124200,1.159124267578125,-0.928802490234375,-0.1519775390625,-0.2528839111328125
1761478585930160000,1.16916015625,-0.9297637939453125,-0.1607208251953125,-0.2653656005859375
1761478585940196000,1.179196044921875,-0.938140869140625,-0.1634979248046875,-0.2778472900390625
1761478585950231000,1.18923095703125,-0.9539794921875,-0.1619415283203125,-0.28204345703125
1761478585960267000,1.19926708984375,-0.97601318359375,-0.15740966796875,-0.2740478515625
1761478585970303000,1.209302978515625,-0.9903411865234375,-0.147674560546875,-0.2611846923828125
1761478585980339000,1.2193388671875,-0.9961700439453125,-0.1409759521484375,-0.2519683837890625
1761478585990375200,1.229375244140625,-0.9983673095703125,-0.1449432373046875,-0.252410888671875
1761478586000411100,1.2394111328125,-0.9893035888671875,-0.155792236328125,-0.262939453125
1761478586010446000,1.249446044921875,-0.974090576171875,-0.168060302734375,-0.2767181396484375
1761478586020482000,1.25948193359375,-0.9666290283203125,-0.174102783203125,-0.2831878662109375
1761478586030518000,1.26951806640625,-0.9676361083984375,-0.1749114990234375,-0.2897186279296875
1761478586040554000,1.279553955078125,-0.9701995849609375,-0.17706298828125,-0.296234130859375
1761478586050590000,1.28958984375,-0.98687744140625,-0.1794586181640625,-0.29913330078125
1761478586060626000,1.2996259765625,-0.99456787109375,-0.1823883056640625,-0.3070526123046875
1761478586070661000,1.3096611328125,-0.994537353515625,-0.18328857421875,-0.316650390625
1761478586080697000,1.319697021484375,-0.985107421875,-0.180694580078125,-0.3258514404296875
1761478586090733000,1.329733154296875,-0.9592132568359375,-0.1748504638671875,-0.3256072998046875
1761478586100769000,1.33976904296875,-0.9250946044921875,-0.1574859619140625,-0.2967376708984375
1761478586110805000,1.349804931640625,-0.8994598388671875,-0.1229705810546875,-0.2431488037109375
1761478586120841000,1.359841064453125,-0.8909759521484375,-0.1011505126953125,-0.18865966796875
1761478586130876400,1.36987646484375,-0.9030609130859375,-0.091156005859375,-0.164093017578125
1761478586140912600,1.37991259765625,-0.9452056884765625,-0.075042724609375,-0.1815032958984375
1761478586150948600,1.389948486328125,-1.0049591064453125,-0.0611572265625,-0.220977783203125
1761478586160984600,1.399984619140625,-1.0728302001953125,-0.05621337890625,-0.277587890625
1761478586171020500,1.4100205078125,-1.1168975830078125,-0.064666748046875,-0.3263092041015625
1761478586181056500,1.420056396484375,-1.148529052734375,-0.0575103759765625,-0.3486785888671875
1761478586191091500,1.430091552734375,-1.1650848388671875,-0.0377197265625,-0.3385162353515625
1761478586201127400,1.44012744140625,-1.1651153564453125,-0.0220947265625,-0.316009521484375
1761478586211163600,1.45016357421875,-1.1334075927734375,-0.0152740478515625,-0.3045654296875
1761478586221199600,1.46019970703125,-1.0701751708984375,-0.014923095703125,-0.2969818115234375
1761478586231235600,1.470235595703125,-0.9977569580078125,-0.0349884033203125,-0.293060302734375
1761478586241271600,1.480271484375,-0.9315185546875,-0.0630340576171875,-0.300567626953125
1761478586251306500,1.490306396484375,-0.8868408203125,-0.0781097412109375,-0.3079376220703125
1761478586261342500,1.500342529296875,-0.859832763671875,-0.0869293212890625,-0.3064422607421875
1761478586271378400,1.51037841796875,-0.8441009521484375,-0.0862579345703125,-0.289794921875
1761478586281414400,1.520414306640625,-0.8413848876953125,-0.0707244873046875,-0.2662506103515625
1761478586291450600,1.53045068359375,-0.850067138671875,-0.0540008544921875,-0.24200439453125
1761478586301486600,1.540486572265625,-0.860595703125,-0.042633056640625,-0.2243804931640625
1761478586311521500,1.550521484375,-0.8788604736328125,-0.03106689453125,-0.2161102294921875
1761478586321557500,1.5605576171875,-0.914459228515625,-0.031646728515625,-0.205322265625
1761478586331593500,1.570593505859375,-0.9517364501953125,-0.038787841796875,-0.192718505859375
1761478586341629400,1.58062939453125,-0.9852447509765625,-0.0392303466796875,-0.1969451904296875
1761478586351665400,1.59066552734375,-1.0173492431640625,-0.04083251953125,-0.2089385986328125
1761478586361701400,1.600701416015625,-1.042083740234375,-0.0420074462890625,-0.2248382568359375
1761478586371737600,1.610737548828125,-1.0516357421875,-0.032257080078125,-0.233001708984375
1761478586381772500,1.6207724609375,-1.057220458984375,-0.042083740234375,-0.2511749267578125
1761478586391808500,1.63080859375,-1.053558349609375,-0.05426025390625,-0.277069091796875
1761478586401844500,1.640844482421875,-1.0369720458984375,-0.048614501953125,-0.30035400390625
1761478586411880400,1.65088037109375,-1.020751953125,-0.0266265869140625,-0.296875
1761478586421916400,1.66091650390625,-1.017120361328125,-0.00811767578125,-0.2670745849609375
1761478586431952400,1.670952392578125,-1.0226898193359375,0.0049591064453125,-0.23260498046875
1761478586441987600,1.680987548828125,-1.0287017822265625,0.0117645263671875,-0.2017822265625
1761478586452023600,1.6910234375,-1.0192718505859375,0.009979248046875,-0.1725616455078125
1761478586462059500,1.7010595703125,-0.9956207275390625,0.0060577392578125,-0.169952392578125
1761478586472095500,1.711095458984375,-0.9770355224609375,-0.0089569091796875,-0.20458984375
1761478586482131500,1.72113134765625,-0.9568939208984375,-0.0184478759765625,-0.2356109619140625
1761478586492167400,1.73116748046875,-0.93206787109375,-0.0210113525390625,-0.256805419921875
1761478586502202600,1.74120263671875,-0.9160614013671875,-0.014190673828125,-0.2620086669921875
1761478586512238600,1.751238525390625,-0.916046142578125,-0.00885009765625,-0.24896240234375
1761478586522274600,1.761274658203125,-0.930267333984375,-0.0057220458984375,-0.2361297607421875
1761478586532310500,1.771310546875,-0.9508056640625,0.0027313232421875,-0.2362060546875
1761478586542346500,1.781346435546875,-0.968841552734375,0.0048675537109375,-0.2352294921875
1761478586552382500,1.791382568359375,-0.9817962646484375,-0.0012359619140625,-0.2281341552734375
1761478586562417400,1.80141748046875,-0.993194580078125,-0.0024566650390625,-0.2258453369140625
1761478586572453400,1.811453369140625,-1.0005035400390625,0.0005035400390625,-0.2199554443359375
1761478586582489600,1.821489501953125,-1.0005035400390625,0.0025634765625,-0.20880126953125
1761478586592525600,1.831525634765625,-1.002227783203125,0.0041656494140625,-0.2032623291015625
1761478586602561500,1.8415615234375,-1.0063934326171875,0.0052947998046875,-0.21197509765625
1761478586612597500,1.851597412109375,-1.001129150390625,0.0023345947265625,-0.2233123779296875
1761478586622632400,1.861632568359375,-0.992828369140625,-0.00787353515625,-0.2215423583984375
1761478586632668400,1.87166845703125,-0.9851226806640625,-0.01910400390625,-0.218658447265625
1761478586642704400,1.881704345703125,-0.986663818359375,-0.024993896484375,-0.225341796875
1761478586652740400,1.891740234375,-0.98944091796875,-0.0278472900390625,-0.23193359375
1761478586662776600,1.901776611328125,-0.9870758056640625,-0.029510498046875,-0.2218475341796875
1761478586672812500,1.9118125,-0.978179931640625,-0.0346527099609375,-0.2020111083984375
1761478586682848500,1.9218486328125,-0.9818267822265625,-0.0287322998046875,-0.1750946044921875
1761478586692883500,1.931883544921875,-0.967498779296875,-0.026641845703125,-0.171905517578125
1761478586702919400,1.94191943359375,-0.9678802490234375,-0.0354156494140625,-0.170562744140625
1761478586712955400,1.951955322265625,-0.96783447265625,-0.0308837890625,-0.168731689453125
1761478586722991400,1.961991455078125,-0.9637298583984375,-0.03143310546875,-0.172149658203125
1761478586733027600,1.972027587890625,-0.963623046875,-0.0388031005859375,-0.1734619140625
1761478586743062500,1.9820625,-0.9696502685546875,-0.045562744140625,-0.181793212890625
1761478586753098500,1.992098388671875,-0.9756011962890625,-0.048553466796875,-0.1883087158203125
1761478586763134500,2.002134521484375,-0.9801177978515625,-0.044830322265625,-0.1883544921875
1761478586773170400,2.01217041015625,-0.9944610595703125,-0.0396881103515625,-0.1873626708984375
1761478586783206400,2.022206298828125,-1.0069580078125,-0.0403594970703125,-0.183013916015625
1761478586793242400,2.032242431640625,-1.0120849609375,-0.0439910888671875,-0.1876983642578125
1761478586803278300,2.0422783203125,-1.0084991455078125,-0.045501708984375,-0.197235107421875
1761478586813313500,2.0523134765625,-1.0024261474609375,-0.049072265625,-0.20086669921875
1761478586823349500,2.062349609375,-1.003173828125,-0.045562744140625,-0.2037353515625
1761478586833385500,2.072385498046875,-1.0069580078125,-0.038909912109375,-0.20343017578125
1761478586843421400,2.08242138671875,-1.006500244140625,-0.0357666015625,-0.202606201171875
1761478586853457400,2.09245751953125,-1.0144195556640625,-0.0352935791015625,-0.2086181640625
1761478586863493400,2.102493408203125,-1.0242462158203125,-0.03521728515625,-0.2160797119140625
1761478586873528600,2.112528564453125,-1.031707763671875,-0.0356292724609375,-0.2223052978515625
1761478586883564500,2.122564453125,-1.02880859375,-0.036285400390625,-0.2281494140625
1761478586893600500,2.1326005859375,-1.0148162841796875,-0.041107177734375,-0.23345947265625
1761478586903636500,2.142636474609375,-0.991668701171875,-0.0506134033203125,-0.241790771484375
1761478586913672400,2.15267236328125,-0.9683685302734375,-0.0531768798828125,-0.2509765625
1761478586923708400,2.16270849609375,-0.9574432373046875,-0.0499267578125,-0.2479400634765625
1761478586933743400,2.172743408203125,-0.9570159912109375,-0.045013427734375,-0.2321014404296875
1761478586943779600,2.182779541015625,-0.9595184326171875,-0.0447235107421875,-0.210113525390625
1761478586953815600,2.192815673828125,-0.97857666015625,-0.047271728515625,-0.1947021484375
1761478586963851500,2.2028515625,-0.9970855712890625,-0.052215576171875,-0.1911773681640625
1761478586973887500,2.212887451171875,-1.0110321044921875,-0.05841064453125,-0.1940155029296875
1761478586983923500,2.22292333984375,-1.015533447265625,-0.0612640380859375,-0.2043914794921875
1761478586993958400,2.23295849609375,-1.013214111328125,-0.0615386962890625,-0.2129058837890625
1761478587003994400,2.242994384765625,-0.999908447265625,-0.06640625,-0.21075439453125
1761478587014030300,2.2530302734375,-0.9897918701171875,-0.0688323974609375,-0.2010650634765625
1761478587024066600,2.263066650390625,-0.9814910888671875,-0.0710906982421875,-0.1909027099609375
1761478587034102500,2.2731025390625,-0.98162841796875,-0.0734710693359375,-0.18902587890625
1761478587044138500,2.283138427734375,-0.98443603515625,-0.078399658203125,-0.1921234130859375
1761478587054174500,2.293174560546875,-0.9879608154296875,-0.0760498046875,-0.19818115234375
1761478587064209400,2.30320947265625,-0.990875244140625,-0.06878662109375,-0.205352783203125
1761478587074245400,2.313245361328125,-0.9921875,-0.065673828125,-0.2089996337890625
1761478587084281300,2.32328125,-0.9947052001953125,-0.0650482177734375,-0.205230712890625
1761478587094317300,2.3333173828125,-1.001068115234375,-0.0611114501953125,-0.20208740234375
1761478587104353500,2.343353515625,-1.0057830810546875,-0.0606536865234375,-0.2033233642578125
1761478587114389500,2.353389404296875,-1.0044708251953125,-0.0623626708984375,-0.206817626953125
1761478587124425500,2.363425537109375,-1.00830078125,-0.0685577392578125,-0.2057037353515625
1761478587134461400,2.37346142578125,-1.0055999755859375,-0.0776824951171875,-0.2076873779296875
1761478587144497400,2.383497314453125,-1.007293701171875,-0.08038330078125,-0.213836669921875
1761478587154533400,2.393533447265625,-1.0114593505859375,-0.0810546875,-0.2110137939453125
1761478587164569300,2.4035693359375,-1.011077880859375,-0.081329345703125,-0.1878662109375
1761478587174605300,2.413605224609375,-1.0061492919921875,-0.086883544921875,-0.1630096435546875
1761478587184640500,2.423640625,-1.00567626953125,-0.0921783447265625,-0.1514434814453125
1761478587194676500,2.433676513671875,-1.0102996826171875,-0.095947265625,-0.1568756103515625
1761478587204712400,2.44371240234375,-1.035247802734375,-0.0942230224609375,-0.162017822265625
1761478587214748400,2.45374853515625,-1.0673980712890625,-0.060333251953125,-0.1341552734375
1761478587224784400,2.463784423828125,-1.0573577880859375,-0.08380126953125,-0.1599578857421875
1761478587234820400,2.4738203125,-1.0504608154296875,-0.1046905517578125,-0.197235107421875
1761478587244855300,2.483855224609375,-1.02764892578125,-0.124359130859375,-0.248077392578125
1761478587254891500,2.4938916015625,-1.0289306640625,-0.13067626953125,-0.260162353515625
1761478587264927500,2.503927490234375,-1.0224609375,-0.104705810546875,-0.228302001953125
1761478587274963500,2.51396337890625,-1.0041351318359375,-0.0790557861328125,-0.1864013671875
1761478587284999400,2.52399951171875,-0.9813079833984375,-0.0760955810546875,-0.153411865234375
1761478587295035400,2.534035400390625,-0.97357177734375,-0.075286865234375,-0.150177001953125
1761478587305070300,2.5440703125,-0.9901580810546875,-0.069580078125,-0.167816162109375
1761478587315106300,2.554106201171875,-1.0175933837890625,-0.069915771484375,-0.1948699951171875
1761478587325142300,2.564142333984375,-1.0417022705078125,-0.0697174072265625,-0.21209716796875
1761478587335178500,2.574178466796875,-1.0596160888671875,-0.0605926513671875,-0.2293243408203125
1761478587345214500,2.58421435546875,-1.07183837890625,-0.0506591796875,-0.245697021484375
1761478587355250400,2.59425048828125,-1.086700439453125,-0.0453948974609375,-0.2656402587890625
1761478587365285400,2.604285400390625,-1.092529296875,-0.039520263671875,-0.2950897216796875
1761478587375321300,2.6143212890625,-1.0796356201171875,-0.0344696044921875,-0.3218994140625
1761478587385357300,2.624357421875,-1.0665740966796875,-0.0308990478515625,-0.331146240234375
1761478587395393300,2.634393310546875,-1.0606536865234375,-0.027099609375,-0.3041839599609375
1761478587405429200,2.64442919921875,-1.060516357421875,-0.0284881591796875,-0.2495269775390625
1761478587415465500,2.654465576171875,-1.0708465576171875,-0.0303955078125,-0.2147979736328125
1761478587425500400,2.66450048828125,-1.0677337646484375,-0.0284271240234375,-0.21588134765625
1761478587435536400,2.674536376953125,-1.0399932861328125,-0.03167724609375,-0.226104736328125
1761478587445572400,2.684572265625,-0.997955322265625,-0.041015625,-0.2276763916015625
1761478587455608300,2.6946083984375,-0.9613800048828125,-0.0514068603515625,-0.22601318359375
1761478587465644300,2.704644287109375,-0.9300537109375,-0.052581787109375,-0.22540283203125
1761478587475680300,2.71468017578125,-0.9045562744140625,-0.052093505859375,-0.2265472412109375
1761478587485715500,2.724715576171875,-0.8939971923828125,-0.0519561767578125,-0.222412109375
1761478587495751400,2.73475146484375,-0.8894500732421875,-0.050323486328125,-0.2160797119140625
1761478587505787400,2.744787353515625,-0.8964385986328125,-0.0487060546875,-0.2108001708984375
1761478587515823400,2.7548232421875,-0.921539306640625,-0.045196533203125,-0.202880859375
1761478587525859300,2.764859375,-0.95062255859375,-0.034423828125,-0.2093048095703125
1761478587535895300,2.774895263671875,-0.977569580078125,-0.0132293701171875,-0.2214508056640625
1761478587545930500,2.784930419921875,-1.00225830078125,0.0034942626953125,-0.227447509765625
1761478587555966500,2.794966552734375,-1.0164794921875,0.01812744140625,-0.2283782958984375
1761478587566002400,2.80500244140625,-1.0079345703125,0.0303497314453125,-0.23504638671875
1761478587576038400,2.815038330078125,-0.9777984619140625,0.03466796875,-0.242218017578125
1761478587586074400,2.825074462890625,-0.9460906982421875,0.03375244140625,-0.2552337646484375
1761478587596110300,2.8351103515625,-0.9213714599609375,0.031829833984375,-0.2830657958984375
1761478587606145300,2.845145263671875,-0.8985443115234375,0.0266265869140625,-0.320343017578125
1761478587616181200,2.85518115234375,-0.8905029296875,0.0177001953125,-0.3556060791015625
1761478587626217500,2.865217529296875,-0.894195556640625,0.0095977783203125,-0.3831787109375
1761478587636253400,2.87525341796875,-0.9043426513671875,0.0034027099609375,-0.3975067138671875
1761478587646289400,2.885289306640625,-0.9126434326171875,0.00726318359375,-0.404266357421875
1761478587656325400,2.895325439453125,-0.92608642578125,0.01141357421875,-0.40948486328125
1761478587666360300,2.9053603515625,-0.936767578125,0.00421142578125,-0.406036376953125
1761478587676396300,2.915396240234375,-0.946990966796875,-0.0013885498046875,-0.3956451416015625
1761478587686432300,2.925432373046875,-0.9378662109375,-0.0083465576171875,-0.385833740234375
1761478587696468500,2.935468505859375,-0.9245452880859375,-0.01861572265625,-0.3774566650390625
1761478587706504400,2.94550439453125,-0.91534423828125,-0.0233306884765625,-0.3721160888671875
1761478587716540400,2.95554052734375,-0.9293212890625,-0.0223236083984375,-0.3645477294921875
1761478587726575400,2.965575439453125,-0.9604644775390625,-0.0194091796875,-0.3333892822265625
1761478587736611300,2.975611328125,-0.98614501953125,-0.01971435546875,-0.3032989501953125
1761478587746647300,2.985647216796875,-0.997100830078125,-0.0266876220703125,-0.2936553955078125
1761478587756683300,2.995683349609375,-0.9987335205078125,-0.045013427734375,-0.3009033203125
1761478587766719200,3.00571923828125,-0.9998626708984375,-0.058441162109375,-0.314666748046875
1761478587776755500,3.01575537109375,-0.986572265625,-0.06646728515625,-0.3263092041015625
1761478587786790400,3.025790283203125,-0.969512939453125,-0.066741943359375,-0.320831298828125
1761478587796826400,3.035826416015625,-0.950347900390625,-0.0724945068359375,-0.3056793212890625
1761478587806862300,3.0458623046875,-0.9343109130859375,-0.079132080078125,-0.298492431640625
1761478587816898300,3.055898193359375,-0.924591064453125,-0.07647705078125,-0.302825927734375
1761478587826934300,3.065934326171875,-0.925933837890625,-0.080322265625,-0.3137969970703125
1761478587836970200,3.07597021484375,-0.93524169921875,-0.0766143798828125,-0.3149566650390625
1761478587847005400,3.08600537109375,-0.9455108642578125,-0.0588226318359375,-0.32183837890625
1761478587857041400,3.09604150390625,-0.948638916015625,-0.0726776123046875,-0.3152008056640625
1761478587867077400,3.106077392578125,-0.955474853515625,-0.078826904296875,-0.3107452392578125
1761478587877113300,3.11611328125,-0.96270751953125,-0.064910888671875,-0.3129730224609375
1761478587887149300,3.1261494140625,-0.9653167724609375,-0.05682373046875,-0.30560302734375
1761478587897185300,3.136185302734375,-0.968902587890625,-0.0570068359375,-0.2955322265625
1761478587907220500,3.146220458984375,-0.9770965576171875,-0.0621490478515625,-0.2889404296875
1761478587917256400,3.15625634765625,-0.978668212890625,-0.0709075927734375,-0.2840728759765625
1761478587927292400,3.16629248046875,-0.9698944091796875,-0.080108642578125,-0.278228759765625
1761478587937328400,3.176328369140625,-0.959442138671875,-0.0854034423828125,-0.2689971923828125
1761478587947364400,3.1863642578125,-0.949920654296875,-0.0897369384765625,-0.257720947265625
1761478587957400300,3.196400390625,-0.934356689453125,-0.0918121337890625,-0.249908447265625
1761478587967435300,3.206435302734375,-0.927337646484375,-0.0915374755859375,-0.2432098388671875
1761478587977471200,3.21647119140625,-0.935089111328125,-0.09442138671875,-0.2419281005859375
1761478587987507500,3.226507568359375,-0.957183837890625,-0.0968780517578125,-0.24774169921875
1761478587997543400,3.23654345703125,-0.981536865234375,-0.09478759765625,-0.2556304931640625
1761478588007579400,3.246579345703125,-0.995513916015625,-0.0972442626953125,-0.2659454345703125
1761478588017615400,3.256615478515625,-0.995208740234375,-0.1000518798828125,-0.2771759033203125
1761478588027650300,3.266650390625,-0.9806060791015625,-0.095733642578125,-0.2913818359375
1761478588037686300,3.276686279296875,-0.963165283203125,-0.0959625244140625,-0.3072662353515625
1761478588047722200,3.28672216796875,-0.948486328125,-0.104736328125,-0.316741943359375
1761478588057758200,3.29675830078125,-0.9423370361328125,-0.115814208984375,-0.3221282958984375
1761478588067794400,3.30679443359375,-0.943267822265625,-0.120849609375,-0.3378753662109375
1761478588077830400,3.316830322265625,-0.9429168701171875,-0.11614990234375,-0.3520355224609375
1761478588087865300,3.326865234375,-0.9515533447265625,-0.11505126953125,-0.3441619873046875
1761478588097901300,3.3369013671875,-0.9572906494140625,-0.125335693359375,-0.32330322265625
1761478588107937300,3.346937255859375,-0.9600830078125,-0.1357269287109375,-0.3102264404296875
1761478588117973200,3.35697314453125,-0.95660400390625,-0.146087646484375,-0.310089111328125
1761478588128008700,3.3670087890625,-0.94708251953125,-0.1571197509765625,-0.309478759765625
1761478588138044700,3.377044677734375,-0.9406890869140625,-0.161773681640625,-0.298583984375
1761478588148079600,3.38707958984375,-0.9328765869140625,-0.163543701171875,-0.2740631103515625
1761478588158115600,3.397115478515625,-0.915618896484375,-0.1640625,-0.23858642578125
1761478588168151600,3.407151611328125,-0.901824951171875,-0.1638946533203125,-0.2042236328125
1761478588178187500,3.4171875,-0.8965301513671875,-0.1639404296875,-0.1829833984375
1761478588188223500,3.427223388671875,-0.8980560302734375,-0.165496826171875,-0.18817138671875
1761478588198259700,3.437259765625,-0.90008544921875,-0.1818389892578125,-0.1971282958984375
1761478588208294700,3.447294677734375,-0.9108123779296875,-0.18951416015625,-0.2120361328125
1761478588218330600,3.45733056640625,-0.93572998046875,-0.177398681640625,-0.234222412109375
1761478588228366600,3.46736669921875,-0.9550018310546875,-0.163787841796875,-0.254302978515625
1761478588238402600,3.477402587890625,-0.9725341796875,-0.1576385498046875,-0.2682647705078125
1761478588248438500,3.4874384765625,-0.981689453125,-0.1597137451171875,-0.274627685546875
1761478588258474500,3.497474609375,-0.9869384765625,-0.168701171875,-0.27203369140625
1761478588268509700,3.507509765625,-0.988677978515625,-0.1750946044921875,-0.2772369384765625
1761478588278545700,3.517545654296875,-0.99200439453125,-0.171722412109375,-0.2936859130859375
1761478588288581600,3.52758154296875,-0.9960784912109375,-0.17108154296875,-0.3093719482421875
1761478588298617600,3.53761767578125,-0.9931488037109375,-0.1702117919921875,-0.3210906982421875
1761478588308653600,3.547653564453125,-0.9807281494140625,-0.1627655029296875,-0.330841064453125
1761478588318688500,3.5576884765625,-0.9707183837890625,-0.1548004150390625,-0.341033935546875
1761478588328724700,3.567724853515625,-0.9727783203125,-0.153564453125,-0.3503875732421875
1761478588338760700,3.5777607421875,-0.9781646728515625,-0.1431427001953125,-0.3544921875
1761478588348796700,3.587796630859375,-0.9744110107421875,-0.110443115234375,-0.3312835693359375
1761478588358832600,3.59783251953125,-0.96173095703125,-0.06829833984375,-0.2836151123046875
1761478588368868600,3.60786865234375,-0.951171875,-0.0466766357421875,-0.2520751953125
1761478588378903600,3.617903564453125,-0.9708251953125,-0.0521087646484375,-0.252899169921875
1761478588388939500,3.627939453125,-1.0213775634765625,-0.0321044921875,-0.2944488525390625
1761478588398975500,3.6379755859375,-1.0841217041015625,-0.00787353515625,-0.3387451171875
1761478588409011700,3.64801171875,-1.1150054931640625,-0.0048980712890625,-0.3675384521484375
1761478588419047700,3.658047607421875,-1.113525390625,0.0036773681640625,-0.37890625
1761478588429083600,3.668083740234375,-1.116058349609375,0.010040283203125,-0.383026123046875
1761478588439118600,3.67811865234375,-1.14263916015625,0.0091400146484375,-0.3739166259765625
1761478588449154600,3.688154541015625,-1.11138916015625,0.00433349609375,-0.336212158203125
1761478588459190500,3.6981904296875,-1.0656280517578125,0.0111846923828125,-0.297943115234375
1761478588469226500,3.7082265625,-1.0168304443359375,0.00225830078125,-0.2620849609375
1761478588479262500,3.718262451171875,-0.973297119140625,-0.0134429931640625,-0.232421875
1761478588489298700,3.728298583984375,-0.9447174072265625,-0.025115966796875,-0.22479248046875
1761478588499333600,3.738333740234375,-0.91448974609375,-0.0450592041015625,-0.2404632568359375
1761478588509369600,3.74836962890625,-0.9013671875,-0.0631561279296875,-0.27044677734375
1761478588519405600,3.758405517578125,-0.905975341796875,-0.070556640625,-0.3010101318359375
1761478588529441500,3.768441650390625,-0.9215087890625,-0.0629119873046875,-0.316192626953125
1761478588539477500,3.7784775390625,-0.9535369873046875,-0.0369873046875,-0.29266357421875
1761478588549513500,3.788513427734375,-0.9839630126953125,-0.018218994140625,-0.2363433837890625
1761478588559548700,3.798548583984375,-0.9998016357421875,0.0009613037109375,-0.1828460693359375
1761478588569584600,3.808584716796875,-1.00225830078125,0.0218505859375,-0.1470794677734375
1761478588579620600,3.81862060546875,-0.992889404296875,0.0331573486328125,-0.127410888671875
1761478588589656600,3.828656494140625,-0.977996826171875,0.0296173095703125,-0.12744140625
1761478588599692500,3.838692626953125,-0.9645843505859375,0.0077056884765625,-0.144378662109375
1761478588609728500,3.848728515625,-0.9535369873046875,-0.006866455078125,-0.1739501953125
1761478588619763700,3.858763671875,-0.953826904296875,-0.00543212890625,-0.209930419921875
1761478588629799700,3.868799560546875,-0.9639892578125,-0.001220703125,-0.236785888671875
1761478588639835600,3.878835693359375,-0.982025146484375,-0.0013275146484375,-0.249847412109375
1761478588649871600,3.88887158203125,-0.9987640380859375,0.000030517578125,-0.2529144287109375
1761478588659907600,3.898907470703125,-1.0181732177734375,0.010986328125,-0.2547607421875
1761478588669942500,3.908942626953125,-1.027984619140625,0.018890380859375,-0.25299072265625
1761478588679978500,3.918978515625,-1.0301971435546875,0.027862548828125,-0.240203857421875
1761478588690014700,3.9290146484375,-1.01708984375,0.0409088134765625,-0.2170257568359375
1761478588700050700,3.93905078125,-0.99407958984375,0.053131103515625,-0.187713623046875
1761478588710086700,3.949086669921875,-0.97613525390625,0.0575408935546875,-0.1693115234375
1761478588720122600,3.95912255859375,-0.964691162109375,0.0581512451171875,-0.164825439453125
1761478588730157600,3.969157470703125,-0.96099853515625,0.0526580810546875,-0.170989990234375
1761478588740193500,3.979193603515625,-0.9610748291015625,0.045806884765625,-0.182403564453125
1761478588750229500,3.9892294921875,-0.966827392578125,0.0413665771484375,-0.19287109375
1761478588760265500,3.999265380859375,-0.9725341796875,0.0365447998046875,-0.1983642578125
1761478588770301700,4.0093017578125,-0.97052001953125,0.032684326171875,-0.2026824951171875
1761478588780335600,4.019335693359375,-0.963165283203125,0.03045654296875,-0.2104644775390625
1761478588790371600,4.02937158203125,-0.955230712890625,0.0221099853515625,-0.2192535400390625
1761478588800407600,4.039407470703125,-0.9520721435546875,0.0086669921875,-0.2339935302734375
1761478588810443500,4.049443603515625,-0.961395263671875,-0.00372314453125,-0.2462310791015625
1761478588820478700,4.059478759765625,-0.9805145263671875,-0.0073394775390625,-0.2519073486328125
1761478588830514700,4.0695146484375,-1.0040283203125,-0.005126953125,-0.2568359375
1761478588840550700,4.079550537109375,-1.025543212890625,0.000335693359375,-0.25164794921875
1761478588850586600,4.089586669921875,-1.0420074462890625,0.0093841552734375,-0.2391204833984375
1761478588860622600,4.09962255859375,-1.0434112548828125,0.0167694091796875,-0.22247314453125
1761478588870658600,4.109658447265625,-1.0211029052734375,0.013427734375,-0.19677734375
1761478588880693800,4.11969384765625,-0.9935150146484375,0.0068511962890625,-0.1690216064453125
1761478588890729700,4.129729736328125,-0.9626007080078125,0.0110931396484375,-0.143646240234375
1761478588900765700,4.139765625,-0.9345855712890625,0.0058746337890625,-0.144500732421875
1761478588910801700,4.1498017578125,-0.918060302734375,-0.01025390625,-0.15838623046875
1761478588920837600,4.159837646484375,-0.9165802001953125,-0.026092529296875,-0.184783935546875
1761478588930873600,4.16987353515625,-0.9335174560546875,-0.0297698974609375,-0.2119903564453125
1761478588940908500,4.179908447265625,-0.9543304443359375,-0.0343780517578125,-0.2273712158203125
1761478588950944800,4.18994482421875,-0.9736175537109375,-0.042572021484375,-0.2272491455078125
1761478588960980700,4.199980712890625,-0.993377685546875,-0.0413665771484375,-0.201812744140625
1761478588971016700,4.2100166015625,-1.0018768310546875,-0.0234832763671875,-0.18267822265625
1761478588981052700,4.220052734375,-1.0046539306640625,-0.0114898681640625,-0.179962158203125
1761478588991087600,4.230087646484375,-1.01513671875,-0.0151214599609375,-0.17791748046875
1761478589001123600,4.24012353515625,-1.0209503173828125,-0.0217437744140625,-0.17974853515625
1761478589011159600,4.25015966796875,-1.026275634765625,-0.02691650390625,-0.1833343505859375
1761478589021195800,4.26019580078125,-1.033905029296875,-0.037841796875,-0.1897735595703125
1761478589031231700,4.270231689453125,-1.0378265380859375,-0.043548583984375,-0.197235107421875
1761478589041267700,4.280267822265625,-1.0354461669921875,-0.0401611328125,-0.2028045654296875
1761478589051302700,4.290302734375,-1.03192138671875,-0.0361328125,-0.19915771484375
1761478589061338600,4.300338623046875,-1.0246429443359375,-0.0327301025390625,-0.1869049072265625
1761478589071374600,4.31037451171875,-1.014984130859375,-0.030120849609375,-0.1746368408203125
1761478589081410600,4.32041064453125,-1.0054473876953125,-0.0253143310546875,-0.1654052734375
1761478589091446500,4.330446533203125,-0.9903564453125,-0.023834228515625,-0.1614990234375
1761478589101481700,4.340481689453125,-0.9804229736328125,-0.0287628173828125,-0.168243408203125
1761478589111517700,4.350517578125,-0.9700927734375,-0.0379180908203125,-0.1865692138671875
1761478589121553700,4.3605537109375,-0.9608306884765625,-0.04608154296875,-0.2024383544921875
1761478589131589600,4.370589599609375,-0.9634857177734375,-0.0561981201171875,-0.213287353515625
1761478589141625600,4.38062548828125,-0.97418212890625,-0.0579986572265625,-0.2196502685546875
1761478589151661600,4.39066162109375,-0.989715576171875,-0.055877685546875,-0.21527099609375
1761478589161696800,4.40069677734375,-0.9989013671875,-0.0516510009765625,-0.2057342529296875
1761478589171732700,4.410732666015625,-0.99688720703125,-0.0471954345703125,-0.2023773193359375
1761478589181768700,4.420768798828125,-0.9879302978515625,-0.044342041015625,-0.19384765625
1761478589191804700,4.4308046875,-0.99114990234375,-0.045135498046875,-0.1840057373046875
1761478589201840600,4.440840576171875,-0.98919677734375,-0.0483245849609375,-0.179107666015625
1761478589211876600,4.450876708984375,-0.990081787109375,-0.053680419921875,-0.178955078125
1761478589221911600,4.46091162109375,-0.992767333984375,-0.05694580078125,-0.1837615966796875
1761478589231947800,4.47094775390625,-1.00067138671875,-0.05865478515625,-0.1864776611328125
1761478589241983700,4.480983642578125,-1.010223388671875,-0.0605621337890625,-0.188690185546875
1761478589252019700,4.491019775390625,-1.013946533203125,-0.058013916015625,-0.1880035400390625
1761478589262055700,4.5010556640625,-1.01904296875,-0.053466796875,-0.18780517578125
1761478589272091600,4.511091552734375,-1.0219268798828125,-0.0545501708984375,-0.1941375732421875
1761478589282126600,4.521126708984375,-1.018951416015625,-0.0544891357421875,-0.1962890625
1761478589292162600,4.53116259765625,-1.0164947509765625,-0.05450439453125,-0.1915740966796875
1761478589302198500,4.541198486328125,-1.010009765625,-0.062103271484375,-0.1817626953125
1761478589312234800,4.55123486328125,-1.0034332275390625,-0.0648193359375,-0.1767425537109375
1761478589322270700,4.561270751953125,-1.0010986328125,-0.060577392578125,-0.175933837890625
1761478589332305700,4.5713056640625,-0.9979705810546875,-0.062255859375,-0.1787109375
1761478589342341600,4.581341552734375,-0.987701416015625,-0.073760986328125,-0.175994873046875
1761478589352377600,4.591377685546875,-0.9849090576171875,-0.080352783203125,-0.1753387451171875
1761478589362413600,4.60141357421875,-0.9958648681640625,-0.0814056396484375,-0.1793975830078125
1761478589372449500,4.611449462890625,-1.017425537109375,-0.0773162841796875,-0.189544677734375
1761478589382485500,4.621485595703125,-1.03826904296875,-0.067901611328125,-0.1961517333984375
1761478589392521700,4.631521728515625,-1.05157470703125,-0.0690765380859375,-0.1972198486328125
1761478589402557700,4.6415576171875,-1.052825927734375,-0.0748443603515625,-0.18328857421875
1761478589412594000,4.651593994140625,-1.0446014404296875,-0.0828857421875,-0.1651763916015625
1761478589422628600,4.661628662109375,-1.0303955078125,-0.0891265869140625,-0.1556854248046875
1761478589432664600,4.67166455078125,-1.0162353515625,-0.0931549072265625,-0.1502838134765625
1761478589442700500,4.681700439453125,-1.002960205078125,-0.0953216552734375,-0.15093994140625
1761478589452736500,4.691736572265625,-1.0003662109375,-0.0972442626953125,-0.1540374755859375
1761478589462772500,4.7017724609375,-1.00579833984375,-0.098388671875,-0.157379150390625
1761478589472809000,4.71180908203125,-1.021820068359375,-0.099151611328125,-0.1654510498046875
1761478589482843600,4.72184375,-1.0330810546875,-0.1008148193359375,-0.1708221435546875
1761478589492879600,4.731879638671875,-1.0306549072265625,-0.1013946533203125,-0.1673736572265625
1761478589502915600,4.74191552734375,-1.0118255615234375,-0.094940185546875,-0.160888671875
1761478589512951600,4.75195166015625,-0.9773712158203125,-0.0896148681640625,-0.152557373046875
1761478589522987800,4.76198779296875,-0.952056884765625,-0.086273193359375,-0.1352081298828125
1761478589533023700,4.772023681640625,-0.95977783203125,-0.0674896240234375,-0.0951080322265625
1761478589543058700,4.78205859375,-0.959869384765625,-0.0914764404296875,-0.1109161376953125
1761478589553094700,4.7920947265625,-0.9948883056640625,-0.122528076171875,-0.1530914306640625
1761478589563130600,4.802130615234375,-1.065155029296875,-0.0905914306640625,-0.198699951171875
1761478589573166600,4.81216650390625,-1.1244049072265625,-0.0636749267578125,-0.237030029296875
1761478589583202800,4.822202880859375,-1.1804046630859375,-0.05584716796875,-0.2633056640625
1761478589593238800,4.83223876953125,-1.221527099609375,-0.0428009033203125,-0.2922821044921875
1761478589603273700,4.842273681640625,-1.23052978515625,-0.0235137939453125,-0.3064727783203125
1761478589613309700,4.852309814453125,-1.2075042724609375,-0.0172576904296875,-0.307373046875
1761478589623345700,4.862345703125,-1.151275634765625,-0.0220184326171875,-0.3014984130859375
1761478589633382000,4.8723818359375,-1.0780792236328125,-0.03045654296875,-0.29705810546875
1761478589643417900,4.88241796875,-1.003692626953125,-0.037872314453125,-0.2819976806640625
1761478589653452500,4.89245263671875,-0.9471435546875,-0.0440673828125,-0.25628662109375
1761478589663488500,4.902488525390625,-0.9071502685546875,-0.0460357666015625,-0.228729248046875
1761478589673524700,4.912524658203125,-0.88446044921875,-0.0516510009765625,-0.2035064697265625
1761478589683560700,4.922560791015625,-0.872161865234375,-0.0601348876953125,-0.18218994140625
1761478589693597000,4.932596923828125,-0.8604888916015625,-0.06317138671875,-0.176025390625
1761478589703633000,4.9426328125,-0.8536834716796875,-0.065216064453125,-0.189910888671875
1761478589713667600,4.95266748046875,-0.8491363525390625,-0.08013916015625,-0.21051025390625
1761478589723703600,4.96270361328125,-0.8343353271484375,-0.09686279296875,-0.22808837890625
1761478589733739500,4.972739501953125,-0.8231048583984375,-0.0999908447265625,-0.2366180419921875
1761478589743775700,4.982775634765625,-0.8300323486328125,-0.091400146484375,-0.2349700927734375
1761478589753811700,4.992811767578125,-0.8701019287109375,-0.0818634033203125,-0.221832275390625
1761478589763848000,5.002847900390625,-0.925994873046875,-0.0676727294921875,-0.208526611328125
1761478589773882600,5.012882568359375,-0.9838104248046875,-0.042144775390625,-0.2047119140625
1761478589783918600,5.022918701171875,-1.031097412109375,-0.0151519775390625,-0.20343017578125
1761478589793954600,5.03295458984375,-1.06683349609375,-0.0036468505859375,-0.194976806640625
1761478589803990800,5.04299072265625,-1.088134765625,-0.000091552734375,-0.1951141357421875
1761478589814026800,5.05302685546875,-1.0881195068359375,0.0023193359375,-0.21026611328125
1761478589824062700,5.063062744140625,-1.065582275390625,0.0063018798828125,-0.2196502685546875
1761478589834097700,5.07309765625,-1.02117919921875,0.0083465576171875,-0.2205352783203125
1761478589844133600,5.083133544921875,-0.9749908447265625,0.0033721923828125,-0.2317352294921875
1761478589854169900,5.093169921875,-0.9349517822265625,-0.0051116943359375,-0.265045166015625
1761478589864205800,5.103205810546875,-0.909423828125,-0.0136260986328125,-0.3058624267578125
1761478589874241800,5.11324169921875,-0.879547119140625,-0.022796630859375,-0.34478759765625
1761478589884277800,5.12327783203125,-0.8627777099609375,-0.0343475341796875,-0.370361328125
1761478589894312700,5.133312744140625,-0.8646087646484375,-0.0409393310546875,-0.380523681640625
1761478589904348700,5.1433486328125,-0.87060546875,-0.042510986328125,-0.38018798828125
1761478589914385000,5.153385009765625,-0.8883209228515625,-0.0468292236328125,-0.377105712890625
1761478589924420900,5.1634208984375,-0.916534423828125,-0.0545196533203125,-0.3699188232421875
1761478589934456800,5.173456787109375,-0.9392242431640625,-0.0607757568359375,-0.3522491455078125
1761478589944492800,5.183492919921875,-0.9586334228515625,-0.06256103515625,-0.332183837890625
1761478589954527700,5.19352783203125,-0.9726104736328125,-0.0558624267578125,-0.3191070556640625
1761478589964563700,5.203563720703125,-0.9903564453125,-0.0522613525390625,-0.3094024658203125
1761478589974600000,5.213599853515625,-1.021728515625,-0.045867919921875,-0.297882080078125
1761478589984636000,5.223635986328125,-1.0503692626953125,-0.0433807373046875,-0.2771759033203125
1761478589994671900,5.233671875,-1.0625457763671875,-0.05291748046875,-0.251861572265625
1761478590004707800,5.243707763671875,-1.0735321044921875,-0.0591583251953125,-0.2378997802734375
1761478590014742500,5.253742431640625,-1.07025146484375,-0.058074951171875,-0.235076904296875
1761478590024778800,5.26377880859375,-1.0631866455078125,-0.0584564208984375,-0.238250732421875
1761478590034814700,5.273814697265625,-1.04351806640625,-0.058990478515625,-0.2476654052734375
1761478590044851000,5.283850830078125,-1.0189971923828125,-0.0669708251953125,-0.25830078125
1761478590054887000,5.293886962890625,-0.9940338134765625,-0.0761871337890625,-0.27020263671875
1761478590064923000,5.3039228515625,-0.970672607421875,-0.078125,-0.2826080322265625
1761478590074957600,5.31395751953125,-0.9609375,-0.0785369873046875,-0.2805633544921875
1761478590084993800,5.323993896484375,-0.9634552001953125,-0.075927734375,-0.2659149169921875
1761478590095029800,5.33402978515625,-0.973785400390625,-0.0727386474609375,-0.2539215087890625
1761478590105065700,5.344065673828125,-0.9827728271484375,-0.0765533447265625,-0.2505035400390625
1761478590115101700,5.354101806640625,-0.987091064453125,-0.074462890625,-0.2512664794921875
1761478590125138000,5.364137939453125,-0.979400634765625,-0.0684661865234375,-0.2515411376953125
1761478590135173000,5.374173095703125,-0.9611358642578125,-0.069183349609375,-0.2545318603515625
1761478590145209000,5.384208984375,-0.940582275390625,-0.0744171142578125,-0.2576904296875
1761478590155245000,5.3942451171875,-0.92279052734375,-0.08184814453125,-0.262847900390625
1761478590165281000,5.404281005859375,-0.9105987548828125,-0.08929443359375,-0.269012451171875
1761478590175317000,5.41431689453125,-0.9077301025390625,-0.09210205078125,-0.2706298828125
1761478590185353000,5.42435302734375,-0.91900634765625,-0.09228515625,-0.2699737548828125
1761478590195388200,5.43438818359375,-0.934967041015625,-0.089324951171875,-0.271331787109375
1761478590205424000,5.444424072265625,-0.9469757080078125,-0.084991455078125,-0.26849365234375
1761478590215460000,5.454460205078125,-0.9513397216796875,-0.0871124267578125,-0.2606658935546875
1761478590225496000,5.46449609375,-0.948944091796875,-0.0970611572265625,-0.253082275390625
1761478590235532000,5.474531982421875,-0.946868896484375,-0.1098175048828125,-0.249053955078125
1761478590245568000,5.484568115234375,-0.9355316162109375,-0.116363525390625,-0.2514190673828125
1761478590255603200,5.494603271484375,-0.9233245849609375,-0.1147613525390625,-0.2536163330078125
1761478590265639200,5.50463916015625,-0.9150390625,-0.1124420166015625,-0.251129150390625
1761478590275675100,5.514675048828125,-0.913818359375,-0.114288330078125,-0.24554443359375
1761478590285711000,5.524711181640625,-0.9264068603515625,-0.11541748046875,-0.2491455078125
1761478590295747000,5.5347470703125,-0.94549560546875,-0.1115875244140625,-0.260223388671875
1761478590305783000,5.544782958984375,-0.9633331298828125,-0.1131591796875,-0.26666259765625
1761478590315818000,5.55481787109375,-0.9684906005859375,-0.123504638671875,-0.265289306640625
1761478590325854000,5.56485400390625,-0.965545654296875,-0.1267242431640625,-0.258453369140625
1761478590335890200,5.57489013671875,-0.956329345703125,-0.1309814453125,-0.2462615966796875
1761478590345926100,5.584926025390625,-0.955810546875,-0.13970947265625,-0.227935791015625
1761478590355962000,5.594962158203125,-0.9568023681640625,-0.1412353515625,-0.2261962890625
1761478590365998000,5.604998046875,-0.9529571533203125,-0.13641357421875,-0.2417449951171875
1761478590376033000,5.615032958984375,-0.950103759765625,-0.144195556640625,-0.260711669921875
1761478590386069000,5.625069091796875,-0.943328857421875,-0.15777587890625,-0.272857666015625
1761478590396105000,5.63510498046875,-0.9419403076171875,-0.165435791015625,-0.27703857421875
1761478590406141000,5.645140869140625,-0.9484710693359375,-0.177093505859375,-0.27716064453125
1761478590416177200,5.65517724609375,-0.965576171875,-0.18939208984375,-0.28131103515625
1761478590426212000,5.665212158203125,-0.9754791259765625,-0.1942596435546875,-0.291412353515625
1761478590436248000,5.675248046875,-0.9841156005859375,-0.190399169921875,-0.3016204833984375
1761478590446284000,5.685283935546875,-0.9907073974609375,-0.18310546875,-0.314453125
1761478590456320000,5.695320068359375,-0.99609375,-0.1861572265625,-0.3125
1761478590466356000,5.70535595703125,-1.0018310546875,-0.195281982421875,-0.291778564453125
1761478590476392000,5.715391845703125,-1.0009613037109375,-0.201324462890625,-0.2707366943359375
1761478590486427100,5.72542724609375,-1.0046234130859375,-0.2046356201171875,-0.26519775390625
1761478590496463000,5.735463134765625,-1.015350341796875,-0.2024688720703125,-0.2662353515625
1761478590506499000,5.7454990234375,-1.00335693359375,-0.1960601806640625,-0.25115966796875
1761478590516535000,5.75553515625,-0.974700927734375,-0.16748046875,-0.214019775390625
1761478590526571000,5.765571044921875,-0.94903564453125,-0.1177978515625,-0.171600341796875
1761478590536607000,5.77560693359375,-0.9272308349609375,-0.1029205322265625,-0.143646240234375
1761478590546642200,5.78564208984375,-0.919647216796875,-0.1113739013671875,-0.1551361083984375
1761478590556678100,5.79567822265625,-0.9512481689453125,-0.0869293212890625,-0.21405029296875
1761478590566714000,5.805714111328125,-1.0009765625,-0.0541534423828125,-0.276519775390625
1761478590576750000,5.81575,-1.052093505859375,-0.04632568359375,-0.3257293701171875
1761478590586786000,5.8257861328125,-1.1060028076171875,-0.0330963134765625,-0.356353759765625
1761478590596822000,5.835822021484375,-1.166656494140625,0.0056915283203125,-0.3660736083984375
1761478590606857000,5.84585693359375,-1.205474853515625,0.0387420654296875,-0.3528289794921875
1761478590616893000,5.855892822265625,-1.22186279296875,0.0454559326171875,-0.3331756591796875
1761478590626929200,5.86592919921875,-1.2095489501953125,0.0256195068359375,-0.3233642578125
1761478590636965000,5.875965087890625,-1.1735992431640625,0.00244140625,-0.3062591552734375
1761478590647001000,5.8860009765625,-1.1279296875,-0.0023040771484375,-0.29241943359375
1761478590657037000,5.896037109375,-1.0792236328125,-0.0047454833984375,-0.297515869140625
1761478590667072000,5.906072021484375,-1.02691650390625,-0.005096435546875,-0.3135833740234375
1761478590677108000,5.91610791015625,-0.97467041015625,-0.0115966796875,-0.3214874267578125
1761478590687144000,5.92614404296875,-0.921539306640625,-0.0242462158203125,-0.310638427734375
1761478590697180200,5.93618017578125,-0.8728485107421875,-0.0271453857421875,-0.279937744140625
1761478590707216100,5.946216064453125,-0.8389739990234375,-0.03759765625,-0.2467193603515625
1761478590717252000,5.956252197265625,-0.8295135498046875,-0.037109375,-0.2201690673828125
1761478590727287000,5.966287109375,-0.833953857421875,-0.0343475341796875,-0.1940155029296875
1761478590737323000,5.976322998046875,-0.8520965576171875,-0.02862548828125,-0.1702728271484375
1761478590747359000,5.98635888671875,-0.873199462890625,-0.02288818359375,-0.1552276611328125
1761478590757395000,5.99639501953125,-0.8992462158203125,-0.01788330078125,-0.1643524169921875
1761478590767431000,6.006430908203125,-0.9215087890625,-0.0174713134765625,-0.1880950927734375
1761478590777467100,6.016467041015625,-0.94610595703125,-0.0262603759765625,-0.2247467041015625
1761478590787502000,6.026502197265625,-0.97076416015625,-0.029541015625,-0.2537689208984375
1761478590797538000,6.0365380859375,-0.9889984130859375,-0.029296875,-0.272308349609375
1761478590807574000,6.046573974609375,-1.00811767578125,-0.0336761474609375,-0.2840576171875
1761478590817610000,6.05660986328125,-1.0198822021484375,-0.0368804931640625,-0.2987213134765625
1761478590827646000,6.06664599609375,-1.0149078369140625,-0.0307769775390625,-0.319000244140625
1761478590837681200,6.07668115234375,-1.0041351318359375,-0.01953125,-0.32464599609375
1761478590847717000,6.086717041015625,-0.988555908203125,-0.008331298828125,-0.3001708984375
1761478590857753000,6.096753173828125,-0.9805755615234375,0.0064849853515625,-0.258056640625
1761478590867789000,6.1067890625,-0.972808837890625,0.023284912109375,-0.215850830078125
1761478590877825000,6.116824951171875,-0.964752197265625,0.0324859619140625,-0.1899566650390625
1761478590887861000,6.126861083984375,-0.9527587890625,0.0281219482421875,-0.18035888671875
1761478590897896000,6.13689599609375,-0.946929931640625,0.013275146484375,-0.174346923828125
1761478590907932200,6.14693212890625,-0.9432220458984375,-0.005828857421875,-0.18048095703125
1761478590917968100,6.156968017578125,-0.951019287109375,-0.0149993896484375,-0.2080078125
1761478590928004000,6.167004150390625,-0.964019775390625,-0.012237548828125,-0.245025634765625
1761478590938040000,6.1770400390625,-0.98028564453125,-0.01812744140625,-0.2749176025390625
1761478590948076000,6.187075927734375,-0.9856719970703125,-0.0334930419921875,-0.2985382080078125
1761478590958111000,6.197111083984375,-0.9740753173828125,-0.051361083984375,-0.3128204345703125
1761478590968147000,6.20714697265625,-0.95318603515625,-0.061126708984375,-0.313385009765625
1761478590978183000,6.217182861328125,-0.93353271484375,-0.061309814453125,-0.297088623046875
1761478590988219100,6.22721923828125,-0.9314727783203125,-0.0535736083984375,-0.2718048095703125
1761478590998255000,6.237255126953125,-0.9461822509765625,-0.0435791015625,-0.2363739013671875
1761478591008291000,6.247291015625,-0.97076416015625,-0.0452880859375,-0.199493408203125
1761478591018326000,6.257325927734375,-1.0024566650390625,-0.0510406494140625,-0.1800994873046875
1761478591028362000,6.267362060546875,-1.0341796875,-0.0521697998046875,-0.190704345703125
1761478591038398000,6.27739794921875,-1.0461273193359375,-0.05804443359375,-0.22125244140625
1761478591048434000,6.287433837890625,-1.03839111328125,-0.072540283203125,-0.2522430419921875
1761478591058470000,6.297469970703125,-1.013397216796875,-0.078643798828125,-0.2680206298828125
1761478591068505000,6.307505126953125,-0.9850006103515625,-0.0762939453125,-0.262603759765625
1761478591078541000,6.317541015625,-0.9593505859375,-0.0803070068359375,-0.2458038330078125
1761478591088577000,6.327576904296875,-0.931610107421875,-0.0792236328125,-0.21759033203125
1761478591098613000,6.337613037109375,-0.913818359375,-0.0724334716796875,-0.184417724609375
1761478591108649000,6.34764892578125,-0.917083740234375,-0.070037841796875,-0.1671905517578125
1761478591118685000,6.357684814453125,-0.934722900390625,-0.0771942138671875,-0.1735382080078125
1761478591128720100,6.36772021484375,-0.96173095703125,-0.082916259765625,-0.1961212158203125
1761478591138755600,6.377755615234375,-0.992645263671875,-0.0879058837890625,-0.2238311767578125
1761478591148791600,6.38779150390625,-1.0131988525390625,-0.09100341796875,-0.244140625
1761478591158827500,6.39782763671875,-1.021820068359375,-0.0897979736328125,-0.244842529296875
1761478591168863500,6.407863525390625,-1.0179290771484375,-0.0839691162109375,-0.229339599609375
1761478591178899500,6.4178994140625,-1.00775146484375,-0.0772705078125,-0.208892822265625
1761478591188934700,6.4279345703125,-0.9961395263671875,-0.071624755859375,-0.19610595703125
1761478591198970600,6.437970703125,-0.993194580078125,-0.0719146728515625,-0.19122314453125
1761478591209006600,6.448006591796875,-0.994842529296875,-0.076019287109375,-0.1966094970703125
1761478591219042600,6.45804248046875,-0.990631103515625,-0.079864501953125,-0.21051025390625
1761478591229078500,6.46807861328125,-0.98162841796875,-0.08514404296875,-0.23443603515625
1761478591239113500,6.478113525390625,-0.97027587890625,-0.0846405029296875,-0.25634765625
1761478591249149400,6.4881494140625,-0.9553985595703125,-0.0805511474609375,-0.255706787109375
1761478591259185700,6.498185546875,-0.9509429931640625,-0.07366943359375,-0.232421875
1761478591269221600,6.5082216796875,-0.955291748046875,-0.0734405517578125,-0.20721435546875
1761478591279257600,6.518257568359375,-0.975433349609375,-0.072174072265625,-0.2001953125
1761478591289293600,6.52829345703125,-1.0095672607421875,-0.0737762451171875,-0.2191314697265625
1761478591299328500,6.53832861328125,-1.032928466796875,-0.0829620361328125,-0.264007568359375
1761478591309364500,6.548364501953125,-1.0412139892578125,-0.08770751953125,-0.317108154296875
1761478591319400400,6.558400390625,-1.0379791259765625,-0.08935546875,-0.342376708984375
1761478591329436400,6.5684365234375,-1.0344696044921875,-0.090606689453125,-0.3292388916015625
1761478591339472600,6.57847265625,-1.0332489013671875,-0.08807373046875,-0.3043212890625
1761478591349508600,6.588508544921875,-1.0303955078125,-0.083465576171875,-0.2809295654296875
1761478591359543600,6.59854345703125,-1.020294189453125,-0.0842132568359375,-0.2644195556640625
1761478591369579500,6.60857958984375,-1.00445556640625,-0.0874176025390625,-0.25244140625
1761478591379615500,6.618615478515625,-0.9766845703125,-0.095794677734375,-0.2494659423828125
1761478591389651500,6.6286513671875,-0.957672119140625,-0.100250244140625,-0.2538909912109375
1761478591399687400,6.6386875,-0.9488983154296875,-0.1040496826171875,-0.2554779052734375
1761478591409723600,6.6487236328125,-0.9402923583984375,-0.1066436767578125,-0.2532196044921875
1761478591419758600,6.658758544921875,-0.9321441650390625,-0.1055450439453125,-0.2484283447265625
1761478591429794600,6.668794677734375,-0.9210052490234375,-0.1075439453125,-0.2387237548828125
1761478591439830500,6.67883056640625,-0.919525146484375,-0.114410400390625,-0.2324981689453125
1761478591449866500,6.688866455078125,-0.919342041015625,-0.119049072265625,-0.234832763671875
1761478591459902500,6.69890234375,-0.922821044921875,-0.1248931884765625,-0.2429962158203125
1761478591469937700,6.708937744140625,-0.9314422607421875,-0.135650634765625,-0.26104736328125
1761478591479973600,6.7189736328125,-0.94915771484375,-0.1400604248046875,-0.282867431640625
1761478591490009600,6.729009521484375,-0.977813720703125,-0.1395111083984375,-0.29296875
1761478591500045600,6.739045654296875,-1.0060882568359375,-0.135009765625,-0.2919769287109375
1761478591510081500,6.74908154296875,-1.016845703125,-0.1298065185546875,-0.2794342041015625
1761478591520117500,6.759117431640625,-1.0108489990234375,-0.1267852783203125,-0.2606201171875
1761478591530152400,6.76915234375,-0.9999237060546875,-0.12615966796875,-0.2430267333984375
1761478591540188700,6.779188720703125,-0.9951934814453125,-0.12347412109375,-0.235504150390625
1761478591550224600,6.789224609375,-0.994720458984375,-0.1217193603515625,-0.2317047119140625
1761478591560260600,6.799260498046875,-0.9921875,-0.12701416015625,-0.22967529296875
1761478591570296600,6.809296630859375,-0.99090576171875,-0.1363677978515625,-0.2282257080078125
1761478591580331500,6.81933154296875,-0.996490478515625,-0.1389923095703125,-0.239044189453125
1761478591590367500,6.829367431640625,-0.9998016357421875,-0.1374969482421875,-0.2560577392578125
1761478591600403500,6.839403564453125,-0.9965362548828125,-0.140350341796875,-0.258941650390625
1761478591610439400,6.849439453125,-0.9913482666015625,-0.1410980224609375,-0.255279541015625
1761478591620475600,6.8594755859375,-0.9954986572265625,-0.1462554931640625,-0.2619171142578125
1761478591630511600,6.86951171875,-0.9998779296875,-0.1494293212890625,-0.277435302734375
1761478591640546600,6.879546630859375,-0.9949798583984375,-0.1406402587890625,-0.28778076171875
1761478591650582500,6.88958251953125,-0.9737548828125,-0.1288299560546875,-0.284332275390625
1761478591660618500,6.899618408203125,-0.945098876953125,-0.1128082275390625,-0.27032470703125
1761478591670654500,6.909654541015625,-0.9349212646484375,-0.09765625,-0.25335693359375
1761478591680690400,6.9196904296875,-0.956451416015625,-0.0934600830078125,-0.2299652099609375
1761478591690725600,6.9297255859375,-1.0121612548828125,-0.0878448486328125,-0.209228515625
1761478591700761600,6.93976171875,-1.0814971923828125,-0.071685791015625,-0.1965484619140625
1761478591710797600,6.949797607421875,-1.1334991455078125,-0.0565185546875,-0.2021331787109375
1761478591720833500,6.95983349609375,-1.163055419921875,-0.0469818115234375,-0.2353515625
1761478591730869500,6.969869384765625,-1.151123046875,-0.047607421875,-0.294830322265625
1761478591740905500,6.979905517578125,-1.100341796875,-0.050506591796875,-0.356658935546875
1761478591750940700,6.989940673828125,-1.0276947021484375,-0.0529327392578125,-0.394012451171875
1761478591760976600,6.9999765625,-0.962738037109375,-0.0553436279296875,-0.3927764892578125
1761478591771012600,7.0100126953125,-0.9261932373046875,-0.0634918212890625,-0.3501739501953125
1761478591781048600,7.020048583984375,-0.913909912109375,-0.069549560546875,-0.2986907958984375
1761478591791084500,7.03008447265625,-0.927459716796875,-0.0633392333984375,-0.275177001953125
1761478591801120500,7.04012060546875,-0.944091796875,-0.0561981201171875,-0.2688446044921875
1761478591811155500,7.050155517578125,-0.948150634765625,-0.0617218017578125,-0.2593841552734375
1761478591821191400,7.06019140625,-0.933868408203125,-0.0793914794921875,-0.2532196044921875
1761478591831227600,7.0702275390625,-0.90704345703125,-0.0865325927734375,-0.2553253173828125
1761478591841263600,7.080263671875,-0.887176513671875,-0.08807373046875,-0.256927490234375
1761478591851299600,7.090299560546875,-0.873046875,-0.0922698974609375,-0.2527618408203125
1761478591861334500,7.10033447265625,-0.86541748046875,-0.097412109375,-0.2449798583984375
1761478591871370500,7.11037060546875,-0.8717803955078125,-0.1046905517578125,-0.234466552734375
1761478591881406500,7.120406494140625,-0.8964996337890625,-0.10552978515625,-0.2346954345703125
1761478591891442400,7.1304423828125,-0.9384307861328125,-0.09893798828125,-0.2395782470703125
1761478591901478700,7.140478759765625,-0.99371337890625,-0.0867156982421875,-0.2435760498046875
1761478591911514600,7.1505146484375,-1.0467681884765625,-0.0670013427734375,-0.2433013916015625
1761478591921549600,7.160549560546875,-1.0965118408203125,-0.039794921875,-0.2409820556640625
1761478591931585500,7.17058544921875,-1.125762939453125,-0.0165252685546875,-0.234893798828125
1761478591941621500,7.18062158203125,-1.1259307861328125,-0.003265380859375,-0.2282257080078125
1761478591951657500,7.190657470703125,-1.0912933349609375,-0.002593994140625,-0.2188720703125
1761478591961693400,7.200693359375,-1.0390167236328125,-0.0101776123046875,-0.22161865234375
1761478591971728600,7.210728759765625,-0.988250732421875,-0.0163421630859375,-0.2364654541015625
1761478591981764600,7.2207646484375,-0.9469146728515625,-0.01806640625,-0.2550506591796875
1761478591991800600,7.230800537109375,-0.9221649169921875,-0.0206756591796875,-0.26812744140625
1761478592001836500,7.24083642578125,-0.907989501953125,-0.025238037109375,-0.280670166015625
1761478592011872500,7.25087255859375,-0.9073638916015625,-0.0338897705078125,-0.3078460693359375
1761478592021908500,7.260908447265625,-0.9064483642578125,-0.0447540283203125,-0.3464813232421875
1761478592031943700,7.270943603515625,-0.90032958984375,-0.0540008544921875,-0.383148193359375
1761478592041979600,7.280979736328125,-0.897216796875,-0.0587005615234375,-0.4065399169921875
1761478592052015600,7.291015625,-0.90118408203125,-0.0644073486328125,-0.4232635498046875
1761478592062051600,7.301051513671875,-0.9088897705078125,-0.0749053955078125,-0.438385009765625
1761478592072087600,7.311087646484375,-0.917572021484375,-0.0833282470703125,-0.4355010986328125
1761478592082122500,7.32112255859375,-0.92999267578125,-0.08209228515625,-0.4129486083984375
1761478592092158500,7.331158447265625,-0.945159912109375,-0.078704833984375,-0.369781494140625
1761478592102194400,7.3411943359375,-0.9622344970703125,-0.0807342529296875,-0.32708740234375
1761478592112230700,7.351230712890625,-0.978668212890625,-0.0864410400390625,-0.305267333984375
1761478592122266600,7.3612666015625,-0.9985198974609375,-0.0853424072265625,-0.302978515625
1761478592132302000,7.371302001953125,-1.0234222412109375,-0.078643798828125,-0.3016815185546875
1761478592142337000,7.3813369140625,-1.036468505859375,-0.078704833984375,-0.2959442138671875
1761478592152373000,7.391373046875,-1.0322265625,-0.0865631103515625,-0.2949371337890625
1761478592162409000,7.401408935546875,-1.014312744140625,-0.0875701904296875,-0.2989959716796875
1761478592172445200,7.411445068359375,-0.998199462890625,-0.090423583984375,-0.3007049560546875
1761478592182481200,7.421481201171875,-0.9730987548828125,-0.09637451171875,-0.3027496337890625
1761478592192516000,7.43151611328125,-0.9443359375,-0.098876953125,-0.3056793212890625
1761478592202552000,7.441552001953125,-0.9180450439453125,-0.1002349853515625,-0.309234619140625
1761478592212588000,7.451588134765625,-0.90740966796875,-0.09906005859375,-0.3095550537109375
1761478592222624000,7.4616240234375,-0.910064697265625,-0.0926055908203125,-0.3021240234375
1761478592232660000,7.471659912109375,-0.91632080078125,-0.08135986328125,-0.2876434326171875
1761478592242696000,7.481696044921875,-0.93255615234375,-0.0712890625,-0.277069091796875
1761478592252731100,7.491731201171875,-0.95147705078125,-0.06939697265625,-0.279541015625
1761478592262767000,7.50176708984375,-0.957305908203125,-0.07196044921875,-0.300689697265625
1761478592272803000,7.511802978515625,-0.9442901611328125,-0.076416015625,-0.3244476318359375
1761478592282839000,7.521839111328125,-0.9207305908203125,-0.089111328125,-0.335113525390625
1761478592292875000,7.531875,-0.895721435546875,-0.092529296875,-0.3333740234375
1761478592302910200,7.54191015625,-0.88671875,-0.0964508056640625,-0.322509765625
1761478592312946200,7.5519462890625,-0.90155029296875,-0.101470947265625,-0.308380126953125
1761478592322982100,7.561982177734375,-0.92669677734375,-0.0990142822265625,-0.3029937744140625
1761478592333018000,7.57201806640625,-0.9541473388671875,-0.10296630859375,-0.2969512939453125
1761478592343054000,7.58205419921875,-0.9785614013671875,-0.109375,-0.291015625
1761478592353090000,7.592090087890625,-0.9900665283203125,-0.1065216064453125,-0.2872161865234375
1761478592363125000,7.602125,-0.9880523681640625,-0.101806640625,-0.2823486328125
1761478592373161000,7.612160888671875,-0.9728851318359375,-0.104248046875,-0.281494140625
1761478592383197200,7.622197265625,-0.95684814453125,-0.10614013671875,-0.2822418212890625
1761478592393233200,7.632233154296875,-0.9420928955078125,-0.10675048828125,-0.2721710205078125
1761478592403269000,7.64226904296875,-0.91595458984375,-0.1193084716796875,-0.26617431640625
1761478592413304000,7.652303955078125,-0.8983917236328125,-0.1345977783203125,-0.2713775634765625
1761478592423340000,7.662340087890625,-0.916351318359375,-0.14520263671875,-0.2716217041015625
1761478592433376000,7.6723759765625,-0.926300048828125,-0.1546173095703125,-0.2723846435546875
1761478592443412000,7.682411865234375,-0.9435577392578125,-0.15716552734375,-0.2682647705078125
1761478592453448000,7.692447998046875,-0.9693145751953125,-0.1459197998046875,-0.25933837890625
1761478592463484200,7.702484130859375,-0.9878082275390625,-0.138641357421875,-0.2386322021484375
1761478592473519000,7.71251904296875,-1.009796142578125,-0.13531494140625,-0.20806884765625
1761478592483555000,7.72255517578125,-1.01824951171875,-0.131134033203125,-0.1960906982421875
1761478592493591000,7.732591064453125,-1.0148468017578125,-0.130584716796875,-0.2055206298828125
1761478592503627000,7.742626953125,-1.002105712890625,-0.140045166015625,-0.224609375
1761478592513663000,7.7526630859375,-0.9869232177734375,-0.1561126708984375,-0.2443389892578125
1761478592523698200,7.7626982421875,-0.971527099609375,-0.165924072265625,-0.2649383544921875
1761478592533734100,7.772734130859375,-0.9481048583984375,-0.1698760986328125,-0.2789764404296875
1761478592543770000,7.78277001953125,-0.929473876953125,-0.176666259765625,-0.2944183349609375
1761478592553806000,7.79280615234375,-0.9318084716796875,-0.174346923828125,-0.313507080078125
1761478592563842000,7.802842041015625,-0.9497528076171875,-0.1627044677734375,-0.326934814453125
1761478592573876700,7.812876708984375,-0.9758453369140625,-0.1628875732421875,-0.32952880859375
1761478592583913000,7.822912841796875,-0.9958648681640625,-0.1709442138671875,-0.31988525390625
1761478592593949200,7.83294921875,-1.002044677734375,-0.17108154296875,-0.2973480224609375
1761478592603985200,7.842985107421875,-1.004791259765625,-0.1713409423828125,-0.2750396728515625
1761478592614021000,7.853021240234375,-1.008331298828125,-0.1724700927734375,-0.263763427734375
1761478592624057000,7.86305712890625,-0.99658203125,-0.176177978515625,-0.2599029541015625
1761478592634092000,7.873092041015625,-0.96331787109375,-0.1865386962890625,-0.25579833984375
1761478592644128000,7.8831279296875,-0.9256744384765625,-0.198486328125,-0.2494354248046875
1761478592654164000,7.8931640625,-0.905120849609375,-0.208526611328125,-0.246429443359375
1761478592664200200,7.9032001953125,-0.897552490234375,-0.217315673828125,-0.2435455322265625
1761478592674236200,7.913236083984375,-0.9056549072265625,-0.2223968505859375,-0.253326416015625
1761478592684270800,7.923270751953125,-0.92681884765625,-0.2229156494140625,-0.2700042724609375
1761478592694307000,7.93330712890625,-0.9475860595703125,-0.2205963134765625,-0.2874298095703125
1761478592704343000,7.943343017578125,-0.965728759765625,-0.21173095703125,-0.3110809326171875
1761478592714379000,7.95337890625,-0.9735565185546875,-0.1961669921875,-0.331390380859375
1761478592724415000,7.9634150390625,-0.967742919921875,-0.151611328125,-0.313690185546875
1761478592734451000,7.973450927734375,-0.9601898193359375,-0.1029510498046875,-0.2665557861328125
1761478592744486100,7.983486083984375,-0.9437713623046875,-0.0852813720703125,-0.2146759033203125
1761478592754522000,7.993522216796875,-0.9459991455078125,-0.0748291015625,-0.1934814453125
1761478592764558000,8.00355810546875,-0.9769134521484375,-0.05419921875,-0.2220001220703125
1761478592774594000,8.013593994140624,-1.0303497314453125,-0.02667236328125,-0.2760467529296875
1761478592784629000,8.02362890625,-1.1160736083984375,-0.015228271484375,-0.311614990234375
1761478592794665000,8.0336650390625,-1.2393646240234375,0.0059967041015625,-0.3423004150390625
1761478592804701200,8.043701171875,-1.2845001220703125,0.0186920166015625,-0.344696044921875
1761478592814737200,8.053737060546876,-1.259765625,0.0391693115234375,-0.3195648193359375
1761478592824771800,8.063771728515626,-1.2115325927734375,0.0654449462890625,-0.2910614013671875
1761478592834807800,8.073807861328126,-1.203277587890625,0.0711212158203125,-0.288421630859375
1761478592844843800,8.08384375,-1.105499267578125,0.0162353515625,-0.29022216796875
1761478592854880000,8.0938798828125,-0.9888153076171875,-0.0321044921875,-0.3048248291015625
1761478592864916000,8.103916015625,-0.901153564453125,-0.0550537109375,-0.338623046875
1761478592874951000,8.113950927734376,-0.8289031982421875,-0.0743408203125,-0.35333251953125
1761478592884987000,8.12398681640625,-0.796295166015625,-0.087005615234375,-0.3434295654296875
1761478592895022800,8.13402294921875,-0.7990875244140625,-0.0826873779296875,-0.3158721923828125
1761478592905058800,8.144058837890626,-0.832855224609375,-0.065460205078125,-0.283782958984375
1761478592915095000,8.154094970703126,-0.8726043701171875,-0.0425262451171875,-0.2468414306640625
1761478592925131000,8.164131103515626,-0.900146484375,-0.018585205078125,-0.2104339599609375
1761478592935166000,8.174166015625,-0.920196533203125,-0.004425048828125,-0.186431884765625
1761478592945202000,8.184201904296875,-0.94085693359375,0.0048675537109375,-0.17669677734375
1761478592955238000,8.19423779296875,-0.9637298583984375,0.0076904296875,-0.165740966796875
1761478592965274000,8.204274169921876,-0.96759033203125,-0.0029296875,-0.1519622802734375
1761478592975310000,8.21431005859375,-0.954833984375,-0.0232086181640625,-0.155242919921875
1761478592985344800,8.2243447265625,-0.95245361328125,-0.04302978515625,-0.1888885498046875
1761478592995381000,8.234381103515625,-0.9497222900390625,-0.0528411865234375,-0.2395782470703125
1761478593005417000,8.2444169921875,-0.9597930908203125,-0.060882568359375,-0.2914581298828125
1761478593015453000,8.254452880859375,-0.980804443359375,-0.04864501953125,-0.32470703125
1761478593025489200,8.2644892578125,-1.0208740234375,-0.035308837890625,-0.32525634765625
1761478593035523800,8.27452392578125,-1.0615234375,-0.021575927734375,-0.31109619140625
1761478593045559800,8.284559814453125,-1.072540283203125,-0.006683349609375,-0.2649688720703125
1761478593055595800,8.294595703125,-1.053619384765625,0.0017242431640625,-0.2065582275390625
1761478593065631700,8.3046318359375,-1.0152435302734375,0.0118560791015625,-0.1736907958984375
1761478593075668000,8.31466796875,-0.9779052734375,0.015960693359375,-0.1707000732421875
1761478593085704200,8.3247041015625,-0.95916748046875,0.0062255859375,-0.1849212646484375
1761478593095739000,8.33473876953125,-0.95068359375,-0.0098419189453125,-0.2043914794921875
1761478593105774800,8.34477490234375,-0.9491729736328125,-0.0136871337890625,-0.1999664306640625
1761478593115810800,8.354810791015625,-0.9578704833984375,-0.0149078369140625,-0.1842498779296875
1761478593125846800,8.3648466796875,-0.973846435546875,-0.0167999267578125,-0.1917724609375
1761478593135883800,8.3748837890625,-0.9990997314453125,-0.012542724609375,-0.2153472900390625
1761478593145918700,8.384918701171875,-1.006439208984375,-0.0191650390625,-0.2296142578125
1761478593155955000,8.394954833984375,-0.980377197265625,-0.0336456298828125,-0.2350616455078125
1761478593165991000,8.404990966796875,-0.937774658203125,-0.0505218505859375,-0.24627685546875
1761478593176027000,8.41502685546875,-0.9162445068359375,-0.061798095703125,-0.2662353515625
1761478593186062800,8.425062744140625,-0.9292144775390625,-0.06011962890625,-0.2636566162109375
1761478593196097800,8.435097900390625,-0.9081268310546875,0.00775146484375,-0.230438232421875
1761478593206133800,8.4451337890625,-0.9378662109375,-0.065399169921875,-0.10675048828125
1761478593216169700,8.455169677734375,-1.024566650390625,-0.1255645751953125,-0.0469512939453125
1761478593226206000,8.4652060546875,-1.131256103515625,-0.062896728515625,-0.0837860107421875
1761478593236242000,8.475241943359375,-1.1489105224609375,-0.0077972412109375,-0.131011962890625
1761478593246278000,8.48527783203125,-1.167755126953125,-0.0124359130859375,-0.184906005859375
1761478593256312800,8.495312744140625,-1.19439697265625,0.029205322265625,-0.2118072509765625
