time,seconds_elapsed,z,y,x
1761478584850054100,0.08905419921875,0.1612199050039053,-0.05791625546105206,0.0667062225729227
1761478584860090000,0.099090087890625,0.33007366588711734,-0.10785510230213403,0.24743103851377962
1761478584870125000,0.109125,0.2106184344232082,-0.06696863636877387,0.3494667870126664
1761478584880161000,0.1191611328125,-0.09409516475796699,0.049300366274453694,0.23971637248322367
1761478584890197000,0.129197021484375,-0.2134212168842554,-0.0022244711164385077,0.13693652761876582
1761478584900233000,0.13923291015625,-0.1647702909618616,-0.14250621750988066,0.0142747551985085
1761478584910269000,0.14926904296875,0.008512976801395416,-0.16021240846179424,-0.17863982636034487
1761478584920305000,0.159304931640625,0.16719488776028155,-0.13322441176045685,-0.26037922128364444
1761478584930340000,0.169340087890625,0.24406536147296426,-0.08901764229796827,-0.16244316318854687
1761478584940376000,0.1793759765625,0.30986265250742434,-0.02881912111863494,-0.0447198700837791
1761478584950412000,0.189412109375,0.4123386921197176,-0.04161324583794922,-0.01747165154367685
1761478584960448000,0.199447998046875,0.44144963579177854,-0.1102960291808471,-0.09951982015520333
1761478584970484000,0.20948388671875,0.2483072368264198,-0.11552991124633699,-0.2817367743499577
1761478584980519200,0.219519287109375,-0.1416302383929491,-0.08807510075084865,-0.4007883934490382
1761478584990555100,0.22955517578125,-0.43100072249174115,-0.03562788781803101,-0.4030860028669238
1761478585000591000,0.239591064453125,-0.4944499890953302,-0.0043512905446812505,-0.3474601233653724
1761478585010627000,0.249626953125,-0.3462672603189945,-0.010254742434807122,-0.27910145741030573
1761478585020663000,0.2596630859375,-0.12518120789527892,-0.05017492061927915,-0.17667524828910827
1761478585030698000,0.269697998046875,-0.0071639002799987785,-0.06848784529268741,-0.09264277399256825
1761478585040734000,0.27973388671875,0.04002513639628887,-0.02692369929347187,-0.08818009549528359
1761478585050770000,0.28977001953125,0.04619710302948951,-0.06135854140203446,-0.02524740011170506
1761478585060806100,0.29980615234375,-0.06550678365528582,-0.13471402926370502,0.07054404717013239
1761478585070842000,0.309842041015625,-0.2658066531598568,-0.1015968090923503,0.018495295502990484
1761478585080878000,0.319878173828125,-0.42332711912393567,-0.10214918227810411,-0.06554448531717062
1761478585090913000,0.3299130859375,-0.4780062192946672,-0.1671135661523789,-0.055605275104939934
1761478585100949000,0.339948974609375,-0.3748223236739635,-0.16372618873640893,-0.026191987485438585
1761478585110985000,0.34998486328125,-0.14336334579586982,-0.07763875467143952,0.004262041358649731
1761478585121021000,0.36002099609375,0.06353051514625549,-0.09886588629111646,0.008261924649775028
1761478585131056000,0.37005615234375,0.235389887586236,-0.17236012503635137,-0.01750876868367195
1761478585141091000,0.380091064453125,0.24365736519396303,-0.19322828715052454,-0.07973989166915416
1761478585151127000,0.390126953125,0.10299918670356273,-0.14789196566883472,-0.12116539638265966
1761478585161163000,0.4001630859375,0.012471359038352966,-0.05606719352826476,-0.07698708582967519
1761478585171199000,0.410198974609375,-0.04669394663572311,0.03591949117574841,-0.02525412211343646
1761478585181235200,0.420235107421875,-0.05333411530256271,0.09028327831961214,0.0005102876096963882
1761478585191271200,0.430271240234375,-0.1155178920149803,0.14268372950125485,-0.002125321590900421
1761478585201306000,0.44030615234375,-0.15132161132395267,0.2247635353600606,-0.05495616354644298
1761478585211342000,0.450342041015625,-0.17625380800664422,0.24520094137415288,-0.15232947319224477
1761478585221378000,0.4603779296875,-0.2132861923277378,0.21027718323748557,-0.1849756052531302
1761478585231414000,0.4704140625,-0.1784685614466667,0.20389796706177293,-0.18974734969958662
1761478585241450000,0.480449951171875,-0.16728081247806548,0.2112683131666854,-0.15930939520746468
1761478585251485200,0.490485107421875,-0.27932196829319,0.1754759555019438,-0.06616334786787628
1761478585261521200,0.500521240234375,-0.40810383102893827,0.1874221946876496,-0.02997778963446617
1761478585271557000,0.51055712890625,-0.4910954179704189,0.2831505136054009,-0.07502426132410764
1761478585281593000,0.520593017578125,-0.4527572117477655,0.2948168033385649,-0.1772641540929675
1761478585291629000,0.530629150390625,-0.3757774324417114,0.22354184807799754,-0.339703371758759
1761478585301665000,0.5406650390625,-0.2143663887798786,0.14856233921106904,-0.46377895649969575
1761478585311700200,0.5507001953125,-0.05500350981950759,0.031650910478457805,-0.5566133075416088
1761478585321736200,0.560736083984375,0.07109948909580707,-0.07374832310415803,-0.5869979244112968
1761478585331772200,0.570772216796875,0.02393675590455532,-0.08679437675792723,-0.5346697712808847
1761478585341808000,0.58080810546875,-0.1371849494218826,-0.05656940742935985,-0.4803410919830203
1761478585351844000,0.590843994140625,-0.2349316224247217,-0.04405128663983196,-0.48478053573518987
1761478585361880000,0.600880126953125,-0.2726858912795782,-0.01371639066338539,-0.4157388559520244
1761478585371915000,0.6109150390625,-0.2805728451371193,-0.03739014825019985,-0.23133418245464563
1761478585381951000,0.620950927734375,-0.1570189461827278,-0.16692644608244298,-0.14562866037935018
1761478585391987200,0.6309873046875,-0.20864859565496444,-0.24807401259243486,-0.20990444093495605
1761478585402023200,0.641023193359375,-0.09692775783538818,-0.3694452337455004,-0.40914574129730463
1761478585412059100,0.65105908203125,0.029524785169959065,-0.46989857189115136,-0.5560661950528621
1761478585422094000,0.661093994140625,0.06096563309431076,-0.5638876824587583,-0.5408700872257352
1761478585432130000,0.671130126953125,0.05699789850711822,-0.6375125983789562,-0.4440092571467161
1761478585442166000,0.681166015625,-0.025471125864982604,-0.6278100464668125,-0.34772155078053474
1761478585452202000,0.691201904296875,-0.2011737297296524,-0.5772296503191814,-0.17409224605858326
1761478585462238000,0.701238037109375,-0.41011692441701886,-0.5030260211955756,0.0074549921810626975
1761478585472274200,0.711274169921875,-0.5838350764662027,-0.42205297100227324,0.10419570301175117
1761478585482309000,0.72130908203125,-0.6446902349233627,-0.3103576329501346,0.20497955175340174
1761478585492345000,0.731344970703125,-0.5948135665982961,-0.22000819405913352,0.35100597927868366
1761478585502381000,0.741381103515625,-0.5187368736118078,-0.18458740965314208,0.40032618276476856
1761478585512417000,0.7514169921875,-0.4007388552188873,-0.20082572000958024,0.30553456017524
1761478585522453000,0.761452880859375,-0.2757400181531906,-0.16147888473365454,0.11190963838994503
1761478585532488200,0.77148828125,-0.14360533785820007,-0.1178529473664239,-0.034094577303528786
1761478585542524200,0.781524169921875,-0.07151508415937423,-0.17485654496196656,-0.10809738662540912
1761478585552560000,0.79156005859375,-0.019289222359657285,-0.23389424220100044,-0.18926468074917793
1761478585562596000,0.80159619140625,0.058740942782163616,-0.18295608212426304,-0.22416239112913608
1761478585572632000,0.811632080078125,0.06846154180765152,-0.14699293446987866,-0.22266572283059358
1761478585582668000,0.82166796875,0.06556815845370292,-0.1824374650776386,-0.18580021950900555
1761478585592703200,0.831703125,0.07708791585564613,-0.18550116349719464,-0.13201952948272228
1761478585602739200,0.8417392578125,0.0923474443078041,-0.1908779611647129,-0.05095452668964862
1761478585612775200,0.851775146484375,0.0846270791888237,-0.21512918984591958,0.04027472724318504
1761478585622811100,0.86181103515625,0.10851473525464535,-0.23129311979189512,0.07402998958975077
1761478585632847000,0.87184716796875,0.11865151386559009,-0.21483473694398997,0.10127309356331825
1761478585642883000,0.881883056640625,0.10167875175476074,-0.2293237194150686,0.21240561010092496
1761478585652918000,0.89191796875,0.1855804392784834,-0.2457531684294343,0.3528662201926112
1761478585662954000,0.9019541015625,0.23062428061962126,-0.297101078350842,0.47635699078291655
1761478585672990200,0.911990234375,0.22297698073685168,-0.45070115600079297,0.4150423981204629
1761478585683026200,0.922026123046875,0.10571721349060535,-0.5110359438456594,0.2376940728753805
1761478585693062100,0.932062255859375,0.027948914155364036,-0.4150034543495625,0.008291150744259356
1761478585703098000,0.94209814453125,-0.0019096330136060713,-0.42828686042316255,-0.012362053444981574
1761478585713133000,0.952133056640625,0.03216623958945274,-0.41668899628371,0.06543225711435079
1761478585723169000,0.9621689453125,0.03194119866192341,-0.4340119600716978,0.109296825543046
1761478585733205000,0.972205078125,0.032331074762344356,-0.45189672246091067,0.0783352855682373
1761478585743241000,0.982240966796875,0.10395312642753124,-0.506233658130467,0.021340601931512354
1761478585753277200,0.992277099609375,0.16602233684957027,-0.5916019110754132,-0.04274550127089023
1761478585763313200,1.002313232421875,0.11760288159549236,-0.6124398972470313,-0.16495909153223037
1761478585773348000,1.01234814453125,0.042456162935495374,-0.5807775885917246,-0.2711097280040383
1761478585783384000,1.022384033203125,-0.01407937875688076,-0.5691445070084185,-0.24132483059316873
1761478585793420000,1.032419921875,-0.0634562808662653,-0.5652488147441297,-0.1615954603180289
1761478585803456000,1.0424560546875,-0.18672668670415876,-0.5645153128378093,-0.11777326972633599
1761478585813492000,1.052491943359375,-0.256990309497714,-0.5302762855622917,-0.0829164758786559
1761478585823528000,1.06252783203125,-0.24681845957338808,-0.5029193459507078,-0.045072482913732524
1761478585833563100,1.072563232421875,-0.26028058321475983,-0.5030354466110467,0.009560732288658618
1761478585843599000,1.08259912109375,-0.22754735739231108,-0.5366485240079463,0.07572130367755889
1761478585853635000,1.092635009765625,-0.12041852353811264,-0.562184531802684,0.1021484150931239
1761478585863671000,1.102671142578125,0.05381225420832634,-0.5808511652845889,0.12568974193930627
1761478585873707000,1.11270703125,0.22495792542099952,-0.6425858099900186,0.19103782790154217
1761478585883743000,1.122742919921875,0.3270663007646799,-0.6625597266782075,0.28272008629888296
1761478585893778200,1.132778076171875,0.35321430297791956,-0.5975550473261624,0.3268389217495918
1761478585903814100,1.142814208984375,0.340695597666502,-0.5224851932946593,0.31244916186928745
1761478585913850000,1.15285009765625,0.33620471598803997,-0.5596794171139597,0.24481121140420437
1761478585923886000,1.162885986328125,0.31506080567240713,-0.6326404622979461,0.1169517242103815
1761478585933922000,1.172922119140625,0.31022797868847846,-0.7223452831424773,-0.012600830636918544
1761478585943958000,1.1829580078125,0.24170038590729234,-0.766419037342444,-0.14841186135709286
1761478585953993000,1.192992919921875,0.10192074381709099,-0.755425422706455,-0.21163024181425572
1761478585964029200,1.203029296875,-0.11383037731945514,-0.7164945112876594,-0.15558219137787818
1761478585974065200,1.213065185546875,-0.26447920394837854,-0.6231936387125402,-0.03669073127657175
1761478585984101000,1.22310107421875,-0.327853067228198,-0.5408688451167196,0.053501288563013075
1761478585994137000,1.23313720703125,-0.35875264788269995,-0.5550652013167738,0.05854308212250471
1761478586004173000,1.243173095703125,-0.2831651997178793,-0.6421495374646038,-0.036032267367839814
1761478586014208000,1.2532080078125,-0.13551964655816554,-0.7507382878035307,-0.1771060409218073
1761478586024244000,1.263243896484375,-0.047452071526646614,-0.8007168090678751,-0.24207857156991958
1761478586034280000,1.273280029296875,-0.06211889478266239,-0.7942218940906226,-0.29918811375796794
1761478586044316200,1.283316162109375,-0.07668751836121082,-0.7914904963653534,-0.36105361830145116
1761478586054352100,1.29335205078125,-0.2387836216777563,-0.7956988347753882,-0.37707711686342954
1761478586064388000,1.30338818359375,-0.33635143098235126,-0.7993406253438442,-0.4384504539757967
1761478586074423000,1.313423095703125,-0.35035832902491093,-0.781906602396816,-0.5246539887011051
1761478586084459000,1.323458984375,-0.2734913624435663,-0.7313282886084169,-0.6092851595431565
1761478586094495000,1.333494873046875,-0.04646656762063503,-0.6461947212021798,-0.6305787074625492
1761478586104531000,1.343531005859375,0.29086043039560316,-0.4790240911003202,-0.39922961969971654
1761478586114567200,1.353567138671875,0.5620259802401065,-0.14082915114313363,0.07902209878861903
1761478586124603100,1.36360302734375,0.6844014830648899,0.08628529472462833,0.5875725094288587
1761478586134638600,1.373638671875,0.6110439859092235,0.15439122802764177,0.8283896827608347
1761478586144674600,1.383674560546875,0.25289456461668014,0.26111191947236656,0.6440262180566787
1761478586154710500,1.39371044921875,-0.29801965450048445,0.3632802083097398,0.23492913820669054
1761478586164746500,1.40374658203125,-0.9702560679972171,0.3880747500874102,-0.33704116681218144
1761478586174782500,1.413782470703125,-1.4138994144409893,0.27907676136046644,-0.8489115156553685
1761478586184818400,1.423818359375,-1.7432570410132406,0.30509850684553386,-1.1104533509775996
1761478586194853600,1.433853515625,-1.9209721537441014,0.49485608567818995,-1.0363719234615563
1761478586204889600,1.4438896484375,-1.9532494524925945,0.6797497117362916,-0.8087725436210632
1761478586214925600,1.453925537109375,-1.6939350839614866,0.7814527211494743,-0.6737108699634671
1761478586224961500,1.46396142578125,-1.10238665663898,0.8400337971948086,-0.6000793781720102
1761478586234997500,1.47399755859375,-0.4008294561117887,0.7090498943701387,-0.5500878512956202
1761478586245033500,1.484033447265625,0.2645896785855293,0.46310441823899745,-0.6167907128676772
1761478586255068400,1.494068359375,0.7241951487928628,0.3276413972388953,-0.6920557972103357
1761478586265104600,1.504104736328125,1.006556630912423,0.2505222094621509,-0.6943924234643578
1761478586275140600,1.514140625,1.1708441067934034,0.24860497766397893,-0.5438206075944007
1761478586285176600,1.524176513671875,1.216045184522867,0.3818006382539868,-0.3204701173700392
1761478586295212500,1.534212646484375,1.1454203272014856,0.5407766367886215,-0.07910612381026148
1761478586305248500,1.54424853515625,1.0422831933319567,0.6298844415880739,0.10068988684788345
1761478586315283500,1.554283447265625,0.8885381542533636,0.721102735735476,0.18678148563131688
1761478586325319400,1.5643193359375,0.5568669900417328,0.6981906467035413,0.26874153756797314
1761478586335355600,1.574355712890625,0.19733985065519807,0.5937916762046516,0.39822453431040045
1761478586345391600,1.5843916015625,-0.13229250120520591,0.5471409841887652,0.3625589082978666
1761478586355427600,1.594427490234375,-0.4393476950764656,0.508791379789263,0.24435484593883156
1761478586365463600,1.604463623046875,-0.6990460944890976,0.4584988241396844,0.07254208911955357
1761478586375499500,1.61449951171875,-0.7997586315602063,0.5355520340081305,-0.01450461843162775
1761478586385534500,1.624534423828125,-0.8583382463008165,0.45285848016515373,-0.17931085748970507
1761478586395570400,1.6345703125,-0.8362076630353927,0.31463337404057384,-0.4272776103153825
1761478586405606400,1.6446064453125,-0.6869821472078561,0.33726386965215205,-0.668748279120028
1761478586415642600,1.654642578125,-0.5177841029316187,0.547001575718075,-0.6731308781184255
1761478586425678600,1.6646787109375,-0.4674854098021984,0.7401249046567827,-0.39919732486531134
1761478586435714600,1.674714599609375,-0.5157593191057444,0.8840109591525047,-0.04859188921153545
1761478586445749500,1.68474951171875,-0.5884399399131536,0.9732305537633598,0.26344445407316086
1761478586455785500,1.694785400390625,-0.5162491484493017,0.9759199389778077,0.5647865309946238
1761478586465821400,1.704821533203125,-0.30167993057370185,0.9659510642796755,0.653340428238362
1761478586475857400,1.714857421875,-0.1120107606768608,0.8298438270919024,0.33196035641655325
1761478586485893400,1.724893310546875,0.0772071583211422,0.7436842045735568,0.01872851973697543
1761478586495929600,1.7349296875,0.3175491153568029,0.7124579492479562,-0.2027837952747941
1761478586505964500,1.744964599609375,0.4960667766422033,0.7756931347094476,-0.2753951502382755
1761478586516000500,1.75500048828125,0.5141594826936722,0.8276219863239676,-0.16130948298349976
1761478586526036500,1.765036376953125,0.3900210618495941,0.8457805241532623,-0.018927111048996446
1761478586536072400,1.775072509765625,0.18827566971182821,0.9139948132015764,-0.008274345739930867
1761478586546108400,1.7851083984375,0.012222352713346481,0.9339080126784741,-0.008701777371764183
1761478586556144400,1.795144287109375,-0.1221890403419733,0.8666676832288503,0.05337707766145468
1761478586566179600,1.8051796875,-0.22783669572770593,0.8326084694996476,0.0751549019664526
1761478586576215600,1.815215576171875,-0.3116530430555343,0.8503669751606882,0.11945903085619211
1761478586586251500,1.82525146484375,-0.31287352476119995,0.8597205675046891,0.225478296033293
1761478586596287500,1.83528759765625,-0.3226753723293543,0.8659631151560694,0.29289427431076764
1761478586606323500,1.845323486328125,-0.3637947337031364,0.8689215996354818,0.22399083395451305
1761478586616359400,1.855359375,-0.32605683146119113,0.8450381813533604,0.09631474050357937
1761478586626394600,1.86539453125,-0.24224749839603898,0.7394393335454166,0.09713263275772333
1761478586636430600,1.8754306640625,-0.16167817016541958,0.6207405464719981,0.12761457252204417
1761478586646466600,1.885466552734375,-0.16178221506178378,0.5473877985566854,0.06897124489545822
1761478586656502500,1.89550244140625,-0.18906126713156698,0.506122087514773,-0.012144903562963008
1761478586666538500,1.90553857421875,-0.17393500967025755,0.47930663436874743,0.05520297791436314
1761478586676574500,1.915574462890625,-0.08582885619401931,0.4152234537757933,0.23279110326468944
1761478586686610400,1.9256103515625,-0.10490823519527911,0.43131935998685655,0.48361733717471356
1761478586696645400,1.935645263671875,0.025155484044551847,0.4663863625191152,0.5440292819090187
1761478586706681600,1.945681640625,0.04379121093153953,0.3500993127625435,0.527023494311422
1761478586716717600,1.955717529296875,0.03515723809897899,0.36934199256673456,0.5528212217822671
1761478586726753500,1.96575341796875,0.07911445324718952,0.3566223578557372,0.5030785551004111
1761478586736789500,1.97578955078125,0.09481295763850212,0.26693383055888115,0.48719256531298155
1761478586746824400,1.985824462890625,0.0410042105615139,0.1823382424868643,0.40566389053091406
1761478586756860400,1.9958603515625,-0.016949965757131577,0.1224415172656998,0.3232347597777843
1761478586766896400,2.005896484375,-0.053501288563013075,0.134866516411677,0.3083779669076204
1761478586776932400,2.015932373046875,-0.17827976087629793,0.16650076801627872,0.3026948067046702
1761478586786968600,2.025968505859375,-0.30491759732067586,0.1519356150364503,0.33272111165598034
1761478586797004500,2.036004638671875,-0.36256957582235333,0.10112400394883006,0.282736745172739
1761478586807040500,2.04604052734375,-0.3313432474315166,0.07051500373873859,0.1675003004476428
1761478586817075500,2.056075439453125,-0.2631815653532743,0.018357932858914135,0.10364055334702134
1761478586827111400,2.066111328125,-0.2564379363119602,0.029979908526316282,0.05969342120140791
1761478586837147400,2.0761474609375,-0.293790638628602,0.07878547702115028,0.03895896846950054
1761478586847183400,2.086183349609375,-0.2845072619765997,0.10091825224366038,0.043966275237500664
1761478586857219600,2.096219482421875,-0.348668476241827,0.08880626456961035,-0.013424568109959362
1761478586867255600,2.106255615234375,-0.4462672652065754,0.07600410267431289,-0.08755334189906716
1761478586877290500,2.11629052734375,-0.5275204840481281,0.0643420872574672,-0.14947700637057423
1761478586887326500,2.126326416015625,-0.510673978665471,0.05445796823333948,-0.20639657894447444
1761478586897362400,2.136362548828125,-0.3890057473272085,0.013755188303813337,-0.2539921505950391
1761478586907398400,2.1463984375,-0.17028467046916484,-0.07919245038684457,-0.33442747718244786
1761478586917434400,2.156434326171875,0.06724456723332405,-0.11763791637625545,-0.4288298081934452
1761478586927470300,2.16647021484375,0.19107962121665475,-0.09479016128480434,-0.4197197422817349
1761478586937505500,2.176505615234375,0.20053426278233527,-0.054566835435293615,-0.2760099211357534
1761478586947541500,2.18654150390625,0.19127835865914822,-0.05276815198287368,-0.062382514154911035
1761478586957577500,2.196577392578125,0.016453706672787664,-0.09047083678096532,0.1078575865201652
1761478586967613400,2.206613525390625,-0.17085165670216082,-0.14452037034388632,0.1594606402464211
1761478586977649400,2.2166494140625,-0.31758886284530163,-0.21524379266891627,0.14530147425159812
1761478586987685400,2.226685302734375,-0.37386370777487754,-0.25278471103403716,0.058957508142292496
1761478586997720600,2.236720458984375,-0.3609592180162668,-0.2561281397104263,-0.030119243931770324
1761478587007756500,2.246756591796875,-0.24164836345911025,-0.30198022869452834,-0.015216127701848745
1761478587017792500,2.25679248046875,-0.13828735770583153,-0.33395109184235333,0.08116203342676162
1761478587027828500,2.266828369140625,-0.051615036424994466,-0.35755945604275907,0.19133520341292024
1761478587037864400,2.276864501953125,-0.045886137384176254,-0.38044118646904823,0.22591405710205434
1761478587047900400,2.286900390625,-0.06958616192340851,-0.43400282691717146,0.2044561124011874
1761478587057936400,2.296936279296875,-0.10932312902808189,-0.4214920857165009,0.1479302153199911
1761478587067971600,2.3069716796875,-0.13919219759106635,-0.35278109919242556,0.07882306908518076
1761478587078007600,2.317007568359375,-0.15098668028116224,-0.3140202471109107,0.04206877105310559
1761478587088043500,2.32704345703125,-0.17792612513303754,-0.3095208533324301,0.08243965214714408
1761478587098079500,2.33707958984375,-0.23850538925826548,-0.2685312923507765,0.1281689915344119
1761478587108115500,2.347115478515625,-0.29400691172778604,-0.2563466778319329,0.12939122680574655
1761478587118151400,2.3571513671875,-0.28429040435552594,-0.2659205253304914,0.1029166229866445
1761478587128187400,2.3671875,-0.3186182058930397,-0.31167960226889696,0.11549348822608589
1761478587138223400,2.377223388671875,-0.30336393813788887,-0.39556331574451176,0.10713687103018164
1761478587148259300,2.38725927734375,-0.31046646361947056,-0.4215718729544431,0.05766907576695084
1761478587158295300,2.39729541015625,-0.35489188080132006,-0.4151838889503851,0.0700046795964241
1761478587168331300,2.407331298828125,-0.36488252893984313,-0.40897370919864623,0.2893327824369073
1761478587178367500,2.417367431640625,-0.31719547961354255,-0.44783889843747016,0.5548074271634221
1761478587188402400,2.42740234375,-0.3123942168116569,-0.4995360967205837,0.6985103801771998
1761478587198438400,2.4374384765625,-0.34740240182876586,-0.5309499470401555,0.6819837543986738
1761478587208474400,2.447474365234375,-0.5536480279952287,-0.5316544420477003,0.6236879250355064
1761478587218510300,2.45751025390625,-0.936318727082014,-0.1814226254792884,0.9264945215515792
1761478587228546300,2.46754638671875,-0.8486457043260336,-0.3264481323337182,0.7589487745270133
1761478587238582300,2.477582275390625,-0.7989034760355949,-0.5394857201952487,0.4186512362673878
1761478587248617500,2.487617431640625,-0.5815151090860367,-0.6978256127834319,-0.048722529853880404
1761478587258653400,2.4976533203125,-0.5795768344998359,-0.7758043399989605,-0.22354119049087165
1761478587268689400,2.507689453125,-0.5427279900521039,-0.5256272907126694,0.07803864070922135
1761478587278725400,2.517725341796875,-0.375901351082325,-0.23147640393692998,0.4978868316762149
1761478587288761300,2.52776123046875,-0.153512399366498,-0.1701622131332755,0.8522742700867354
1761478587298797300,2.53779736328125,-0.04868599723577499,-0.16711210484765468,0.9190624718546867
1761478587308832500,2.54783251953125,-0.1819979046165943,-0.12021437926813959,0.7646218517273664
1761478587318868500,2.557868408203125,-0.44811201629042624,-0.12581398937348276,0.49461847753003235
1761478587328904400,2.567904541015625,-0.6872796688497066,-0.150832366502285,0.3080883363112807
1761478587338940400,2.5779404296875,-0.8700865517616272,-0.08949055703934282,0.13176935411393642
1761478587348976400,2.587976318359375,-0.9890215587437152,-0.011914967264607548,-0.04317512485980987
1761478587359012400,2.598012451171875,-1.1262871721863745,0.023250929064862428,-0.24076748897135256
1761478587369047300,2.60804736328125,-1.2028221303343771,0.06820135650150477,-0.5403945786684751
1761478587379083500,2.61808349609375,-1.0873884094715118,0.11590086345057934,-0.8230510982118546
1761478587389119500,2.628119384765625,-0.9461123913437127,0.14856084137372672,-0.9574718436174094
1761478587399155500,2.638155517578125,-0.8865671464413404,0.19359788764789698,-0.7427998960196971
1761478587409191400,2.64819140625,-0.8717623760193586,0.19757263649776577,-0.20863968169614672
1761478587419227400,2.658227294921875,-0.9732055654525756,0.18935962902363387,0.18884265594482422
1761478587429262300,2.668262451171875,-0.9758066878616809,0.2324762286292389,0.22438304814249277
1761478587439298300,2.67829833984375,-0.7341442958772182,0.23962610038388518,0.1309456166408956
1761478587449334300,2.688334228515625,-0.3397831589967012,0.18382775039225815,0.11465089992210269
1761478587459370500,2.69837060546875,0.03409340825974941,0.11147924761604518,0.1399403856098652
1761478587469406500,2.708406494140625,0.3341770095527172,0.11880626603588461,0.15979937068149447
1761478587479442400,2.7184423828125,0.5977016892552376,0.153419168125093,0.15220248581171034
1761478587489477400,2.728477294921875,0.7134574816793203,0.17341916910260916,0.18997487484514713
1761478587499513300,2.738513427734375,0.7634417020320892,0.20230894430465995,0.2603410812303424
1761478587509549300,2.74854931640625,0.7110825692415237,0.22279592508152127,0.3103101040139794
1761478587519585300,2.758585205078125,0.4840986909508705,0.25806305329576135,0.4054477635622024
1761478587529621200,2.768621337890625,0.19071078790426252,0.3489444436389953,0.3706068979360163
1761478587539657500,2.778657470703125,-0.07702829462289809,0.5559601043298841,0.26129282899722456
1761478587549692400,2.7886923828125,-0.3323071240276098,0.7362873723205179,0.21123159788548945
1761478587559728400,2.798728271484375,-0.4961544549256563,0.8939235005535184,0.21758768891394137
1761478587569764400,2.808764404296875,-0.4493967954039573,1.042670731344819,0.17678659970909355
1761478587579800300,2.81880029296875,-0.17736498411893845,1.1193702324047683,0.11843524076640605
1761478587589836300,2.828836181640625,0.13528525328040122,1.137599716578424,0.02124620164632797
1761478587599872300,2.838872314453125,0.37746202452778815,1.14500663183406,-0.21914573201090096
1761478587609907500,2.848907470703125,0.5989584113180637,1.1209551635086537,-0.5642711288183927
1761478587619943400,2.858943359375,0.6976309669941664,1.0532871832314878,-0.8958654284015297
1761478587629979400,2.8689794921875,0.6631675563782453,0.9826200211383401,-1.1609864373847842
1761478587640015400,2.879015380859375,0.5615279675900936,0.925675825579837,-1.296481534023583
1761478587650051300,2.88905126953125,0.4732312599778175,0.95506960478127,-1.3476967574760317
1761478587660087300,2.89908740234375,0.3445762384921312,1.0141283082757144,-1.3918760909423231
1761478587670122500,2.90912255859375,0.22879823423624038,0.9587215514175593,-1.3650064964562654
1761478587680158500,2.919158447265625,0.12227788766920566,0.9036572513215243,-1.2649743428647517
1761478587690194400,2.9291943359375,0.19057108717262744,0.8443327364977449,-1.171077915549278
1761478587700230400,2.93923046875,0.3257277456372976,0.7424103852454572,-1.1017135796830058
1761478587710266400,2.949266357421875,0.43555414801239967,0.6763597039718181,-1.0559580829411745
1761478587720302300,2.95930224609375,0.3376531612306833,0.6665981153488159,-1.0189622312381863
1761478587730337300,2.969337158203125,0.042806876069307324,0.6822755769520997,-0.7468272518396377
1761478587740373200,2.979373291015625,-0.2207856081724167,0.6709373135969042,-0.43924131209254264
1761478587750409500,2.989409423828125,-0.344610140761733,0.60394014525339,-0.31668051582872864
1761478587760445400,2.999445556640625,-0.3618967911273241,0.426799179148674,-0.3750307057276368
1761478587770481400,3.0094814453125,-0.38222529340684414,0.28568638875856994,-0.5092562208220363
1761478587780517400,3.019517333984375,-0.2643798352271318,0.19881613375283777,-0.6414002534672617
1761478587790552300,3.02955224609375,-0.0938946737498045,0.19515958400666714,-0.6228054431125521
1761478587800588300,3.03958837890625,0.09199439308643341,0.15228132320158183,-0.4796107318818569
1761478587810624300,3.049624267578125,0.25746961744725705,0.07612455071620643,-0.40189357821196314
1761478587820660500,3.059660400390625,0.36359774982631204,0.09148410547673702,-0.43002924711108204
1761478587830696400,3.069696533203125,0.36340485760271546,0.06710698539353907,-0.5418593905240296
1761478587840732400,3.079732421875,0.2799146734893322,0.05581015002727508,-0.5486258159190416
1761478587850767400,3.089767333984375,0.16928747612535952,0.24738471515402197,-0.6005541560769081
1761478587860803300,3.09980322265625,0.12720190006792545,0.13349325529709458,-0.5390756050243973
1761478587870839300,3.10983935546875,0.06541267563104629,0.03859196178801357,-0.45780046661198137
1761478587880875300,3.119875244140625,-0.016015899777412412,0.1600662779893726,-0.471464250305295
1761478587890911200,3.1299111328125,-0.04454875130057335,0.25183950260579585,-0.3959524977251887
1761478587900947500,3.139947509765625,-0.08160159388780594,0.2592289552699774,-0.283348447330296
1761478587910982400,3.149982421875,-0.16285072107613086,0.21512100653946398,-0.1995245012179017
1761478587921018400,3.160018310546875,-0.1995879218429327,0.13767989333197472,-0.1336135206758976
1761478587931054300,3.170054443359375,-0.12521569468677043,0.041669323406741024,-0.060714873203635215
1761478587941090300,3.18009033203125,-0.024331308180093762,-0.01382196992971003,0.042646132549643515
1761478587951126300,3.190126220703125,0.05561550423800945,-0.06034815878309309,0.16659925995469094
1761478587961162200,3.200162353515625,0.20980770256221293,-0.09610182840526103,0.2588257082313299
1761478587971197400,3.210197509765625,0.29127660998106003,-0.10742847438789903,0.3351025999650359
1761478587981233400,3.2202333984375,0.23305296907126902,-0.14863171465285122,0.36796909677833317
1761478587991269400,3.230269287109375,0.031524434554576874,-0.19587650010436772,0.32463030578941104
1761478588001305300,3.240305419921875,-0.2219733566522598,-0.18861958777867258,0.2631780582219362
1761478588011341300,3.25034130859375,-0.3700023561716079,-0.21900208575651048,0.17528262488692997
1761478588021377300,3.260377197265625,-0.3950771761953831,-0.2564021343462169,0.07695756747424602
1761478588031412500,3.27041259765625,-0.263583131891489,-0.22164894700348375,-0.053226271013915534
1761478588041448400,3.280448486328125,-0.08915186313688754,-0.21242869871556758,-0.21060703624635935
1761478588051484400,3.290484375,0.057250411963462824,-0.2901888878095895,-0.3174006467968225
1761478588061520400,3.300520263671875,0.13574410296380518,-0.4037981697242707,-0.3655234571918845
1761478588071556400,3.310556396484375,0.1240799686551094,-0.46568069846779103,-0.5066933845967054
1761478588081592300,3.32059228515625,0.1302279698908329,-0.4323937112201005,-0.6558335602283477
1761478588091627300,3.330627197265625,0.05316694204211235,-0.40935324656814337,-0.5983458323776721
1761478588101663200,3.340663330078125,-0.014292729246616363,-0.5047389625933021,-0.3886795841127634
1761478588111699500,3.350699462890625,-0.045212768167257306,-0.6072912092469632,-0.23782938969284295
1761478588121735400,3.3607353515625,-0.027209493964910507,-0.7039310900516808,-0.2156713338986039
1761478588131770600,3.3707705078125,0.06465922691524029,-0.8118740167677402,-0.22406799084395168
1761478588141806600,3.380806640625,0.1362315942198038,-0.8529754040934145,-0.13516367272734642
1761478588151841500,3.390841552734375,0.20731647026836872,-0.8670558788288384,0.06661620620191097
1761478588161877800,3.400877685546875,0.3723609019964933,-0.8652986598979682,0.3945575362354517
1761478588171913700,3.410913818359375,0.5238917721569538,-0.8654876796640455,0.7233285950914025
1761478588181949700,3.42094970703125,0.5872054296821355,-0.8726389396581798,0.9342804992526769
1761478588191985700,3.430985595703125,0.593950227767229,-0.8866570897471159,0.9024450990527868
1761478588202021600,3.441021728515625,0.5675076265215874,-1.0536426456056536,0.796514242811501
1761478588212056600,3.451056640625,0.49384208633005616,-1.1721193143609911,0.6541232491791248
1761478588222092500,3.461092529296875,0.2608078219592571,-1.0863105511069298,0.41689153311848637
1761478588232128500,3.47112841796875,0.06902911256253719,-0.9613329029597342,0.1965729579359293
1761478588242164700,3.481164794921875,-0.09654898765087128,-0.8978313947122544,0.02636369079053402
1761478588252200700,3.49120068359375,-0.1921060416549444,-0.9118738755248487,-0.07287322077006102
1761478588262236700,3.501236572265625,-0.2383002220749855,-0.9954475732032209,-0.0732768331348896
1761478588272271600,3.511271728515625,-0.2549333769679069,-1.061578626236692,-0.11994681437313556
1761478588282307600,3.5213076171875,-0.281601019141078,-1.0267226361066102,-0.2879123942449689
1761478588292343600,3.531343505859375,-0.325122765481472,-1.0035197474345565,-0.45103988643586634
1761478588302379500,3.541379638671875,-0.30760639801323414,-0.9883101225387304,-0.5783195279151201
1761478588312415500,3.55141552734375,-0.18990765482783317,-0.9101663409546017,-0.6823807908922433
1761478588322450700,3.56145068359375,-0.08679039470255374,-0.8007797913014888,-0.7848793345972895
1761478588332486700,3.571486572265625,-0.08614099088311195,-0.7664758090309798,-0.8841291056394577
1761478588342522600,3.581522705078125,-0.14883739329278467,-0.668562181963399,-0.9484288515925406
1761478588352558600,3.59155859375,-0.11594225490689276,-0.3592627893619239,-0.78082187590003
1761478588362594600,3.601594482421875,0.004233107525110244,0.04938903093859553,-0.3541697040066123
1761478588372630500,3.611630615234375,0.14401041152775287,0.2942246461316943,-0.06949249229058622
1761478588382665700,3.621665771484375,0.013851999741792678,0.21665523036941883,-0.0874793998800218
1761478588392701700,3.63170166015625,-0.4381114312797785,0.3403242070708424,-0.5174450802356004
1761478588402737700,3.641737548828125,-1.0437105957865715,0.5729664764493704,-1.0121109040386975
1761478588412773600,3.651773681640625,-1.3901649031102656,0.590667845095694,-1.3512326765172182
1761478588422809600,3.6618095703125,-1.399845754647255,0.6519936167392879,-1.511249781602621
1761478588432845600,3.671845458984375,-1.3658733424186706,0.7111774809833615,-1.5736868024237454
1761478588442880500,3.681880615234375,-1.6569845327049493,0.72282729450576,-1.5457082237824797
1761478588452916700,3.691916748046875,-1.404968504488468,0.6868002147696912,-1.2157330498337744
1761478588462952700,3.70195263671875,-0.9546288752764462,0.7814820203091949,-0.8514818045347928
1761478588472988700,3.71198876953125,-0.4814268413931131,0.7462230754014104,-0.5156596581235527
1761478588483024600,3.722024658203125,-0.030546529433131218,0.6108042588692159,-0.21617840663790702
1761478588493060600,3.732060546875,0.24843057094514367,0.5201281087744981,-0.11566022309511899
1761478588503095600,3.742095458984375,0.5540893420219422,0.3418427949402481,-0.24541399960294363
1761478588513131500,3.752131591796875,0.708842096838355,0.15666662561371922,-0.5307753941908478
1761478588523167500,3.76216748046875,0.6814572463065386,0.06436214366480708,-0.838061912599951
1761478588533203700,3.77220361328125,0.5476636928886175,0.10910663673318922,-1.0245203037567436
1761478588543239700,3.78223974609375,0.2519827104687691,0.3426885250493884,-0.8527426182508469
1761478588553275600,3.792275634765625,-0.060517889326810834,0.5346351383589207,-0.3271082402102649
1761478588563310600,3.802310546875,-0.23250410301685331,0.7085420909784734,0.20962240912318228
1761478588573346600,3.8123466796875,-0.2713198636233806,0.9154678083635867,0.5775108418807388
1761478588583382500,3.822382568359375,-0.18992109883129596,1.0391456259585916,0.7872526395998894
1761478588593418500,3.83241845703125,-0.04517009806931019,1.0234560355260967,0.8085165230333805
1761478588603454500,3.842454345703125,0.09058861794173717,0.813834503185749,0.6589459931604564
1761478588613490700,3.85249072265625,0.2048287451058626,0.639590208370611,0.38248876664862036
1761478588623525600,3.862525634765625,0.2193032606601715,0.6235070155106485,0.0291726107314229
1761478588633561600,3.8725615234375,0.13108429445922373,0.6568382802914827,-0.24670637750104069
1761478588643597600,3.88259765625,-0.04169102378189563,0.6425625752449036,-0.38497298467978835
1761478588653633500,3.892633544921875,-0.20525310799777507,0.6359888959430158,-0.42058132754713295
1761478588663669500,3.90266943359375,-0.39747839211821556,0.7316749831542372,-0.426924997485429
1761478588673704700,3.91270458984375,-0.5128758726239204,0.812798949592933,-0.41391938543990253
1761478588683740700,3.92274072265625,-0.5439198301851749,0.8974529167886823,-0.2857197065062821
1761478588693776600,3.932776611328125,-0.44244741465747356,1.0319069799419491,-0.06297112769782542
1761478588703812600,3.9428125,-0.22148411183059213,1.1639945331595838,0.23723756127953527
1761478588713848600,3.9528486328125,-0.04093289889097213,1.2198179810598493,0.44933805095404383
1761478588723884500,3.962884521484375,0.07748246813118458,1.2343315134502946,0.5221304615728557
1761478588733919700,3.972919677734375,0.11934417230486868,1.1837504962481558,0.48566550187617535
1761478588743955700,3.982955810546875,0.12088906365931033,1.1127000339258462,0.3863654619514942
1761478588753991700,3.99299169921875,0.07218436172306537,1.063850443626195,0.28754283028021455
1761478588764027600,4.003027587890625,0.004972527715563774,1.012369993366301,0.22820874391049145
1761478588774063600,4.013063720703125,0.024019173491001126,0.9579970365352928,0.18198942904919385
1761478588784099600,4.023099609375,0.08898059822320938,0.9295575623840093,0.09738573073595762
1761478588794134500,4.033134521484375,0.17711480875015256,0.8376585924960672,0.004689765251427888
1761478588804170500,4.04317041015625,0.21784604758918283,0.6916629985004663,-0.14058949716836214
1761478588814206700,4.053206787109375,0.14602993465662,0.539599153974466,-0.2704305135682225
1761478588824242700,4.06324267578125,-0.03397533483803272,0.47148569495212284,-0.3204591575846076
1761478588834278700,4.073278564453125,-0.2632382639765739,0.47085707819238304,-0.36374782582148907
1761478588844314600,4.083314697265625,-0.48258302569091316,0.5004392926380038,-0.3172910489425063
1761478588854349600,4.093349609375,-0.6529524518340826,0.5698746479138732,-0.19187647068277
1761478588864385500,4.103385498046875,-0.6953992624193429,0.6443121953912079,-0.038394466454535724
1761478588874421500,4.11342138671875,-0.4984270760327577,0.6247158067785203,0.2083276931375265
1761478588884457500,4.12345751953125,-0.22033903344869613,0.550649576831609,0.4727712412506342
1761478588894493700,4.13349365234375,0.0706324561059475,0.5903589252769946,0.7455075475431978
1761478588904528600,4.143528564453125,0.35653088018000123,0.5483576665021479,0.7651536205165088
1761478588914564600,4.153564697265625,0.5359358456939458,0.3910403949599713,0.6452814788147807
1761478588924600600,4.1636005859375,0.5686053586304187,0.20883889406267553,0.401505017285794
1761478588934636500,4.173636474609375,0.4248696723908186,0.13889639298226683,0.12239055426344275
1761478588944672500,4.183672607421875,0.21989362776875496,0.07274696404188871,-0.05214738973602652
1761478588954708500,4.19370849609375,0.03809621416032314,-0.030413331507518886,-0.08818331036567688
1761478588964743700,4.20374365234375,-0.15854805544614792,-0.06659220427181571,0.1170017008319497
1761478588974779600,4.213779541015625,-0.2504243751108646,0.07736921701505779,0.31272710202783344
1761478588984815600,4.223815673828125,-0.27029695031642914,0.19030242629908023,0.3278818549312651
1761478588994851600,4.2338515625,-0.3600175532519817,0.14969393705688416,0.3292268397994339
1761478589004887600,4.243887451171875,-0.4224140959322452,0.06680546343000605,0.29754326916038987
1761478589014923500,4.253923583984375,-0.467894575124979,0.004383402715995907,0.24856997941583395
1761478589024958700,4.263958740234375,-0.5414847119927406,-0.10635050642546266,0.18299948287457227
1761478589034994700,4.27399462890625,-0.5852256540417671,-0.18573749300371856,0.10478095555379986
1761478589045030700,4.28403076171875,-0.5656365719527006,-0.16420735984947532,0.039679099437594414
1761478589055066600,4.294066650390625,-0.5330389552086592,-0.12395049705654382,0.0633874534137547
1761478589065102600,4.3041025390625,-0.4656768990755081,-0.08854571393728256,0.1728537903048098
1761478589075137500,4.314137451171875,-0.37089550561904905,-0.06475998387597501,0.2904945196926594
1761478589085173500,4.324173583984375,-0.2810691042214632,-0.014103928676247596,0.3820829623267054
1761478589095209500,4.33420947265625,-0.13182079204022884,0.009793700794316828,0.4239543111115694
1761478589105245700,4.34424560546875,-0.026330957564711568,-0.030726562175154685,0.3700396194420755
1761478589115281700,4.35428173828125,0.06796820533275603,-0.12053966569975018,0.19687471736148
1761478589125317600,4.364317626953125,0.16974749485254287,-0.20566640150640159,0.032804099101573225
1761478589135352600,4.3743525390625,0.15537819323837757,-0.3133896210571751,-0.0713730453401804
1761478589145388800,4.384388916015625,0.06037643502950668,-0.3500754934955388,-0.1432774210780859
1761478589155424800,4.3944248046875,-0.09004092093110085,-0.3340805634409189,-0.11459127868935465
1761478589165460700,4.404460693359375,-0.1922416507333517,-0.2994011902530677,-0.025549744059145448
1761478589175496700,4.41449658203125,-0.18535949000418184,-0.25670413123378527,0.008705430633574724
1761478589185533000,4.424532958984375,-0.09386018695831298,-0.22727376461531965,0.06597425503656268
1761478589195567600,4.434567626953125,-0.11130348919034004,-0.23011344502065328,0.15963745811805127
1761478589205603800,4.444603759765625,-0.10071370611488818,-0.2541670687705278,0.2036041717469692
1761478589215639800,4.454639892578125,-0.09922785147130489,-0.29943123833145946,0.21031331399679182
1761478589225675800,4.46467578125,-0.1259188745200634,-0.33058143274616447,0.16060118858367203
1761478589235711700,4.474711669921875,-0.19094225857257843,-0.341879510221444,0.128221013982594
1761478589245747700,4.484747802734375,-0.29011165785491466,-0.35621633433811367,0.10169921002089977
1761478589255783000,4.494782958984375,-0.3310205913484096,-0.33433209051657464,0.09885244228765368
1761478589265819000,4.50481884765625,-0.3772860834389925,-0.27847050256300715,0.10812456689327955
1761478589275854800,4.514854736328125,-0.4147340628236532,-0.27721827401220794,0.048963352872431275
1761478589285890800,4.524890869140625,-0.38846681814491746,-0.27091435156241056,0.022067893292754888
1761478589295926800,4.5349267578125,-0.3662228376328945,-0.254833935181424,0.06310308351442218
1761478589305961700,4.544961669921875,-0.30835400151014325,-0.30999705600943417,0.16833178283572195
1761478589315998000,4.554998046875,-0.24537293694019316,-0.3352298796065151,0.22806173665523527
1761478589326034000,4.565033935546875,-0.21634265728890895,-0.2840503485219553,0.2438333062827587
1761478589336070000,4.57506982421875,-0.1953478000551462,-0.2713079905224964,0.2207715796470642
1761478589346105900,4.58510595703125,-0.09781389302015304,-0.3660183280367404,0.24715762839987873
1761478589356142800,4.595142822265625,-0.05878361288011074,-0.4365245639471337,0.26480186003148554
1761478589366177800,4.605177734375,-0.14914660537242888,-0.4424158139428124,0.24687851919755338
1761478589376213800,4.6152138671875,-0.35946751815378664,-0.4017791215194389,0.16114450168013572
1761478589386249700,4.625249755859375,-0.5701514190286397,-0.2948593273060396,0.10515066564902663
1761478589396285700,4.63528564453125,-0.7154045240938663,-0.2723353608088568,0.09467398755922914
1761478589406321700,4.64532177734375,-0.7471440627038478,-0.3031749549044296,0.22315584443509578
1761478589416356900,4.65535693359375,-0.6802250741630792,-0.35762521475534886,0.4167363425567746
1761478589426392800,4.665392822265625,-0.5478624303311109,-0.39361890367846936,0.5319679649762808
1761478589436428800,4.6754287109375,-0.4138794918209314,-0.40846130269709974,0.602635638526082
1761478589446464800,4.68546484375,-0.2792646851480007,-0.405111444279924,0.6224732885487377
1761478589456500700,4.695500732421875,-0.25076690493822096,-0.3997373500261456,0.6069296824581921
1761478589466536700,4.70553662109375,-0.2947229510426521,-0.3836117062639445,0.598959580361843
1761478589476572000,4.715572021484375,-0.4540659562587738,-0.36133550398275255,0.5449520958423614
1761478589486608000,4.72560791015625,-0.5839513963222503,-0.3389749113537371,0.5000589150182903
1761478589496643800,4.735643798828125,-0.5828729534357786,-0.31451325479224324,0.5395167729206383
1761478589506679800,4.7456796875,-0.42386429474055765,-0.22062800645790992,0.6135398943781852
1761478589516715800,4.7557158203125,-0.10505436566770077,-0.135552379783988,0.6891584683336317
1761478589526751700,4.765751708984375,0.1773667376846075,-0.08905614767745136,0.8338530627332628
1761478589536786700,4.77578662109375,0.1282102003276348,0.08171652550436556,1.1997149580992759
1761478589546823000,4.785822998046875,0.12949439491927622,-0.08806012237742543,1.1284857051439583
1761478589556859000,4.79585888671875,-0.14378887773156165,-0.4921079560138285,0.6931181657448411
1761478589566894800,4.805894775390625,-0.8129261561691761,-0.25944237882494925,0.2529106389686465
1761478589576930800,4.815930908203125,-1.411367265614867,0.00035012861192226406,-0.15219780963659285
1761478589586966800,4.825966796875,-1.9589456183075904,0.06503573207743465,-0.40909985632896423
1761478589597001700,4.836001708984375,-2.3952076223284005,0.16556246425285934,-0.6949049030311405
1761478589607037700,4.84603759765625,-2.5259277596503495,0.37091698679849505,-0.8545756788969039
1761478589617073700,4.85607373046875,-2.3423609982818365,0.47768049447163935,-0.8693598449222742
1761478589627110000,4.86610986328125,-1.83026078620553,0.48042540926560756,-0.8073978942669927
1761478589637145900,4.876145751953125,-1.1335790827602148,0.4435151900194585,-0.7548607745610177
1761478589647181800,4.886181884765625,-0.3949222778946161,0.41915619011484084,-0.6116257313199341
1761478589657216800,4.896216796875,0.17017653391957283,0.39998789072111246,-0.3484925351530313
1761478589667252700,4.906252685546875,0.5771183354318141,0.4209361323341727,-0.04673208668902516
1761478589677288700,4.916288818359375,0.8024246358990669,0.4097499908007681,0.2336294537849724
1761478589687324700,4.92632470703125,0.9237076673120259,0.3582832037400454,0.48898222520872947
1761478589697360600,4.936360595703125,1.0197656565755606,0.34911125157326456,0.6053776307106018
1761478589707396900,4.94639697265625,1.099810668671131,0.36122415256276724,0.5101826880171895
1761478589717431800,4.956431884765625,1.1187860027760266,0.25051760635226966,0.3276913007952273
1761478589727467800,4.9664677734375,1.2617799307376145,0.09100560124479233,0.14741013696864247
1761478589737503700,4.976503662109375,1.3790706776440143,0.04443228531405329,0.050506198400259016
1761478589747539700,4.986539794921875,1.3517372650384902,0.11064195654168725,0.04802154197767377
1761478589757575700,4.99657568359375,0.9952133991211652,0.18547551759928463,0.16036825661063192
1761478589767611600,5.006611572265625,0.46353521087169647,0.2911880549147725,0.29451705320701
1761478589777646800,5.016646728515625,-0.10804945583045482,0.5065536838650703,0.34082623830884695
1761478589787682800,5.026682861328125,-0.5847340711325407,0.7614454136483371,0.35000104001984
1761478589797718800,5.03671875,-0.9489251106768846,0.8854618886131793,0.42285511769801376
1761478589807754800,5.046754638671875,-1.175203471046686,0.9218515180513263,0.4458237592227757
1761478589817790700,5.056790771484375,-1.207515256586671,0.9605421909734606,0.2967690699175
1761478589827826700,5.06682666015625,-1.0155611906230448,1.0151746024582535,0.18665698246881365
1761478589837862000,5.07686181640625,-0.5989496434897184,1.068365144571662,0.17196224829256535
1761478589847897900,5.08689794921875,-0.1454728852957487,1.0497691651731729,0.08460472122654318
1761478589857933800,5.096933837890625,0.2596785256683826,0.9899432766985148,-0.22023265046477317
1761478589867969800,5.1069697265625,0.5188520244240761,0.9220775088269263,-0.6146430333144962
1761478589878005800,5.117005859375,0.8037526696324347,0.8437778060287237,-1.0010526266686617
1761478589888040700,5.127040771484375,0.9991431397855282,0.7310852005675434,-1.2707730922713876
1761478589898076700,5.13707666015625,0.9907499899715184,0.6522417462814599,-1.38956898304373
1761478589908112600,5.147112548828125,0.9435480938136577,0.616501959054172,-1.4009393951028584
1761478589918148900,5.15714892578125,0.7941723558604716,0.5629089736197144,-1.3895045395053922
1761478589928184800,5.167184814453125,0.528552165183425,0.46196167794466014,-1.3445511529266834
1761478589938220800,5.177220703125,0.30265666665136814,0.371511007168889,-1.2008078679025171
1761478589948256800,5.1872568359375,0.11756313410699366,0.3117931821785867,-1.0165674450561404
1761478589958291700,5.197291748046875,-0.013473229557275772,0.33283940427340564,-0.9010815556146204
1761478589968327700,5.20732763671875,-0.1736848343014717,0.337159532494843,-0.8295593110620975
1761478589978363600,5.21736376953125,-0.4498082988142967,0.3561408579491079,-0.7442759599216282
1761478589988399900,5.22739990234375,-0.7483908478945493,0.3631248716175556,-0.5805088546529412
1761478589998435800,5.237435791015625,-0.8646773861944675,0.25149733810462055,-0.3452586677983403
1761478590008471800,5.247471923828125,-0.9813286661535501,0.15852328633107243,-0.1964414405107498
1761478590018506800,5.2575068359375,-0.9612883331656455,0.15460501690879463,-0.16438713686317205
1761478590028542700,5.267542724609375,-0.895126300472021,0.1460797651477158,-0.1836255058184266
1761478590038578700,5.27757861328125,-0.7230535775423049,0.1455159937851131,-0.27229396935254335
1761478590048614700,5.28761474609375,-0.4809481179654598,0.08610781926587223,-0.3696573421262204
1761478590058650600,5.297650634765625,-0.24305881477892397,0.0007043488770723343,-0.47614466320648785
1761478590068685800,5.307685791015625,-0.004196867167949677,-0.01983355836942792,-0.5964353225812316
1761478590078721800,5.3177216796875,0.10490648162961005,-0.01588869320116937,-0.5870682131685316
1761478590088757800,5.3277578125,0.08886953906416893,0.006227715408429503,-0.4352548728048801
1761478590098793700,5.337793701171875,-0.013377952489256857,0.04909318979717791,-0.28988968566730616
1761478590108829700,5.34782958984375,-0.11109364583194255,0.024379385105520485,-0.226530143173784
1761478590118865700,5.35786572265625,-0.16725918516814708,0.04308569301068783,-0.20960282763987778
1761478590128902100,5.367902099609375,-0.11435410893261432,0.11803674296811223,-0.1944599113047123
1761478590138937000,5.37793701171875,0.04876198508143425,0.13305164900943636,-0.20310908170640468
1761478590148973000,5.38797314453125,0.24961305872797965,0.09845197172798216,-0.21819456876590845
1761478590159009300,5.39800927734375,0.42321372187733647,0.03473170616328716,-0.2496256259486079
1761478590169045200,5.408045166015625,0.5478250209301709,-0.03454078670106828,-0.2919038019686937
1761478590179081200,5.418081298828125,0.5871908166348934,-0.07108567976616323,-0.3005272534072399
1761478590189116000,5.428115966796875,0.48465281770229335,-0.07332819799594581,-0.2697840323582291
1761478590199151900,5.43815185546875,0.3225783416956663,-0.05354629674851894,-0.2632463011525571
1761478590209188000,5.44818798828125,0.19375965408086776,-0.011505436615645884,-0.22445494433492422
1761478590219224300,5.458224365234375,0.1357733290582895,-0.022861966279894112,-0.13758812339529394
1761478590229260300,5.46826025390625,0.1552320627659559,-0.1082457821201533,-0.04756298455521464
1761478590239296300,5.478296142578125,0.16625088490843773,-0.2314710336420685,0.01125116959363222
1761478590249331000,5.4883310546875,0.26304069557785986,-0.3034354690041393,0.006814940711855888
1761478590259367000,5.498366943359375,0.383376217007637,-0.29126068175956604,-0.0033981180056929586
1761478590269403100,5.508403076171875,0.4662690197497606,-0.26686076532267033,0.020965338878333566
1761478590279439000,5.518439208984375,0.4899772275954485,-0.28570633556805547,0.0928179844290018
1761478590289475300,5.528475341796875,0.37905543119907376,-0.3133835931751877,0.08051555221676826
1761478590299511300,5.53851123046875,0.19423487037718296,-0.2877553770523518,-0.017644085501134395
1761478590309546000,5.5485458984375,0.013012626308202742,-0.29720694987811147,-0.08673018894791602
1761478590319582000,5.55858203125,-0.05426876580417156,-0.39818668651804323,-0.08163286580890416
1761478590329618200,5.5686181640625,-0.03395136944055557,-0.4355353702466935,-0.02173427742421627
1761478590339654100,5.578654052734375,0.05184533804953098,-0.4676239414900541,0.08883622131645678
1761478590349690000,5.588690185546875,0.07110884144604206,-0.544956479756534,0.2778252999946475
1761478590359726000,5.59872607421875,0.05470131200253963,-0.5700809841409326,0.3228738175109029
1761478590369761000,5.608760986328125,0.0895545987188816,-0.5111949337996542,0.18635668434798716
1761478590379797200,5.61879736328125,0.1121107139199972,-0.5593026927560567,0.003567337092757225
1761478590389833200,5.628833251953125,0.17646482040882108,-0.6944429846078157,-0.12863660904616117
1761478590399869200,5.638869140625,0.19973697492480277,-0.7640290004007518,-0.17679799788594244
1761478590409905200,5.6489052734375,0.14696049350500107,-0.8678365808777511,-0.184493813085556
1761478590419941000,5.658941162109375,-0.011212298887968063,-0.9807450941119342,-0.22111294043064117
1761478590429976000,5.66897607421875,-0.1203589023053646,-1.0331829181618988,-0.32925065906643863
1761478590440012300,5.67901220703125,-0.20111761562824249,-0.99090576505512,-0.4397466312661767
1761478590450048300,5.68904833984375,-0.2708043153166771,-0.9004952801592647,-0.5766767291441559
1761478590460084200,5.699084228515625,-0.31773090166449547,-0.892050473223254,-0.5880860119089484
1761478590470120200,5.7091201171875,-0.38286066870093344,-0.9606111645564437,-0.40230683518797156
1761478590480156200,5.71915625,-0.38501346282064913,-0.9956689608689397,-0.18070611124038696
1761478590490191000,5.729191162109375,-0.4078624234884977,-1.0048160708554088,-0.10128419947922229
1761478590500227300,5.739227294921875,-0.5262012181431055,-0.9524458321489393,-0.11278349861502647
1761478590510263300,5.74926318359375,-0.4447288035929203,-0.8696664266534149,0.009428338080644607
1761478590520299300,5.75929931640625,-0.17247487398982048,-0.6021177521318197,0.33225334801375866
1761478590530335200,5.769335205078125,0.09472995553016662,-0.10401873900964856,0.7268439097359776
1761478590540371200,5.77937109375,0.32603988032639025,0.0945070334944874,0.9793176185920834
1761478590550406100,5.78940625,0.4531014951407909,-0.023143851961195467,0.8705152985677123
1761478590560442000,5.799442138671875,0.20863924330472944,0.12729966135397552,0.2690148015514016
1761478590570478000,5.80947802734375,-0.25580957528054715,0.42010976451262827,-0.4122155041314661
1761478590580514300,5.819514404296875,-0.7407517313182354,0.4694890777748078,-0.9518629176944494
1761478590590550300,5.82955029296875,-1.2525363015741109,0.523695372802019,-1.2976591995008289
1761478590600586200,5.839586181640625,-1.8427315607219934,0.8464909374449402,-1.4303366083703934
1761478590610621200,5.84962109375,-2.25878372040689,1.1762567794919014,-1.3345090668618678
1761478590620657200,5.8596572265625,-2.4408050058990716,1.274211250026524,-1.133334898740798
1761478590630693000,5.869693115234375,-2.3621575856417416,1.1246301987595855,-1.029038657964021
1761478590640729000,5.87972900390625,-2.037625187268853,0.9043838120304047,-0.8537358670718967
1761478590650765000,5.88976513671875,-1.602914504343271,0.8791745519720018,-0.6817747878231107
1761478590660800300,5.89980029296875,-1.1416267801374196,0.8976153408087789,-0.681763097385317
1761478590670836200,5.909836181640625,-0.6387929935783148,0.9433128968182951,-0.8138261737488209
1761478590680872200,5.9198720703125,-0.13803367520570753,0.9396533513974398,-0.8910014756269753
1761478590690908200,5.929908203125,0.3779214587330818,0.8541160254959016,-0.7956219701468944
1761478590700944100,5.939944091796875,0.8567278884947299,0.8631039263326674,-0.5042886615425348
1761478590710980000,5.94997998046875,1.2104139006376267,0.7926189889386296,-0.16069178947657345
1761478590721015300,5.960015380859375,1.3215239130824803,0.8010822813794016,0.11345949818044901
1761478590731051300,5.97005126953125,1.2917244026243686,0.8380152239140123,0.37975335033535956
1761478590741087200,5.980087158203125,1.1254372773587702,0.8885194495528936,0.6198442552193999
1761478590751123200,5.990123291015625,0.9224497762054205,0.9437177512921392,0.7905503659710288
1761478590761159200,6.0001591796875,0.6684528033047914,0.982363123767823,0.7256031158946454
1761478590771195100,6.010195068359375,0.4494301131516695,0.9851772313404827,0.508270132394135
1761478590781230300,6.020230224609375,0.21629940266907213,0.8926752540580928,0.1548281581401825
1761478590791266300,6.030266357421875,-0.03296703457832336,0.8357320814128965,-0.14696984585523604
1761478590801302300,6.04030224609375,-0.21493045240342615,0.8365332417279482,-0.3337739817097783
1761478590811338200,6.050338134765625,-0.3994453082770109,0.7960379305366426,-0.45117637229710816
1761478590821374200,6.060374267578125,-0.5395300707936287,0.7621278429545462,-0.576585982120782
1761478590831410200,6.07041015625,-0.5063520238131285,0.8181595998432487,-0.7672922399803995
1761478590841445000,6.080445068359375,-0.41241701805293557,0.9378566772390157,-0.8435070262633264
1761478590851481000,6.090481201171875,-0.26447160516381263,1.0657779045574367,-0.6318076647356152
1761478590861517300,6.100517333984375,-0.17869710950553416,1.2160728031821548,-0.2230649512812495
1761478590871553300,6.11055322265625,-0.10590309145152568,1.4006068021476268,0.20369842590168116
1761478590881589200,6.12058935546875,-0.030270635101199147,1.5066466717213391,0.4853365621827542
1761478590891625200,6.130625244140625,0.08348609246015548,1.4901811284802853,0.593133358426392
1761478590901660200,6.14066015625,0.14521043496727942,1.3485852307483552,0.6639931935474276
1761478590911696100,6.150696044921875,0.1873445263415575,1.152548790841922,0.6351695423841476
1761478590921732000,6.160732177734375,0.12485621372461318,1.0319680624794214,0.4047561280362308
1761478590931768000,6.17076806640625,-0.002970540243387222,1.0406830646589398,0.05101224822625518
1761478590941804300,6.18080419921875,-0.1614811862885952,0.99041367068924,-0.24016119364127517
1761478590951839200,6.190839111328125,-0.2401122399330139,0.8420472559090704,-0.4802130816891789
1761478590961875200,6.200875244140625,-0.1377004977285862,0.6599193682372569,-0.6285191445842385
1761478590971911200,6.2109111328125,0.055308045724034305,0.5433132425941527,-0.6614088761426508
1761478590981947100,6.220947021484375,0.26819208699166774,0.5251973017975687,-0.5203372945457697
1761478590991983000,6.230983154296875,0.3120855892539024,0.5760296634122729,-0.2929199932739138
1761478591002019000,6.24101904296875,0.1925947019547224,0.6631487786125392,0.036437048776447774
1761478591012054300,6.25105419921875,-0.03761106099188328,0.6387479853928089,0.39963337819501754
1761478591022090200,6.26109033203125,-0.3379366543471813,0.5583030141942202,0.623543255867809
1761478591032126200,6.271126220703125,-0.6610615240097045,0.525889448780194,0.5575559952192009
1761478591042162200,6.281162109375,-0.8037713743329048,0.4753239214081317,0.27898835242465136
1761478591052198100,6.2911982421875,-0.7520493704020976,0.33251652899459,-0.03378580361530185
1761478591062234000,6.301234130859375,-0.5250356814950704,0.2597040985010564,-0.20760756216943263
1761478591072269300,6.311269287109375,-0.2445306408971548,0.2861122860204428,-0.17819822007268665
1761478591082305300,6.32130517578125,0.010795534780621528,0.25848916975334285,-0.020723492946475745
1761478591092341200,6.33134130859375,0.27873452379405494,0.2519811030335724,0.23873393731713294
1761478591102377200,6.341377197265625,0.4789548983216285,0.31136765024289487,0.5635026286639273
1761478591112413200,6.3514130859375,0.47199558070302006,0.3306344415750354,0.7569882881090044
1761478591122449200,6.36144921875,0.3211538618505001,0.2489640932999551,0.7172114273853599
1761478591132483600,6.371483642578125,0.06325345177054405,0.1667536467988044,0.5023455646507442
1761478591142519800,6.381519775390625,-0.23221418015956877,0.09764766960777342,0.2230702119782567
1761478591152555800,6.3915556640625,-0.4531465033262968,0.045835868501663206,-0.006479863538593054
1761478591162591700,6.401591796875,-0.538397267371416,0.037485973307490345,-0.046506022848188874
1761478591172627700,6.411627685546875,-0.5183610260367393,0.0798137606229633,0.07496785496175289
1761478591182662400,6.421662353515625,-0.4142553393959999,0.13821750734001398,0.2712991130962968
1761478591192698600,6.43169873046875,-0.2976338700532913,0.18341376276388763,0.3991235289767384
1761478591202734600,6.441734619140625,-0.2539285838395357,0.1798995440978557,0.45586906015798445
1761478591212770800,6.451770751953125,-0.2686176189273596,0.12845350756421683,0.41525516408830876
1761478591222806800,6.461806884765625,-0.23957798692584037,0.087098583868891,0.28716479074805973
1761478591232842800,6.4718427734375,-0.14760463662743567,0.0225303962379694,0.06369169705733657
1761478591242877400,6.48187744140625,-0.04525719183087348,0.015690394150093198,-0.17271145922467113
1761478591252913700,6.49191357421875,0.1080108773857355,0.038117987600713964,-0.20007307501137256
1761478591262949600,6.50194970703125,0.1654056662559509,0.09839476164802909,0.0055171559862792485
1761478591272985600,6.511985595703125,0.13791677082777024,0.0857565946754068,0.2650663561865687
1761478591283021600,6.522021484375,-0.03523439498841762,0.07646269662939012,0.3636570787981152
1761478591293057800,6.532057861328125,-0.3652718205183744,0.05285319991782307,0.22356281780079007
1761478591303092700,6.5420927734375,-0.6199386555045843,-0.048615562348067756,-0.1778993832565844
1761478591313128700,6.552128662109375,-0.7199293080419301,-0.10669015017598867,-0.6918558907240628
1761478591323164700,6.56216455078125,-0.699744598147273,-0.12619608402624727,-0.9763459093049168
1761478591333200600,6.57220068359375,-0.6669868224054575,-0.14037432004772127,-0.8667859027810394
1761478591343236600,6.582236572265625,-0.6568249093532562,-0.1156609537474811,-0.6058592767477036
1761478591353271600,6.592271484375,-0.6390262178122997,-0.05971965162120759,-0.35362273764833807
1761478591363307800,6.602307861328125,-0.5549667093783617,-0.04472812645547092,-0.1635781585678458
1761478591373343700,6.61234375,-0.4186667260974645,-0.0583607843581587,-0.02299246079176664
1761478591383379700,6.622379638671875,-0.15794190624654292,-0.11803966557756065,0.03855623288750648
1761478591393415700,6.632415771484375,0.03738602006435394,-0.15171550601236522,0.02055909616500139
1761478591403451600,6.64245166015625,0.12233692438006401,-0.17596892665065825,0.01663257037103176
1761478591413486600,6.652486572265625,0.20425883626341818,-0.19118549274392424,0.053343467652797696
1761478591423522800,6.662522705078125,0.2745224590569734,-0.1755305352333933,0.10779811141788959
1761478591433558800,6.672558837890625,0.38595454306304455,-0.18133702955506742,0.20925094546228645
1761478591443594800,6.6825947265625,0.40705519875884055,-0.24611893300190565,0.2848638203293085
1761478591453630700,6.692630615234375,0.407763054767251,-0.29736235963553187,0.2742164618477225
1761478591463666700,6.702666748046875,0.3766489545792341,-0.35060441274046894,0.20653993293792008
1761478591473701600,6.71270166015625,0.30452947478592396,-0.46374936507903036,0.048293783047795295
1761478591483737600,6.722737548828125,0.1392985805749893,-0.5196155561424791,-0.16242811174988744
1761478591493773800,6.73277392578125,-0.13329787885546684,-0.5226750167783349,-0.2654772750750184
1761478591503809800,6.742809814453125,-0.42434301816821096,-0.47998533734790977,-0.26017478475272654
1761478591513845800,6.752845703125,-0.560980855101347,-0.422643447708711,-0.13659838170558214
1761478591523880700,6.762880615234375,-0.5229582906991243,-0.37978937149681147,0.05675736774951219
1761478591533916700,6.772916748046875,-0.4139198238313198,-0.36281624405980106,0.2505646603643894
1761478591543952600,6.78295263671875,-0.364789589959383,-0.32501967043317853,0.34918782394081355
1761478591553988600,6.792988525390625,-0.3634568800508976,-0.29491175161302086,0.39798341903090473
1761478591564024600,6.803024658203125,-0.3488186983674764,-0.3231633019767701,0.43116731123030183
1761478591574060800,6.813060791015625,-0.3328746947824955,-0.40387656872272487,0.4643102868974209
1761478591584095700,6.823095703125,-0.38706279656589027,-0.42546522713117296,0.3912327757269144
1761478591594131700,6.833131591796875,-0.43413785147368905,-0.39054662009365854,0.23257132303416728
1761478591604167700,6.843167724609375,-0.4185182575374841,-0.3961177712894976,0.20616437762379644
1761478591614203600,6.85320361328125,-0.3670154493153095,-0.3851366508089006,0.26472674896866083
1761478591624239600,6.863239501953125,-0.41003859848380086,-0.4042865377631038,0.2397282090514898
1761478591634274600,6.873274658203125,-0.4661807569444179,-0.42234753350205717,0.11474719990342855
1761478591644310800,6.883310791015625,-0.44352176589071746,-0.3183741680040955,0.013466215294599532
1761478591654346800,6.8933466796875,-0.2589642399191856,-0.18294687590450048,0.03310819661468267
1761478591664382700,6.9033828125,0.02767301982343197,-0.016961363933980463,0.15280308205336332
1761478591674418700,6.913418701171875,0.1651011303514242,0.13960136291384695,0.3020835429385304
1761478591684454700,6.92345458984375,-0.00023205519020557403,0.17940116612166165,0.5122206235855817
1761478591694489600,6.933489501953125,-0.5045107798606157,0.2005343358475715,0.7250710548445582
1761478591704525800,6.94352587890625,-1.186997953736782,0.32347974751479924,0.8654904561430216
1761478591714561800,6.953561767578125,-1.722312452661991,0.4556085825908929,0.8413309973984956
1761478591724597800,6.96359765625,-2.04542621640861,0.5464460607271641,0.5500991033419966
1761478591734633700,6.9736337890625,-1.9829472561419008,0.5475711922995746,-0.019681436547636984
1761478591744668400,6.98366845703125,-1.5149877990871667,0.5243247567467392,-0.6572530716374516
1761478591754704600,6.99370458984375,-0.8170657401919365,0.513696395226568,-1.0835028002098201
1761478591764740600,7.00374072265625,-0.14458207393586633,0.5009982416950166,-1.1466884474411607
1761478591774776600,7.013776611328125,0.2471931381046772,0.4360076639335602,-0.7841855071142315
1761478591784812800,7.023812744140625,0.4060544972836971,0.3617066023174673,-0.27238661607205866
1761478591794848800,7.033848876953125,0.29541444043815135,0.4181612607933581,-0.008291150744259356
1761478591804883700,7.0438837890625,0.12426760018169879,0.4988649559933692,0.05899491754323244
1761478591814919700,7.053919677734375,0.06395896969139575,0.4779677869804203,0.14749854590445757
1761478591824955600,7.06395556640625,0.17983108197152614,0.31877456549853084,0.2174406816586852
1761478591834991600,7.07399169921875,0.43774493605494497,0.2435240942031145,0.1952019618436694
1761478591845027600,7.084027587890625,0.6516501370638609,0.240107417627424,0.1570560633227229
1761478591855063600,7.0940634765625,0.7957447197437286,0.2059182939082384,0.17065817995667457
1761478591865098800,7.1040986328125,0.8950380376666783,0.15297631972841919,0.21724486682564018
1761478591875134700,7.114134765625,0.8589730370730161,0.06652063687294721,0.2987976531356573
1761478591885170700,7.124170654296875,0.6479729098558425,0.027924218105524777,0.29095424615889787
1761478591895206700,7.13420654296875,0.26657529944479463,0.05692402955330908,0.22516747651845215
1761478591905242600,7.14424267578125,-0.2623521287918091,0.1394314131744206,0.17290858923196792
1761478591915277800,7.15427783203125,-0.7828039896279573,0.29918226853907104,0.1634241370499134
1761478591925313800,7.164313720703125,-1.2795014653891323,0.5471728406317532,0.1811538550078869
1761478591935349800,7.174349853515625,-1.5980840154469012,0.7852063745945692,0.2380398175731301
1761478591945385700,7.1843857421875,-1.6415566619485615,0.938784240412712,0.2969724835351109
1761478591955421700,7.194421630859375,-1.3405261351943014,0.9799775438055396,0.38682635746151206
1761478591965457700,7.204457763671875,-0.8375146539807319,0.9354206091985106,0.37645810818225145
1761478591975492600,7.21449267578125,-0.3377197967261076,0.8916646157108247,0.24914982513040304
1761478591985528800,7.22452880859375,0.0785094730913639,0.8957424596089869,0.07275251699984073
1761478591995564800,7.234564697265625,0.33414310728311536,0.8882461125042289,-0.045347208201885224
1761478592005600800,7.244600830078125,0.4773059620708227,0.8658909997679293,-0.13715893819779157
1761478592015636700,7.25463671875,0.49079964989423747,0.7969117176964878,-0.35886692191213365
1761478592025671700,7.264671630859375,0.48066637841463083,0.7045825396977364,-0.7065624614685774
1761478592035707600,7.274707763671875,0.5334370146155357,0.6136608904093503,-1.0459054754823445
1761478592045743600,7.28474365234375,0.561650132665038,0.5705024974886328,-1.2736617994502186
1761478592055779600,7.294779541015625,0.5295177953451872,0.5198555023781954,-1.4214774484798312
1761478592065815800,7.30481591796875,0.4478659325748682,0.4209980916544795,-1.573179291293025
1761478592075851800,7.314851806640625,0.3726391344159841,0.3251139976531267,-1.5697186294451355
1761478592085886700,7.32488671875,0.2520961077153683,0.3160461634479463,-1.384824711126089
1761478592095922700,7.334922607421875,0.11705401554107665,0.33948213022351265,-0.9915551688745617
1761478592105958700,7.344958740234375,-0.04650163893401622,0.3099574181187898,-0.5704390037983655
1761478592115994600,7.35499462890625,-0.20079320597946643,0.2355911823119968,-0.34296441938132044
1761478592126030600,7.365030517578125,-0.38031566039323805,0.2145695832017809,-0.31765520607978104
1761478592136065000,7.37506494140625,-0.6212684428036213,0.26425153267234563,-0.32163287753909825
1761478592146101000,7.38510107421875,-0.76828914206326,0.27039916858188806,-0.27513357669264077
1761478592156137000,7.395136962890625,-0.7456430104911327,0.1884921620067209,-0.261719968368113
1761478592166173000,7.4051728515625,-0.5761071125626563,0.17301760256439447,-0.3085542002573609
1761478592176209000,7.415208984375,-0.41938393445611,0.15772271053791045,-0.3352119055584073
1761478592186244900,7.425244873046875,-0.17936404898166655,0.1026816451869905,-0.3618555823341012
1761478592196280000,7.435280029296875,0.10223697015941142,0.07942702632769942,-0.3979547774583101
1761478592206316000,7.44531591796875,0.37214988959431644,0.06649835197590291,-0.43578824902921914
1761478592216352000,7.45535205078125,0.49572015516161916,0.06897782076671718,-0.4468710763186216
1761478592226388000,7.465387939453125,0.48281975705623625,0.11816234210915863,-0.3801861887946725
1761478592236424000,7.475423828125,0.4228022184669971,0.21411014899648725,-0.23191344364732502
1761478592246459000,7.485458984375,0.2795698055744171,0.30739516641534864,-0.10826982058286666
1761478592256495000,7.4954951171875,0.07897592155933379,0.32808205367848275,-0.1036889225333929
1761478592266531000,7.505531005859375,0.004568623089790344,0.29541290606819093,-0.28566607662290333
1761478592276567000,7.515567138671875,0.10984159994423388,0.2548519092295319,-0.5256511830449104
1761478592286603000,7.52560302734375,0.3349468248814344,0.12305880891382694,-0.6472112778335809
1761478592296639000,7.535638916015625,0.5862193412542342,0.061850672300532455,-0.6415139429748058
1761478592306674000,7.545673828125,0.7072019284158945,0.009739084530249237,-0.5409463673323393
1761478592316710000,7.5557099609375,0.5809703346848487,-0.07030877710953354,-0.3914771058768034
1761478592326746000,7.56574609375,0.34336920078992844,-0.07572035382948815,-0.3216583042412996
1761478592336782000,7.575781982421875,0.07725275102853775,-0.12918605962246657,-0.2592956638306379
1761478592346818000,7.585818115234375,-0.1765916616588831,-0.215419404964149,-0.18847440715432165
1761478592356853000,7.59585302734375,-0.306526786082983,-0.2116357217069715,-0.14560878663510082
1761478592366889000,7.605888916015625,-0.30524551410079,-0.16535262089446187,-0.08902209927737713
1761478592376925000,7.615925048828125,-0.166669987103343,-0.18453940579295158,-0.07544833195507526
1761478592386961000,7.6259609375,-0.006526771420240402,-0.21262758228853343,-0.08064531607627869
1761478592396996900,7.635996826171875,0.1312514677196741,-0.2108525354400277,0.005811316627264022
1761478592407033000,7.646033203125,0.37421149829924105,-0.3306936244163662,0.08319441603720187
1761478592417068000,7.656068115234375,0.5867156003385782,-0.496927192863822,0.034844811148941515
1761478592427104000,7.66610400390625,0.43525428828299045,-0.6219372819758952,0.03142214322388172
1761478592437140000,7.676139892578125,0.3225643131703138,-0.7340985570393502,0.025359774444997308
1761478592447176000,7.686176025390625,0.1771966418147087,-0.7955675365459174,0.05243950455039739
1761478592457212000,7.6962119140625,-0.07399754862487316,-0.7051005722224712,0.1283168755725026
1761478592467247000,7.7062470703125,-0.2545037533789873,-0.6345742068395018,0.29417291594445705
1761478592477283000,7.716282958984375,-0.4683206915825605,-0.6070938600439578,0.5899880461379885
1761478592487319000,7.726319091796875,-0.5711427681535483,-0.5646602012012154,0.7255871876731514
1761478592497355000,7.73635498046875,-0.5434054509222507,-0.5462834175113588,0.6465460919231176
1761478592507391000,7.746390869140625,-0.43042087677717206,-0.6171243287362158,0.4554492273107171
1761478592517427000,7.756427001953125,-0.2770826649338007,-0.7611145742587745,0.25742139439135786
1761478592527462000,7.7664619140625,-0.13273439975380896,-0.8584384187396615,0.04812310265600681
1761478592537498000,7.776498046875,0.09153788149058818,-0.8889620056886225,-0.10027794504612683
1761478592547534000,7.7865341796875,0.2934206362724304,-0.952942018168047,-0.2524088269263506
1761478592557570000,7.796570068359375,0.2992214315056801,-0.9486257624041289,-0.44558103650808334
1761478592567606000,7.80660595703125,0.14124562298953533,-0.8344561431929468,-0.6031973640620708
1761478592577641000,7.816640869140625,-0.11074059461057185,-0.8155976404007523,-0.646569472798705
1761478592587677000,7.826677001953125,-0.3218985427379608,-0.887614025145769,-0.5737105728149414
1761478592597713000,7.836712890625,-0.39731121885776516,-0.8852059410907328,-0.3671604107439518
1761478592607748900,7.846748779296875,-0.4204454262077808,-0.8608506675131619,-0.1429331376850605
1761478592617785000,7.85678515625,-0.4633686221331358,-0.8461904201284051,-0.02439472880512476
1761478592627821000,7.866821044921875,-0.3737356974810362,-0.8375704027559607,0.010185293927788735
1761478592637856000,7.87685595703125,-0.0748369220584631,-0.8931100652787833,0.04039075483828783
1761478592647892000,7.88689208984375,0.304521876001358,-0.9731032741218805,0.10142828412503004
1761478592657928000,7.896927978515625,0.5211071098744869,-1.0400765501331537,0.13858604839146135
1761478592667964000,7.9069638671875,0.6042758069485425,-1.0984356539908795,0.18171528828293085
1761478592677999900,7.916999755859375,0.5397966127753258,-1.126128912884742,0.11491904933899641
1761478592688035000,7.92703515625,0.3309299904555082,-1.1082587635427712,-0.03143383366167545
1761478592698071000,7.937071044921875,0.1201192483305931,-1.0636194113492965,-0.1817886457800865
1761478592708107000,7.94710693359375,-0.0702531013995409,-0.9480325457513332,-0.3929179523348808
1761478592718143000,7.95714306640625,-0.1722521711498499,-0.7859786010760813,-0.6139443835258483
1761478592728179000,7.967178955078125,-0.11963409516215323,-0.35959764733947813,-0.508943501611054
1761478592738214000,7.9772138671875,-0.04478782075345516,0.14875190696641802,-0.10384674344360828
1761478592748250000,7.98725,0.13380349029004573,0.3450789273172617,0.34934389128535986
1761478592758286000,7.9972861328125,0.17225860089063644,0.4084854507576674,0.5351021713487804
1761478592768322000,8.007322021484375,-0.07188800912499427,0.5465563161686062,0.2204636827416718
1761478592778357000,8.01735693359375,-0.5382300941109657,0.7611363476991653,-0.393891181281209
1761478592788393000,8.02739306640625,-1.3069833465546368,0.830956172247976,-0.832654354467988
1761478592798428200,8.03742822265625,-2.5044956800431013,0.9884273922428488,-1.1613203455142675
1761478592808464100,8.047464111328125,-3.076092037183046,1.1134043097376822,-1.241873014871031
1761478592818500000,8.0575,-2.8818758715063333,1.3015296111933887,-1.0184158494018019
1761478592828536000,8.0675361328125,-2.392417114827037,1.585233740093559,-0.7429527484938502
1761478592838572000,8.077572021484375,-2.324547109171748,1.749116580696404,-0.6899974033758044
1761478592848607000,8.08760693359375,-1.4886749617010353,1.3206257951989768,-0.7117502393700182
1761478592858643000,8.097642822265625,-0.3177595432370901,0.8707891470730305,-0.810713302425295
1761478592868679200,8.10767919921875,0.5521563281327486,0.6720390642937273,-1.1266590742386877
1761478592878715100,8.117715087890625,1.2821803292095661,0.5269640192091465,-1.2804628577671944
1761478592888751000,8.127751220703125,1.6483640038758516,0.4011763698533177,-1.1897444759659468
1761478592898787000,8.137787109375,1.653432393181324,0.43340266906693575,-0.9159395175285637
1761478592908822000,8.147822021484375,1.350721365994215,0.5869795119717717,-0.5923226265653968
1761478592918858000,8.15785791015625,0.9482014725774526,0.8043975434072316,-0.22640695518553255
1761478592928894000,8.16789404296875,0.6651029083549976,1.0298017512910067,0.14259513790234923
1761478592938930000,8.177929931640625,0.46363925576806064,1.172552518146485,0.40109000674411655
1761478592948966100,8.187966064453125,0.27276713982224465,1.2492588873386383,0.49959056685417885
1761478592959001000,8.1980009765625,0.039760347980260846,1.285815178580582,0.5994815584093331
1761478592969037000,8.208037109375,-0.025222704061865806,1.1747051661357284,0.7271797175616026
1761478592979073000,8.218072998046875,0.10482289499938488,0.9792945299774408,0.7226613633543253
1761478592989109000,8.22810888671875,0.13822890551686287,0.7527750543281435,0.4218190526485443
1761478592999145000,8.23814501953125,0.17045885799229143,0.6311508082620799,-0.06457125637084245
1761478593009180200,8.24818017578125,0.09577683423459529,0.5207761243544519,-0.574766803869605
1761478593019216100,8.258216064453125,-0.09910802448391914,0.5911221647344529,-0.9363802480109036
1761478593029252000,8.268252197265625,-0.4624924238204956,0.7117658753305673,-0.9631232935078442
1761478593039288000,8.2782880859375,-0.8875000433772802,0.8304711652100085,-0.8390244740217924
1761478593049324000,8.288323974609375,-1.0324275697499512,0.9842718069333583,-0.42843744787499305
1761478593059360000,8.298360107421875,-0.8819242890715598,1.0767150397658347,0.15567513035833835
1761478593069395000,8.30839501953125,-0.5203612599432468,1.1834062859203667,0.5138517319187521
1761478593079431200,8.31843115234375,-0.14223580307066438,1.2485108454503118,0.5722141967773438
1761478593089467100,8.328467041015625,0.06564005464613437,1.1705189664922655,0.4497483853206038
1761478593099503000,8.338503173828125,0.14988368747532366,1.0117207356773317,0.255154180111736
1761478593109539000,8.3485390625,0.17999065644741058,0.9510834577545523,0.2697588979169726
1761478593119574000,8.358573974609374,0.1044464629024267,0.9316088688906282,0.43453561861962076
1761478593129610000,8.36860986328125,-0.03901625161468982,0.8946618978306651,0.3968497388258576
1761478593139646700,8.378646728515625,-0.28257424808740617,0.9160666510395705,0.17263284103050827
1761478593149682700,8.3886826171875,-0.39024142660200595,0.8581870743270963,0.012413345240801572
1761478593159718700,8.39871875,-0.17081950799822807,0.7070538982473313,-0.05497282242029905
1761478593169753900,8.40875390625,0.25917992849647997,0.5232606346465647,-0.16098127394244074
1761478593179789800,8.418789794921874,0.4984019415915012,0.3812622935935855,-0.3696326460763812
1761478593189825800,8.42882568359375,0.42908816686868667,0.34790677115432916,-0.39910818527713415
1761478593199861800,8.43886181640625,0.5614280143469572,0.9596789252076298,-0.16382891845852135
1761478593209897700,8.448897705078124,0.4034498677432537,0.4007651587039232,0.9750015089586377
1761478593219933700,8.45893359375,-0.3997971904546022,-0.3746641374375671,1.7505689714618027
1761478593229969000,8.468968994140624,-1.4858324317514895,0.08557846162952482,1.4775411348767578
1761478593240004900,8.4790048828125,-1.770965132150054,0.711602866788581,1.0555474563136695
1761478593250040800,8.489040771484374,-1.8909663070589302,0.6463125754281878,0.5305879087947308
1761478593260076800,8.499076904296874,-2.2404911078691483,1.1080497969672083,0.22810747549310326
