time,seconds_elapsed,z,y,x
1761478584850054100,0.08905419921875,-0.04712619632482529,-0.07474994659423828,0.09314096719026566
1761478584860090000,0.099090087890625,-0.02029458060860634,-0.11779621243476868,0.04765577241778374
1761478584870125000,0.109125,0.005980965215712786,-0.11419668793678284,0.05838298425078392
1761478584880161000,0.1191611328125,0.017789630219340324,-0.09026474505662918,0.08433053642511368
1761478584890197000,0.129197021484375,0.02192338928580284,-0.06871338188648224,0.09577121585607529
1761478584900233000,0.13923291015625,0.00961659848690033,-0.047339826822280884,0.09378399699926376
1761478584910269000,0.14926904296875,-0.004892036784440279,-0.027308324351906776,0.07216791808605194
1761478584920305000,0.159304931640625,-0.0064646536484360695,-0.029548468068242073,0.04650450870394707
1761478584930340000,0.169340087890625,0.01618526503443718,-0.049350935965776443,0.02040659449994564
1761478584940376000,0.1793759765625,0.03804352134466171,-0.0839751809835434,-0.007100672461092472
1761478584950412000,0.189412109375,0.04934491217136383,-0.11436131596565247,-0.05525355413556099
1761478584960448000,0.199447998046875,0.03487635403871536,-0.13461636006832123,-0.07960575073957443
1761478584970484000,0.20948388671875,0.009820802137255669,-0.12037322670221329,-0.07226261496543884
1761478584980519200,0.219519287109375,-0.013773052021861076,-0.06963523477315903,-0.04018419235944748
1761478584990555100,0.22955517578125,-0.035735342651605606,-0.018125170841813087,0.0005283476784825325
1761478585000591000,0.239591064453125,-0.05667925626039505,0.02948160469532013,0.019467022269964218
1761478585010627000,0.249626953125,-0.06585171818733215,0.04736020788550377,0.018709352239966393
1761478585020663000,0.2596630859375,-0.05430680513381958,0.03316735476255417,0.00008358992636203766
1761478585030698000,0.269697998046875,-0.041882358491420746,0.01241227611899376,-0.01717129722237587
1761478585040734000,0.27973388671875,-0.02056591957807541,-0.01940825954079628,-0.036963481456041336
1761478585050770000,0.28977001953125,0.005925076548010111,-0.06077594310045242,-0.052480656653642654
1761478585060806100,0.29980615234375,0.025910768657922745,-0.07361096143722534,-0.03820021077990532
1761478585070842000,0.309842041015625,0.03551492840051651,-0.04043570160865784,0.00014557805843651295
1761478585080878000,0.319878173828125,0.03732813894748688,0.001743803732097149,0.03420019894838333
1761478585090913000,0.3299130859375,0.041162557899951935,0.028179671615362167,0.059377189725637436
1761478585100949000,0.339948974609375,0.0510576106607914,0.03379475325345993,0.0573602057993412
1761478585110985000,0.34998486328125,0.0614178366959095,0.008798323571681976,0.03187694773077965
1761478585121021000,0.36002099609375,0.06877899169921875,-0.02125336229801178,-0.009539993479847908
1761478585131056000,0.37005615234375,0.07009778916835785,-0.05478815361857414,-0.05306243523955345
1761478585141091000,0.380091064453125,0.06295899301767349,-0.06770122051239014,-0.079632967710495
1761478585151127000,0.390126953125,0.06862407177686691,-0.06304654479026794,-0.08467433601617813
1761478585161163000,0.4001630859375,0.07840239256620407,-0.04860520362854004,-0.08471690118312836
1761478585171199000,0.410198974609375,0.09027370065450668,-0.042506564408540726,-0.08333206176757812
1761478585181235200,0.420235107421875,0.10143158584833145,-0.05416290834546089,-0.07576017081737518
1761478585191271200,0.430271240234375,0.11871656775474548,-0.026931285858154297,-0.06131784990429878
1761478585201306000,0.44030615234375,0.11960338056087494,0.015330524183809757,-0.036799848079681396
1761478585211342000,0.450342041015625,0.1220734640955925,0.02590860053896904,-0.023305078968405724
1761478585221378000,0.4603779296875,0.12680214643478394,0.029548371210694313,-0.015275548212230206
1761478585231414000,0.4704140625,0.12567776441574097,0.01536331046372652,-0.018243374302983284
1761478585241450000,0.480449951171875,0.12681128084659576,-0.009496426209807396,-0.023754961788654327
1761478585251485200,0.490485107421875,0.13523006439208984,-0.04197420924901962,-0.01513723749667406
1761478585261521200,0.500521240234375,0.14487940073013306,-0.06349445879459381,0.012729553505778313
1761478585271557000,0.51055712890625,0.1591651290655136,-0.06341803073883057,0.04562598094344139
1761478585281593000,0.520593017578125,0.15672054886817932,-0.05748646706342697,0.07135432213544846
1761478585291629000,0.530629150390625,0.14448945224285126,-0.04696831479668617,0.08019974827766418
1761478585301665000,0.5406650390625,0.12384199351072311,-0.04653051868081093,0.06387260556221008
1761478585311700200,0.5507001953125,0.09610037505626678,-0.055711500346660614,0.03159003332257271
1761478585321736200,0.560736083984375,0.0638873279094696,-0.08614134043455124,0.003234725445508957
1761478585331772200,0.570772216796875,0.029019096866250038,-0.13736404478549957,-0.0009315239731222391
1761478585341808000,0.58080810546875,-0.012708891183137894,-0.1788969486951828,0.013243276625871658
1761478585351844000,0.590843994140625,-0.05498204380273819,-0.19925442337989807,0.027224605903029442
1761478585361880000,0.600880126953125,-0.0934467613697052,-0.2049270123243332,0.033498868346214294
1761478585371915000,0.6109150390625,-0.11754144728183746,-0.16520650684833527,0.04099806025624275
1761478585381951000,0.620950927734375,-0.15233033895492554,-0.1406305581331253,0.03565346449613571
1761478585391987200,0.6309873046875,-0.19662803411483765,-0.09706710278987885,0.027802998200058937
1761478585402023200,0.641023193359375,-0.2448161542415619,-0.045909419655799866,-0.00016924692317843437
1761478585412059100,0.65105908203125,-0.29052239656448364,-0.025751685723662376,-0.030040325596928596
1761478585422094000,0.661093994140625,-0.3165983259677887,-0.01810123771429062,-0.07150620967149734
1761478585432130000,0.671130126953125,-0.32737401127815247,-0.009052615612745285,-0.10672731697559357
1761478585442166000,0.681166015625,-0.33070796728134155,0.016217075288295746,-0.11994230002164841
1761478585452202000,0.691201904296875,-0.31370583176612854,0.028113683685660362,-0.10460861772298813
1761478585462238000,0.701238037109375,-0.28021278977394104,0.02463284507393837,-0.06738404929637909
1761478585472274200,0.711274169921875,-0.23923206329345703,0.01148588489741087,-0.013335995376110077
1761478585482309000,0.72130908203125,-0.1849828064441681,0.003510343376547098,0.041730962693691254
1761478585492345000,0.731344970703125,-0.12927240133285522,-0.012835074216127396,0.0891682580113411
1761478585502381000,0.741381103515625,-0.08728213608264923,-0.021199097856879234,0.12536761164665222
1761478585512417000,0.7514169921875,-0.06021323800086975,-0.007787952199578285,0.15614549815654755
1761478585522453000,0.761452880859375,-0.04320642352104187,0.018004057928919792,0.17903588712215424
1761478585532488200,0.77148828125,-0.03516048192977905,0.011195953004062176,0.18276937305927277
1761478585542524200,0.781524169921875,-0.03059009462594986,-0.02714628353714943,0.1768624484539032
1761478585552560000,0.79156005859375,-0.02548082172870636,-0.0694069191813469,0.16788281500339508
1761478585562596000,0.80159619140625,-0.02002396620810032,-0.12059631943702698,0.14853771030902863
1761478585572632000,0.811632080078125,-0.017254279926419258,-0.15963080525398254,0.13623683154582977
1761478585582668000,0.82166796875,-0.013144469819962978,-0.17569643259048462,0.12090408056974411
1761478585592703200,0.831703125,-0.011596639640629292,-0.17483356595039368,0.10653073340654373
1761478585602739200,0.8417392578125,-0.004747123457491398,-0.1561681628227234,0.10493627935647964
1761478585612775200,0.851775146484375,0.0034253192134201527,-0.10649781674146652,0.10964953899383545
1761478585622811100,0.86181103515625,0.006177600473165512,-0.06774434447288513,0.1211453378200531
1761478585632847000,0.87184716796875,0.011722035706043243,-0.04160967841744423,0.12570254504680634
1761478585642883000,0.881883056640625,0.028914889320731163,-0.030890220776200294,0.1178935244679451
1761478585652918000,0.89191796875,0.05574623867869377,-0.047492895275354385,0.09469658881425858
1761478585662954000,0.9019541015625,0.06979690492153168,-0.0627717599272728,0.05701547861099243
1761478585672990200,0.911990234375,0.07849451899528503,-0.09957611560821533,0.026597918942570686
1761478585683026200,0.922026123046875,0.05183526873588562,-0.10948678106069565,-0.007884281687438488
1761478585693062100,0.932062255859375,0.043858036398887634,-0.08093369752168655,-0.020820854231715202
1761478585703098000,0.94209814453125,0.045887596905231476,-0.04110457003116608,-0.028216425329446793
1761478585713133000,0.952133056640625,0.04968393221497536,-0.010549859143793583,-0.02982977032661438
1761478585723169000,0.9621689453125,0.05637866258621216,0.025855811312794685,-0.02488662675023079
1761478585733205000,0.972205078125,0.06290899962186813,0.07808811962604523,-0.029450751841068268
1761478585743241000,0.982240966796875,0.0667039081454277,0.09016852080821991,-0.047967396676540375
1761478585753277200,0.992277099609375,0.06524236500263214,0.08414871245622635,-0.06701299548149109
1761478585763313200,1.002313232421875,0.04719322919845581,0.0694672018289566,-0.07894342392683029
1761478585773348000,1.01234814453125,0.02450789138674736,0.05524059385061264,-0.08874332159757614
1761478585783384000,1.022384033203125,0.009676765650510788,0.048867084085941315,-0.09077621251344681
1761478585793420000,1.032419921875,-0.00019823573529720306,0.05039014667272568,-0.07229733467102051
1761478585803456000,1.0424560546875,-0.00770159624516964,0.06645917147397995,-0.04978856444358826
1761478585813492000,1.052491943359375,-0.011206847615540028,0.08783423155546188,-0.015382119454443455
1761478585823528000,1.06252783203125,-0.010571950115263462,0.09825704246759415,0.01844029128551483
1761478585833563100,1.072563232421875,-0.0026328014209866524,0.1031588613986969,0.0574614591896534
1761478585843599000,1.08259912109375,0.0014073844067752361,0.11486128717660904,0.08877011388540268
1761478585853635000,1.092635009765625,0.005324627738445997,0.12557704746723175,0.09900011867284775
1761478585863671000,1.102671142578125,0.012389423325657845,0.12495799362659454,0.08330661803483963
1761478585873707000,1.11270703125,0.01940365694463253,0.11581563204526901,0.05542464926838875
1761478585883743000,1.122742919921875,0.03931335359811783,0.11301561444997787,0.02620396576821804
1761478585893778200,1.132778076171875,0.06365837156772614,0.09878474473953247,0.01064471248537302
1761478585903814100,1.142814208984375,0.08834008127450943,0.08681420981884003,-0.011894225142896175
1761478585913850000,1.15285009765625,0.11338977515697479,0.08531005680561066,-0.029550449922680855
1761478585923886000,1.162885986328125,0.1265789270401001,0.08543401956558228,-0.05648905411362648
1761478585933922000,1.172922119140625,0.1302413046360016,0.08612590283155441,-0.07991288602352142
1761478585943958000,1.1829580078125,0.12385490536689758,0.0949920043349266,-0.07935306429862976
1761478585953993000,1.192992919921875,0.12031583487987518,0.08392177522182465,-0.05791275203227997
1761478585964029200,1.203029296875,0.1278887391090393,0.07694020122289658,-0.020028414204716682
1761478585974065200,1.213065185546875,0.14002768695354462,0.07918151468038559,0.02890610508620739
1761478585984101000,1.22310107421875,0.15503747761249542,0.07229965180158615,0.08119989186525345
1761478585994137000,1.23313720703125,0.16690319776535034,0.054933175444602966,0.125365749001503
1761478586004173000,1.243173095703125,0.16152051091194153,0.038189202547073364,0.1448303461074829
1761478586014208000,1.2532080078125,0.149510458111763,0.013544846326112747,0.15861113369464874
1761478586024244000,1.263243896484375,0.1341022104024887,-0.016892530024051666,0.17013101279735565
1761478586034280000,1.273280029296875,0.11597780883312225,-0.046735115349292755,0.17808347940444946
1761478586044316200,1.283316162109375,0.10508259385824203,-0.08320982754230499,0.20024026930332184
1761478586054352100,1.29335205078125,0.09113721549510956,-0.10626587271690369,0.23424562811851501
1761478586064388000,1.30338818359375,0.05785667896270752,-0.11832786351442337,0.2825087010860443
1761478586074423000,1.313423095703125,0.01445088256150484,-0.09850887954235077,0.3204531669616699
1761478586084459000,1.323458984375,-0.029755577445030212,-0.041587743908166885,0.3187009394168854
1761478586094495000,1.333494873046875,-0.027003467082977295,0.06744660437107086,0.2612123489379883
1761478586104531000,1.343531005859375,0.04759230092167854,0.22429043054580688,0.1452891081571579
1761478586114567200,1.353567138671875,0.19011910259723663,0.4022950232028961,-0.0029131313785910606
1761478586124603100,1.36360302734375,0.3525158166885376,0.5506093502044678,-0.1568705290555954
1761478586134638600,1.373638671875,0.49445295333862305,0.6323356628417969,-0.2731257677078247
1761478586144674600,1.383674560546875,0.5776994228363037,0.6094707250595093,-0.33214008808135986
1761478586154710500,1.39371044921875,0.5765548348426819,0.46050897240638733,-0.30813753604888916
1761478586164746500,1.40374658203125,0.5041298270225525,0.2669984698295593,-0.26171281933784485
1761478586174782500,1.413782470703125,0.38120153546333313,0.09381552040576935,-0.15958751738071442
1761478586184818400,1.423818359375,0.2624461352825165,-0.014251372776925564,-0.013606932945549488
1761478586194853600,1.433853515625,0.18258778750896454,-0.06824563443660736,0.1433086395263672
1761478586204889600,1.4438896484375,0.12825360894203186,-0.0704893097281456,0.2944207191467285
1761478586214925600,1.453925537109375,0.09160904586315155,-0.03401092439889908,0.40618079900741577
1761478586224961500,1.46396142578125,0.08513828366994858,0.007869793102145195,0.4511478543281555
1761478586234997500,1.47399755859375,0.07932806760072708,0.03633498772978783,0.42770591378211975
1761478586245033500,1.484033447265625,0.075587697327137,0.0257565900683403,0.34972918033599854
1761478586255068400,1.494068359375,0.06123299151659012,-0.00482155941426754,0.24263253808021545
1761478586265104600,1.504104736328125,0.042025305330753326,-0.013941511511802673,0.12616398930549622
1761478586275140600,1.514140625,0.03632640838623047,-0.0006749732419848442,0.014988204464316368
1761478586285176600,1.524176513671875,0.04143509268760681,0.02019505389034748,-0.08391193300485611
1761478586295212500,1.534212646484375,0.051743123680353165,0.026431377977132797,-0.1744583547115326
1761478586305248500,1.54424853515625,0.06370534002780914,0.05515851452946663,-0.2512373924255371
1761478586315283500,1.554283447265625,0.0777476504445076,0.0837922915816307,-0.3043879568576813
1761478586325319400,1.5643193359375,0.10817553102970123,0.10297219455242157,-0.33434584736824036
1761478586335355600,1.574355712890625,0.14768218994140625,0.12260714918375015,-0.328208327293396
1761478586345391600,1.5843916015625,0.1825646013021469,0.12535881996154785,-0.2924884855747223
1761478586355427600,1.594427490234375,0.2163446694612503,0.11565826833248138,-0.23295430839061737
1761478586365463600,1.604463623046875,0.2522147297859192,0.10596026480197906,-0.17439185082912445
1761478586375499500,1.61449951171875,0.2849673330783844,0.08237610757350922,-0.11008531600236893
1761478586385534500,1.624534423828125,0.28553909063339233,0.03814561665058136,-0.041380804032087326
1761478586395570400,1.6345703125,0.2580816149711609,0.0007090277504175901,0.00652840081602335
1761478586405606400,1.6446064453125,0.220890074968338,-0.016198640689253807,0.04210218787193298
1761478586415642600,1.654642578125,0.19863004982471466,-0.02458546683192253,0.07804527133703232
1761478586425678600,1.6646787109375,0.20132286846637726,-0.02955632098019123,0.11898244172334671
1761478586435714600,1.674714599609375,0.22029949724674225,-0.05403529852628708,0.16894200444221497
1761478586445749500,1.68474951171875,0.2640240788459778,-0.06193886697292328,0.21116921305656433
1761478586455785500,1.694785400390625,0.29716524481773376,-0.04517746716737747,0.2239377349615097
1761478586465821400,1.704821533203125,0.300044447183609,-0.012964007444679737,0.223854660987854
1761478586475857400,1.714857421875,0.27665603160858154,0.011256908997893333,0.19949233531951904
1761478586485893400,1.724893310546875,0.2349901795387268,0.0180264413356781,0.15335972607135773
1761478586495929600,1.7349296875,0.189825639128685,0.015050625428557396,0.0867420956492424
1761478586505964500,1.744964599609375,0.16514407098293304,-0.007876831106841564,0.019118789583444595
1761478586516000500,1.75500048828125,0.1613898128271103,-0.029676932841539383,-0.03554072976112366
1761478586526036500,1.765036376953125,0.16003166139125824,-0.01807200163602829,-0.06117171049118042
1761478586536072400,1.775072509765625,0.15579935908317566,0.010489868931472301,-0.07514611631631851
1761478586546108400,1.7851083984375,0.15381674468517303,0.04480215907096863,-0.08187878131866455
1761478586556144400,1.795144287109375,0.1380620151758194,0.05715283378958702,-0.07400994002819061
1761478586566179600,1.8051796875,0.11416535824537277,0.060184456408023834,-0.06391823291778564
1761478586576215600,1.815215576171875,0.10180269926786423,0.05291508883237839,-0.05237236246466637
1761478586586251500,1.82525146484375,0.09339524805545807,0.04215891286730766,-0.042251672595739365
1761478586596287500,1.83528759765625,0.07840485125780106,0.03780890628695488,-0.025233274325728416
1761478586606323500,1.845323486328125,0.058064594864845276,0.053927190601825714,-0.009769047610461712
1761478586616359400,1.855359375,0.040252842009067535,0.05597170069813728,-0.005707194097340107
1761478586626394600,1.86539453125,0.03275178000330925,0.0424579419195652,-0.021810051053762436
1761478586636430600,1.8754306640625,0.020267412066459656,0.04045258089900017,-0.03561694175004959
1761478586646466600,1.885466552734375,-0.002785916905850172,0.048404619097709656,-0.036852456629276276
1761478586656502500,1.89550244140625,-0.03343437239527702,0.05855099484324455,-0.04530426487326622
1761478586666538500,1.90553857421875,-0.049777109175920486,0.06820963323116302,-0.05628915876150131
1761478586676574500,1.915574462890625,-0.03283887356519699,0.05217714235186577,-0.05717705562710762
1761478586686610400,1.9256103515625,-0.03645382821559906,0.07905372977256775,-0.0736786276102066
1761478586696645400,1.935645263671875,-0.032817281782627106,0.09292960166931152,-0.09006931632757187
1761478586706681600,1.945681640625,-0.021358519792556763,0.08890585601329803,-0.10792358219623566
1761478586716717600,1.955717529296875,-0.017224760726094246,0.09316585212945938,-0.12692230939865112
1761478586726753500,1.96575341796875,-0.007668122183531523,0.1003442034125328,-0.1454649567604065
1761478586736789500,1.97578955078125,-0.003505867440253496,0.08903428912162781,-0.1594606637954712
1761478586746824400,1.985824462890625,-0.0012443847954273224,0.06860252469778061,-0.16927765309810638
1761478586756860400,1.9958603515625,0.0009383419528603554,0.05819489434361458,-0.17263829708099365
1761478586766896400,2.005896484375,0.011405632831156254,0.05615259334445,-0.1649014949798584
1761478586776932400,2.015932373046875,0.02674863487482071,0.07170252501964569,-0.14557546377182007
1761478586786968600,2.025968505859375,0.03609742969274521,0.10354545712471008,-0.12319829314947128
1761478586797004500,2.036004638671875,0.035959746688604355,0.13627223670482635,-0.11422637104988098
1761478586807040500,2.04604052734375,0.03413641080260277,0.16190072894096375,-0.1182219386100769
1761478586817075500,2.056075439453125,0.0315382294356823,0.16464433073997498,-0.12854647636413574
1761478586827111400,2.066111328125,0.038066744804382324,0.14324656128883362,-0.14501085877418518
1761478586837147400,2.0761474609375,0.0443589948117733,0.10751333832740784,-0.15272630751132965
1761478586847183400,2.086183349609375,0.0470559187233448,0.051898714154958725,-0.15886083245277405
1761478586857219600,2.096219482421875,0.04601888358592987,-0.0018305627163499594,-0.14423048496246338
1761478586867255600,2.106255615234375,0.03468502685427666,-0.03867081552743912,-0.10745919495820999
1761478586877290500,2.11629052734375,0.023322653025388718,-0.033115994185209274,-0.06173538416624069
1761478586887326500,2.126326416015625,0.012128068134188652,-0.02212771587073803,-0.02431950531899929
1761478586897362400,2.136362548828125,-0.01111094281077385,-0.0054635172709822655,-0.008132546208798885
1761478586907398400,2.1463984375,-0.04759662598371506,0.0033349916338920593,-0.017952430993318558
1761478586917434400,2.156434326171875,-0.08990705758333206,0.0006755588110536337,-0.052121590822935104
1761478586927470300,2.16647021484375,-0.125655859708786,0.0027288412675261497,-0.08247806876897812
1761478586937505500,2.176505615234375,-0.14049819111824036,-0.0030651316046714783,-0.11811994761228561
1761478586947541500,2.18654150390625,-0.13721340894699097,-0.03273288160562515,-0.14509083330631256
1761478586957577500,2.196577392578125,-0.1225239485502243,-0.054044030606746674,-0.14685703814029694
1761478586967613400,2.206613525390625,-0.11276622861623764,-0.05694201588630676,-0.12795910239219666
1761478586977649400,2.2166494140625,-0.10910917818546295,-0.06017962470650673,-0.10368279367685318
1761478586987685400,2.226685302734375,-0.11604871600866318,-0.052879005670547485,-0.0710524395108223
1761478586997720600,2.236720458984375,-0.12684011459350586,-0.05145048722624779,-0.053647883236408234
1761478587007756500,2.246756591796875,-0.13105805218219757,-0.05727015435695648,-0.05050031468272209
1761478587017792500,2.25679248046875,-0.11911085247993469,-0.05835432931780815,-0.05552836135029793
1761478587027828500,2.266828369140625,-0.10232051461935043,-0.0631549060344696,-0.06744356453418732
1761478587037864400,2.276864501953125,-0.09786345064640045,-0.06007309630513191,-0.07014267891645432
1761478587047900400,2.286900390625,-0.10320251435041428,-0.06019371747970581,-0.07078330218791962
1761478587057936400,2.296936279296875,-0.10716050118207932,-0.05629165470600128,-0.06446761637926102
1761478587067971600,2.3069716796875,-0.12668506801128387,-0.07035544514656067,-0.05972535163164139
1761478587078007600,2.317007568359375,-0.14683374762535095,-0.09886431694030762,-0.05899670720100403
1761478587088043500,2.32704345703125,-0.1644429862499237,-0.12246131896972656,-0.05363164842128754
1761478587098079500,2.33707958984375,-0.18024751543998718,-0.12897542119026184,-0.03877254202961922
1761478587108115500,2.347115478515625,-0.19722412526607513,-0.10614357888698578,-0.024851569905877113
1761478587118151400,2.3571513671875,-0.21313118934631348,-0.08725963532924652,-0.00668881181627512
1761478587128187400,2.3671875,-0.23092228174209595,-0.08561916649341583,0.0011560346465557814
1761478587138223400,2.377223388671875,-0.2652672231197357,-0.08536003530025482,0.016065210103988647
1761478587148259300,2.38725927734375,-0.30503228306770325,-0.0962526798248291,0.02056782878935337
1761478587158295300,2.39729541015625,-0.315814346075058,-0.11361648887395859,0.014978918246924877
1761478587168331300,2.407331298828125,-0.305438369512558,-0.14066463708877563,0.004179974552243948
1761478587178367500,2.417367431640625,-0.27609434723854065,-0.16128842532634735,-0.01306319423019886
1761478587188402400,2.42740234375,-0.25869157910346985,-0.1834622621536255,-0.026962513104081154
1761478587198438400,2.4374384765625,-0.24344633519649506,-0.21690517663955688,-0.008688434958457947
1761478587208474400,2.447474365234375,-0.17547595500946045,-0.26245570182800293,0.09708552062511444
1761478587218510300,2.45751025390625,-0.15408863127231598,-0.2837018668651581,0.14151105284690857
1761478587228546300,2.46754638671875,-0.17593276500701904,-0.2756228446960449,0.17603445053100586
1761478587238582300,2.477582275390625,-0.2651295065879822,-0.24840934574604034,0.15995082259178162
1761478587248617500,2.487617431640625,-0.3514688014984131,-0.24778543412685394,0.1613038331270218
1761478587258653400,2.4976533203125,-0.38826489448547363,-0.22665350139141083,0.16955643892288208
1761478587268689400,2.507689453125,-0.3825622498989105,-0.1841711401939392,0.1472131460905075
1761478587278725400,2.517725341796875,-0.3306969106197357,-0.11113447695970535,0.0849018469452858
1761478587288761300,2.52776123046875,-0.2717037498950958,-0.03322283551096916,-0.0021607382223010063
1761478587298797300,2.53779736328125,-0.22958241403102875,0.0008496502414345741,-0.08672914654016495
1761478587308832500,2.54783251953125,-0.2114609330892563,0.01633710414171219,-0.1548425406217575
1761478587318868500,2.557868408203125,-0.18718622624874115,0.04311252385377884,-0.20585085451602936
1761478587328904400,2.567904541015625,-0.17270790040493011,0.0765073373913765,-0.2507670223712921
1761478587338940400,2.5779404296875,-0.15725012123584747,0.11619589477777481,-0.2723064124584198
1761478587348976400,2.587976318359375,-0.13780942559242249,0.13918854296207428,-0.2563489079475403
1761478587359012400,2.598012451171875,-0.13138587772846222,0.14243493974208832,-0.2021131068468094
1761478587369047300,2.60804736328125,-0.1514984518289566,0.14779309928417206,-0.1345495581626892
1761478587379083500,2.61808349609375,-0.19175106287002563,0.12100356072187424,-0.0657968744635582
1761478587389119500,2.628119384765625,-0.2316308319568634,0.03966289758682251,-0.02610005997121334
1761478587399155500,2.638155517578125,-0.2309522181749344,-0.053320519626140594,0.007523112464696169
1761478587409191400,2.64819140625,-0.20423763990402222,-0.1213846504688263,0.0752997025847435
1761478587419227400,2.658227294921875,-0.1881263107061386,-0.14691531658172607,0.1689569354057312
1761478587429262300,2.668262451171875,-0.1881466805934906,-0.13967540860176086,0.244271919131279
1761478587439298300,2.67829833984375,-0.19440804421901703,-0.12075205892324448,0.28848519921302795
1761478587449334300,2.688334228515625,-0.18583329021930695,-0.11950238049030304,0.2958017885684967
1761478587459370500,2.69837060546875,-0.16212236881256104,-0.10183044523000717,0.2915028929710388
1761478587469406500,2.708406494140625,-0.13264761865139008,-0.08582308143377304,0.2674911320209503
1761478587479442400,2.7184423828125,-0.0872734859585762,-0.06569144874811172,0.22264723479747772
1761478587489477400,2.728477294921875,-0.03792109340429306,-0.050419051200151443,0.16932186484336853
1761478587499513300,2.738513427734375,0.018933666869997978,-0.044708967208862305,0.1132492646574974
1761478587509549300,2.74854931640625,0.08234063535928726,-0.06537914276123047,0.06712871044874191
1761478587519585300,2.758585205078125,0.13632450997829437,-0.08839258551597595,0.05013002082705498
1761478587529621200,2.768621337890625,0.16205748915672302,-0.12061938643455505,0.06359375268220901
1761478587539657500,2.778657470703125,0.1757378876209259,-0.15007874369621277,0.10403039306402206
1761478587549692400,2.7886923828125,0.19235387444496155,-0.16405287384986877,0.1705971658229828
1761478587559728400,2.798728271484375,0.20216070115566254,-0.15949647128582,0.24778808653354645
1761478587569764400,2.808764404296875,0.21262112259864807,-0.14163029193878174,0.30190879106521606
1761478587579800300,2.81880029296875,0.22679713368415833,-0.1326514482498169,0.32800722122192383
1761478587589836300,2.828836181640625,0.24713017046451569,-0.13272328674793243,0.33026808500289917
1761478587599872300,2.838872314453125,0.25687655806541443,-0.14192822575569153,0.30689138174057007
1761478587609907500,2.848907470703125,0.25180694460868835,-0.16174912452697754,0.2705392837524414
1761478587619943400,2.858943359375,0.23952603340148926,-0.18150392174720764,0.21610213816165924
1761478587629979400,2.8689794921875,0.2103806585073471,-0.20265021920204163,0.1665380448102951
1761478587640015400,2.879015380859375,0.17822085320949554,-0.1877567619085312,0.12704496085643768
1761478587650051300,2.88905126953125,0.12893807888031006,-0.15116450190544128,0.09905502200126648
1761478587660087300,2.89908740234375,0.07040393352508545,-0.09025215357542038,0.08320628851652145
1761478587670122500,2.90912255859375,0.005895704496651888,-0.04802833870053291,0.06623439490795135
1761478587680158500,2.919158447265625,-0.06571243703365326,0.017497140914201736,0.02848062664270401
1761478587690194400,2.9291943359375,-0.13758701086044312,0.08309238404035568,-0.029451044276356697
1761478587700230400,2.93923046875,-0.2016323208808899,0.14001984894275665,-0.11685865372419357
1761478587710266400,2.949266357421875,-0.27342867851257324,0.1496088206768036,-0.20931608974933624
1761478587720302300,2.95930224609375,-0.30697572231292725,0.12170608341693878,-0.24307432770729065
1761478587730337300,2.969337158203125,-0.30524107813835144,0.05583541840314865,-0.2315969467163086
1761478587740373200,2.979373291015625,-0.2853102684020996,-0.0059592388570308685,-0.20024354755878448
1761478587750409500,2.989409423828125,-0.26622384786605835,-0.03205803781747818,-0.15659356117248535
1761478587760445400,2.999445556640625,-0.24817399680614471,-0.010673120617866516,-0.10646860301494598
1761478587770481400,3.0094814453125,-0.2437785118818283,0.04053747281432152,-0.06047290191054344
1761478587780517400,3.019517333984375,-0.23813073337078094,0.08833029121160507,-0.02942577190697193
1761478587790552300,3.02955224609375,-0.2199271023273468,0.1090615838766098,-0.013301101513206959
1761478587800588300,3.03958837890625,-0.1983666867017746,0.08629980683326721,-0.01941758394241333
1761478587810624300,3.049624267578125,-0.17113560438156128,0.04157257825136185,-0.0444493405520916
1761478587820660500,3.059660400390625,-0.14869022369384766,0.005405253730714321,-0.05806075781583786
1761478587830696400,3.069696533203125,-0.11821268498897552,-0.03654521331191063,-0.06047013774514198
1761478587840732400,3.079732421875,-0.10055645555257797,-0.09733320027589798,-0.06336845457553864
1761478587850767400,3.089767333984375,-0.08401063084602356,-0.12371916323900223,-0.055557962507009506
1761478587860803300,3.09980322265625,-0.07304586470127106,-0.14025260508060455,-0.052054040133953094
1761478587870839300,3.10983935546875,-0.07357899844646454,-0.14250969886779785,-0.04648769646883011
1761478587880875300,3.119875244140625,-0.06506726890802383,-0.11400774121284485,-0.032615821808576584
1761478587890911200,3.1299111328125,-0.04330790415406227,-0.08499020338058472,-0.009337663650512695
1761478587900947500,3.139947509765625,-0.014775332063436508,-0.07995576411485672,0.018834054470062256
1761478587910982400,3.149982421875,0.015726059675216675,-0.08624758571386337,0.04267926886677742
1761478587921018400,3.160018310546875,0.04531510919332504,-0.09485412389039993,0.05295747518539429
1761478587931054300,3.170054443359375,0.08366233110427856,-0.10097987949848175,0.04671342670917511
1761478587941090300,3.18009033203125,0.1301099807024002,-0.0869402289390564,0.034053556621074677
1761478587951126300,3.190126220703125,0.18207597732543945,-0.06011650338768959,0.004154682159423828
1761478587961162200,3.200162353515625,0.23249414563179016,-0.04639722406864166,-0.039553385227918625
1761478587971197400,3.210197509765625,0.2712096571922302,-0.05147196352481842,-0.07490340620279312
1761478587981233400,3.2202333984375,0.2975139617919922,-0.0698309987783432,-0.08638615906238556
1761478587991269400,3.230269287109375,0.3224427402019501,-0.08718815445899963,-0.0669056698679924
1761478588001305300,3.240305419921875,0.3359641432762146,-0.10854856669902802,-0.024863407015800476
1761478588011341300,3.25034130859375,0.34602728486061096,-0.10562735795974731,0.012515988200902939
1761478588021377300,3.260377197265625,0.3492926061153412,-0.07305636256933212,0.04543851688504219
1761478588031412500,3.27041259765625,0.334638774394989,-0.024179313331842422,0.0670236349105835
1761478588041448400,3.280448486328125,0.31328874826431274,0.0018040845170617104,0.06471041589975357
1761478588051484400,3.290484375,0.28224876523017883,-0.005371371284127235,0.04400334507226944
1761478588061520400,3.300520263671875,0.2301757037639618,-0.023162085562944412,0.027322636917233467
1761478588071556400,3.310556396484375,0.16518305242061615,-0.03582381084561348,0.0010025635128840804
1761478588081592300,3.32059228515625,0.10335242748260498,-0.062151554971933365,-0.011382200755178928
1761478588091627300,3.330627197265625,0.06681777536869049,-0.08369667828083038,-0.004423235543072224
1761478588101663200,3.340663330078125,0.04884863272309303,-0.09568596631288528,0.006670162081718445
1761478588111699500,3.350699462890625,0.017800699919462204,-0.0804034173488617,0.015198403038084507
1761478588121735400,3.3607353515625,-0.019010575488209724,-0.020213313400745392,0.02637222781777382
1761478588131770600,3.3707705078125,-0.03807799145579338,0.07420708984136581,0.041146233677864075
1761478588141806600,3.380806640625,-0.04650742933154106,0.16190925240516663,0.05873561277985573
1761478588151841500,3.390841552734375,-0.0290417168289423,0.2156415581703186,0.04363904893398285
1761478588161877800,3.400877685546875,0.017096219584345818,0.21937479078769684,0.003304676851257682
1761478588171913700,3.410913818359375,0.09349730610847473,0.21807996928691864,-0.02111183851957321
1761478588181949700,3.42094970703125,0.13566739857196808,0.17552372813224792,-0.07414469867944717
1761478588191985700,3.430985595703125,0.17540931701660156,0.14167381823062897,-0.11727792769670486
1761478588202021600,3.441021728515625,0.21350690722465515,0.1587020754814148,-0.1381472498178482
1761478588212056600,3.451056640625,0.2339545488357544,0.1772383451461792,-0.1401044875383377
1761478588222092500,3.461092529296875,0.24300611019134521,0.21652637422084808,-0.11407075822353363
1761478588232128500,3.47112841796875,0.2398044466972351,0.2633058428764343,-0.06885135173797607
1761478588242164700,3.481164794921875,0.2308378517627716,0.27963101863861084,-0.019508833065629005
1761478588252200700,3.49120068359375,0.23098832368850708,0.2373749315738678,0.014474167488515377
1761478588262236700,3.501236572265625,0.2459276020526886,0.1803305447101593,0.05020340159535408
1761478588272271600,3.511271728515625,0.2389349639415741,0.13025020062923431,0.08521547168493271
1761478588282307600,3.5213076171875,0.21422775089740753,0.10773637145757675,0.1279221922159195
1761478588292343600,3.531343505859375,0.1771916151046753,0.08983969688415527,0.17005053162574768
1761478588302379500,3.541379638671875,0.1430610865354538,0.07927360385656357,0.2045898586511612
1761478588312415500,3.55141552734375,0.1075703427195549,0.06399697810411453,0.22315676510334015
1761478588322450700,3.56145068359375,0.08302398771047592,0.04955971613526344,0.23661132156848907
1761478588332486700,3.571486572265625,0.06870772689580917,0.06015453487634659,0.23238563537597656
1761478588342522600,3.581522705078125,0.10209604352712631,0.1325714886188507,0.20309805870056152
1761478588352558600,3.59155859375,0.20247511565685272,0.28760188817977905,0.12204159051179886
1761478588362594600,3.601594482421875,0.33536234498023987,0.4977002441883087,0.0036949722561985254
1761478588372630500,3.611630615234375,0.4648318588733673,0.654639482498169,-0.1302257478237152
1761478588382665700,3.621665771484375,0.5221648812294006,0.690207839012146,-0.22183474898338318
1761478588392701700,3.63170166015625,0.4639093577861786,0.5866794586181641,-0.21524366736412048
1761478588402737700,3.641737548828125,0.3506286144256592,0.4446876645088196,-0.1771886944770813
1761478588412773600,3.651773681640625,0.22410981357097626,0.33317625522613525,-0.14408963918685913
1761478588422809600,3.6618095703125,0.07605510950088501,0.2830566167831421,-0.14069411158561707
1761478588432845600,3.671845458984375,-0.11748576909303665,0.22246494889259338,-0.019344782456755638
1761478588442880500,3.681880615234375,-0.25340738892555237,0.21223761141300201,0.11022040247917175
1761478588452916700,3.691916748046875,-0.3477779030799866,0.18198160827159882,0.18790994584560394
1761478588462952700,3.70195263671875,-0.37287020683288574,0.14270398020744324,0.22273238003253937
1761478588472988700,3.71198876953125,-0.3280412554740906,0.11351493746042252,0.21550555527210236
1761478588483024600,3.722024658203125,-0.23424741625785828,0.05151628330349922,0.1748124659061432
1761478588493060600,3.732060546875,-0.13622397184371948,0.014047319069504738,0.10848842561244965
1761478588503095600,3.742095458984375,-0.07353343814611435,0.004146751947700977,0.03661822900176048
1761478588513131500,3.752131591796875,-0.05704287812113762,0.0045138150453567505,-0.026961762458086014
1761478588523167500,3.76216748046875,-0.07273101806640625,0.0312945619225502,-0.07756847888231277
1761478588533203700,3.77220361328125,-0.09394926577806473,0.05681862309575081,-0.10327844321727753
1761478588543239700,3.78223974609375,-0.08445589244365692,0.05863196775317192,-0.0978570431470871
1761478588553275600,3.792275634765625,-0.04295448586344719,0.051056817173957825,-0.06912865489721298
1761478588563310600,3.802310546875,0.012090655975043774,0.04482688009738922,-0.03974546864628792
1761478588573346600,3.8123466796875,0.07499128580093384,0.0499521940946579,-0.007971098646521568
1761478588583382500,3.822382568359375,0.1317078322172165,0.0553048811852932,0.0023385307285934687
1761478588593418500,3.83241845703125,0.1777062863111496,0.053529076278209686,-0.014343995600938797
1761478588603454500,3.842454345703125,0.21047461032867432,0.046178486198186874,-0.04727291688323021
1761478588613490700,3.85249072265625,0.22254632413387299,0.028496600687503815,-0.08228520303964615
1761478588623525600,3.862525634765625,0.2258417308330536,0.009603071957826614,-0.1014048382639885
1761478588633561600,3.8725615234375,0.238267719745636,-0.01900329440832138,-0.1018819510936737
1761478588643597600,3.88259765625,0.2603948414325714,-0.04003134369850159,-0.07740537077188492
1761478588653633500,3.892633544921875,0.27325138449668884,-0.07136571407318115,-0.02753015235066414
1761478588663669500,3.90266943359375,0.2750338315963745,-0.09418154507875443,0.037953514605760574
1761478588673704700,3.91270458984375,0.27302372455596924,-0.11079160869121552,0.10221728682518005
1761478588683740700,3.92274072265625,0.2673488259315491,-0.11122676730155945,0.14736026525497437
1761478588693776600,3.932776611328125,0.27787667512893677,-0.10561244189739227,0.1632477045059204
1761478588703812600,3.9428125,0.2890360951423645,-0.1016206294298172,0.15428057312965393
1761478588713848600,3.9528486328125,0.29203706979751587,-0.10302654653787613,0.12022267282009125
1761478588723884500,3.962884521484375,0.2804928123950958,-0.11494126170873642,0.08189605921506882
1761478588733919700,3.972919677734375,0.2507757544517517,-0.10631359368562698,0.03853148967027664
1761478588743955700,3.982955810546875,0.2148989886045456,-0.0764734074473381,0.01117390114814043
1761478588753991700,3.99299169921875,0.1844618022441864,-0.02175205573439598,-0.009177983738481998
1761478588764027600,4.003027587890625,0.16311872005462646,0.04566400125622749,-0.03919447213411331
1761478588774063600,4.013063720703125,0.14909549057483673,0.10076350718736649,-0.0715712383389473
1761478588784099600,4.023099609375,0.14267566800117493,0.12899620831012726,-0.11036976426839828
1761478588794134500,4.033134521484375,0.1376098394393921,0.10724113881587982,-0.16099926829338074
1761478588804170500,4.04317041015625,0.1176566481590271,0.04104773327708244,-0.19691786170005798
1761478588814206700,4.053206787109375,0.09372884780168533,-0.04337912052869797,-0.2173938751220703
1761478588824242700,4.06324267578125,0.05735539644956589,-0.10276520997285843,-0.20411108434200287
1761478588834278700,4.073278564453125,0.018390286713838577,-0.12391438335180283,-0.1708848476409912
1761478588844314600,4.083314697265625,-0.020914774388074875,-0.10806510597467422,-0.11458723247051239
1761478588854349600,4.093349609375,-0.05318829044699669,-0.06026677042245865,-0.0428992360830307
1761478588864385500,4.103385498046875,-0.06889108568429947,0.00022560032084584236,0.013267098926007748
1761478588874421500,4.11342138671875,-0.04939853772521019,0.021571628749370575,0.046975843608379364
1761478588884457500,4.12345751953125,0.0063009439036250114,0.030485760420560837,0.06186504662036896
1761478588894493700,4.13349365234375,0.060493629425764084,0.012994090095162392,0.033090293407440186
1761478588904528600,4.143528564453125,0.08995910733938217,-0.006850188598036766,-0.03263732045888901
1761478588914564600,4.153564697265625,0.08040840178728104,-0.015199190936982632,-0.11025840044021606
1761478588924600600,4.1636005859375,0.030290108174085617,-0.004465053789317608,-0.18293872475624084
1761478588934636500,4.173636474609375,-0.05308409035205841,0.04423493891954422,-0.2342243641614914
1761478588944672500,4.183672607421875,-0.1525116115808487,0.0949588418006897,-0.2753608524799347
1761478588954708500,4.19370849609375,-0.1962078958749771,0.1395830512046814,-0.28409695625305176
1761478588964743700,4.20374365234375,-0.21222016215324402,0.1685582548379898,-0.27266454696655273
1761478588974779600,4.213779541015625,-0.21417206525802612,0.17951041460037231,-0.2635153532028198
1761478588984815600,4.223815673828125,-0.20735570788383484,0.18070244789123535,-0.24990125000476837
1761478588994851600,4.2338515625,-0.18476369976997375,0.18947897851467133,-0.21716980636119843
1761478589004887600,4.243887451171875,-0.1618083119392395,0.16447322070598602,-0.18833282589912415
1761478589014923500,4.253923583984375,-0.14079561829566956,0.11746537685394287,-0.16298340260982513
1761478589024958700,4.263958740234375,-0.12920501828193665,0.06669434159994125,-0.12665575742721558
1761478589034994700,4.27399462890625,-0.1273094266653061,0.027035512030124664,-0.09471186250448227
1761478589045030700,4.28403076171875,-0.13527041673660278,0.011826733127236366,-0.06666930764913559
1761478589055066600,4.294066650390625,-0.14527779817581177,0.013869513757526875,-0.0388704277575016
1761478589065102600,4.3041025390625,-0.13566164672374725,0.027269741520285606,-0.012536557391285896
1761478589075137500,4.314137451171875,-0.12510395050048828,0.032884471118450165,0.006427620071917772
1761478589085173500,4.324173583984375,-0.10350331664085388,0.03364160656929016,0.008171457797288895
1761478589095209500,4.33420947265625,-0.08064085990190506,0.026124807074666023,-0.0034022058825939894
1761478589105245700,4.34424560546875,-0.0640144795179367,0.015137934125959873,-0.02224060893058777
1761478589115281700,4.35428173828125,-0.06376625597476959,-0.009800733998417854,-0.054648712277412415
1761478589125317600,4.364317626953125,-0.07793160527944565,-0.044649526476860046,-0.08842132985591888
1761478589135352600,4.3743525390625,-0.10598798841238022,-0.05300157517194748,-0.10751447081565857
1761478589145388800,4.384388916015625,-0.12566955387592316,-0.029311690479516983,-0.10162568837404251
1761478589155424800,4.3944248046875,-0.13282734155654907,0.003314190311357379,-0.07678522169589996
1761478589165460700,4.404460693359375,-0.1281212717294693,0.03841305524110794,-0.05385193973779678
1761478589175496700,4.41449658203125,-0.11864633858203888,0.07119061052799225,-0.039666809141635895
1761478589185533000,4.424532958984375,-0.09680815041065216,0.07923708111047745,-0.03155748173594475
1761478589195567600,4.434567626953125,-0.07493838667869568,0.08288993686437607,-0.0205619428306818
1761478589205603800,4.444603759765625,-0.05749441683292389,0.08092799037694931,-0.015212451107800007
1761478589215639800,4.454639892578125,-0.055888015776872635,0.07433418929576874,-0.018200332298874855
1761478589225675800,4.46467578125,-0.052219510078430176,0.06475692987442017,-0.014410920441150665
1761478589235711700,4.474711669921875,-0.05287352204322815,0.04945530742406845,-0.006477970164269209
1761478589245747700,4.484747802734375,-0.05205540359020233,0.04167754575610161,-0.0022613867186009884
1761478589255783000,4.494782958984375,-0.045886777341365814,0.025264834985136986,0.009643240831792355
1761478589265819000,4.50481884765625,-0.03786400705575943,0.0008271362166851759,0.03454699367284775
1761478589275854800,4.514854736328125,-0.041195791214704514,-0.026835685595870018,0.062153540551662445
1761478589285890800,4.524890869140625,-0.041629355400800705,-0.06497374922037125,0.08390624076128006
1761478589295926800,4.5349267578125,-0.03693072125315666,-0.08812844753265381,0.10049891471862793
1761478589305961700,4.544961669921875,-0.03150399774312973,-0.08041246980428696,0.10931504517793655
1761478589315998000,4.554998046875,-0.029157638549804688,-0.055922556668519974,0.11622238904237747
1761478589326034000,4.565033935546875,-0.04426734894514084,-0.04796796292066574,0.11919181793928146
1761478589336070000,4.57506982421875,-0.06205704063177109,-0.05472772940993309,0.10180453956127167
1761478589346105900,4.58510595703125,-0.08525770157575607,-0.07919657975435257,0.07170682400465012
1761478589356142800,4.595142822265625,-0.11486540734767914,-0.11742550879716873,0.04340945929288864
1761478589366177800,4.605177734375,-0.1421462893486023,-0.145639568567276,0.04149224981665611
1761478589376213800,4.6152138671875,-0.1781780868768692,-0.15529927611351013,0.06805689632892609
1761478589386249700,4.625249755859375,-0.21765147149562836,-0.14191743731498718,0.11056014895439148
1761478589396285700,4.63528564453125,-0.23532934486865997,-0.13560181856155396,0.15808869898319244
1761478589406321700,4.64532177734375,-0.2363802194595337,-0.13684870302677155,0.1937103420495987
1761478589416356900,4.65535693359375,-0.23124702274799347,-0.14186762273311615,0.2156025916337967
1761478589426392800,4.665392822265625,-0.21986760199069977,-0.1640903651714325,0.22416652739048004
1761478589436428800,4.6754287109375,-0.21978379786014557,-0.18202409148216248,0.2199307382106781
1761478589446464800,4.68546484375,-0.22686249017715454,-0.20591877400875092,0.20989860594272614
1761478589456500700,4.695500732421875,-0.23719997704029083,-0.22179736196994781,0.21699269115924835
1761478589466536700,4.70553662109375,-0.253644198179245,-0.2344798594713211,0.24442671239376068
1761478589476572000,4.715572021484375,-0.27327755093574524,-0.22666938602924347,0.28536149859428406
1761478589486608000,4.72560791015625,-0.2842276692390442,-0.1982334852218628,0.32952895760536194
1761478589496643800,4.735643798828125,-0.2954650819301605,-0.1566515862941742,0.3291819095611572
1761478589506679800,4.7456796875,-0.3003482520580292,-0.0772683396935463,0.27568912506103516
1761478589516715800,4.7557158203125,-0.2687574326992035,0.03456084430217743,0.1674753576517105
1761478589526751700,4.765751708984375,-0.15874545276165009,0.12819012999534607,0.059315603226423264
1761478589536786700,4.77578662109375,-0.11462703347206116,0.17102515697479248,-0.13268603384494781
1761478589546823000,4.785822998046875,-0.06275185197591782,0.13776680827140808,-0.29971975088119507
1761478589556859000,4.79585888671875,-0.021242059767246246,0.09569334238767624,-0.36074477434158325
1761478589566894800,4.805894775390625,0.0005367402918636799,0.0466696098446846,-0.37340572476387024
1761478589576930800,4.815930908203125,0.024296283721923828,0.014175993390381336,-0.31411635875701904
1761478589586966800,4.825966796875,0.035107385367155075,-0.010958920232951641,-0.17829832434654236
1761478589597001700,4.836001708984375,0.03525260463356972,-0.035281047224998474,-0.0013490759301930666
1761478589607037700,4.84603759765625,0.02925676293671131,-0.04475976899266243,0.20038297772407532
1761478589617073700,4.85607373046875,0.010460857301950455,-0.053885556757450104,0.367888480424881
1761478589627110000,4.86610986328125,-0.023190312087535858,-0.08576253056526184,0.4645886719226837
1761478589637145900,4.876145751953125,-0.06143973767757416,-0.1244061067700386,0.4943327307701111
1761478589647181800,4.886181884765625,-0.10480131953954697,-0.1802656501531601,0.47718650102615356
1761478589657216800,4.896216796875,-0.13622725009918213,-0.2562848925590515,0.43530505895614624
1761478589667252700,4.906252685546875,-0.17689718306064606,-0.3376269042491913,0.3782668113708496
1761478589677288700,4.916288818359375,-0.19394996762275696,-0.39468252658843994,0.31611692905426025
1761478589687324700,4.92632470703125,-0.17908872663974762,-0.37878239154815674,0.27585339546203613
1761478589697360600,4.936360595703125,-0.15281733870506287,-0.3065192401409149,0.2365201711654663
1761478589707396900,4.94639697265625,-0.1246032789349556,-0.2192613035440445,0.20716707408428192
1761478589717431800,4.956431884765625,-0.10066954046487808,-0.10611385852098465,0.16267825663089752
1761478589727467800,4.9664677734375,-0.0686652660369873,-0.011370573192834854,0.07146206498146057
1761478589737503700,4.976503662109375,-0.028331108391284943,0.05393806844949722,-0.04312088340520859
1761478589747539700,4.986539794921875,0.02042471058666706,0.07581087946891785,-0.145182266831398
1761478589757575700,4.99657568359375,0.07492208480834961,0.06050757318735123,-0.20779624581336975
1761478589767611600,5.006611572265625,0.12136335670948029,0.03867871314287186,-0.21985743939876556
1761478589777646800,5.016646728515625,0.15335872769355774,0.02622111886739731,-0.18798479437828064
1761478589787682800,5.026682861328125,0.17239047586917877,0.019035641103982925,-0.11515478789806366
1761478589797718800,5.03671875,0.1960194706916809,0.034241724759340286,-0.009479276835918427
1761478589807754800,5.046754638671875,0.20192530751228333,0.05423940345644951,0.11327540129423141
1761478589817790700,5.056790771484375,0.19565550982952118,0.06751175969839096,0.22736890614032745
1761478589827826700,5.06682666015625,0.2035379409790039,0.06696154922246933,0.3007485866546631
1761478589837862000,5.07686181640625,0.23131084442138672,0.05528544262051582,0.32161638140678406
1761478589847897900,5.08689794921875,0.25863489508628845,0.03938237577676773,0.3006477355957031
1761478589857933800,5.096933837890625,0.267243355512619,0.001708146184682846,0.2680375576019287
1761478589867969800,5.1069697265625,0.2501213550567627,-0.016174446791410446,0.21088850498199463
1761478589878005800,5.117005859375,0.21890273690223694,-0.011379643343389034,0.119698666036129
1761478589888040700,5.127040771484375,0.18341824412345886,0.0026914351619780064,0.01789853163063526
1761478589898076700,5.13707666015625,0.1517103910446167,0.06236256659030914,-0.08000347763299942
1761478589908112600,5.147112548828125,0.12483403831720352,0.14455410838127136,-0.1586194634437561
1761478589918148900,5.15714892578125,0.0904177576303482,0.19529521465301514,-0.21173927187919617
1761478589928184800,5.167184814453125,0.06274458765983582,0.1916424185037613,-0.25807908177375793
1761478589938220800,5.177220703125,0.052595701068639755,0.17640642821788788,-0.30106282234191895
1761478589948256800,5.1872568359375,0.04082479327917099,0.21115562319755554,-0.35492151975631714
1761478589958291700,5.197291748046875,0.020080365240573883,0.24525180459022522,-0.4041716158390045
1761478589968327700,5.20732763671875,-0.002803985495120287,0.2611856162548065,-0.4085443913936615
1761478589978363600,5.21736376953125,-0.020242515951395035,0.24292612075805664,-0.36986079812049866
1761478589988399900,5.22739990234375,-0.010693219490349293,0.2095756232738495,-0.3090030252933502
1761478589998435800,5.237435791015625,0.0015142918564379215,0.14028428494930267,-0.23724381625652313
1761478590008471800,5.247471923828125,0.014266572892665863,0.05835773050785065,-0.17023256421089172
1761478590018506800,5.2575068359375,0.03187546879053116,-0.0018621308263391256,-0.08748272806406021
1761478590028542700,5.267542724609375,0.0424138642847538,-0.018040034919977188,-0.0006980296457186341
1761478590038578700,5.27757861328125,0.04453672841191292,-0.029379142448306084,0.06440500169992447
1761478590048614700,5.28761474609375,0.03816964477300644,-0.04155857488512993,0.09633230417966843
1761478590058650600,5.297650634765625,0.02879945933818817,-0.0648876205086708,0.09597580879926682
1761478590068685800,5.307685791015625,0.025163978338241577,-0.10896985977888107,0.07998139411211014
1761478590078721800,5.3177216796875,0.04158571735024452,-0.1532670557498932,0.07410989701747894
1761478590088757800,5.3277578125,0.07035424560308456,-0.18336477875709534,0.07675894349813461
1761478590098793700,5.337793701171875,0.09799407422542572,-0.19927947223186493,0.0959172174334526
1761478590108829700,5.34782958984375,0.1218155175447464,-0.2113068401813507,0.13280706107616425
1761478590118865700,5.35786572265625,0.15019895136356354,-0.19852659106254578,0.16590403020381927
1761478590128902100,5.367902099609375,0.16521598398685455,-0.17114770412445068,0.18195118010044098
1761478590138937000,5.37793701171875,0.1734429895877838,-0.14384262263774872,0.1804068237543106
1761478590148973000,5.38797314453125,0.1743585765361786,-0.13082855939865112,0.15582317113876343
1761478590159009300,5.39800927734375,0.1757853478193283,-0.13266974687576294,0.11809025704860687
1761478590169045200,5.408045166015625,0.17445775866508484,-0.15527012944221497,0.07045669108629227
1761478590179081200,5.418081298828125,0.17365491390228271,-0.19223350286483765,0.035002514719963074
1761478590189116000,5.428115966796875,0.17208632826805115,-0.20339587330818176,0.019713841378688812
1761478590199151900,5.43815185546875,0.17077960073947906,-0.1794537603855133,0.03325734660029411
1761478590209188000,5.44818798828125,0.17561057209968567,-0.1431833654642105,0.050721824169158936
1761478590219224300,5.458224365234375,0.1921418309211731,-0.11008197069168091,0.06902953237295151
1761478590229260300,5.46826025390625,0.20509463548660278,-0.0976996049284935,0.08331792056560516
1761478590239296300,5.478296142578125,0.21306782960891724,-0.08367880433797836,0.09805844724178314
1761478590249331000,5.4883310546875,0.2233649492263794,-0.07412338256835938,0.09261707216501236
1761478590259367000,5.498366943359375,0.22615765035152435,-0.0762835294008255,0.06085500493645668
1761478590269403100,5.508403076171875,0.23984496295452118,-0.07983805239200592,0.014354882761836052
1761478590279439000,5.518439208984375,0.24388903379440308,-0.07503581792116165,-0.02844942919909954
1761478590289475300,5.528475341796875,0.23465745151042938,-0.06430833786725998,-0.04982022941112518
1761478590299511300,5.53851123046875,0.2184770405292511,-0.039406388998031616,-0.03722333535552025
1761478590309546000,5.5485458984375,0.20216359198093414,-0.0008608619682490826,-0.0013295159442350268
1761478590319582000,5.55858203125,0.18536385893821716,0.021388191729784012,0.03267592936754227
1761478590329618200,5.5686181640625,0.18564589321613312,0.02205212041735649,0.058728836476802826
1761478590339654100,5.578654052734375,0.2032938003540039,-0.0007815498393028975,0.06991060078144073
1761478590349690000,5.588690185546875,0.2190232276916504,-0.017624977976083755,0.07863058894872665
1761478590359726000,5.59872607421875,0.22490207850933075,-0.011885779909789562,0.08670078963041306
1761478590369761000,5.608760986328125,0.21075750887393951,-0.01016244851052761,0.08390500396490097
1761478590379797200,5.61879736328125,0.17450495064258575,0.002170117571949959,0.07106297463178635
1761478590389833200,5.628833251953125,0.13275031745433807,0.02222025766968727,0.05320727825164795
1761478590399869200,5.638869140625,0.09964205324649811,0.0416741818189621,0.03950545936822891
1761478590409905200,5.6489052734375,0.06315594911575317,0.04507583752274513,0.03136390820145607
1761478590419941000,5.658941162109375,0.02214275673031807,0.07009727507829666,0.043505698442459106
1761478590429976000,5.66897607421875,-0.02737925760447979,0.07985030114650726,0.056671567261219025
1761478590440012300,5.67901220703125,-0.08887537568807602,0.07931287586688995,0.07396693527698517
1761478590450048300,5.68904833984375,-0.1538064330816269,0.06453845649957657,0.10390832275152206
1761478590460084200,5.699084228515625,-0.18972574174404144,0.024640914052724838,0.1230863705277443
1761478590470120200,5.7091201171875,-0.2052684873342514,-0.022545773535966873,0.14572271704673767
1761478590480156200,5.71915625,-0.19923444092273712,-0.03879066929221153,0.17962241172790527
1761478590490191000,5.729191162109375,-0.18872427940368652,-0.06001473218202591,0.23711340129375458
1761478590500227300,5.739227294921875,-0.13631278276443481,-0.03762289136648178,0.2859335243701935
1761478590510263300,5.74926318359375,-0.003407742828130722,0.0810084119439125,0.28329673409461975
1761478590520299300,5.75929931640625,0.17809966206550598,0.27363085746765137,0.22293081879615784
1761478590530335200,5.769335205078125,0.38718655705451965,0.4764143228530884,0.1001223474740982
1761478590540371200,5.77937109375,0.6132665872573853,0.6751925945281982,-0.050382472574710846
1761478590550406100,5.78940625,0.7687832117080688,0.773386538028717,-0.18956246972084045
1761478590560442000,5.799442138671875,0.8139234781265259,0.7189439535140991,-0.28886765241622925
1761478590570478000,5.80947802734375,0.7774333953857422,0.5713827013969421,-0.3542588949203491
1761478590580514300,5.819514404296875,0.6865086555480957,0.3844456970691681,-0.37295183539390564
1761478590590550300,5.82955029296875,0.5519647002220154,0.20341545343399048,-0.3224108815193176
1761478590600586200,5.839586181640625,0.42797958850860596,0.12112504988908768,-0.2018948495388031
1761478590610621200,5.84962109375,0.32195594906806946,0.07990384101867676,-0.04209079220890999
1761478590620657200,5.8596572265625,0.21789959073066711,0.008647429756820202,0.12148850411176682
1761478590630693000,5.869693115234375,0.1533392369747162,-0.10620379447937012,0.2604999244213104
1761478590640729000,5.87972900390625,0.12942177057266235,-0.19787384569644928,0.36965954303741455
1761478590650765000,5.88976513671875,0.12083547562360764,-0.2538521885871887,0.4490041732788086
1761478590660800300,5.89980029296875,0.10954084992408752,-0.24882550537586212,0.503637433052063
1761478590670836200,5.909836181640625,0.0964154601097107,-0.20037755370140076,0.5307979583740234
1761478590680872200,5.9198720703125,0.09237124770879745,-0.14839068055152893,0.5227205157279968
1761478590690908200,5.929908203125,0.11503874510526657,-0.11122387647628784,0.47247225046157837
1761478590700944100,5.939944091796875,0.14003291726112366,-0.09267214685678482,0.39623013138771057
1761478590710980000,5.94997998046875,0.15414714813232422,-0.09107398241758347,0.2946617007255554
1761478590721015300,5.960015380859375,0.1683773696422577,-0.07172738760709763,0.18682673573493958
1761478590731051300,5.97005126953125,0.18709567189216614,-0.045676883310079575,0.09603212028741837
1761478590741087200,5.980087158203125,0.21841032803058624,-0.007421307265758514,0.016302548348903656
1761478590751123200,5.990123291015625,0.24209727346897125,0.025740373879671097,-0.03612923249602318
1761478590761159200,6.0001591796875,0.2545376718044281,0.05670561641454697,-0.05872271582484245
1761478590771195100,6.010195068359375,0.25096824765205383,0.058989811688661575,-0.06544267386198044
1761478590781230300,6.020230224609375,0.2317018359899521,0.030472178012132645,-0.06242308020591736
1761478590791266300,6.030266357421875,0.22795343399047852,0.014476700685918331,-0.03805915266275406
1761478590801302300,6.04030224609375,0.23108482360839844,-0.009939376264810562,0.005668328143656254
1761478590811338200,6.050338134765625,0.23613284528255463,-0.04796851798892021,0.06005140766501427
1761478590821374200,6.060374267578125,0.22395746409893036,-0.07221836596727371,0.11700809746980667
1761478590831410200,6.07041015625,0.18637174367904663,-0.08562205731868744,0.16422167420387268
1761478590841445000,6.080445068359375,0.1489800363779068,-0.07471626251935959,0.19256962835788727
1761478590851481000,6.090481201171875,0.12628166377544403,-0.0543939471244812,0.1980496197938919
1761478590861517300,6.100517333984375,0.12269861996173859,-0.026787778362631798,0.186366468667984
1761478590871553300,6.11055322265625,0.12050976604223251,-0.006726984865963459,0.161430224776268
1761478590881589200,6.12058935546875,0.11991588026285172,0.0031133953016251326,0.11980954557657242
1761478590891625200,6.130625244140625,0.1119154766201973,-0.020883817225694656,0.05935952067375183
1761478590901660200,6.14066015625,0.11084844917058945,-0.06645026803016663,-0.011348254047334194
1761478590911696100,6.150696044921875,0.08956286311149597,-0.09673333913087845,-0.06177334487438202
1761478590921732000,6.160732177734375,0.05294575169682503,-0.0994609072804451,-0.0876058042049408
1761478590931768000,6.17076806640625,0.01824343204498291,-0.0974198579788208,-0.0808672085404396
1761478590941804300,6.18080419921875,-0.013392866589128971,-0.07696665823459625,-0.043886683881282806
1761478590951839200,6.190839111328125,-0.04481710121035576,-0.04969349503517151,-0.01258095819503069
1761478590961875200,6.200875244140625,-0.08006485551595688,-0.015834491699934006,-0.020425956696271896
1761478590971911200,6.2109111328125,-0.11765190958976746,0.01747632771730423,-0.06508396565914154
1761478590981947100,6.220947021484375,-0.14775386452674866,0.04355914145708084,-0.12623752653598785
1761478590991983000,6.230983154296875,-0.1560107320547104,0.05628745257854462,-0.18310053646564484
1761478591002019000,6.24101904296875,-0.13833662867546082,0.039161935448646545,-0.22356294095516205
1761478591012054300,6.25105419921875,-0.09406024217605591,0.010682358406484127,-0.22765594720840454
1761478591022090200,6.26109033203125,-0.06160523369908333,-0.015073699876666069,-0.189517080783844
1761478591032126200,6.271126220703125,-0.05513268709182739,-0.021912431344389915,-0.11961202323436737
1761478591042162200,6.281162109375,-0.08169307559728622,-0.03487596660852432,-0.05237241089344025
1761478591052198100,6.2911982421875,-0.1270642876625061,-0.030742736533284187,-0.0056549739092588425
1761478591062234000,6.301234130859375,-0.16973650455474854,-0.012322358787059784,0.026049403473734856
1761478591072269300,6.311269287109375,-0.1979585587978363,-0.016669701784849167,0.028212688863277435
1761478591082305300,6.32130517578125,-0.20326925814151764,-0.028199050575494766,-0.007440696936100721
1761478591092341200,6.33134130859375,-0.17946219444274902,-0.023136116564273834,-0.06968489289283752
1761478591102377200,6.341377197265625,-0.13690881431102753,-0.0071634408086538315,-0.13491031527519226
1761478591112413200,6.3514130859375,-0.0983680784702301,0.013048354536294937,-0.18852107226848602
1761478591122449200,6.36144921875,-0.07847970724105835,0.04327963665127754,-0.22783340513706207
1761478591132483600,6.371483642578125,-0.07800380140542984,0.07403009384870529,-0.23223774135112762
1761478591142519800,6.381519775390625,-0.09501072764396667,0.1047133281826973,-0.20953737199306488
1761478591152555800,6.3915556640625,-0.11213698238134384,0.11599741131067276,-0.17203286290168762
1761478591162591700,6.401591796875,-0.11467474699020386,0.11409232020378113,-0.13949306309223175
1761478591172627700,6.411627685546875,-0.09218621253967285,0.08592379838228226,-0.11966449022293091
1761478591182662400,6.421662353515625,-0.05667927488684654,0.056579750031232834,-0.1134456917643547
1761478591192698600,6.43169873046875,-0.012819411233067513,0.017817707732319832,-0.11409123986959457
1761478591202734600,6.441734619140625,0.03998926281929016,-0.008950155228376389,-0.09929345548152924
1761478591212770800,6.451770751953125,0.08029407262802124,-0.009035908617079258,-0.07799189537763596
1761478591222806800,6.461806884765625,0.10148376226425171,0.007172996178269386,-0.05732696130871773
1761478591232842800,6.4718427734375,0.10042222589254379,0.030862079933285713,-0.05006531998515129
1761478591242877400,6.48187744140625,0.09164015203714371,0.04427248612046242,-0.060310568660497665
1761478591252913700,6.49191357421875,0.08643021434545517,0.028981680050492287,-0.08958962559700012
1761478591262949600,6.50194970703125,0.10219205915927887,-0.012048915959894657,-0.12811154127120972
1761478591272985600,6.511985595703125,0.12796851992607117,-0.07901223748922348,-0.1611318141222
1761478591283021600,6.522021484375,0.14750222861766815,-0.13235726952552795,-0.1570499688386917
1761478591293057800,6.532057861328125,0.15307383239269257,-0.15126651525497437,-0.11962084472179413
1761478591303092700,6.5420927734375,0.11434710025787354,-0.14997728168964386,-0.06943559646606445
1761478591313128700,6.552128662109375,0.0441078245639801,-0.14418916404247284,-0.03824571892619133
1761478591323164700,6.56216455078125,-0.012400001287460327,-0.16384968161582947,-0.015768960118293762
1761478591333200600,6.57220068359375,-0.05109439790248871,-0.18217302858829498,0.021172014996409416
1761478591343236600,6.582236572265625,-0.08162973076105118,-0.19977058470249176,0.06548012048006058
1761478591353271600,6.592271484375,-0.10155443847179413,-0.2125401794910431,0.10506321489810944
1761478591363307800,6.602307861328125,-0.11561755836009979,-0.22377724945545197,0.13605573773384094
1761478591373343700,6.61234375,-0.1265391707420349,-0.22258654236793518,0.1450423002243042
1761478591383379700,6.622379638671875,-0.15502749383449554,-0.217210590839386,0.1337813287973404
1761478591393415700,6.632415771484375,-0.18899904191493988,-0.2134387493133545,0.1074993759393692
1761478591403451600,6.64245166015625,-0.21671292185783386,-0.19401957094669342,0.07827151566743851
1761478591413486600,6.652486572265625,-0.237063467502594,-0.16427898406982422,0.049147456884384155
1761478591423522800,6.662522705078125,-0.24678604304790497,-0.12851960957050323,0.010656248778104782
1761478591433558800,6.672558837890625,-0.23592886328697205,-0.09957771748304367,-0.02769007533788681
1761478591443594800,6.6825947265625,-0.20946237444877625,-0.07165402173995972,-0.05497606471180916
1761478591453630700,6.692630615234375,-0.18810196220874786,-0.0547136515378952,-0.08147504925727844
1761478591463666700,6.702666748046875,-0.16930870711803436,-0.0693923681974411,-0.10649360716342926
1761478591473701600,6.71270166015625,-0.17976240813732147,-0.10122379660606384,-0.11369931697845459
1761478591483737600,6.722737548828125,-0.19827161729335785,-0.12568621337413788,-0.11132489889860153
1761478591493773800,6.73277392578125,-0.22486941516399384,-0.13890081644058228,-0.07352691888809204
1761478591503809800,6.742809814453125,-0.24736016988754272,-0.14544075727462769,-0.02369081974029541
1761478591513845800,6.752845703125,-0.25748151540756226,-0.15821939706802368,0.014483730308711529
1761478591523880700,6.762880615234375,-0.25587978959083557,-0.16442809998989105,0.030992785468697548
1761478591533916700,6.772916748046875,-0.2611086368560791,-0.16522252559661865,0.038497310131788254
1761478591543952600,6.78295263671875,-0.2670397162437439,-0.15374760329723358,0.0457574725151062
1761478591553988600,6.792988525390625,-0.27258098125457764,-0.14989054203033447,0.056137677282094955
1761478591564024600,6.803024658203125,-0.2754212021827698,-0.16377419233322144,0.05502454563975334
1761478591574060800,6.813060791015625,-0.278992235660553,-0.17415332794189453,0.0649738535284996
1761478591584095700,6.823095703125,-0.2958153486251831,-0.18225166201591492,0.08602382987737656
1761478591594131700,6.833131591796875,-0.3165605962276459,-0.2081594169139862,0.10467661172151566
1761478591604167700,6.843167724609375,-0.3312850594520569,-0.24849559366703033,0.10879400372505188
1761478591614203600,6.85320361328125,-0.35217034816741943,-0.28438302874565125,0.12881511449813843
1761478591624239600,6.863239501953125,-0.3938673734664917,-0.2931859791278839,0.15014366805553436
1761478591634274600,6.873274658203125,-0.44422799348831177,-0.2536928951740265,0.1629239022731781
1761478591644310800,6.883310791015625,-0.47590017318725586,-0.15466748178005219,0.1421918272972107
1761478591654346800,6.8933466796875,-0.49251750111579895,-0.01493302546441555,0.0600317008793354
1761478591664382700,6.9033828125,-0.48865973949432373,0.08188489824533463,-0.07461634278297424
1761478591674418700,6.913418701171875,-0.46118950843811035,0.09089463949203491,-0.2162855863571167
1761478591684454700,6.92345458984375,-0.40868327021598816,0.01691560260951519,-0.325599730014801
1761478591694489600,6.933489501953125,-0.329608678817749,-0.06187561899423599,-0.36816930770874023
1761478591704525800,6.94352587890625,-0.23778299987316132,-0.06841068714857101,-0.34117457270622253
1761478591714561800,6.953561767578125,-0.15322737395763397,-0.0254158116877079,-0.24349354207515717
1761478591724597800,6.96359765625,-0.10739434510469437,0.05345839262008667,-0.11689872294664383
1761478591734633700,6.9736337890625,-0.11020638048648834,0.13640707731246948,0.002701179124414921
1761478591744668400,6.98366845703125,-0.15115085244178772,0.20467156171798706,0.06711459159851074
1761478591754704600,6.99370458984375,-0.21832482516765594,0.21780334413051605,0.05729738250374794
1761478591764740600,7.00374072265625,-0.2712560296058655,0.16058219969272614,0.009249724447727203
1761478591774776600,7.013776611328125,-0.2877953052520752,0.08408743143081665,-0.051437858492136
1761478591784812800,7.023812744140625,-0.297280490398407,0.016836736351251602,-0.0789780244231224
1761478591794848800,7.033848876953125,-0.3230167329311371,-0.015498567372560501,-0.0517253614962101
1761478591804883700,7.0438837890625,-0.3554745316505432,-0.0393790528178215,-0.0073458366096019745
1761478591814919700,7.053919677734375,-0.3852875530719757,-0.03985762223601341,0.01909402571618557
1761478591824955600,7.06395556640625,-0.4032858908176422,0.00262071774341166,0.02583213336765766
1761478591834991600,7.07399169921875,-0.4025290310382843,0.07793890684843063,0.011707792058587074
1761478591845027600,7.084027587890625,-0.37417006492614746,0.1558445245027542,-0.025218408554792404
1761478591855063600,7.0940634765625,-0.31557759642601013,0.22117745876312256,-0.08429957181215286
1761478591865098800,7.1040986328125,-0.24781236052513123,0.24213513731956482,-0.16415226459503174
1761478591875134700,7.114134765625,-0.18459449708461761,0.228615865111351,-0.2508120536804199
1761478591885170700,7.124170654296875,-0.13800370693206787,0.19102847576141357,-0.31132641434669495
1761478591895206700,7.13420654296875,-0.10337916016578674,0.1399780809879303,-0.33235660195350647
1761478591905242600,7.14424267578125,-0.08184435963630676,0.0810253694653511,-0.308872252702713
1761478591915277800,7.15427783203125,-0.06758872419595718,0.02622550167143345,-0.22681894898414612
1761478591925313800,7.164313720703125,-0.05529365316033363,0.011943948455154896,-0.09953080117702484
1761478591935349800,7.174349853515625,-0.03005727380514145,0.02770799770951271,0.046315085142850876
1761478591945385700,7.1843857421875,0.010327205061912537,0.04945097491145134,0.1738261878490448
1761478591955421700,7.194421630859375,0.0646602213382721,0.0375937819480896,0.2526712119579315
1761478591965457700,7.204457763671875,0.11403020471334457,-0.0041535357013344765,0.2911405861377716
1761478591975492600,7.21449267578125,0.15588922798633575,-0.05432882532477379,0.29466769099235535
1761478591985528800,7.22452880859375,0.19041702151298523,-0.12748563289642334,0.2672155797481537
1761478591995564800,7.234564697265625,0.22045375406742096,-0.18805257976055145,0.23895889520645142
1761478592005600800,7.244600830078125,0.24202828109264374,-0.22979134321212769,0.22200635075569153
1761478592015636700,7.25463671875,0.24239979684352875,-0.2500460147857666,0.1972983330488205
1761478592025671700,7.264671630859375,0.22413747012615204,-0.24923823773860931,0.15958397090435028
1761478592035707600,7.274707763671875,0.18408405780792236,-0.22725969552993774,0.1216035708785057
1761478592045743600,7.28474365234375,0.12708880007266998,-0.19351503252983093,0.07264843583106995
1761478592055779600,7.294779541015625,0.05958672612905502,-0.12259771674871445,0.020730912685394287
1761478592065815800,7.30481591796875,-0.024412056431174278,-0.035016436129808426,-0.038297951221466064
1761478592075851800,7.314851806640625,-0.09964076429605484,0.04558040574193001,-0.09902414679527283
1761478592085886700,7.32488671875,-0.14810550212860107,0.1025901660323143,-0.1550741046667099
1761478592095922700,7.334922607421875,-0.1492980718612671,0.13093098998069763,-0.19871878623962402
1761478592105958700,7.344958740234375,-0.13908766210079193,0.14033445715904236,-0.23830899596214294
1761478592115994600,7.35499462890625,-0.12180321663618088,0.13676129281520844,-0.24812062084674835
1761478592126030600,7.365030517578125,-0.11428668349981308,0.1140487790107727,-0.2132447510957718
1761478592136065000,7.37506494140625,-0.09374412894248962,0.08750665187835693,-0.15003995597362518
1761478592146101000,7.38510107421875,-0.0729183554649353,0.07901881635189056,-0.07872384041547775
1761478592156137000,7.395136962890625,-0.05323786661028862,0.08205722272396088,-0.018989134579896927
1761478592166173000,7.4051728515625,-0.03509610891342163,0.0962347686290741,0.032441895455121994
1761478592176209000,7.415208984375,-0.018395692110061646,0.1102597713470459,0.06921268999576569
1761478592186244900,7.425244873046875,0.003472456941381097,0.10323257744312286,0.07092615216970444
1761478592196280000,7.435280029296875,0.019851962104439735,0.08078186213970184,0.042871348559856415
1761478592206316000,7.44531591796875,0.035830721259117126,0.039534054696559906,0.007785420399159193
1761478592216352000,7.45535205078125,0.043814077973365784,-0.02345583215355873,-0.032927386462688446
1761478592226388000,7.465387939453125,0.05843907222151756,-0.0647604763507843,-0.06877841800451279
1761478592236424000,7.475423828125,0.08157128840684891,-0.09027116000652313,-0.08255548030138016
1761478592246459000,7.485458984375,0.10214106738567352,-0.08453690260648727,-0.06749093532562256
1761478592256495000,7.4954951171875,0.10992282629013062,-0.049085166305303574,-0.0478232242166996
1761478592266531000,7.505531005859375,0.09584551304578781,-0.006910138297826052,-0.0359615795314312
1761478592276567000,7.515567138671875,0.07732056081295013,0.015701964497566223,-0.05987170711159706
1761478592286603000,7.52560302734375,0.04881323128938675,0.02709779515862465,-0.11424326151609421
1761478592296639000,7.535638916015625,0.033989012241363525,0.005809284746646881,-0.18114960193634033
1761478592306674000,7.545673828125,0.03221623972058296,-0.03368249908089638,-0.23567067086696625
1761478592316710000,7.5557099609375,0.03014989383518696,-0.07016860693693161,-0.2583101987838745
1761478592326746000,7.56574609375,0.024447986856102943,-0.0763411894440651,-0.24136613309383392
1761478592336782000,7.575781982421875,0.01630723662674427,-0.062407802790403366,-0.20239023864269257
1761478592346818000,7.585818115234375,0.0022908668033778667,-0.03568011894822121,-0.14872075617313385
1761478592356853000,7.59585302734375,-0.01633554883301258,0.00039506424218416214,-0.09126704931259155
1761478592366889000,7.605888916015625,-0.036742858588695526,0.024664320051670074,-0.060550980269908905
1761478592376925000,7.615925048828125,-0.06263729929924011,0.04271309822797775,-0.049045588821172714
1761478592386961000,7.6259609375,-0.07033682614564896,0.02594751864671707,-0.05715727433562279
1761478592396996900,7.635996826171875,-0.057703323662281036,0.02551155909895897,-0.08545894920825958
1761478592407033000,7.646033203125,-0.0370451956987381,0.02341434918344021,-0.14318126440048218
1761478592417068000,7.656068115234375,-0.01408129371702671,-0.01785239763557911,-0.19319729506969452
1761478592427104000,7.66610400390625,-0.0073852878995239735,-0.011109914630651474,-0.2161395102739334
1761478592437140000,7.676139892578125,-0.00813177227973938,0.016997087746858597,-0.2227145880460739
1761478592447176000,7.686176025390625,-0.008665507659316063,0.06909637898206711,-0.19400574266910553
1761478592457212000,7.6962119140625,0.009742261841893196,0.11034901440143585,-0.14456415176391602
1761478592467247000,7.7062470703125,0.058546170592308044,0.1280631721019745,-0.09398414939641953
1761478592477283000,7.716282958984375,0.13108642399311066,0.13164405524730682,-0.02769060805439949
1761478592487319000,7.726319091796875,0.19086462259292603,0.1246011033654213,0.04509304091334343
1761478592497355000,7.73635498046875,0.2344411313533783,0.11707448214292526,0.10253795981407166
1761478592507391000,7.746390869140625,0.2567843198776245,0.09998755156993866,0.13212542235851288
1761478592517427000,7.756427001953125,0.26139530539512634,0.07863006740808487,0.14493869245052338
1761478592527462000,7.7664619140625,0.2594645321369171,0.059098970144987106,0.12801963090896606
1761478592537498000,7.776498046875,0.2373388409614563,0.0599389486014843,0.08035240322351456
1761478592547534000,7.7865341796875,0.21023663878440857,0.07343044131994247,0.03014192543923855
1761478592557570000,7.796570068359375,0.16077081859111786,0.07816154509782791,0.00149057456292212
1761478592567606000,7.80660595703125,0.09910272806882858,0.05957872420549393,0.006304201669991016
1761478592577641000,7.816640869140625,0.05134905129671097,0.03460626304149628,0.03832924738526344
1761478592587677000,7.826677001953125,0.013750946149230003,0.015012679621577263,0.08297685533761978
1761478592597713000,7.836712890625,-0.013936873525381088,0.015333324670791626,0.13943959772586823
1761478592607748900,7.846748779296875,-0.03732135146856308,0.03892270475625992,0.214486762881279
1761478592617785000,7.85678515625,-0.05231121927499771,0.07873696833848953,0.2999742329120636
1761478592627821000,7.866821044921875,-0.04975869506597519,0.09696803987026215,0.35070040822029114
1761478592637856000,7.87685595703125,-0.02895648032426834,0.08960919827222824,0.3604896664619446
1761478592647892000,7.88689208984375,-0.011928222142159939,0.03208475932478905,0.33879417181015015
1761478592657928000,7.896927978515625,0.01396808959543705,-0.03416776657104492,0.30337464809417725
1761478592667964000,7.9069638671875,0.03292732313275337,-0.09455405920743942,0.27098822593688965
1761478592677999900,7.916999755859375,0.03732393682003021,-0.1451413333415985,0.2596372961997986
1761478592688035000,7.92703515625,0.03454024717211723,-0.16694319248199463,0.2714402377605438
1761478592698071000,7.937071044921875,0.020102716982364655,-0.15950576961040497,0.3006226122379303
1761478592708107000,7.94710693359375,0.005990228150039911,-0.0972701907157898,0.3099524676799774
1761478592718143000,7.95714306640625,0.03823711350560188,0.04882390797138214,0.27700090408325195
1761478592728179000,7.967178955078125,0.14015600085258484,0.27432018518447876,0.19656264781951904
1761478592738214000,7.9772138671875,0.29468247294425964,0.5659784078598022,0.0670776218175888
1761478592748250000,7.98725,0.4762404263019562,0.8354691863059998,-0.0996454730629921
1761478592758286000,7.9972861328125,0.6371731162071228,1.0178093910217285,-0.27856090664863586
1761478592768322000,8.007322021484375,0.6839801073074341,1.0597009658813477,-0.4330861270427704
1761478592778357000,8.01735693359375,0.6245359778404236,0.9094645977020264,-0.5099399089813232
1761478592788393000,8.02739306640625,0.416551411151886,0.5025057196617126,-0.39783617854118347
1761478592798428200,8.03742822265625,0.20645542442798615,0.13030897080898285,-0.20136572420597076
1761478592808464100,8.047464111328125,0.1031041219830513,0.027084775269031525,-0.0009893670212477446
1761478592818500000,8.0575,0.10999877750873566,0.14745591580867767,0.14834658801555634
1761478592828536000,8.0675361328125,0.030144810676574707,0.11262509226799011,0.40915513038635254
1761478592838572000,8.077572021484375,-0.016271155327558517,0.026023095473647118,0.592868447303772
1761478592848607000,8.08760693359375,-0.02823837473988533,-0.05875687673687935,0.6375319361686707
1761478592858643000,8.097642822265625,-0.0628642588853836,-0.15315021574497223,0.5826809406280518
1761478592868679200,8.10767919921875,-0.08101431280374527,-0.21746821701526642,0.44675207138061523
1761478592878715100,8.117715087890625,-0.09030687808990479,-0.24279141426086426,0.278281033039093
1761478592888751000,8.127751220703125,-0.08526422083377838,-0.2224648892879486,0.11825011670589447
1761478592898787000,8.137787109375,-0.0704522505402565,-0.17038758099079132,0.004785869736224413
1761478592908822000,8.147822021484375,-0.0370870903134346,-0.11718156188726425,-0.058152418583631516
1761478592918858000,8.15785791015625,0.0011039706878364086,-0.07604371011257172,-0.08670896291732788
1761478592928894000,8.16789404296875,0.03926294669508934,-0.0318184457719326,-0.10838394612073898
1761478592938930000,8.177929931640625,0.06507083773612976,0.01753099448978901,-0.11688129603862762
1761478592948966100,8.187966064453125,0.08893449604511261,0.06510427594184875,-0.10566191375255585
1761478592959001000,8.1980009765625,0.12858736515045166,0.09009698033332825,-0.09465853124856949
1761478592969037000,8.208037109375,0.17993152141571045,0.10847146064043045,-0.0951663926243782
1761478592979073000,8.218072998046875,0.21661603450775146,0.08446386456489563,-0.11518937349319458
1761478592989109000,8.22810888671875,0.22197647392749786,0.04597180709242821,-0.15028125047683716
1761478592999145000,8.23814501953125,0.19858752191066742,0.008505922742187977,-0.19033598899841309
1761478593009180200,8.24818017578125,0.15204577147960663,-0.026963647454977036,-0.21269568800926208
1761478593019216100,8.258216064453125,0.0987900123000145,-0.06267477571964264,-0.19304661452770233
1761478593029252000,8.268252197265625,0.05189157649874687,-0.0646943598985672,-0.10869825631380081
1761478593039288000,8.2782880859375,0.033383142203092575,-0.046332135796546936,-0.008333302102982998
1761478593049324000,8.288323974609375,0.04527733474969864,-0.022954877465963364,0.0748026967048645
1761478593059360000,8.298360107421875,0.06805215030908585,0.018376050516963005,0.1258389800786972
1761478593069395000,8.30839501953125,0.08754485845565796,0.04287514090538025,0.13800960779190063
1761478593079431200,8.31843115234375,0.08648119121789932,0.008109435439109802,0.10558322072029114
1761478593089467100,8.328467041015625,0.06474262475967407,-0.010161289013922215,0.05659103766083717
1761478593099503000,8.338503173828125,0.05147715285420418,-0.015165102668106556,0.0004872884601354599
1761478593109539000,8.3485390625,0.04256127029657364,-0.03995432332158089,-0.06241055950522423
1761478593119574000,8.358573974609374,0.03942699357867241,-0.023325545713305473,-0.11532331258058548
1761478593129610000,8.36860986328125,0.02462327480316162,-0.019663620740175247,-0.12712933123111725
1761478593139646700,8.378646728515625,-0.009920853190124035,-0.0006031100638210773,-0.11718030273914337
1761478593149682700,8.3886826171875,-0.04443807527422905,0.032241497188806534,-0.11513079702854156
1761478593159718700,8.39871875,-0.07057221233844757,0.08566636592149734,-0.13241365551948547
1761478593169753900,8.40875390625,-0.09469069540500641,0.10112587362527847,-0.17842847108840942
1761478593179789800,8.418789794921874,-0.13859157264232635,0.06944943964481354,-0.25967830419540405
1761478593189825800,8.42882568359375,-0.1826319843530655,0.27206793427467346,-0.12922430038452148
1761478593199861800,8.43886181640625,-0.10358695685863495,0.12265289574861526,-0.2891250252723694
1761478593209897700,8.448897705078124,0.028837084770202637,-0.18140140175819397,-0.4495653212070465
1761478593219933700,8.45893359375,0.1341661810874939,-0.363188236951828,-0.4012316167354584
1761478593229969000,8.468968994140624,0.15535934269428253,-0.3290456533432007,-0.25136885046958923
1761478593240004900,8.4790048828125,0.12059976160526276,-0.2162109762430191,-0.07559223473072052
1761478593250040800,8.489040771484374,0.05908932536840439,-0.07726112753152847,0.18360377848148346
1761478593260076800,8.499076904296874,0.03772518038749695,0.2668387293815613,0.4274103343486786
