time,seconds_elapsed,z,y,x
1761506003209478700,0.125478759765625,-0.1342839672833681,-0.006143873049877584,-0.003445354680903256
1761506003219514600,0.1355146484375,-0.1269599080055952,0.0017370163930580018,-0.0065582625370472665
1761506003229550600,0.145550537109375,-0.12621698068380355,-0.0034670185234397647,0.0004663023374974727
1761506003239585500,0.15558544921875,-0.12352525738179683,-0.0035982619539834558,0.004500270561315119
1761506003249621500,0.16562158203125,-0.12502046437561512,-0.00679787997920066,-0.0032901275865733623
1761506003259657700,0.17565771484375,-0.12486615059673785,-0.005733465618081391,-0.004341718998737633
1761506003269693700,0.185693603515625,-0.12277648484110831,-0.010203815965168178,-0.00119666243866086
1761506003279729700,0.195729736328125,-0.1342979958087206,-0.0011171674616634844,-0.004029803505353629
1761506003289765600,0.205765625,-0.1359399177968502,-0.00473155856654048,-0.00848579653352499
1761506003299800600,0.215800537109375,-0.1296522158294916,-0.012552041325438766,-0.004950863873027265
1761506003309836500,0.22583642578125,-0.12815467074811457,-0.009915811070334166,-0.010653349830955266
1761506003319872500,0.23587255859375,-0.129203887540102,-0.006953435867093503,-0.009173997993394733
1761506003329908700,0.24590869140625,-0.12411503996849059,-0.0007945296448655426,-0.007724054913409053
1761506003339944700,0.25594482421875,-0.11753449253439903,-0.007407024853490292,-0.008038162363879383
1761506003349980700,0.265980712890625,-0.12441723778545856,-0.008726765682548284,-0.00455408310778439
1761506003360015600,0.276015625,-0.12621698068380355,-0.009521350126340984,0.00023505086489021776
1761506003370051600,0.286051513671875,-0.13160334989726544,-0.0041120566950179635,0.006496266684122383
1761506003380087600,0.296087646484375,-0.12142799284160137,0.0030286088398657736,0.0024858619989827275
1761506003390123500,0.30612353515625,-0.12576280717551708,-0.006851729058288038,-0.0015572028467431664
1761506003400159500,0.316159423828125,-0.12128010880351066,-0.005148980261012912,-0.010363134712725878
1761506003410195700,0.32619580078125,-0.12352993355691433,-0.002024327168148011,-0.008336195462383329
1761506003420230700,0.336230712890625,-0.12488310173153877,-0.006675678371638059,-0.0013413316063582896
1761506003430266600,0.3462666015625,-0.12533143002092836,-0.009423479242436587,-0.00546038429774344
1761506003440302600,0.356302490234375,-0.12039397361874579,-0.007738302634470165,-0.013330313955247402
1761506003450338600,0.366338623046875,-0.130563485455513,-0.007279726945701986,-0.011722549965046345
1761506003460374500,0.37637451171875,-0.12532675384581088,0.0011296981496736406,-0.0067795040722936385
1761506003470409700,0.38640966796875,-0.13056465449929236,0.007804591070022434,-0.0024742080938071013
1761506003480445700,0.39644580078125,-0.12248890007138251,0.00003337254663929343,-0.00009268325213342905
1761506003490481700,0.406481689453125,-0.12653437606990336,-0.0033983554677106437,0.002906023639813065
1761506003500517600,0.416517578125,-0.12114625329077243,0.003490326333791017,-0.003119775988347828
1761506003510553600,0.4265537109375,-0.12593231852352618,-0.007439063959568739,-0.00004712707735598087
1761506003520589600,0.436589599609375,-0.13521043447852135,-0.007407499777525663,-0.006195822432823479
1761506003530625800,0.446625732421875,-0.12353870138525962,-0.009280454042553902,-0.0009978884635493158
1761506003540660700,0.45666064453125,-0.1374567521005869,-0.008178338019549846,0.000820887928828597
1761506003550696700,0.46669677734375,-0.12607611090838908,-0.007984788208827375,-0.0013126535011455415
1761506003560732700,0.476732666015625,-0.1197878244191408,-0.0045686596224084495,-0.005501629623584449
1761506003570768600,0.4867685546875,-0.1190343757033348,-0.00732639736533165,0.0010137801524251699
1761506003580804900,0.496804931640625,-0.12576397621929644,-0.005943108047079294,-0.0030825492504984136
1761506003590840800,0.5068408203125,-0.12441197708845138,-0.005297868946101516,-0.006319010421074927
1761506003600875500,0.51687548828125,-0.12066986795067787,-0.006492430759221315,-0.007109539744257927
1761506003610911500,0.526911376953125,-0.12201952899396419,-0.0009111417618580162,-0.00540321075040847
1761506003620947700,0.53694775390625,-0.12201543734073639,-0.007797321079019457,-0.0002773191040381789
1761506003630983700,0.546983642578125,-0.11497954735457896,-0.0045642757082358,-0.008278327795304357
1761506003641020000,0.55702001953125,-0.1285971538186073,-0.005604688139259815,-0.004964125213399529
1761506003651055900,0.567055908203125,-0.12515315084457396,-0.003951477572135627,0.0031816622434183953
1761506003661090600,0.577090576171875,-0.12365209863185882,0.007030885017476975,0.0013017302483320236
1761506003671126500,0.58712646484375,-0.126797995442152,0.0019126286882907152,0.0014286080310121178
1761506003681162500,0.59716259765625,-0.12873919263780118,-0.007502758579235523,0.004077149778418243
1761506003691198500,0.607198486328125,-0.1249947454124689,0.007654094949737191,-0.00329794556684792
1761506003701235000,0.61723486328125,-0.13172317688465118,-0.003681063132919371,-0.004581263375654817
1761506003711271000,0.62727099609375,-0.12215046189725398,-0.008614354816637932,-0.005515365887992084
1761506003721305600,0.6373056640625,-0.11062895092964171,-0.0080436787892133,-0.0043642596241086715
1761506003731341600,0.647341552734375,-0.12334464011788368,-0.004782302373088896,0.0004775909164920449
1761506003741377500,0.65737744140625,-0.11915887886583805,-0.014323946368787437,-0.002405855565331876
1761506003751413800,0.667413818359375,-0.12724106303453445,-0.006329276086762547,-0.004043612834997475
1761506003761449700,0.67744970703125,-0.1281359660476446,-0.002850914185401052,-0.005050634453073143
1761506003771485700,0.687485595703125,-0.12169804195463657,0.0025455562969669697,-0.005671177504211664
1761506003781522000,0.69752197265625,-0.1264806000560522,0.005727876127511263,-0.0005392579758539796
1761506003791556600,0.707556640625,-0.12393792983591556,-0.011864369588531553,0.0003508592642843723
1761506003801592600,0.717592529296875,-0.1255868660867214,-0.009744272162020206,-0.005116868089698255
1761506003811628800,0.72762890625,-0.11975275310575961,-0.0171529957822524,-0.005394041063264012
1761506003821664800,0.737664794921875,-0.12200082429349422,-0.011995777415856718,-0.012374657198227942
1761506003831700700,0.74770068359375,-0.12948445804715156,-0.004460669203288853,-0.004867021514475345
1761506003841736700,0.75773681640625,-0.11168284389674663,-0.014023556916415691,-0.0017188596818596123
1761506003851771600,0.767771728515625,-0.1257493631720543,-0.00895282952338457,-0.006332637087628245
1761506003861807900,0.777807861328125,-0.13741466652452944,-0.011062917012535036,-0.006212517839297652
1761506003871843800,0.78784375,-0.12185410929918289,-0.0028869536131620405,-0.004284874244965613
1761506003881879800,0.7978798828125,-0.12156360192000865,0.0019687427897006273,-0.004502681714110076
1761506003891915800,0.807915771484375,-0.12455869208276271,-0.0069921239096671335,-0.00817647485602647
1761506003901951700,0.81795166015625,-0.12410919474959373,-0.012354893051832913,-0.0017765081532299517
1761506003911987700,0.82798779296875,-0.1347328800946474,-0.0010783698212355375,-0.003018653701432049
1761506003922023000,0.83802294921875,-0.13054887240827082,-0.004497895941138267,0.0022859555127099154
1761506003932059000,0.848058837890625,-0.12172083830833434,-0.0005900383150205016,-0.0003967442326247692
1761506003942094800,0.8580947265625,-0.11872867075502871,-0.013703202388249337,0.0001920885059982538
1761506003952130800,0.868130859375,-0.12381751832664012,-0.004256890259496868,0.00799008543845266
1761506003962166800,0.878166748046875,-0.12860182999372483,-0.011690255130641161,-0.004792129647359251
1761506003972202800,0.88820263671875,-0.12591478286683558,0.0029131657666526733,-0.008844144984520972
1761506003982237700,0.89823779296875,-0.11858254028260708,0.0001457286136224866,-0.006638926557824015
1761506003992274000,0.90827392578125,-0.12830255478620528,-0.0017225129436701536,-0.007250190323963761
1761506004002310000,0.918309814453125,-0.12560323269963264,-0.0016158742314204572,-0.009045549308136105
1761506004012345900,0.928345947265625,-0.11468261023461818,-0.01008042704751715,-0.007406696059927344
1761506004022381800,0.9383818359375,-0.12889993615746498,-0.006463917050790041,-0.0028740941315889357
1761506004032417800,0.948417724609375,-0.12410627214014529,-0.007126728341076523,-0.008769106986932456
1761506004042453800,0.958453857421875,-0.12440554734766482,-0.003362827496603131,-0.009246844033896922
1761506004052488700,0.96848876953125,-0.13083937978744506,-0.0031660628154873845,-0.000003908990137279033
1761506004062524700,0.978524658203125,-0.13009236081242562,-0.001361917736660689,-0.011348090629465877
1761506004072561000,0.988560791015625,-0.12036650108993052,0.0004268288436345756,-0.014167605029605328
1761506004082596900,0.998596923828125,-0.12081249129176139,-0.0018586700113490222,-0.0028584581710398194
1761506004092632800,1.0086328125,-0.1348760879576206,-0.001195602992735803,0.005651559488289058
1761506004102668800,1.018668701171875,-0.12739888394474982,-0.0004588496834039688,-0.003189443691074848
1761506004112704800,1.028704833984375,-0.12036591656804084,-0.0046608496841974555,-0.0055594972906634205
1761506004122739700,1.03873974609375,-0.12426175496280192,-0.006170907187275588,-0.006684738460928201
1761506004132775700,1.048775634765625,-0.12530629557967185,-0.005562821758911013,-0.004842727323435246
1761506004142811600,1.058811767578125,-0.12260989610254763,-0.013170922142453492,0.0031366905905306336
1761506004152848000,1.068847900390625,-0.12904431306421757,-0.005746580827981233,-0.0026673925783485173
1761506004162883800,1.0788837890625,-0.11423135933578013,-0.0005780190836638211,-0.006481653636880218
1761506004172919800,1.088919921875,-0.12081249129176139,-0.006205905435420572,0.0009685893038287758
1761506004182955800,1.098955810546875,-0.12754326085150242,-0.008222944346256554,-0.005215396560728549
1761506004192990700,1.10899072265625,-0.12978548682034016,-0.0063476154610514635,-0.002628558405302465
1761506004203026700,1.119026611328125,-0.13502631008327007,0.0006470109329558909,-0.0010962708041071891
1761506004213062700,1.129062744140625,-0.1250035132408142,-0.004016469099745154,-0.008416932548396289
1761506004223099000,1.139098876953125,-0.12964052539169788,-0.009885744725633413,-0.008095153248123824
1761506004233134800,1.149134765625,-0.12948854970037937,-0.006362411171384155,-0.008277414479851723
1761506004243170800,1.1591708984375,-0.1362234109133482,-0.005016512987762689,-0.00240574596747756
1761506004253206800,1.169206787109375,-0.12364566889107227,-0.010511384076997638,-0.011065291632711886
1761506004263241700,1.17924169921875,-0.12230009950101375,-0.011071008987445384,-0.004821355741843581
1761506004273277700,1.189277587890625,-0.12768997584581374,-0.009472085890825837,-0.014816095533594488
1761506004283313700,1.199313720703125,-0.13487141178250311,-0.006200717803649604,-0.013202815118059515
1761506004293349600,1.209349609375,-0.13142390167713164,0.006748615743685514,-0.008991079174540936
1761506004303385900,1.2193857421875,-0.12858195624947547,-0.001672499789483845,-0.01067362543400377
1761506004313421800,1.229421875,-0.1315793844997883,-0.008635032278485597,-0.0034842253865674136
1761506004323457800,1.239457763671875,-0.13038228366971016,-0.005430244887806475,-0.005912840772978961
1761506004333492700,1.24949267578125,-0.13517127151191233,-0.0034578671026043594,-0.0069622767606750124
1761506004343528700,1.25952880859375,-0.1329343062400818,-0.01496456409357488,0.00029956746846437454
1761506004353564700,1.269564697265625,-0.13981938957870005,-0.007701532554347068,-0.0011861775772646068
1761506004363600600,1.2796005859375,-0.12440788543522358,-0.0034339930366724726,-0.0027034502724185582
1761506004373636600,1.28963671875,-0.13024375198185442,-0.012945187095180152,-0.009021839638985693
1761506004383672800,1.2996728515625,-0.13024199841618536,-0.00007070888234302402,-0.011016958978958427
1761506004393708800,1.309708740234375,-0.12485036850571632,0.00006071721129119396,-0.005625073340162635
1761506004403744800,1.319744873046875,-0.13113514786362648,-0.008730784270539879,-0.00803125769905746
1761506004413779700,1.32977978515625,-0.13292963006496428,-0.007932327369228005,-0.0015734598618000746
1761506004423815700,1.339815673828125,-0.1341267308950424,-0.006586940642260015,-0.0038270840074867006
1761506004433851600,1.3498515625,-0.12155951026678084,-0.00009898512875661254,-0.009013217941112817
1761506004443887600,1.3598876953125,-0.12859306216537952,-0.008375650689937173,-0.006879786108992993
1761506004453923600,1.369923583984375,-0.1309860947817564,-0.0021804127790033814,-0.005059438814036548
1761506004463959800,1.379959716796875,-0.12484627685248852,0.00669728741524741,-0.005602203921228647
1761506004473995800,1.389995849609375,-0.12814122674465178,-0.0051614013511687516,-0.003838482184335589
1761506004484030700,1.40003076171875,-0.126650695925951,-0.003183671537414193,-0.001426671802252531
1761506004494066700,1.410066650390625,-0.1347328800946474,-0.005333506515063345,0.004094831565581262
1761506004504102700,1.4201025390625,-0.12874562237858772,-0.0017931670270860194,-0.0031135289106518026
1761506004514138600,1.430138671875,-0.12440554734766482,-0.004691573616024107,-0.008709704949893057
1761506004524174600,1.440174560546875,-0.1336830787807703,-0.0033646723938174543,0.0017726722283288835
1761506004534210600,1.45021044921875,-0.12590367695093155,0.0010324483202770352,-0.0008224222987890243
1761506004544246800,1.460246826171875,-0.12769406749904155,0.003655782561190426,-0.001532397199049592
1761506004554281700,1.47028173828125,-0.12560147913396358,-0.001627491603977978,-0.0036170214533805846
1761506004564317700,1.480317626953125,-0.1429594411700964,0.0012782032422721384,-0.0055141237789765
1761506004574353700,1.490353759765625,-0.12979308560490607,-0.0037938210587017238,-0.00336140272449702
1761506004584389600,1.5003896484375,-0.13157996902167796,-0.008017704097740351,-0.006821626180969178
1761506004594425600,1.510425537109375,-0.13950959297716617,-0.013580361459869891,-0.002354782965220511
1761506004604461600,1.520461669921875,-0.12154665078520774,-0.006960669325478374,-0.010864873689785599
1761506004614497500,1.53049755859375,-0.1333645143508911,0.0008831760426983237,0.0009714388480409979
1761506004624533800,1.54053369140625,-0.13605916026234627,-0.008981471095979214,0.0033837972193956375
1761506004634568700,1.550568603515625,-0.13052490701079367,-0.003027786855958402,-0.002500548111461103
1761506004644604700,1.560604736328125,-0.13591478335559368,0.006327504254784434,-0.0042654023595154284
1761506004654640600,1.570640625,-0.13008125489652156,-0.0057529009709134694,-0.00406052743718028
1761506004664676600,1.580676513671875,-0.12618892363309858,-0.00865132582616061,0.00025960078425705434
1761506004674712600,1.590712646484375,-0.1227419980496168,0.006034859717451035,-0.0005258139723911882
1761506004684748500,1.60074853515625,-0.1306675303518772,-0.010092519344110042,-0.013477321210503577
1761506004694784800,1.61078466796875,-0.13964695562124252,-0.0037120793256908654,0.0005140139367431402
1761506004704819700,1.62081982421875,-0.1385971543073654,-0.00031284707514569164,-0.002236380749940872
1761506004714855700,1.630855712890625,-0.12362930227816105,0.0019066921378485858,-0.009234569074213505
1761506004724891600,1.6408916015625,-0.12886194223463535,-0.004062938589975237,0.004171842324547469
1761506004734927600,1.650927734375,-0.13245675185620784,-0.00321403014305979,-0.00969582991041243
1761506004744963600,1.660963623046875,-0.13485738325715063,-0.005828395626228302,-0.0014531214177608488
1761506004754999600,1.67099951171875,-0.1336614514708519,-0.010259162881597877,0.002721935777179897
1761506004765035500,1.681035400390625,-0.12513327710032462,-0.006406816568691283,-0.003948080038651824
1761506004775070700,1.69107080078125,-0.13246844229400156,-0.008539718677848578,-0.003236936094611883
1761506004785106700,1.701106689453125,-0.1309732353001833,-0.00597487315852195,-0.0002712546894326806
1761506004795142700,1.711142578125,-0.13231822016835212,-0.012270831497572361,-0.008549217158555984
1761506004805178600,1.7211787109375,-0.1306722065269947,-0.00769081023093313,-0.0014867679590359329
1761506004815214600,1.731214599609375,-0.12917583048939704,-0.000585289074666798,-0.003983772406540811
1761506004825250800,1.741250732421875,-0.1296224052131176,-0.00671571812108159,-0.009591346622630953
1761506004835286800,1.751286865234375,-0.1330646546214819,-0.009407861548196525,-0.003894742416217923
1761506004845322800,1.76132275390625,-0.1263315469741821,-0.007333630823716521,-0.0007203501638025045
1761506004855357700,1.771357666015625,-0.13187398353219032,-0.0062946614311076695,0.0015002484951168297
1761506004865393700,1.7813935546875,-0.14234803127348422,-0.006007569851726294,-0.000154642572440207
1761506004875429600,1.7914296875,-0.13112228838205336,-0.006919825858436524,0.0007232362406328321
1761506004885465900,1.8014658203125,-0.12738427089750767,-0.009103398708906025,-0.0012518997572362421
1761506004895501800,1.811501708984375,-0.12648702979683876,-0.013254874098859726,-0.007253551324829459
1761506004905537800,1.821537841796875,-0.1365150873363018,-0.0029732071245089173,-0.01163629645369947
1761506004915573800,1.83157373046875,-0.14130699778795242,-0.01004606812018901,-0.011905359186045825
1761506004925608700,1.841608642578125,-0.139064187297225,0.002835771415196359,-0.007804682401567697
1761506004935645000,1.85164501953125,-0.1365238551646471,-0.0016349625243805349,-0.008905812043882905
1761506004945681000,1.861680908203125,-0.1317342828005552,-0.00667069166926667,-0.0070843322377651926
1761506004955716900,1.871716796875,-0.1342792911082506,-0.00993791330428794,-0.006169263219460845
1761506004965752800,1.8817529296875,-0.13653028490543365,-0.006412862716987729,-0.0013800196489319205
1761506004975788800,1.891788818359375,-0.13608546374738215,-0.008504008043650537,-0.002397562661021948
1761506004985824800,1.90182470703125,-0.13653496108055113,-0.002948803335614502,-0.004787270809151232
1761506004995860700,1.91186083984375,-0.136531453949213,-0.004488251329958439,-0.0003829349029809236
1761506005005896000,1.92189599609375,-0.13742927957177162,-0.003342588426172733,-0.0016953326757997273
1761506005015932000,1.931931884765625,-0.13338497261703014,-0.011912336916103959,-0.0017978066695854068
1761506005025967900,1.9419677734375,-0.1345809044033289,-0.01117218607328832,-0.003333345673792064
1761506005036003800,1.95200390625,-0.13937047676742076,-0.012835826702881603,-0.004177285684645176
1761506005046039800,1.962039794921875,-0.13518003934025763,-0.009236340906191617,-0.00009436375256627798
1761506005056075800,1.97207568359375,-0.1422094995856285,-0.018422595592960715,-0.004210676497593522
1761506005066111700,1.98211181640625,-0.1353302614659071,0.0019654365877620874,-0.002400777531415224
1761506005076147000,1.99214697265625,-0.11857318793237209,-0.007951689656823873,0.00028736557401716706
1761506005086183000,2.002182861328125,-0.13563713545799255,-0.008673391527496278,-0.0027981062859296795
1761506005096219000,2.012218994140625,-0.14281623330712317,-0.001148548980616033,-0.008611066881008446
1761506005106254800,2.0222548828125,-0.13758300882875918,-0.001063300116267055,-0.004660758352652192
1761506005116290800,2.032290771484375,-0.13369476921856402,-0.013770714666508137,-0.0004057312566787004
1761506005126326800,2.042326904296875,-0.14072715207338332,-0.0041889030572026965,-0.009095051005668937
1761506005136362800,2.05236279296875,-0.13489303909242154,-0.004304346130415797,-0.002038410492427647
1761506005146398000,2.06239794921875,-0.13145020516216754,-0.006653886664938181,-0.003956080682016909
1761506005156434000,2.072433837890625,-0.12546470101177692,-0.013546988913230596,-0.002452544251270592
1761506005166470000,2.082469970703125,-0.1299579207777977,-0.00881071763895452,-0.009210201817937195
1761506005176505900,2.092505859375,-0.13878537035584448,-0.003466561865713447,-0.003768266492336988
1761506005186541800,2.102541748046875,-0.1413286250978708,0.00110167763158679,-0.007343019706569612
1761506005196577800,2.112577880859375,-0.142527479493618,-0.0023583448954857885,-0.008410429742373526
1761506005206613800,2.12261376953125,-0.13579437184631823,-0.00273552591111511,-0.00528824260123074
1761506005216649700,2.132649658203125,-0.13190788580179214,0.0009137903766706586,-0.006258841199055314
1761506005226685000,2.142684814453125,-0.1356441497206688,-0.004471811651811004,-0.00011763503029942511
1761506005236721000,2.152720947265625,-0.13025427337586878,-0.00767082688882947,-0.0049044309154152865
1761506005246756900,2.1627568359375,-0.13055705571472645,-0.006305456819757819,-0.001059774718619883
1761506005256792800,2.172792724609375,-0.13609481609761714,-0.006995777171477675,-0.007501425138674676
1761506005266828800,2.182828857421875,-0.13534370546936988,0.00610671937726438,-0.004050955891236663
1761506005276864800,2.19286474609375,-0.13609130896627902,-0.008533946524187923,-0.004669891507178545
1761506005286900700,2.202900634765625,-0.13384323777854443,-0.01254194005653262,-0.00585902822650969
1761506005296935700,2.212935791015625,-0.13174188158512115,-0.004897124391794205,-0.003220131090283394
1761506005306972000,2.222971923828125,-0.14206453815698622,-0.0057753137321211396,-0.005302124996110796
1761506005317008000,2.2330078125,-0.13353402569890022,-0.0021468393029645083,-0.005659888925217091
1761506005327043800,2.2430439453125,-0.1344318513214588,-0.005199961529579013,-0.002563347681984305
1761506005337079800,2.253079833984375,-0.13877017278671264,-0.005861037520505487,-0.0031727117519825695
1761506005347115800,2.26311572265625,-0.1369762751072645,0.0013937193807214497,-0.006952449486404657
1761506005357152000,2.273152099609375,-0.1339835230320692,-0.0020050196794793008,-0.006391819928959011
1761506005367186700,2.283186767578125,-0.13353811735212803,-0.005038195096608251,-0.006202142575755715
1761506005377222700,2.29322265625,-0.12695756991803644,0.0076323215093463655,-0.006746040194109082
1761506005387259000,2.3032587890625,-0.13054770336449145,-0.0019942425571382043,-0.005258212789148092
1761506005397294800,2.313294921875,-0.13833002780377865,0.0014101407925598323,-0.006988507180474698
1761506005407331000,2.3233310546875,-0.13414192846417428,0.0007674224422313272,-0.013293525608815252
1761506005417367000,2.333366943359375,-0.1319008715391159,-0.0040410190191119905,-0.0029987434245646
1761506005427403000,2.343403076171875,-0.1321931324839592,-0.004005874640494585,-0.006124693425372242
1761506005437439000,2.35343896484375,-0.1375789171755314,-0.01572975804610178,-0.005680456789210439
1761506005447473700,2.3634736328125,-0.13802899903059004,-0.000679963354486972,-0.0047200873244553805
1761506005457509600,2.373509521484375,-0.14042144712507723,0.0002445858782157302,-0.007529847515560686
1761506005467546000,2.383546142578125,-0.13683072915673256,-0.007141268323082477,-0.004279138623923063
1761506005477582000,2.39358203125,-0.13697919771671294,0.0030733795633539557,-0.003593713643029332
1761506005487618000,2.4036181640625,-0.14206862981021404,0.006222619108203798,-0.0007099018350243568
1761506005497654000,2.413654052734375,-0.14012158739566802,-0.005721957843378186,-0.003320486192218959
1761506005507690000,2.42368994140625,-0.14206804528832434,-0.0022756898470222948,-0.012717808080092072
1761506005517725000,2.433724853515625,-0.13817746759057045,-0.005236914272792637,-0.008935659192875027
1761506005527761000,2.443760986328125,-0.13473112652897834,0.004530939694214612,0.004167969867028296
1761506005537796900,2.453796875,-0.1375695648252964,-0.001553805313259363,-0.00879559313505888
1761506005547833000,2.4638330078125,-0.1327852531582117,0.005057283389568328,-0.0017907558742910623
1761506005557869000,2.473869140625,-0.14475684598088265,-0.0010354805275797844,-0.009887991481646895
1761506005567905000,2.483905029296875,-0.13458441153466702,-0.0004529313992708921,-0.006594831687770784
1761506005577941000,2.49394091796875,-0.13533259955346583,-0.007594692912697792,-0.00705839407891035
1761506005587976000,2.503975830078125,-0.13952829767763614,-0.00009432721994817257,-0.004354432349838316
1761506005598012000,2.514011962890625,-0.1401356159210205,-0.001338390730600804,-0.010274835374765097
1761506005608047900,2.5240478515625,-0.1395394035935402,-0.006732376994937658,-0.003020699528045952
1761506005618083800,2.534083740234375,-0.12906944750547408,-0.00956661404017359,-0.00761675861403346
1761506005628120000,2.5441201171875,-0.1386456696242094,-0.00011263006161898374,-0.009150105661153794
1761506005638156000,2.554156005859375,-0.14192951360046863,0.005755823580361902,-0.00244037888944149
1761506005648192000,2.56419189453125,-0.13773849165141583,-0.0011049290345981717,-0.00772599114216864
1761506005658227000,2.57422705078125,-0.13878303226828576,-0.00482972171138972,-0.0016035262065008282
1761506005668263000,2.584262939453125,-0.13414660463929176,-0.0000770107589662075,-0.007347586283832788
1761506005678299000,2.594298828125,-0.13953414289653301,0.006625098961871117,-0.008499678928405046
1761506005688334800,2.6043349609375,-0.13863514823019504,0.00284165316671133,-0.005673552124388515
1761506005698370800,2.614370849609375,-0.13983400262594223,-0.01173803979512304,-0.009621741760894656
1761506005708407000,2.624406982421875,-0.13789280543029309,0.001402213214430958,-0.009312018224596976
1761506005718443000,2.634443115234375,-0.14955869330465793,-0.007425291162542999,-0.006562061929330229
1761506005728478000,2.64447802734375,-0.13848200349509715,0.0011208389897830783,-0.006447568704187869
1761506005738514000,2.654513916015625,-0.12905424993634224,-0.006498458641208708,-0.00825713887680322
1761506005748550000,2.6645498046875,-0.14611235224306582,-0.01168532322719693,-0.0035252515166997907
1761506005758585900,2.6745859375,-0.14596154559552668,-0.0036860498352907596,-0.005848397234641015
1761506005768621800,2.684621826171875,-0.13175181845724582,0.001963116766512394,-0.009329773076996206
1761506005778657800,2.69465771484375,-0.13924071290791035,0.002487999157141894,-0.007426715934649109
1761506005788694000,2.704694091796875,-0.13819558776915072,-0.0019801044339314102,-0.006158814890682697
1761506005798729000,2.71472900390625,-0.14133447031676769,-0.006353570277802646,-0.006996653954312205
1761506005808765000,2.724764892578125,-0.13625088344216346,-0.00862926012482494,-0.006056304364278912
1761506005818801000,2.73480078125,-0.13535890303850173,0.002530961516033858,0.0016588365903124212
1761506005828836900,2.7448369140625,-0.13536591730117797,-0.001170651214569807,-0.013868329822085797
1761506005838872800,2.754872802734375,-0.13416823194921015,-0.009048179656639694,-0.002745572381094098
1761506005848908800,2.76490869140625,-0.13596446771621704,-0.009234459476359189,-0.01095156559254974
1761506005858944800,2.77494482421875,-0.144043729275465,-0.011820859240368008,-0.006469196014106273
1761506005868980000,2.78497998046875,-0.14180091878473758,-0.008375468026846647,-0.001921944505907595
1761506005879016000,2.795015869140625,-0.1427016670167446,-0.0013160875672474503,0.00443560782726854
1761506005889052000,2.805052001953125,-0.14509586867690086,0.0014064692644402384,0.005019837456010282
1761506005899088000,2.815087890625,-0.14674714301526545,-0.0016911131584085523,-0.005466521777585148
1761506005909123800,2.825123779296875,-0.13986498228609562,-0.004287431528232992,-0.0032456673903390764
1761506005919159800,2.835159912109375,-0.13792027795910836,0.004106229742430151,-0.0025783260554075238
1761506005929195800,2.84519580078125,-0.14720190104544162,-0.0015919088339433074,-0.001260850248672068
1761506005939231000,2.85523095703125,-0.1371761815935373,-0.0077409695155918595,-0.003198430715128779
1761506005949267000,2.865266845703125,-0.14345862286388872,-0.01217164543941617,-0.011890636540949344
1761506005959303000,2.875302978515625,-0.14270809675753116,-0.005894008208345621,0.0009168225839734077
1761506005969339000,2.8853388671875,-0.13582710507214069,-0.002255852635391056,-0.000841930716857314
1761506005979374800,2.895374755859375,-0.1304419049024582,-0.005475015611294657,-0.0044784240556880826
1761506005989410800,2.905410888671875,-0.13972060537934303,-0.006006272943783551,-0.0013370207574218511
1761506005999446800,2.91544677734375,-0.13866846597790716,-0.012849489902053028,-0.0004607128469273448
1761506006009482000,2.92548193359375,-0.12983341761529446,-0.006820384071953595,-0.0016416662598028777
1761506006019518000,2.93551806640625,-0.1320791507154703,0.000035308775398880244,-0.003379340239986777
1761506006029554000,2.945553955078125,-0.13477847280204294,0.0031501711266115305,-0.0025340485222637653
1761506006039590000,2.95558984375,-0.14016250392794607,-0.004113682396523655,0.0005772518986836075
1761506006049625900,2.9656259765625,-0.14001228180229663,-0.004553900444693863,-0.0023031623758375643
1761506006059661800,2.975661865234375,-0.14060732508599758,-0.005682922740932554,-0.002289462644048035
1761506006069697800,2.98569775390625,-0.14613924024999142,-0.013535006214492022,-0.0001473360488191247
1761506006079733000,2.99573291015625,-0.13716156854629516,-0.0025313085759058594,0.00235248141027987
1761506006089769000,3.00576904296875,-0.136266665533185,-0.0008510638713836669,-0.0074443977218121285
1761506006099805000,3.015804931640625,-0.1347638597548008,-0.012605890404526143,-0.0020511238435283303
1761506006109841000,3.0258408203125,-0.1417962426096201,-0.008871946306899189,-0.005208418830670416
1761506006119877600,3.035877685546875,-0.13910042765438557,-0.003867489083111286,-0.006430179177969694
1761506006129913600,3.04591357421875,-0.12922785293757916,-0.0030534510201774535,-0.006817059603706002
1761506006139949600,3.055949462890625,-0.1395551856845617,-0.010934523126203567,-0.007215520869381725
1761506006149984500,3.065984619140625,-0.12802958306372164,-0.007990596895106136,0.004673142910189926
1761506006160020500,3.0760205078125,-0.12383739207088947,-0.01062995068905875,0.000476714133657515
1761506006170056700,3.086056640625,-0.13475626097023485,-0.011873685406148433,-0.005929353516362607
1761506006180092700,3.0960927734375,-0.141490537661314,-0.011232172632217407,-0.0023521891493350267
1761506006190128600,3.106128662109375,-0.1398433549761772,-0.0066830031615681944,-0.001814794337004423
1761506006200164600,3.11616455078125,-0.13505845878720282,-0.005023655114602297,-0.0011273235294967888
1761506006210200600,3.12620068359375,-0.12862637991309164,-0.003182685156725347,-0.002727927126549184
1761506006220235500,3.136235595703125,-0.1265320379823446,-0.0020050196794793008,-0.006533091563172638
1761506006230271500,3.146271484375,-0.14388532384335995,-0.00020328575344756244,-0.005774272552505135
1761506006240307500,3.156307373046875,-0.13820201750993727,0.0026765439991839226,-0.003770568047277629
1761506006250343700,3.16634375,-0.1428366915732622,-0.017095840501226485,0.00180120420306921
1761506006260379600,3.176379638671875,-0.14433014500141142,-4.3839141726493836e-7,-0.005842113624326885
1761506006270415600,3.18641552734375,-0.13131518060564995,-0.0013565657081082462,0.00016220482438802718
1761506006280450600,3.196450439453125,-0.1392465581268072,-0.00260948837865144,-0.012807276461832225
1761506006290486500,3.206486572265625,-0.1346107150197029,-0.0009165485893376171,-0.006964724446088076
1761506006300522500,3.2165224609375,-0.1299748719125986,-0.004152333906479179,-0.005569872554205358
1761506006310558500,3.226558349609375,-0.13446341550350188,0.0019221454353071747,-0.009733714235387741
1761506006320594400,3.236594482421875,-0.13790566491186618,-0.006958404303155839,-0.008193973980098962
1761506006330630700,3.246630615234375,-0.1432943722128868,-0.0009250789556652307,-0.011162943320907651
1761506006340666600,3.25666650390625,-0.14374503858983517,0.00778384054293856,-0.0035466961635276673
1761506006350701600,3.26670166015625,-0.13940437903702257,-0.005585764243081211,0.006470291992649435
1761506006360737500,3.276737548828125,-0.13715864593684673,-0.004248633887805045,0.001353423902951181
1761506006370773500,3.2867734375,-0.14238953232765197,-0.0043599487751722335,0.00033441958613693713
1761506006380809500,3.2968095703125,-0.13356032918393612,-0.004105243361741304,-0.0018990020217373965
1761506006390845400,3.306845458984375,-0.14238836328387258,0.0003474251981824636,-0.009227226017974316
1761506006400881400,3.31688134765625,-0.13924538908302783,-0.010167940934188663,-0.0030937282316386696
1761506006410917600,3.326917724609375,-0.13475333836078643,-0.004319306237529963,-0.0006998918976634741
1761506006420952600,3.33695263671875,-0.14403379240334033,0.0073161316996440285,-0.004029986168444156
1761506006430988500,3.346988525390625,-0.13595043919086455,-0.005848872158676385,0.0003702946171164512
1761506006441024500,3.3570244140625,-0.13071195401549338,-0.006099065793771296,-0.0037458354648202655
1761506006451060500,3.367060546875,-0.13744798427224159,-0.012758103557862341,-0.00316872969660908
1761506006461096400,3.377096435546875,-0.1419347742974758,-0.004777480067498982,-0.005726487888023257
1761506006471132400,3.38713232421875,-0.1459738205552101,0.0008125767582096159,-0.00025233079325407743
1761506006481168400,3.39716845703125,-0.13295301094055176,0.0024495851092040536,-0.002420285949483514
1761506006491203600,3.40720361328125,-0.12637304802834987,-0.0015134367702528833,-0.008182027813978492
1761506006501239600,3.417239501953125,-0.12816519214212893,-0.009958682097680867,-0.009148096367157995
1761506006511275500,3.427275634765625,-0.12830781548321246,-0.002454334349557757,-0.003899016732536256
1761506006521311500,3.4373115234375,-0.13892916274070738,-0.007715469748154282,-0.007656469569914042
1761506006531347500,3.447347412109375,-0.1324976683884859,0.0005112374577671289,-0.006222272048331797
1761506006541383400,3.457383544921875,-0.13848492610454557,0.0027251141149550674,0.005140066302195191
1761506006551418600,3.467418701171875,-0.1422229435890913,-0.003089435649011284,-0.00948540203012526
1761506006561454600,3.47745458984375,-0.1411819101035595,-0.0030448293223045765,-0.004437945914827287
1761506006571490600,3.487490478515625,-0.13909107530415057,-0.00040523806633427736,-0.008319426990672946
1761506006581526500,3.497526611328125,-0.14358020341694355,-0.00634549656920135,-0.00430193497762084
1761506006591562500,3.5075625,-0.1435819569826126,-0.0032149251922033726,0.0033002836544066667
1761506006601598500,3.517598388671875,-0.13116671204566954,0.002343348255753517,0.0011804419562220572
1761506006611633700,3.527633544921875,-0.1280272449761629,0.0015946487803012131,-0.0052484220474958414
1761506006621669600,3.537669677734375,-0.13161854746639728,0.002474646485224366,-0.005842588548362255
1761506006631705600,3.54770556640625,-0.12548808188736438,0.004209032529778779,-0.009987835126928985
1761506006641741600,3.557741455078125,-0.13910393478572367,-0.0058486346966587005,0.00031841829940676685
1761506006651777500,3.567777587890625,-0.14074702581763265,-0.01063305596159771,-0.010997633223980665
1761506006661813500,3.5778134765625,-0.13730185379981993,-0.00329348858743906,-0.006331760304793715
1761506006671849500,3.587849365234375,-0.1287725103855133,-0.008577603002823888,-0.0034466698551550504
1761506006681884400,3.597884521484375,-0.13310732471942902,-0.011915953645296394,-0.002222169561497867
1761506006691920600,3.607920654296875,-0.1299672731280327,-0.0023406448420137164,-0.012770195854455232
1761506006701956600,3.61795654296875,-0.14957038374245166,-0.002497662034630775,-0.008612455120496451
1761506006711992600,3.62799267578125,-0.137743752348423,0.00676364891603589,-0.012718429134599864
1761506006722028500,3.638028564453125,-0.13684241959452628,-0.0049393195657059545,-0.012657894586399198
1761506006732064500,3.648064453125,-0.13445114054381846,-0.005149802244920283,-0.0016978168938308954
1761506006742100500,3.6581005859375,-0.13699439528584478,-0.002721095526963472,-0.006435768668539821
1761506006752135400,3.668135498046875,-0.1326537357330322,-0.0019880320120602844,-0.0057191813644021745
1761506006762171400,3.67817138671875,-0.1410328570216894,-0.009375822442118077,-0.0008556669812649488
1761506006772207600,3.68820751953125,-0.1302571959853172,-0.011080580533389001,-0.00903532017506659
1761506006782243600,3.69824365234375,-0.13863865536153316,-0.019027137357369064,0.0012500731263309717
1761506006792279600,3.708279541015625,-0.13699439528584478,-0.004394234637264162,-0.002418532383814454
1761506006802315500,3.7183154296875,-0.13909107530415057,0.002844539243541658,-0.005433825084380805
1761506006812350500,3.7283505859375,-0.13385785082578658,-0.0039994631660170855,-0.000557853078469634
1761506006822386400,3.738386474609375,-0.135944009450078,-0.0010395173818804322,-0.004592807682976126
1761506006832422400,3.74842236328125,-0.13594108684062958,-0.001823306437022984,-0.004076565256528556
1761506006842458400,3.758458251953125,-0.13668810581564902,-0.006296725524030626,-0.00554882976617664
1761506006852494600,3.76849462890625,-0.1456651929974556,-0.0034451354851946234,-0.0015574585750699043
1761506006862530600,3.778530517578125,-0.13982406575381756,-0.005956606849469244,0.002391717442125082
1761506006872566500,3.78856640625,-0.1347328800946474,-0.0005964315231889486,-0.009061842855811119
1761506006882601500,3.7986015625,-0.14132277987897396,0.0023361330636776983,-0.008637333833426237
1761506006892637400,3.808637451171875,-0.13504092313051222,-0.003903181451000273,-0.0014591127671301364
1761506006902673400,3.81867333984375,-0.13893500795960426,-0.008096760683320462,-0.0025490999609231947
1761506006912709400,3.82870947265625,-0.1390899062603712,0.0007044402086175978,-0.00934869697317481
1761506006922745300,3.838745361328125,-0.14043313756287096,0.008702471491508185,-0.0069415262335911386
1761506006932781600,3.848781494140625,-0.13774433687031268,-0.00105550040230155,-0.008134791138768195
1761506006942816500,3.85881640625,-0.13924363551735877,-0.004842690790817141,-0.005256166962534189
1761506006952852500,3.8688525390625,-0.14343465746641157,-0.004915500298701227,-0.004367109168320894
1761506006962888400,3.878888427734375,-0.14163842169940472,-0.0033819157895632087,-0.003956884399615228
1761506006972924400,3.88892431640625,-0.13534896616637707,-0.0008555025844834745,-0.009029694151878357
1761506006982960400,3.89896044921875,-0.13534955068826673,-0.0036265382003970443,-0.004340696085430681
1761506006992996400,3.908996337890625,-0.13789748160541057,-0.009114486358501017,-0.0013960574682801961
1761506007003031600,3.919031494140625,-0.14209259520769119,-0.001596037019789219,0.0003929448403418064
1761506007013067500,3.929067626953125,-0.14059505012631415,0.00347589594963938,-0.00666913903299719
1761506007023103500,3.939103515625,-0.1422398947238922,-0.016747702916990966,-0.012366291228681802
1761506007033139500,3.949139404296875,-0.151664141151309,-0.005012823193334043,0.001956833156198263
1761506007043175400,3.959175537109375,-0.12428396679461001,-0.008916187307424843,0.004018916785158217
1761506007053211400,3.96921142578125,-0.12488310173153877,-0.00874503199160099,0.0029727322004735467
1761506007063247400,3.979247314453125,-0.14418635261654852,-0.002507361444737762,-0.0043246217334643
1761506007073282600,3.989282470703125,-0.13267068686783312,-0.006359689491335302,-0.006993658279627561
1761506007083318500,3.999318603515625,-0.14583938052058218,-0.00808196497298777,-0.010081760488077997
1761506007093354500,4.0093544921875,-0.13326748371720312,-0.007375022280029952,-0.004382416335307062
1761506007103389400,4.019389404296875,-0.13895254361629486,-0.004983450968377292,0.00038176585920155046
1761506007113425400,4.02942529296875,-0.14314415008723735,-0.003027585926558822,-0.00301251622159034
1761506007123461000,4.039461181640625,-0.13581541463434696,-0.009197305803745984,-0.010756773672811686
1761506007133497000,4.0494970703125,-0.12863047156631946,-0.013200440497882663,0.003050985068455338
1761506007143533000,4.059532958984375,-0.13356617440283297,-0.008834171579778194,-0.0003229483440518379
1761506007153569000,4.069569091796875,-0.13326865276098251,-0.0056117389345541595,-0.004812039924226701
1761506007163604000,4.07960400390625,-0.1432955412566662,-0.003907455767318606,-0.007358692199736833
1761506007173640000,4.089639892578125,-0.1403045427471399,-0.0014820552513003348,-0.01134911354277283
1761506007183676000,4.099676025390625,-0.13492226518690587,0.002006115658022463,-0.0038473230779170987
1761506007193711900,4.1097119140625,-0.13492635684013365,-0.007377287302352487,-0.008779811044037342
1761506007203748000,4.119748046875,-0.1377700558334589,-0.004558777549210935,-0.0028585677688941357
1761506007213784000,4.1297841796875,-0.13582593602836132,-0.00771795396618545,-0.003493833465129137
1761506007223820000,4.139820068359375,-0.13282792325615883,-0.005106511092465371,-0.0013726765926927328
1761506007233855000,4.14985498046875,-0.14375205285251139,-0.010809545039664954,0.003756429924070835
1761506007243891000,4.159890869140625,-0.13761983370780945,0.0015246705503202975,-0.00038322716392576693
1761506007253927000,4.169927001953125,-0.13163666764497756,-0.0005730141149833799,-0.0051115708600729705
1761506007263963000,4.179962890625,-0.1386754802405834,-0.009762702867854385,-0.006467771242000162
1761506007273998800,4.189998779296875,-0.14046879339814186,0.0027067382080480456,-0.007088131630048155
1761506007284035000,4.20003515625,-0.14166414066255092,-0.003907382702082396,-0.006816109755635261
1761506007294070000,4.210070068359375,-0.1389759244918823,-0.008922945841774345,-0.001014145478606224
1761506007304106000,4.22010595703125,-0.14241700485646724,-0.010128887565433979,-0.0008788286611437797
1761506007314142000,4.230141845703125,-0.14137363328337668,-0.0017807642032392323,-0.0022233386052772403
1761506007324178000,4.240177978515625,-0.14451310035288334,0.009421853540930896,-0.006203165489062666
1761506007334214000,4.2502138671875,-0.14899930585622786,0.0015033537676557899,-0.002307911616191268
1761506007344249900,4.260249755859375,-0.14001929606497288,-0.008924955135770142,-0.002151332814991474
1761506007354285000,4.27028515625,-0.1317874742925167,-0.0019151494389399884,-0.007137487197108566
1761506007364321000,4.280321044921875,-0.14420681088268755,0.0004761478780768811,-0.00818619253244251
1761506007374357000,4.29035693359375,-0.13791384821832178,-0.004347673815488815,-0.002589066645130515
1761506007384393000,4.30039306640625,-0.13506664209365843,-0.009084164285473526,0.0017416925681754945
1761506007394429000,4.310428955078125,-0.13072773610651492,-0.012284640827216206,-0.0042826457552611824
1761506007404465000,4.32046484375,-0.1343231302499771,0.0005910612283274531,-0.0034138270314782856
1761506007414500000,4.3305,-0.14779402171969414,-0.00451702076671645,-0.006579597586020827
1761506007424536000,4.3405361328125,-0.13776187252700328,-0.008741890186443925,0.00012092296592891215
1761506007434572000,4.350572021484375,-0.1410550688534975,-0.007055069610662758,0.0005862754553556442
1761506007444608000,4.36060791015625,-0.1376210027515888,-0.0025086948852986097,-0.004001600324176252
1761506007454644000,4.37064404296875,-0.13791910891532896,-0.004899937403388321,-0.0009583601707592606
1761506007464680000,4.380679931640625,-0.1290899057716131,-0.005305248534958809,0.0020872911354526875
1761506007474715000,4.39071484375,-0.12848784822523593,-0.004321772189252078,0.0008139467313885688
1761506007484751000,4.400751220703125,-0.14180851756930352,-0.0013874723030254245,-0.0014048983618617057
1761506007494787000,4.410787109375,-0.13044248942434786,-0.005511603028327226,-0.0031819179717451334
1761506007504823000,4.420822998046875,-0.1340320383489132,-0.008279040181357413,-0.005073796132951974
1761506007514859000,4.43085888671875,-0.14914543632864952,-0.001157864798232913,-0.004894165249727666
1761506007524895000,4.44089501953125,-0.13388006265759467,0.00015926394863054156,-0.0019473712081089615
1761506007534930000,4.450929931640625,-0.12490589808523654,-0.011503281191177666,-0.0003355155646800995
1761506007544966000,4.4609658203125,-0.13074351819753646,-0.004110650189220905,-0.0016643530156463383
1761506007555001900,4.471001953125,-0.13403905261158944,-0.0031982297857291995,-0.0017226590741425752
1761506007565038000,4.4810380859375,-0.12625322104096412,-0.008852255225740372,-0.003727934481948614
1761506007575074000,4.491073974609375,-0.1424175893783569,-0.003296703457832336,-0.009474953701347112
1761506007585110000,4.501110107421875,-0.1316430973857641,0.005308134611789137,-0.011026676655374467
1761506007595146000,4.51114599609375,-0.13059271154999733,-0.005310673628747463,0.0017361030776053667
1761506007605181000,4.521180908203125,-0.13493161753714084,-0.0007379588857293128,-0.008656769186258316
1761506007615217000,4.531216796875,-0.13762918605804442,0.0034608445109799504,0.0008929302517324685
1761506007625252900,4.5412529296875,-0.13464403276741505,-0.001836951369885355,0.008102532836981117
1761506007635288800,4.551288818359375,-0.13434826469123362,-0.008009721720684319,-0.0020917846474796534
1761506007645325000,4.561324951171875,-0.13689911821782588,0.0004865596742369234,-0.00553012506570667
1761506007655361000,4.571361083984375,-0.13764964432418345,-0.010610570135153829,-0.0014928323736414313
1761506007665396000,4.58139599609375,-0.1391419287085533,0.0003435892732813954,-0.0015032441698014736
1761506007675434000,4.59143408203125,-0.1319569856405258,-0.001463058289885521,-0.0036602395405992863
1761506007685469000,4.601468994140625,-0.13525018196702002,0.009821246388368308,-0.0071082245700061315
1761506007695505000,4.6115048828125,-0.13495266032516956,0.006932411345373838,-0.005364084316417574
1761506007705540900,4.621540771484375,-0.13301263217329978,0.0025371355284936723,-0.005258870376273989
1761506007715576800,4.631576904296875,-0.14020225141644477,-0.0027722229260019955,-0.0057618879949674
1761506007725612800,4.64161279296875,-0.1415548350691795,-0.00040649844165891407,-0.007659428711980581
1761506007735648800,4.651648681640625,-0.13376900349855422,0.0005979293605312705,-0.003587795358896255
1761506007745684700,4.661684814453125,-0.1364589732348919,-0.0060416182518005365,-0.0032146877301856874
1761506007755720000,4.671719970703125,-0.1331681149959564,-0.0002627608557231724,-0.0023794424824416637
1761506007765756000,4.681755859375,-0.13885551298260687,0.0027866350438445803,-0.004925364105589688
1761506007775791900,4.6917919921875,-0.1379565183162689,-0.007490501885861158,-0.004092603075876832
1761506007785827800,4.701827880859375,-0.1333206752091646,0.0009081460871733724,0.0028723770985379813
1761506007795863800,4.71186376953125,-0.12329495575726032,-0.00008261851584538817,-0.0006637976709753274
1761506007805899800,4.721899658203125,-0.1262900459200144,-0.010692512797564268,0.005828121631592512
1761506007815935000,4.73193505859375,-0.1309293961584568,0.00040856253458186983,-0.0037501828463748096
1761506007825971000,4.741970947265625,-0.1297346334159374,-0.00066314008384943,0.006274331029132009
1761506007836007000,4.7520068359375,-0.13437456817626953,0.0005857822650112212,0.0004471957782283425
1761506007846043000,4.76204296875,-0.13228548694252967,-0.009667297935672104,-0.0021165902951732277
1761506007856078800,4.772078857421875,-0.12899287513792515,0.005865951157640666,-0.011837591179460287
1761506007866114800,4.78211474609375,-0.13213351125121117,0.0013507570218294859,-0.000960077203810215
1761506007876150000,4.79214990234375,-0.143652099609375,-0.011893285155761987,0.00197740102019161
1761506007886186000,4.80218603515625,-0.13991174403727052,-0.0038542094764299688,0.0036619931062683462
1761506007896222000,4.812221923828125,-0.1333300275593996,-0.008122096053976565,-0.005582549372687935
1761506007906258000,4.8222578125,-0.13123100945353508,-0.0023301599806174636,-0.0067301119726151225
1761506007916294000,4.8322939453125,-0.1325724871903658,0.003028206981066614,-0.005084682853147387
1761506007926329900,4.842329833984375,-0.1349590900659561,-0.0036514899785630404,-0.010338438662886619
1761506007936364800,4.85236474609375,-0.14034779736697672,-0.008676697729434817,-0.004099690403789282
1761506007946400800,4.86240087890625,-0.13631225824058055,-0.0015242138925939798,-0.0064342708311974995
1761506007956437000,4.87243701171875,-0.13975450764894484,-0.0003445025887340307,-0.006636661535501479
1761506007966473000,4.882472900390625,-0.1333206752091646,0.008212021093443036,0.0012031652446836232
1761506007976509000,4.892509033203125,-0.13212474342286587,0.0016659604508429764,0.000524827591702342
1761506007986545000,4.902544921875,-0.1301759474426508,-0.007683832500874996,0.00015822276901453732
1761506007996580900,4.912580810546875,-0.12897592400312424,-0.00025165493981912733,-0.005429550768062472
1761506008006615800,4.92261572265625,-0.1452864228129387,-0.008716664413642137,0.004649433241039514
1761506008016651800,4.93265185546875,-0.13316636143028734,-0.0036864334277808665,-0.0024873598363250493
1761506008026687700,4.942687744140625,-0.12747604083418845,-0.005392616291157901,-0.005421659722551703
1761506008036724000,4.952723876953125,-0.13525953431725501,-0.003407726084254682,0.0004006166901439428
1761506008046760000,4.962760009765625,-0.1375076055049896,-0.0060769635598175225,-0.0003891089154407382
1761506008056796200,4.972796142578125,-0.1452864228129387,-0.006205138250440358,-0.004526574046351015
1761506008066830800,4.982830810546875,-0.13376198923587798,0.0029679281611926854,-0.0007227978492155671
1761506008076866800,4.99286669921875,-0.1333165835559368,0.00240574596747756,0.003398410266637802
1761506008086902800,5.00290283203125,-0.13436813843548298,0.002334087237063795,0.0012221622060984373
1761506008096938800,5.012938720703125,-0.1300315705358982,0.004335928578767925,-0.005051365105435252
1761506008106974700,5.022974609375,-0.1322802262455225,-0.005707253464590758,-0.0011744140742346643
1761506008117011000,5.033010986328125,-0.1439566355139017,0.007134856848604976,-0.0035146570574492216
1761506008127046000,5.0430458984375,-0.1298871936291456,-0.0012311492301523685,0.00026825901474803685
1761506008137081900,5.053081787109375,-0.13213058864176272,-0.0074714866581372915,0.0014011720348149537
1761506008147117800,5.063117919921875,-0.13242518767416475,-0.002466152651514858,-0.00497351409625262
1761506008157153800,5.07315380859375,-0.1304763916939497,-0.0035183285855688155,-0.0005995367957279086
1761506008167189800,5.083189697265625,-0.13871288964152334,-0.002411645985301584,0.0009078355599194764
1761506008177225700,5.093225830078125,-0.14769699108600615,-0.00178101993156597,-0.002670022926852107
1761506008187261000,5.103260986328125,-0.14051555514931677,-0.003424732017982751,0.005304390018433332
1761506008197297000,5.113296875,-0.14695581732988355,-0.001961618929170072,-0.002278100999817252
1761506008207332900,5.123332763671875,-0.1339396838903427,-0.0007249898063018918,-0.0027429420325905084
1761506008217368800,5.133368896484375,-0.1418687233239412,-0.0015087057962082325,-0.0020206191074103115
1761506008227404800,5.14340478515625,-0.1310895551562309,0.0005123334363102913,-0.0066312181754037735
1761506008237440800,5.153440673828125,-0.13049626543819903,-0.006438344218116253,-0.00023453940823674202
1761506008247476000,5.16347607421875,-0.14635668239295482,0.003253887229412794,-0.00016615034714341162
1761506008257512000,5.173511962890625,-0.1294441260367632,0.005226191949378699,0.0004119783343747258
1761506008267548000,5.1835478515625,-0.1423135444819927,0.0018349238095805049,-0.0004180062163621187
1761506008277584000,5.193583984375,-0.13318272804319858,-0.0041673853451386095,-0.003626556466706097
1761506008287619800,5.203619873046875,-0.12989070076048373,-0.00490998387336731,-0.0011017141642048955
1761506008297655800,5.21365576171875,-0.1406669463187456,0.0014140863153152166,-0.003133877578936517
1761506008307691800,5.22369189453125,-0.13528583780229092,-0.006317896176222712,-0.005828961881808936
1761506008317727000,5.23372705078125,-0.14261749586462974,-0.0022475231984630225,0.005346658257581293
1761506008327763000,5.243762939453125,-0.13663023814857006,-0.013048574404418468,-0.00724964233469218
1761506008337799000,5.253798828125,-0.13513035497963427,-0.0048024318456649775,-0.0015949410412460564
1761506008347835000,5.2638349609375,-0.1451584125190973,0.0016876790923066435,-0.0005026522925123572
1761506008357870800,5.273870849609375,-0.14007131851315496,-0.002474664751533419,0.0012927797568961978
1761506008367906800,5.28390673828125,-0.13887480220496654,-0.006534224074333906,-0.005276880956999957
1761506008377941800,5.293941650390625,-0.13034312070310114,-0.0018575009675696492,-0.00027326398342847823
1761506008387977700,5.303977783203125,-0.13858078769445417,-0.004296528150141239,0.0006939005482941865
1761506008398014000,5.314013916015625,-0.1442699392467737,-0.001008811716362834,0.0025899068953469393
1761506008408050000,5.3240498046875,-0.1360357793867588,-0.009742500330042094,-0.0025877514708787202
1761506008418086000,5.3340859375,-0.14112228887081146,-0.01232908275714144,-0.0007436214415356517
1761506008428121900,5.344121826171875,-0.13214286360144614,0.004483136763423681,0.0027134602097794412
1761506008438156800,5.35415673828125,-0.13543021470904348,-0.01076672881124541,0.0013117767183110118
1761506008448192800,5.36419287109375,-0.13064298043251038,-0.004072948527336121,0.00226816412769258
1761506008458228700,5.374228759765625,-0.13527648545205592,-0.0009049129504710436,-0.004336458301730454
1761506008468264700,5.3842646484375,-0.13557283805012701,0.0023018654678948224,-0.0037247196115553377
1761506008478301000,5.394301025390625,-0.1357224756538868,0.000134714029263705,-0.004364003895781934
1761506008488337000,5.4043369140625,-0.1384101073026657,0.0004528948666527867,-0.0026204846967011687
1761506008498371800,5.414371826171875,-0.13930676388144492,-0.006722823715303093,0.0004873816581442952
1761506008508407800,5.42440771484375,-0.1421446176558733,-0.018772103150375186,-0.0006784837834537029
1761506008518443800,5.43444384765625,-0.1484177065759897,0.004747669451124966,0.0014313479773700236
1761506008528479700,5.444479736328125,-0.14871347465217113,-0.00410264954585582,-0.005990984043106436
1761506008538515700,5.454515625,-0.13824761021733284,-0.01242474341765046,-0.0037553339455276727
1761506008548551700,5.4645517578125,-0.13944997174441814,-0.003543189032189548,0.001227569033578038
1761506008558587000,5.4745869140625,-0.1307680681169033,-0.013376856510713696,-0.005921389405615627
1761506008568622800,5.484622802734375,-0.14184125079512594,-0.0032455760587938127,-0.004094100913219154
1761506008578658800,5.494658935546875,-0.1375000067204237,-0.0016351086548529565,-0.00616619447953999
1761506008588694800,5.50469482421875,-0.14199731813967226,-0.00644987025912851,-0.00555138704944402
1761506008598730800,5.514730712890625,-0.13123217849731444,-0.002676708395965397,-0.00006553951688110828
1761506008608766700,5.5247666015625,-0.1318301443904638,-0.006325695890188217,-0.004384717890247703
1761506008618802000,5.534802001953125,-0.13931553170979022,-0.001864844023808837,-0.008753215298056602
1761506008628838000,5.544837890625,-0.13183306699991226,-0.008169716321676969,0.0032153818499296902
1761506008638873900,5.554873779296875,-0.13376841897666453,-0.004972564248181879,0.0026634470555931327
1761506008648909800,5.564909912109375,-0.13661445605754852,-0.0027042539900168773,-0.0002519289344549179
1761506008658945800,5.57494580078125,-0.13287526952922343,-0.00017948475275188683,-0.00092102383505553
1761506008668981800,5.584981689453125,-0.14125731342732906,-0.0159874408679083,-0.009274535758420825
1761506008679016700,5.5950166015625,-0.1340712013155222,-0.005549980543646961,-0.0065041211970150465
1761506008689053000,5.605052978515625,-0.13122867136597632,-0.003993672746047378,-0.0041434199476614595
1761506008699089000,5.6150888671875,-0.13242518767416475,-0.002885985498782247,-0.0058866834184154865
1761506008709124900,5.625124755859375,-0.13557049996256829,-0.0009703246031887828,-0.007273899993114173
1761506008719160800,5.635160888671875,-0.14170388815104962,-0.0017257278140634298,-0.006137077982909977
1761506008729196800,5.64519677734375,-0.1475374166101217,-0.007757116932794452,0.004304747989214957
1761506008739231700,5.655231689453125,-0.13825579352378844,-0.0024842545637860894,0.0036492432225495573
1761506008749267700,5.665267822265625,-0.13032675409018993,0.0022233751378953454,0.0006577697889879346
1761506008759304000,5.675303955078125,-0.14184826505780218,-0.0010433898393996058,-0.006549750437028706
1761506008769340000,5.68533984375,-0.13825871613323687,-0.0075476023679599165,-0.004305295978486538
1761506008779375900,5.6953759765625,-0.13676234009563923,-0.006780344322510064,-0.0001283756200224161
1761506008789411800,5.705411865234375,-0.13946166218221187,-0.0037046266715973614,-0.001204480418935418
1761506008799446800,5.71544677734375,-0.13961013074219225,-0.006891257351078092,0.0005816723454743623
1761506008809482800,5.725482666015625,-0.14155366602540015,-0.0018010580725967883,0.0033720337163656946
1761506008819518700,5.735518798828125,-0.14095570013225078,-0.006860040228907019,-0.007835479398630558
1761506008829554700,5.7455546875,-0.12628595426678657,-0.00568275834415108,-0.004999854113906622
1761506008839591000,5.7555908203125,-0.12927753729820252,-0.013002269310969858,0.001990041306056082
1761506008849627000,5.765626953125,-0.13317162212729453,-0.002818071361724287,-0.0007597323261201381
1761506008859661800,5.775661865234375,-0.14080956965982913,0.0025234905956313014,-0.003676825349219143
1761506008869697800,5.78569775390625,-0.14754150826334952,-0.0007433109142817556,-0.0020991642363369463
1761506008879733800,5.795733642578125,-0.14619360078573226,0.0012442644400522112,-0.003648293374478817
1761506008889769700,5.805769775390625,-0.13676526270508765,-0.012759637927822767,-0.0019266206810250877
1761506008899805700,5.8158056640625,-0.1364671565413475,0.00021598083823919296,-0.0006747939890250563
1761506008909841700,5.825841552734375,-0.13062369121015072,0.000045026451814919705,-0.0041826559795066715
1761506008919876900,5.835876953125,-0.14304770397543906,-0.0027362017645500597,-0.0034897052792832255
1761506008929912800,5.845912841796875,-0.14155425054728984,-0.004455079712718725,-0.008846446539461612
1761506008939948800,5.85594873046875,-0.13916238697469233,-0.005269775362778455,0.00046513329371809955
1761506008949984800,5.86598486328125,-0.13811258566081522,0.004072857195790857,-0.004439772545732558
1761506008960020700,5.876020751953125,-0.1370639533907175,0.003880202434211969,-0.003205700706131756
1761506008970056700,5.886056640625,-0.13780921880006788,-0.008310312102455645,-0.009822305834293365
1761506008980092000,5.896091796875,-0.13182079204022884,-0.0019959595901891587,-0.0032560791864991185
1761506008990127900,5.9061279296875,-0.14155249698162078,0.0022678901330567894,-0.0037510596292093393
1761506009000163800,5.916163818359375,-0.14783786086142062,0.0009479849072173237,-0.0019487229149788617
1761506009010199800,5.92619970703125,-0.1451414613842964,-0.0016868753747083245,-0.004976692434027791
1761506009020235800,5.93623583984375,-0.14080313991904259,-0.0061781406456604595,0.000003799392282962799
1761506009030271700,5.946271728515625,-0.12599135523438454,-0.003701539665367454,-0.0022771511517465115
1761506009040306700,5.956306640625,-0.1337701725423336,0.002460234367381781,-0.008797675494290887
1761506009050343000,5.966343017578125,-0.14469371761679647,-0.007253149466030299,-0.00910736249797046
1761506009060379000,5.97637890625,-0.1382628077864647,-0.006142777071334421,-0.006188954300619661
1761506009070414800,5.986414794921875,-0.12988251745402812,0.0007664543278515339,-0.0011432152183726428
1761506009080450800,5.996450927734375,-0.13616262063682077,-0.001626998413633555,-0.005469407854415476
1761506009090486800,6.00648681640625,-0.14155834220051763,0.0014795345006510614,-0.0034813758423551913
1761506009100521700,6.016521728515625,-0.13751812689900397,0.003222597042005509,0.001192132394015789
1761506009110557700,6.0265576171875,-0.12225216870605946,-0.00820266874320805,-0.0074039926461875434
1761506009120594000,6.036593994140625,-0.12629413757324218,-0.00814549519587308,-0.0018465046495199202
1761506009130630100,6.046630126953125,-0.1405067873209715,-0.0030029081430286166,-0.00905800693091005
1761506009140666000,6.056666015625,-0.13631284276247024,-0.0016323869748041033,-0.002666150469332933
1761506009150701000,6.066701171875,-0.13152327039837836,0.0012520824203267693,0.002056530671007931
1761506009160737000,6.076737060546875,-0.13137187922894955,0.006120236445963383,0.004496763429976999
1761506009170773000,6.08677294921875,-0.13525778075158595,-0.004713730648905038,-0.0023452479518949985
1761506009180809000,6.09680908203125,-0.1439390998572111,-0.001581003847438842,-0.0019567600909620522
1761506009190845000,6.106844970703125,-0.1364578041911125,-0.0011928630463778971,-0.0010068024223670363
1761506009200881000,6.116880859375,-0.14199322648644447,0.0015771131236106157,-0.0014573226688429713
1761506009210916000,6.126916015625,-0.1328635790914297,0.0036286205596290527,-0.004774740121141076
1761506009220952000,6.1369521484375,-0.13540683383345603,-0.0011638561476022004,-0.0020891542989760637
1761506009230988000,6.146988037109375,-0.1398912857711315,0.0018202742297202348,-0.00567662086430937
1761506009241024000,6.15702392578125,-0.12836568315029143,-0.003639141953643411,-0.006775266288593411
1761506009251060000,6.16706005859375,-0.13644202210009096,-0.013698946338240056,-0.0013454597922042011
1761506009261096000,6.177095947265625,-0.1436252116024494,0.0024275559404864904,-0.0007150164015591144
1761506009271131100,6.187131103515625,-0.1421270819991827,-0.007410276256501674,-0.004089899662137031
1761506009281167000,6.1971669921875,-0.1395820736914873,-0.011024082839488983,-0.0010183832623064518
1761506009291203000,6.207203125,-0.13300035721361636,-0.004203917963244021,-0.006595671937987208
1761506009301239000,6.217239013671875,-0.13240005323290824,0.004379749454185366,-0.008629004396498203
1761506009311275000,6.22727490234375,-0.13808277504444122,0.0024975341704674063,0.004101517034694552
1761506009321311000,6.23731103515625,-0.13733458702564239,-0.004714443034958094,-0.000975347838178277
1761506009331346000,6.247345947265625,-0.1398836869865656,-0.006794482445716858,-0.00232055190205574
1761506009341382100,6.257382080078125,-0.140336106929183,0.00012379077645018695,-0.002086085559055209
1761506009351418000,6.267418212890625,-0.1427320621550083,0.0028842319331131875,-0.0023610665755346414
1761506009361454000,6.2774541015625,-0.1360007080733776,-0.0055081141632981594,-0.006413739499822259
1761506009371490000,6.287489990234375,-0.14213643434941767,-0.006578318944387138,0.003935841611586511
1761506009381525000,6.29752490234375,-0.13900105893313883,-0.006095047205779701,-0.00036788346432149407
1761506009391561000,6.30756103515625,-0.136755325832963,-0.013720190055668354,0.003281432823464274
1761506009401597000,6.317596923828125,-0.14184709601402282,-0.006108345078770071,-0.0010680676229298115
1761506009411633000,6.3276328125,-0.135112234801054,-0.007629764226078987,-0.0027425036411732433
1761506009421669000,6.337669189453125,-0.13555822500288486,-0.010961319801583885,-0.011033289059251546
1761506009431705000,6.347705078125,-0.13017360935509203,0.000045775370486080645,0.0009024287324398755
1761506009441740000,6.357739990234375,-0.1378051271468401,-0.009123455116245896,-0.007295892629213631
1761506009451776000,6.36777587890625,-0.13915478819012642,-0.0005993723989464342,0.00026599399242550133
1761506009461812000,6.37781201171875,-0.13316694595217704,-0.01139063286324963,-0.0017276640428230165
1761506009471848000,6.387847900390625,-0.14648293912112711,-0.004242843467835337,-0.010300700468383729
1761506009481884000,6.3978837890625,-0.13959902482628822,-0.004986556240916252,0.0019554449167102574
1761506009491920000,6.407919921875,-0.13780337358117103,-0.0011611527338624,-0.0056285439388826485
1761506009501955000,6.417955078125,-0.1330120476514101,-0.0036838396118953824,-0.0062424745861440895
1761506009511991000,6.427990966796875,-0.14154022202193736,-0.011213467931747436,-0.012844320536591111
1761506009522027000,6.438027099609375,-0.14512626381516455,-0.005843593195360154,0.0034729368075728413
1761506009532063000,6.44806298828125,-0.14183365201056003,-0.00692459336509928,-0.0034936508020386096
1761506009542099000,6.458098876953125,-0.14122867185473442,-0.004649140980094671,-0.010899652742221952
1761506009552135000,6.468135009765625,-0.13329729433357715,-0.0031172552376985546,-0.008396035890839993
1761506009562170000,6.478170166015625,-0.13419511995613576,-0.004518390739895403,-0.008367028992064297
1761506009572206000,6.4882060546875,-0.13434651112556456,-0.009606525925453751,-0.008012991390004753
1761506009582242000,6.498241943359375,-0.1415302851498127,-0.007242116615362465,-0.007648651589639484
1761506009592278000,6.508278076171875,-0.13583353481292723,-0.0073726111272349945,-0.007893602794036269
1761506009602314000,6.51831396484375,-0.13552724534273147,-0.003314166049286723,-0.008480024379864335
1761506009612349000,6.528348876953125,-0.13657295500338076,-0.0019603037549182772,-0.007190203765034675
1761506009622385200,6.53838525390625,-0.13686989212334155,-0.009302775472216307,-0.0019373247381299732
1761506009632421000,6.548421142578125,-0.146449621373415,-0.005389547551237046,-0.0029062063029035926
1761506009642457000,6.55845703125,-0.14165829544365405,-0.006720832687616348,-0.008084303060546517
1761506009652493000,6.5684931640625,-0.1486930163860321,0.0036094592014327643,-0.009686514092795551
1761506009662529000,6.578529052734375,-0.14226093751192093,-0.004078611083142459,-0.006974770916067063
1761506009672564000,6.58856396484375,-0.1379185243934393,0.0018364947121590374,-0.002383935994468629
1761506009682600000,6.598599853515625,-0.14165712639987468,-0.0059121831858530635,-0.008458689330890775
1761506009692636000,6.608635986328125,-0.13955869281589983,-0.007023067037202417,-0.0007435483762994408
1761506009702672100,6.618672119140625,-0.13761048135757445,-0.0011810082118026912,-0.004880319387465715
1761506009712708000,6.6287080078125,-0.13506371948421,-0.0030813802067190406,-0.006704100748524069
1761506009722743000,6.638742919921875,-0.1398527073264122,-0.0038699002359062432,-0.001871164166741073
1761506009732779000,6.648779052734375,-0.13582535150647163,-0.0019316256497055291,-0.0033640330730006097
1761506009742815000,6.65881494140625,-0.1361228731483221,-0.0013427198458462954,0.0024210531344637273
1761506009752851000,6.668850830078125,-0.13537643869519234,-0.006738021284434944,0.0021843948343768715
1761506009762887000,6.678886962890625,-0.14450959322154522,-0.002853343604505062,-0.0003477174591273069
1761506009772923000,6.6889228515625,-0.1460053847372532,0.0008501322896219789,-0.008108999110385776
1761506009782958000,6.6989580078125,-0.13553309056162832,0.0014492124276235699,-0.0013743205605074762
1761506009792994000,6.708994140625,-0.13852525811493396,-0.002954849483910948,-0.007628997041098773
1761506009803030000,6.719030029296875,-0.13553192151784896,-0.008498875210806727,-0.008847542518004774
1761506009813066000,6.72906591796875,-0.14002104963064194,-0.00496041715266183,-0.0050044572237879035
1761506009823102000,6.73910205078125,-0.14151742566823958,-0.0012032748425379394,-0.004577865842171013
1761506009833137200,6.74913720703125,-0.13762918605804442,0.004323105629812926,-0.005540975253283977
1761506009843173000,6.759173095703125,-0.1427151110202074,0.0031483262293972073,0.001577588047645986
1761506009853209000,6.769208984375,-0.1275958678215742,-0.004153576015494763,-0.0046620369942858815
1761506009863245000,6.7792451171875,-0.12759703686535356,0.009382854971103369,-0.007674589748494326
1761506009873281000,6.789281005859375,-0.13313245916068553,0.011122136386483907,-0.006170359198004007
1761506009883317000,6.79931689453125,-0.13283610656261444,0.0003986439287662506,0.002659501532837748
1761506009893352000,6.80935205078125,-0.148396663787961,0.00018500117808580398,-0.00408799996599555
1761506009903388000,6.819387939453125,-0.1401665955811739,0.0017327055441215633,-0.004327653940767049
1761506009913424100,6.829424072265625,-0.13777473200857637,-0.0017237367863766847,0.006678564448468387
1761506009923460000,6.839460205078125,-0.14016776462495326,-0.004593976726755499,0.0027534634266048667
1761506009933496000,6.84949609375,-0.13628127858042716,-0.002550634330883622,-0.0008169424060732126
1761506009943531000,6.859531005859375,-0.128353408190608,-0.007991071819141507,0.004537022375129163
1761506009953567000,6.86956689453125,-0.13119827622771263,-0.0025492460913956166,-0.0029183716647326946
1761506009963603000,6.87960302734375,-0.1457131237924099,-0.0017096899947151541,-0.003126680653169751
1761506009973639000,6.889638916015625,-0.1319406190276146,0.0011425758975557982,-0.006458491957001388
1761506009983675000,6.8996748046875,-0.14060849412977694,-0.008301982665527612,-0.008184073640592395
1761506009993711000,6.909711181640625,-0.13911328713595866,0.0013308284786529838,-0.009229417975060642
1761506010003746000,6.91974609375,-0.12969254783988,0.0014182145011611281,-0.0032524989899247883
1761506010013782000,6.929781982421875,-0.1352338153541088,-0.0031909049957990644,-0.006784399443119764
1761506010023818000,6.93981787109375,-0.14301613979339597,-0.009058993311598897,-0.010170900076255202
1761506010033854000,6.94985400390625,-0.1343371587753296,-0.0025623978339135646,-0.0021274770153686404
1761506010043890000,6.959889892578125,-0.13777999270558355,0.0006104052496142686,-0.006291391761787235
1761506010053925000,6.969925048828125,-0.1392722770899534,-0.0022129268091171978,-0.0061950187152251595
1761506010063961000,6.979961181640625,-0.13911796331107615,-0.0012125358612276613,-0.0007664177952334284
1761506010073997000,6.9899970703125,-0.13103753270804883,-0.010857603698782622,-0.0024712854843586683
1761506010084033000,7.000032958984375,-0.13507014922499655,-0.003967789386119693,-0.00808452225625515
1761506010094069000,7.010069091796875,-0.1401572432309389,-0.006547613278869539,-0.003544029282405972
1761506010104105000,7.02010498046875,-0.12953589597344398,-0.0014670038126409052,-0.004053001717850566
1761506010114140200,7.03014013671875,-0.13192542145848274,0.008387560323439538,-0.0025381401754915713
1761506010124176100,7.040176025390625,-0.13611702792942523,-0.0013856456721201538,-0.004539104734361171
1761506010134212000,7.050212158203125,-0.13401859434545038,-0.010419504542462528,-0.0001324672732502222
1761506010144248000,7.060248046875,-0.14478431850969792,-0.013447035670094191,0.002280219891667366
1761506010154284000,7.070283935546875,-0.13430384102761744,-0.012532021450717001,-0.0028503113972023126
1761506010164319000,7.080319091796875,-0.13341069158017635,-0.004790942337270826,-0.006370959804020822
1761506010174355000,7.09035498046875,-0.13775193565487862,-0.004495813581906259,-0.007504311215505003
1761506010184391000,7.100390869140625,-0.14224164828956126,-0.0027577012103050945,-0.00641165714059025
1761506010194427100,7.11042724609375,-0.138653852930665,-0.007442114433180541,0.001570573784969747
1761506010204463000,7.120463134765625,-0.1440396376222372,-0.008010342775192112,-0.003025741029344499
1761506010214499000,7.1304990234375,-0.13940028738379479,-0.003510035681258887,-0.00723857295140624
1761506010224534000,7.140533935546875,-0.1353606566041708,-0.008244334194157273,-0.0014193287460133432
1761506010234570000,7.150570068359375,-0.13176876959204673,-0.006045764703955501,-0.00021093933694064617
1761506010244606000,7.16060595703125,-0.14119535410702228,0.003139211341179907,0.00011997311785817146
1761506010254642000,7.170641845703125,-0.13506021235287188,-0.007374035899341106,-0.009440941833890973
1761506010264678000,7.180677978515625,-0.12548515927791595,0.002143770563043654,-0.0040441973568871616
1761506010274713000,7.190713134765625,-0.13236381287574767,0.006245908652245998,-0.0014529022220522165
1761506010284749000,7.2007490234375,-0.14372925649881363,-0.004787088146060705,-0.002938281941600144
1761506010294785000,7.210784912109375,-0.13610183036029339,-0.010567900037206708,-0.006343341144733131
1761506010304821000,7.220821044921875,-0.1428361070513725,-0.010261226974520832,-0.005435469052195548
1761506010314857000,7.23085693359375,-0.13983984784483908,-0.0036094592014327643,-0.004837064767628908
1761506010324892200,7.24089208984375,-0.13489771526753902,-0.001838138679973781,-0.0028475349182263015
1761506010334928100,7.25092822265625,-0.13489654622375966,-0.011842632680758833,-0.005298069875501096
1761506010344964000,7.260964111328125,-0.13445172506570816,-0.002388612169586122,-0.009236139976792037
1761506010355000000,7.271,-0.13939210407733915,0.0027444581362418828,-0.004302994423545896
1761506010365036000,7.2810361328125,-0.1386456696242094,-0.011920538488868624,-0.0034959158243611454
1761506010375072000,7.291072021484375,-0.13416297125220297,-0.0012977481929585337,-0.0010542582932859658
1761506010385107000,7.30110693359375,-0.13356208274960518,-0.011069383285939692,-0.002233640803582966
1761506010395143000,7.311142822265625,-0.14284662844538687,-0.0015403613097965717,0.0013445830093696712
1761506010405179100,7.32117919921875,-0.13671733191013336,-0.0046345096665434534,-0.0035905718378722667
1761506010415215000,7.331215087890625,-0.1275917761683464,-0.007262355685792863,0.0015380232222378253
1761506010425251000,7.3412509765625,-0.13925941760838031,-0.00014275120524689553,-0.00527980356644839
1761506010435286000,7.3512861328125,-0.1400005913645029,0.004621832848060876,0.0022333850752562284
1761506010445322000,7.361322021484375,-0.14254443062841893,0.001145699436403811,-0.011658544818125664
1761506010455358000,7.37135791015625,-0.13670914860367775,-0.0021005890084430574,0.0008421133799478411
1761506010465394000,7.381393798828125,-0.1374567521005869,-0.0009380480350926518,-0.004988602067530155
1761506010475430000,7.391429931640625,-0.1341623867303133,-0.004294336193054914,-0.0039830052215605975
1761506010485465000,7.401465087890625,-0.13610650653541087,-0.0020075221638195216,-0.003897043971158564
1761506010495501000,7.4115009765625,-0.13400807295143605,-0.005032897866982966,-0.006376037837937474
1761506010505537000,7.421537109375,-0.1392471426486969,-0.005921024079434573,0.0027480931317433715
1761506010515573000,7.431572998046875,-0.13475684549212455,0.0068003093983046705,0.0015033172350376843
1761506010525609000,7.44160888671875,-0.14074351868629456,-0.001795980038680136,-0.007536971376091241
1761506010535645000,7.45164501953125,-0.14239011684954164,-0.004254460840392858,-0.0038267917465418574
1761506010545680100,7.46168017578125,-0.14343465746641157,-0.004758154312521219,-0.001500175429880619
1761506010555716000,7.471716064453125,-0.14164192883074284,-0.0038338790744543074,0.002461787003651261
1761506010565752000,7.481751953125,-0.13984686210751532,-0.003351027460955083,0.0015042305504903196
1761506010575788000,7.4917880859375,-0.14044833513200283,-0.0019273148007690906,-0.004846270987391471
1761506010585824000,7.501823974609375,-0.14104104032814502,-0.004892777010239661,-0.0039024873312562703
1761506010595859000,7.51185888671875,-0.139093997913599,-0.001863839376810938,-0.0006958367770537733
1761506010605895200,7.521895263671875,-0.13205986149311064,-0.0049609286093153055,0.0005884674124419689
1761506010615931100,7.53193115234375,-0.13639818295836448,-0.012636760466825216,-0.0016639876894652841
1761506010625967000,7.541967041015625,-0.13399930512309075,-0.0058459312829189,-0.003246069249138236
1761506010636003000,7.552003173828125,-0.13714111028015613,-0.004849266662076115,-0.010421733032166957
1761506010646038000,7.5620380859375,-0.12696984487771987,-0.009166673203464598,-0.008454853405989705
1761506010656074000,7.572073974609375,-0.1335556530088186,-0.012052147245593368,-0.00516658898293972
1761506010666110000,7.58210986328125,-0.14597674316465853,-0.0030294125574640927,-0.00425933794490993
1761506010676146000,7.59214599609375,-0.14104045580625532,-0.004617229738179594,-0.009385521852225064
1761506010686182100,7.60218212890625,-0.13564999493956564,-0.009122103409375994,-0.003799136554636061
1761506010696218000,7.612218017578125,-0.1449246037632227,-0.0008228424238972365,-0.008333090189844369
1761506010706253000,7.622253173828125,-0.15390344451069832,-0.00736015350446105,-0.004001673389412462
1761506010716289000,7.6322890625,-0.1360971541851759,-0.008358261163718997,-0.009907719095423817
1761506010726325000,7.642324951171875,-0.13206044601500033,-0.0050546530410647385,-0.0047249461626634
1761506010736361000,7.65236083984375,-0.13924305099546908,-0.004425707487761974,-0.0018939239878207443
1761506010746397000,7.66239697265625,-0.1308627606630325,0.006625172027107328,-0.0022954905260354277
1761506010756432100,7.67243212890625,-0.13401508721411226,-0.0015252368059009312,-0.0010784063538536429
1761506010766468000,7.682468017578125,-0.13372107270359992,-0.006889430720172822,-0.006018529637157917
1761506010776504000,7.692504150390625,-0.13506371948421,-0.0005178863942623138,-0.006101458680257201
1761506010786540000,7.7025400390625,-0.13311550802588462,-0.008715367505699395,-0.00517279952801764
1761506010796576000,7.712575927734375,-0.13999883779883385,-0.008765508524049073,0.0004668137941509485
1761506010806611000,7.72261083984375,-0.13745324496924877,-0.0021541092939674853,-0.0017622604321688412
1761506010816647200,7.732647216796875,-0.14298574465513228,-0.009119272131472825,-0.009027904053591192
1761506010826683100,7.74268310546875,-0.13864216249287128,-0.009860738148540257,-0.007513663565739989
1761506010836719000,7.752718994140625,-0.1266682315826416,-0.013182466449774801,-0.0054818654771894215
1761506010846755000,7.762755126953125,-0.1342968267649412,-0.008294804006069897,-0.00838365133330226
1761506010856790000,7.7727900390625,-0.13937924459576606,-0.0016663257770240306,-0.007372976453416049
1761506010866826000,7.782825927734375,-0.13189736440777777,-0.007463705210480839,0.0018812106367200611
1761506010876862000,7.792862060546875,-0.13174714228212833,-0.0032328809740021823,-0.007448233646713197
1761506010886898000,7.80289794921875,-0.135934657099843,0.004536218657530844,-0.00870681887306273
1761506010896934100,7.81293408203125,-0.14535773448348044,-0.0023663638051599264,-0.0006542261250317096
1761506010906970000,7.82297021484375,-0.14236089075505734,-0.004972527715563774,0.0012048092124983668
1761506010917005000,7.833005126953125,-0.1344324358433485,-0.0006184241592884064,-0.003217866067960858
1761506010927041000,7.843041015625,-0.143564421325922,-0.01010669399993494,-0.004096767794340849
1761506010937077000,7.853076904296875,-0.14551146374046803,-0.01050303637376055,-0.0013772797025740145
1761506010947113000,7.863113037109375,-0.14147124843895434,-0.005281904191989452,0.0029713074283674356
1761506010957149000,7.87314892578125,-0.13174305062890052,-0.0014666750190779566,-0.0028812545247375965
1761506010967184100,7.88318408203125,-0.1281540862262249,-0.007695833465922623,-0.0003564487548545003
1761506010977220000,7.89322021484375,-0.13533376859724522,-0.0068214800504967565,-0.00034881343767046927
1761506010987256000,7.903256103515625,-0.13442892871201037,-0.0015846571092493831,-0.007644633001647889
1761506010997292000,7.9132919921875,-0.13966799840927124,-0.005365618686378002,-0.005031345230713486
1761506011007328000,7.923327880859375,-0.13652443968653677,-0.007323894880991428,-0.0010082271944731474
1761506011017363000,7.933363037109375,-0.13741934269964695,-0.002221347577590495,0.002471066288650036
1761506011027399200,7.943399169921875,-0.13696516919136045,-0.005476495182327926,-0.0037586218811571596
1761506011037435100,7.95343505859375,-0.13606325191557406,-0.0018006927464157341,-0.002881839046627283
1761506011047471000,7.96347119140625,-0.14234335509836674,-0.010364011495560406,-0.006593005056865513
1761506011057507000,7.973507080078125,-0.14159808968901633,-0.012306578664388506,-0.012344919647090136
1761506011067542000,7.9835419921875,-0.13052666057646273,-0.007371369018219411,-0.004505713921412825
1761506011077578000,7.993577880859375,-0.13726152178943157,-0.002696947466395795,-0.004106339340284467
1761506011087614000,8.003614013671875,-0.13561141649484634,-0.004851111559290439,-0.0019387860428541897
1761506011097648000,8.013648193359375,-0.1347159289598465,-0.00455934380479157,-0.0100331721059978
1761506011107684000,8.02368408203125,-0.130837626221776,-0.00014697072263807057,-0.0069536550628021354
1761506011117720000,8.033719970703125,-0.14356617489159107,-0.01121606174763292,-0.0012263634571805595
1761506011127756500,8.043756591796875,-0.1446194833368063,-0.0020791808942332863,-0.0003891089154407382
1761506011137792500,8.05379248046875,-0.14148410792052746,0.0010406316267326473,-0.002655482944846153
1761506011147827700,8.06382763671875,-0.14433248308897018,-0.0020261355327442286,-0.0030405002070590854
1761506011157863700,8.07386376953125,-0.13070903140604495,-0.0030322073027491568,-0.005115333719737827
1761506011167899600,8.083899658203125,-0.12981062126159668,-0.008517470313422381,-0.003515058916248381
1761506011177935600,8.093935546875,-0.13954407976865768,-0.0048334115058183665,-0.007606383350491523
1761506011187971600,8.1039716796875,-0.13625205248594283,-0.003230122761335224,0.0017012874925509095
1761506011198006500,8.114006591796874,-0.1440302852720022,-0.0017827369646169244,0.0022224983550608157
1761506011208042500,8.12404248046875,-0.13788871377706527,-0.004146269491873682,-0.003134644763916731
1761506011218078700,8.13407861328125,-0.14327859012186525,0.005323679240792989,-0.0035253245819360014
1761506011228114700,8.14411474609375,-0.1357955408900976,-0.0019321188400499522,-0.003654978843592107
1761506011238150700,8.154150634765625,-0.1326537357330322,0.00017763985553756356,-0.008730565074831246
1761506011248185600,8.164185546875,-0.14088263489603994,-0.007804371874313801,-0.00020469225924462078
1761506011258221600,8.1742216796875,-0.14193360525369644,-0.016356913501117377,-0.00657758829202503
1761506011268257500,8.184257568359374,-0.14358254150450228,-0.007383479581121355,-0.0011060615457594394
1761506011278293500,8.19429345703125,-0.13460545432269572,-0.006223550689965486,-0.0032301410276442764
1761506011288329700,8.204329833984374,-0.14418226096332074,-0.004667790881637483,-0.007001366662047803
1761506011298364700,8.21436474609375,-0.13939327312111854,-0.00954347062660381,-0.004817921675741672
1761506011308400600,8.224400634765624,-0.13430793268084526,-0.010426738000847398,-0.00026964725423604246
1761506011318436600,8.2344365234375,-0.12937164532244205,-0.008031221166439353,0.00008764175083488225
1761506011328472600,8.24447265625,-0.1422398947238922,-0.007759053161554038,-0.006347323200106621
1761506011338508500,8.254508544921874,-0.13491408188045023,-0.017621398745290933,-0.006163344935327768
1761506011348543700,8.264543701171876,-0.1414952138364315,-0.005455196665972471,-0.006195932030677795
1761506011358579700,8.274579833984374,-0.1268295596241951,0.0033485067103058096,-0.005611190945282578
1761506011368615700,8.28461572265625,-0.13551380133926869,-0.0021257782486267386,-0.007484985460527241
1761506011378651600,8.294651611328124,-0.14075988529920577,-0.004076784452237189,0.005700805457495153
1761506011388687600,8.3046875,-0.1355219846457243,-0.002513645055051893,-0.0017329612724483012
1761506011398723600,8.3147236328125,-0.13701134642064572,-0.0030818003318272527,-0.004719466269947588
1761506011408758500,8.324758544921876,-0.14658581497371195,0.00009319470878690481,-0.0045184272725135085
1761506011418794800,8.334794677734376,-0.14089490985572337,-0.010045191337354481,-0.008485723468288778
1761506011428830700,8.344830810546876,-0.11912731468379496,-0.010991641874611376,-0.005117598742060363
1761506011438866700,8.35486669921875,0.015866846695542336,0.003049943888839334,-0.05591466984767467
1761506011448902700,8.364902587890626,0.03406652025282383,0.05674394201235845,-0.21663228788524866
1761506011458937600,8.3749375,-0.453994644588232,-0.072483673463203,0.21170398290390147
1761506011468973600,8.3849736328125,-0.33045302059352394,-0.03730588576653972,0.17814137531891464
1761506011479009500,8.395009521484376,0.08707914851605891,0.05334604320237413,-0.2478638221741654
1761506011489045500,8.40504541015625,-0.17829320487976072,-0.02855113609852269,0.04671623153276741
1761506011499081700,8.415081787109376,-0.2689385214447975,-0.046004576132073996,0.1533835853550583
1761506011509116700,8.42511669921875,-0.20454291390180587,-0.017399006432574242,0.0646222193730995
1761506011519152600,8.435152587890625,0.2114905410826206,0.04052840974330902,-0.20096490928456187
