time,seconds_elapsed,z,y,x
1761506003209478700,0.125478759765625,0.0003259759396314621,0.0009494998957961798,-0.0024896832183003426
1761506003219514600,0.1355146484375,-0.0002420763485133648,-0.004672965966165066,0.0006840057321824133
1761506003229550600,0.145550537109375,0.0008538146503269672,-0.0004015218000859022,-0.0009000424761325121
1761506003239585500,0.15558544921875,-0.00021943962201476097,-0.001823117258027196,-0.0012132301926612854
1761506003249621500,0.16562158203125,-0.00012518977746367455,0.00022013206034898758,-0.0007541542872786522
1761506003259657700,0.17565771484375,-0.0006093964911997318,0.0013686252059414983,0.0013651188928633928
1761506003269693700,0.185693603515625,0.0015142080374062061,0.0005651495885103941,-0.0004663369618356228
1761506003279729700,0.195729736328125,-0.0007091169245541096,-0.0005199078004807234,-0.0012320238165557384
1761506003289765600,0.205765625,-0.00025265105068683624,0.0006324418354779482,-0.00013666576705873013
1761506003299800600,0.215800537109375,0.0011584260500967503,0.004086745902895927,0.00014289282262325287
1761506003309836500,0.22583642578125,-0.00005304580554366112,-0.0016180111560970545,0.00014635489787906408
1761506003319872500,0.23587255859375,0.001135487575083971,0.0023168122861534357,0.00137589022051543
1761506003329908700,0.24590869140625,-0.00040461868047714233,-0.0009945621713995934,-0.001105643343180418
1761506003339944700,0.25594482421875,0.0019407435320317745,-0.001961278263479471,-0.0009792773053050041
1761506003349980700,0.265980712890625,-0.0005495785735547543,-0.002561288420110941,-0.0003201449289917946
1761506003360015600,0.276015625,0.000832676887512207,-0.003048358717933297,-0.0008053809870034456
1761506003370051600,0.286051513671875,-0.0012472518719732761,-0.0003710831515491009,-0.0007281494326889515
1761506003380087600,0.296087646484375,0.0016483711078763008,0.0019489028491079807,0.0008559751440770924
1761506003390123500,0.30612353515625,0.0008355742320418358,0.00009188055992126465,0.001384079921990633
1761506003400159500,0.316159423828125,-0.001725133042782545,-0.0013833681587129831,-0.0009244615212082863
1761506003410195700,0.32619580078125,-0.001159211155027151,-0.0009029339998960495,0.0012145895743742585
1761506003420230700,0.336230712890625,-0.0008495207875967026,-0.0017092344351112843,-0.0001523402752354741
1761506003430266600,0.3462666015625,0.0030070028733462095,0.003207227448001504,0.002866885391995311
1761506003440302600,0.356302490234375,0.0012478595599532127,0.002340150997042656,0.00023509841412305832
1761506003450338600,0.366338623046875,-0.00020223157480359077,0.0023595921229571104,-0.00018035469111055136
1761506003460374500,0.37637451171875,0.0006387089379131794,-0.00014813058078289032,0.0008263333002105355
1761506003470409700,0.38640966796875,-0.0018739840015769005,-0.0010152559261769056,0.0001717283157631755
1761506003480445700,0.39644580078125,0.0012003290466964245,-0.0019309776835143566,-0.0002139632124453783
1761506003490481700,0.406481689453125,-0.0007096901535987854,-0.0005264265928417444,-0.00018520106095820665
1761506003500517600,0.416517578125,0.0015160669572651386,0.0026730760000646114,-0.0005985654424875975
1761506003510553600,0.4265537109375,0.00014773476868867874,-0.0013419054448604584,-0.0003591473214328289
1761506003520589600,0.436589599609375,0.0005699503235518932,0.000574823934584856,-0.0006820212583988905
1761506003530625800,0.446625732421875,0.0016394760459661484,-0.001354370266199112,0.0016141561791300774
1761506003540660700,0.45666064453125,0.002115106675773859,0.0003378349356353283,0.0006643298547714949
1761506003550696700,0.46669677734375,0.00027246540412306786,0.0007881755009293556,-0.0013564766850322485
1761506003560732700,0.476732666015625,-0.00011629750952124596,0.0010854456340894103,0.00043245183769613504
1761506003570768600,0.4867685546875,0.0008070208132266998,-0.0008341609500348568,-0.0012943418696522713
1761506003580804900,0.496804931640625,0.0009221774525940418,0.0025520657654851675,-0.0021246797405183315
1761506003590840800,0.5068408203125,0.00029100850224494934,0.001723556313663721,-0.0000375604722648859
1761506003600875500,0.51687548828125,0.00016403524205088615,-0.000006638234481215477,0.0010996932396665215
1761506003610911500,0.526911376953125,0.0014372924342751503,0.001050902996212244,-0.0007312300149351358
1761506003620947700,0.53694775390625,0.00007016398012638092,-0.0004108576104044914,-0.00047615449875593185
1761506003630983700,0.546983642578125,-0.0022052405402064323,6.007030606269836e-7,-0.0023646021727472544
1761506003641020000,0.55702001953125,0.002171485684812069,0.0009038983844220638,-0.0006063806358724833
1761506003651055900,0.567055908203125,-0.00014519831165671349,0.0029284334741532803,-0.0037822003941982985
1761506003661090600,0.577090576171875,0.0005746730603277683,-0.0011368186678737402,0.00013107922859489918
1761506003671126500,0.58712646484375,-0.001165436115115881,0.00009436067193746567,-0.0002870371099561453
1761506003681162500,0.59716259765625,0.0020386623218655586,0.001524571911431849,-0.0018213437870144844
1761506003691198500,0.607198486328125,-0.0007195738144218922,0.0016569310100749135,-0.0012881788425147533
1761506003701235000,0.61723486328125,0.002745130332186818,-0.00042528542689979076,0.00025674980133771896
1761506003711271000,0.62727099609375,-0.0019284514710307121,0.00016114278696477413,0.000655691372230649
1761506003721305600,0.6373056640625,0.001901205163449049,0.0033934523817151785,-0.0020067610312253237
1761506003731341600,0.647341552734375,0.0007549808360636234,-0.00004974869079887867,0.0002372183371335268
1761506003741377500,0.65737744140625,-0.000735107809305191,-0.0017542657442390919,0.0002910735784098506
1761506003751413800,0.667413818359375,0.0002822200767695904,0.0014162275474518538,0.0007518004276789725
1761506003761449700,0.67744970703125,-0.0018787793815135956,0.0010032820282503963,0.000692384724970907
1761506003771485700,0.687485595703125,-0.0007469360716640949,0.0011731917038559914,-0.0028847730718553066
1761506003781522000,0.69752197265625,-0.00030892714858055115,0.0015890521463006735,0.000002241460606455803
1761506003791556600,0.707556640625,-0.001122788991779089,-0.0006983368657529354,0.00009811529889702797
1761506003801592600,0.717592529296875,-0.0004754303954541683,-0.003715088125318289,-0.0006154354196041822
1761506003811628800,0.72762890625,-0.0006807600148022175,-0.00016536074690520763,0.0014490470057353377
1761506003821664800,0.737664794921875,0.0022821479942649603,0.0011163894087076187,0.0004482070216909051
1761506003831700700,0.74770068359375,-0.0004388038069009781,-0.0010647394228726625,-0.0008506166050210595
1761506003841736700,0.75773681640625,0.0004626903682947159,-0.0020784279331564903,0.001973138190805912
1761506003851771600,0.767771728515625,-0.001471830066293478,-0.0010134298354387283,-0.00006924010813236237
1761506003861807900,0.777807861328125,0.0021890648640692234,0.001382441376335919,0.0007828126545064151
1761506003871843800,0.78784375,0.00033443979918956757,-0.00041945348493754864,-0.0002816527849063277
1761506003881879800,0.7978798828125,-0.0008194218389689922,-0.0016683819703757763,0.000004050321877002716
1761506003891915800,0.807915771484375,0.0008559725247323513,0.0006251323502510786,-0.0002859679516404867
1761506003901951700,0.81795166015625,-0.00042240414768457413,-0.0018575186841189861,-0.0001214984804391861
1761506003911987700,0.82798779296875,0.0027568775694817305,0.0020751715637743473,0.0005086053861305118
1761506003922023000,0.83802294921875,-0.0037894947454333305,-0.00039584748446941376,0.00189160683657974
1761506003932059000,0.848058837890625,0.00212511932477355,-0.0011545822490006685,-0.0006807404570281506
1761506003942094800,0.8580947265625,-0.0007687504403293133,0.0009523620828986168,-0.00037986133247613907
1761506003952130800,0.868130859375,-0.00006327871233224869,-0.0022836450953036547,-0.000534058315679431
1761506003962166800,0.878166748046875,0.001293362583965063,0.0005272300913929939,0.00036155665293335915
1761506003972202800,0.88820263671875,-0.0010432950221002102,-0.0006291144527494907,0.0008329362026415765
1761506003982237700,0.89823779296875,0.0009426707401871681,0.0034221066161990166,0.002636476419866085
1761506003992274000,0.90827392578125,-0.004063006956130266,0.0014332578284665942,-0.0019031480187550187
1761506004002310000,0.918309814453125,0.0005723205395042896,-0.001356665976345539,-0.0005778436316177249
1761506004012345900,0.928345947265625,-0.0003078542649745941,-0.002141765784472227,-0.00009101768955588341
1761506004022381800,0.9383818359375,-0.0009532184340059757,0.0013450339902192354,0.0024731927551329136
1761506004032417800,0.948417724609375,-0.0009151347912847996,0.001066733617335558,0.0007253600633703172
1761506004042453800,0.958453857421875,0.0007641464471817017,-0.00042777531780302525,-0.0015171892009675503
1761506004052488700,0.96848876953125,-0.00027848128229379654,0.0017946326406672597,0.0018812705529853702
1761506004062524700,0.978524658203125,-0.000155692920088768,-0.0002712099812924862,0.0012007994810119271
1761506004072561000,0.988560791015625,0.0015212995931506157,0.0006015079561620951,-0.00017871789168566465
1761506004082596900,0.998596923828125,0.00041081570088863373,0.0006340297404676676,0.00002940359991043806
1761506004092632800,1.0086328125,-0.0018230434507131577,-0.0010054120793938637,-0.0008286668453365564
1761506004102668800,1.018668701171875,-0.00005088932812213898,-0.0030124394688755274,0.0009763828129507601
1761506004112704800,1.028704833984375,0.002068720292299986,-0.0006890979129821062,0.0019351207884028554
1761506004122739700,1.03873974609375,0.001219131052494049,-0.00040326453745365143,0.001110997167415917
1761506004132775700,1.048775634765625,-0.0004962109960615635,0.00022897007875144482,-0.0008474914357066154
1761506004142811600,1.058811767578125,0.0007849624380469322,0.0007629587780684233,-0.0009266006527468562
1761506004152848000,1.068847900390625,-0.0016941740177571774,-0.0021308318246155977,0.0006246906123124063
1761506004162883800,1.0788837890625,0.0008428199216723442,0.0005398481152951717,-0.001999611733481288
1761506004172919800,1.088919921875,0.0006750407628715038,0.0025531980209052563,-0.00002008408773690462
1761506004182955800,1.098955810546875,-0.00008210260421037674,0.0005789713468402624,0.00008313532453030348
1761506004192990700,1.10899072265625,-0.0005236547440290451,-0.00012303795665502548,-0.000043364823795855045
1761506004203026700,1.119026611328125,-0.0004958575591444969,0.00021106982603669167,0.004048607312142849
1761506004213062700,1.129062744140625,-0.0011488646268844604,-0.00041237613186240196,-0.00020312913693487644
1761506004223099000,1.139098876953125,-0.0011530551128089428,0.0016479556215927005,0.0010295223910361528
1761506004233134800,1.149134765625,0.0005455091595649719,-0.00040427641943097115,-0.0008690451504662633
1761506004243170800,1.1591708984375,0.00006904406473040581,0.001075324951671064,0.000001310720108449459
1761506004253206800,1.169206787109375,0.0022259382531046867,-0.0006219076458364725,-0.0003326496807858348
1761506004263241700,1.17924169921875,0.0003369143232703209,-0.0023392485454678535,-0.00020902627147734165
1761506004273277700,1.189277587890625,0.0012719505466520786,-0.0005285653751343489,-0.00005456293001770973
1761506004283313700,1.199313720703125,0.00018956512212753296,0.00010378612205386162,0.0003976779989898205
1761506004293349600,1.209349609375,0.0008431049063801765,0.00196719984523952,-0.0009323045378550887
1761506004303385900,1.2193857421875,-0.0006332444027066231,0.00005182693712413311,0.0014790334971621633
1761506004313421800,1.229421875,-0.0009080828167498112,0.000050761736929416656,0.0006947325891815126
1761506004323457800,1.239457763671875,0.0021103867329657078,0.001250532572157681,0.0015143310884013772
1761506004333492700,1.24949267578125,0.0025924190413206816,-0.001849386841058731,0.0017183292657136917
1761506004343528700,1.25952880859375,0.0005585597828030586,0.0008074569050222635,-0.001023996388539672
1761506004353564700,1.269564697265625,-0.0013352138921618462,0.002150222659111023,0.0018309123115614057
1761506004363600600,1.2796005859375,-0.00004771258682012558,0.003168585943058133,-0.0012083033798262477
1761506004373636600,1.28963671875,0.002286814386025071,-0.00041602877900004387,0.0015320894308388233
1761506004383672800,1.2996728515625,-0.0018481668084859848,0.002069929614663124,0.0006291673635132611
1761506004393708800,1.309708740234375,0.0008914275094866753,0.0041730282828211784,-0.0011729937978088856
1761506004403744800,1.319744873046875,0.00002837507054209709,-0.0012035409454256296,0.001656674430705607
1761506004413779700,1.32977978515625,0.0008073495700955391,0.0011592156952247024,-0.0007569483714178205
1761506004423815700,1.339815673828125,-0.0003777742385864258,0.000006196554750204086,0.0013178125955164433
1761506004433851600,1.3498515625,0.000998547300696373,-0.0015815799124538898,0.00014788599219173193
1761506004443887600,1.3598876953125,-0.0007513896562159061,0.0022559238132089376,-0.0018742630491033196
1761506004453923600,1.369923583984375,-0.0006986591033637524,0.0008239420130848885,-0.0007637249073013663
1761506004463959800,1.379959716796875,0.002373032970353961,0.001153027405962348,-0.0014788531698286533
1761506004473995800,1.389995849609375,0.000657424796372652,-0.00259377365000546,0.0013254554942250252
1761506004484030700,1.40003076171875,0.000031361356377601624,0.0004266116302460432,-0.0001146998256444931
1761506004494066700,1.410066650390625,-0.0005790353752672672,0.0012183694634586573,0.0017559045227244496
1761506004504102700,1.4201025390625,0.002085401676595211,-0.0004719630815088749,-0.0003052635584026575
1761506004514138600,1.430138671875,-0.0014872290194034576,0.0023240898735821247,-0.0005318985786288977
1761506004524174600,1.440174560546875,0.0026402061339467764,-0.001028974773362279,-0.001704389345832169
1761506004534210600,1.45021044921875,-0.0007611829787492752,0.0022456482984125614,-0.00007693166844546795
1761506004544246800,1.460246826171875,0.0017327102832496166,0.0011419749353080988,-0.00011382729280740023
1761506004554281700,1.47028173828125,-0.00006598839536309242,-0.0011438161600381136,-0.0000853314995765686
1761506004564317700,1.480317626953125,0.00010501733049750328,-0.0028438144363462925,0.00007605785503983498
1761506004574353700,1.490353759765625,0.00046800635755062103,-0.0005385822150856256,-0.0024875011295080185
1761506004584389600,1.5003896484375,-0.0018566465005278587,-0.00047554634511470795,-0.0000938378507271409
1761506004594425600,1.510425537109375,-0.001695258542895317,0.00011913757771253586,-0.0016951966099441051
1761506004604461600,1.520461669921875,-0.0009324327111244202,0.0020323283970355988,-0.00033282325603067875
1761506004614497500,1.53049755859375,0.0003173886798322201,-0.000978108961135149,-0.0005370876751840115
1761506004624533800,1.54053369140625,-0.001295335590839386,-0.0012588221579790115,-0.0003647898556664586
1761506004634568700,1.550568603515625,0.002964656800031662,-0.003774976823478937,0.0007430851110257208
1761506004644604700,1.560604736328125,0.00018396275117993355,0.00035763648338615894,0.000969424843788147
1761506004654640600,1.570640625,-0.0018128752708435059,-0.0010181525722146034,0.0008858015644364059
1761506004664676600,1.580676513671875,-0.0011017131619155407,0.0021567035000771284,-0.0020651400554925203
1761506004674712600,1.590712646484375,-0.000726739875972271,0.001114342361688614,-0.001575650880113244
1761506004684748500,1.60074853515625,0.002541069407016039,0.0006835209205746651,-0.0009520339081063867
1761506004694784800,1.61078466796875,-0.0008701737970113754,-0.0013258340768516064,-0.0025517945177853107
1761506004704819700,1.62081982421875,0.0018685674294829369,-0.00036580953747034073,0.0009036371484398842
1761506004714855700,1.630855712890625,0.001000110525637865,0.0010890752309933305,-0.0008180964505299926
1761506004724891600,1.6408916015625,0.0009812540374696255,-0.0010392451658844948,0.0004590413300320506
1761506004734927600,1.650927734375,0.0012848544865846634,-0.0005928995087742805,-0.000041632913053035736
1761506004744963600,1.660963623046875,0.00009720167145133018,-0.0005487590096890926,0.0013811456738039851
1761506004754999600,1.67099951171875,0.001991241704672575,0.001100802910514176,-0.0007368662627413869
1761506004765035500,1.681035400390625,-0.0014311601407825947,-0.0026067118160426617,-0.0018649636767804623
1761506004775070700,1.69107080078125,0.001005365513265133,-0.0008482267148792744,-0.0000111372210085392
1761506004785106700,1.701106689453125,-0.0009965966455638409,-0.0007310481742024422,-0.002771095372736454
1761506004795142700,1.711142578125,0.0007230066694319248,0.003092984901741147,-0.001232853508554399
1761506004805178600,1.7211787109375,-0.0005540880374610424,-0.002290543168783188,0.0005483459681272507
1761506004815214600,1.731214599609375,0.0009964043274521828,0.001734025776386261,-0.001477520796470344
1761506004825250800,1.741250732421875,0.0019685793668031693,0.0014194309478625655,0.00017897319048643112
1761506004835286800,1.751286865234375,-0.0017017889767885208,0.0008244807831943035,0.001589116989634931
1761506004845322800,1.76132275390625,0.002075944095849991,-0.004065890796482563,-0.0033283792436122894
1761506004855357700,1.771357666015625,0.00029215915128588676,-0.00035104784183204174,-0.00004496786277741194
1761506004865393700,1.7813935546875,-0.00035146670415997505,0.0021836888045072556,0.0013179155066609383
1761506004875429600,1.7914296875,0.0013835825957357883,0.00093573157209903,0.0029408459085971117
1761506004885465900,1.8014658203125,0.0012594345025718212,-0.0010452105198055506,0.000981621560640633
1761506004895501800,1.811501708984375,0.0006583589129149914,-0.0005424057599157095,-0.00098459015134722
1761506004905537800,1.821537841796875,-0.0009506158530712128,-0.00005295616574585438,-0.0004505596589297056
1761506004915573800,1.83157373046875,0.000010252930223941803,-0.00044683762826025486,0.00012095470447093248
1761506004925608700,1.841608642578125,-0.0006041675806045532,0.0008644948247820139,0.0013119641225785017
1761506004935645000,1.85164501953125,-0.0006427834741771221,-0.001893741311505437,-0.00025983364321291447
1761506004945681000,1.861680908203125,-0.0015625697560608387,0.001153385965153575,-0.0010060557397082448
1761506004955716900,1.871716796875,0.0020281700417399406,-0.0030213852878659964,0.0026632475201040506
1761506004965752800,1.8817529296875,0.00019383477047085762,-0.0012733950279653072,0.0010033892467617989
1761506004975788800,1.891788818359375,0.001934476662427187,0.0012105354107916355,0.00401728879660368
1761506004985824800,1.90182470703125,0.000027434900403022766,0.0018016835674643517,-0.0018665780080482364
1761506004995860700,1.91186083984375,-0.00007802620530128479,-0.002501984592527151,-0.00018692226149141788
1761506005005896000,1.92189599609375,0.001355751883238554,0.0019358369754627347,0.0005453263875097036
1761506005015932000,1.931931884765625,0.001143231987953186,0.0006242301315069199,-0.0016043772920966148
1761506005025967900,1.9419677734375,0.0025569885037839413,-0.0017816843464970589,-0.00015501421876251698
1761506005036003800,1.95200390625,-0.0015011364594101906,-0.0005790009163320065,-0.0002564806491136551
1761506005046039800,1.962039794921875,-0.0004964596591889858,0.0007208504248410463,0.0005891781765967607
1761506005056075800,1.97207568359375,0.0018015820533037186,-0.0012320454698055983,-0.0007541202940046787
1761506005066111700,1.98211181640625,0.0003635017201304436,0.0008250605314970016,0.0002729297848418355
1761506005076147000,1.99214697265625,-0.001941997092217207,-0.0011296998709440231,0.0028133192099630833
1761506005086183000,2.002182861328125,-0.001338631846010685,0.002061175648123026,-0.0012735584750771523
1761506005096219000,2.012218994140625,0.00033543119207024574,-0.00020783767104148865,0.00039864040445536375
1761506005106254800,2.0222548828125,-0.0005692876875400543,-0.0008179903961718082,0.00047334458213299513
1761506005116290800,2.032290771484375,0.0010555069893598557,0.0006115944124758244,-0.00024517637211829424
1761506005126326800,2.042326904296875,0.0009076287969946861,-0.00031152646988630295,-0.0007739196298643947
1761506005136362800,2.05236279296875,-0.0005754856392741203,0.000637091463431716,-0.00007457355968654156
1761506005146398000,2.06239794921875,-0.0005854289047420025,-0.0019249573815613985,0.00031226594001054764
1761506005156434000,2.072433837890625,0.0018790601752698421,0.00025297561660408974,0.00020201108418405056
1761506005166470000,2.082469970703125,-0.0006480631418526173,0.00019651558250188828,0.0015508405631408095
1761506005176505900,2.092505859375,0.0012230738066136837,0.001037541776895523,0.00038171291816979647
1761506005186541800,2.102541748046875,0.0018917154520750046,-0.0005209085065871477,0.0008918978273868561
1761506005196577800,2.112577880859375,0.0008048792369663715,-0.0009448837954550982,0.002462896518409252
1761506005206613800,2.12261376953125,0.00036558276042342186,0.00008789356797933578,0.0010895895538851619
1761506005216649700,2.132649658203125,0.0012734546326100826,0.00004608184099197388,0.0010877253953367472
1761506005226685000,2.142684814453125,0.0031278226524591446,0.0012705078115686774,0.00004500034265220165
1761506005236721000,2.152720947265625,-0.0004778308793902397,-0.0007393797859549522,-0.0004908276023343205
1761506005246756900,2.1627568359375,-0.0002063722349703312,-0.0014027045108377934,0.002282175701111555
1761506005256792800,2.172792724609375,0.0019707619212567806,0.0006932031828910112,0.0013615209609270096
1761506005266828800,2.182828857421875,0.0004967795684933662,0.0031528472900390625,-0.00012184481602162123
1761506005276864800,2.19286474609375,0.0006243451498448849,-0.00020406721159815788,-0.0005428905133157969
1761506005286900700,2.202900634765625,0.00017721019685268402,0.002895728452131152,0.0013864180073142052
1761506005296935700,2.212935791015625,0.00034046219661831856,-0.0011237808503210545,0.00032994209323078394
1761506005306972000,2.222971923828125,0.0001050126738846302,-0.0014233754482120275,-0.0007540062069892883
1761506005317008000,2.2330078125,0.0005289879627525806,0.0027191713452339172,0.002457499736919999
1761506005327043800,2.2430439453125,-0.0011691483668982983,-0.002095840172842145,0.0013645505532622337
1761506005337079800,2.253079833984375,0.00016775866970419884,0.0013018206227570772,-0.0018610701663419604
1761506005347115800,2.26311572265625,0.0019647390581667423,-0.0012210533022880554,-0.0013162901159375906
1761506005357152000,2.273152099609375,-0.001194302923977375,-0.001034099142998457,-0.0005362501833587885
1761506005367186700,2.283186767578125,-0.0002663503400981426,-0.0014075380750000477,0.0009827136527746916
1761506005377222700,2.29322265625,0.0005432502366602421,-0.0005561257712543011,0.0019819317385554314
1761506005387259000,2.3032587890625,0.0006854734383523464,0.0008507852908223867,-0.00010617310181260109
1761506005397294800,2.313294921875,0.0008801501244306564,0.0005892629269510508,-0.000817769905552268
1761506005407331000,2.3233310546875,-0.0016207192093133926,-0.0010656898375600576,-0.0013243801658973098
1761506005417367000,2.333366943359375,0.001184654887765646,0.00001848326064646244,-0.001953418832272291
1761506005427403000,2.343403076171875,-0.0019583450630307198,0.0020949202589690685,-0.0016077548498287797
1761506005437439000,2.35343896484375,-0.0009111901745200157,-0.0009842263534665108,-0.0015686062397435308
1761506005447473700,2.3634736328125,0.000027949921786785126,0.000035552773624658585,-0.004548064433038235
1761506005457509600,2.373509521484375,0.00010784482583403587,-0.00048642675392329693,-0.0007248307811096311
1761506005467546000,2.383546142578125,-0.0005283961072564125,0.0004222302231937647,0.001032320549711585
1761506005477582000,2.39358203125,-0.0008932491764426231,-0.0017258755397051573,-0.00023081677500158548
1761506005487618000,2.4036181640625,-0.0008376822806894779,0.0021935466211289167,-0.00016561930533498526
1761506005497654000,2.413654052734375,0.000826261006295681,-0.00013751816004514694,0.00010735471732914448
1761506005507690000,2.42368994140625,0.0009878440760076046,-0.0007235114462673664,0.0015771063044667244
1761506005517725000,2.433724853515625,-0.00008141528815031052,0.0002874245401471853,-0.0009611524874344468
1761506005527761000,2.443760986328125,-0.0007285340689122677,0.0016765614273026586,-0.0015885098837316036
1761506005537796900,2.453796875,0.0017468743026256561,-0.0012683621607720852,0.0006839654524810612
1761506005547833000,2.4638330078125,-0.0017753411084413528,-0.0004512765444815159,0.0016616028733551502
1761506005557869000,2.473869140625,-0.00014442158862948418,-0.0009530161041766405,0.0014016784261912107
1761506005567905000,2.483905029296875,-0.0012928498908877373,-0.000996545422822237,0.0006220807554200292
1761506005577941000,2.49394091796875,0.0010896138846874237,-0.001020513940602541,0.0015845472225919366
1761506005587976000,2.503975830078125,-0.0004378906451165676,-0.0019233687780797482,0.000514011480845511
1761506005598012000,2.514011962890625,0.00004680454730987549,-0.0025100628845393658,-0.0006061139283701777
1761506005608047900,2.5240478515625,0.0004298947751522064,0.0016599741065874696,0.0012737271608784795
1761506005618083800,2.534083740234375,0.0010304376482963562,-0.0013675072696059942,0.00096293626120314
1761506005628120000,2.5441201171875,0.001024541910737753,0.0023284596391022205,-0.0008767152903601527
1761506005638156000,2.554156005859375,-0.0008724280633032322,0.0012059372384101152,0.0004809643141925335
1761506005648192000,2.56419189453125,0.0001516137272119522,0.000800546258687973,-0.002037226688116789
1761506005658227000,2.57422705078125,-0.0026455046609044075,-0.0018554243724793196,-0.001044134027324617
1761506005668263000,2.584262939453125,-0.00001545017585158348,-0.0006537588778883219,-0.0006144539220258594
1761506005678299000,2.594298828125,-0.0009124027565121651,0.0010163093684241176,0.0000838269479572773
1761506005688334800,2.6043349609375,0.001302153803408146,0.00001593213528394699,0.0005157999694347382
1761506005698370800,2.614370849609375,0.0011942959390580654,-0.002827524673193693,-0.0001920682843774557
1761506005708407000,2.624406982421875,0.00257521728053689,0.0017093183705583215,-0.000016337609849870205
1761506005718443000,2.634443115234375,0.0010031531564891338,0.0008262142073363066,-0.0012033084640279412
1761506005728478000,2.64447802734375,0.0012254314497113228,0.0008244945202022791,-0.0008729016408324242
1761506005738514000,2.654513916015625,-0.0008632857352495193,-0.00046074693091213703,0.0006637423648498952
1761506005748550000,2.6645498046875,-0.00026305532082915306,0.00163029704708606,0.0014072863850742579
1761506005758585900,2.6745859375,-0.00016531720757484436,-0.0007186110597103834,0.0006232518353499472
1761506005768621800,2.684621826171875,-0.0009353822097182274,-0.0026434350293129683,-0.0007940982468426228
1761506005778657800,2.69465771484375,-0.0017527062445878983,-0.0015206465031951666,-0.0026034500915557146
1761506005788694000,2.704694091796875,0.0005733193829655647,0.000854170648381114,-0.0010780367301777005
1761506005798729000,2.71472900390625,0.000259332824498415,-0.0006055079866200686,0.0008900394313968718
1761506005808765000,2.724764892578125,0.000676560215651989,-0.0017371887806802988,0.0011556190438568592
1761506005818801000,2.73480078125,0.00018174480646848679,-0.0008554162923246622,-0.0009938182774931192
1761506005828836900,2.7448369140625,0.000440825242549181,-0.0016398017760366201,0.00021683843806385994
1761506005838872800,2.754872802734375,0.00044242292642593384,0.0023669241927564144,-0.0016383194597437978
1761506005848908800,2.76490869140625,0.0019354810938239098,0.00023730495013296604,-0.00027373689226806164
1761506005858944800,2.77494482421875,0.00025316234678030014,-0.00006203423254191875,0.00025383534375578165
1761506005868980000,2.78497998046875,-0.000029861461371183395,-0.002841748995706439,-0.0006374848308041692
1761506005879016000,2.795015869140625,-0.0012898030690848827,0.00126697588711977,0.002191857434809208
1761506005889052000,2.805052001953125,-0.0008531901985406876,-0.002688048640266061,-0.0002987752668559551
1761506005899088000,2.815087890625,0.00021633552387356758,-0.0005655093118548393,0.001162501284852624
1761506005909123800,2.825123779296875,-0.001825316809117794,0.0009187920950353146,0.0009393136133439839
1761506005919159800,2.835159912109375,0.0014176145195960999,0.0008732520509511232,-0.0007304883329197764
1761506005929195800,2.84519580078125,-0.0016719130799174309,-0.00011174334213137627,0.0006292356410995126
1761506005939231000,2.85523095703125,0.0014839330688118935,0.00040198047645390034,-0.0028086393140256405
1761506005949267000,2.865266845703125,-0.0010144063271582127,0.0019813012331724167,-0.0010755298426374793
1761506005959303000,2.875302978515625,0.0002303551882505417,-0.0011127593461424112,0.00007335783448070288
1761506005969339000,2.8853388671875,0.0009869006462395191,-0.004066591151058674,-0.003076433204114437
1761506005979374800,2.895374755859375,-0.0011702599003911018,0.00018274900503456593,-0.0003573454450815916
1761506005989410800,2.905410888671875,0.0009601335041224957,-0.00009201420471072197,0.0015224760863929987
1761506005999446800,2.91544677734375,-0.0029621701687574387,0.00216927588917315,0.00037012621760368347
1761506006009482000,2.92548193359375,-0.00020796293392777443,0.0000052694231271743774,-0.0002437905641272664
1761506006019518000,2.93551806640625,-0.0009877365082502365,0.00038343830965459347,-0.00032581586856395006
1761506006029554000,2.945553955078125,0.0002443082630634308,-0.0007066908292472363,0.0005148483905941248
1761506006039590000,2.95558984375,-0.0016547921113669872,0.0008390077855437994,-0.0005882330005988479
1761506006049625900,2.9656259765625,-0.0016009621322154999,0.0005750556010752916,-0.0007097318302839994
1761506006059661800,2.975661865234375,-0.001568205188959837,0.0002797110937535763,-0.000967525877058506
1761506006069697800,2.98569775390625,0.0001888400875031948,0.0014229322550818324,0.0012734968913719058
1761506006079733000,2.99573291015625,-0.0010671066120266914,-0.000059915706515312195,0.00039758312050253153
1761506006089769000,3.00576904296875,-0.0017102002166211605,0.0006244170945137739,-0.0006900217849761248
1761506006099805000,3.015804931640625,0.0009806575253605843,0.0004534423351287842,-0.001921733608469367
1761506006109841000,3.0258408203125,-0.0018953611142933369,-0.0008753705769777298,0.0009126041550189257
1761506006119877600,3.035877685546875,0.00015047984197735786,-0.00011264113709330559,-0.0008682516636326909
1761506006129913600,3.04591357421875,0.00048451265320181847,-0.0014789719134569168,0.001481024781242013
1761506006139949600,3.055949462890625,0.0009479029104113579,0.0012880525318905711,-0.0009507075883448124
1761506006149984500,3.065984619140625,-0.00005287677049636841,-0.0006920385640114546,0.0005747975083068013
1761506006160020500,3.0760205078125,0.0011032014153897762,0.0033120240550488234,-0.0020303064957261086
1761506006170056700,3.086056640625,-0.0012589418329298496,0.0005312215071171522,-0.00007908663246780634
1761506006180092700,3.0960927734375,-0.002213951200246811,0.00017222738824784756,0.0005725888768211007
1761506006190128600,3.106128662109375,0.0007686037570238113,-0.00008498737588524818,-0.00007576611824333668
1761506006200164600,3.11616455078125,-0.001224505715072155,-0.001909252954646945,0.001657951739616692
1761506006210200600,3.12620068359375,-0.0024556051939725876,-0.0012924147304147482,0.0004015631275251508
1761506006220235500,3.136235595703125,-0.0015594512224197388,0.0043311165645718575,-0.0007822118932381272
1761506006230271500,3.146271484375,-0.001255336683243513,-0.0012655842583626509,0.0004832212580367923
1761506006240307500,3.156307373046875,0.002261900110170245,0.00042285979725420475,0.00024513457901775837
1761506006250343700,3.16634375,-0.0008382615633308887,-0.0003717972431331873,-0.0005633869441226125
1761506006260379600,3.176379638671875,0.0007290090434253216,0.0009291570167988539,-0.00015512446407228708
1761506006270415600,3.18641552734375,0.0001635751686990261,0.002147974679246545,0.0005897069931961596
1761506006280450600,3.196450439453125,0.0009758393280208111,-0.00019507436081767082,-0.0029019636567682028
1761506006290486500,3.206486572265625,-0.0017877952195703983,-0.0012430711649358273,-0.00007691036444157362
1761506006300522500,3.2165224609375,-0.00023810192942619324,0.00016307784244418144,-0.00028437061700969934
1761506006310558500,3.226558349609375,0.0002284478396177292,0.0009247895795851946,-0.0011910219909623265
1761506006320594400,3.236594482421875,0.0008569536730647087,-0.000364446546882391,-0.0009569301037117839
1761506006330630700,3.246630615234375,0.0016278508119285107,-0.00020252703689038754,-0.0018676061881706119
1761506006340666600,3.25666650390625,0.002067006193101406,-0.0014438263606280088,-0.0007631933549419045
1761506006350701600,3.26670166015625,0.0009898743592202663,-0.001053418731316924,-0.000036799581721425056
1761506006360737500,3.276737548828125,-0.001946527510881424,0.0016523527447134256,0.00060315802693367
1761506006370773500,3.2867734375,0.002001429907977581,-0.0009486125782132149,-0.0017201898153871298
1761506006380809500,3.2968095703125,0.0015902379527688026,0.002324412576854229,0.0016553668538108468
1761506006390845400,3.306845458984375,-0.0004669139161705971,0.0008401342201977968,-0.0023005965631455183
1761506006400881400,3.31688134765625,-0.0009215152822434902,-0.0015271494630724192,-0.00028911104891449213
1761506006410917600,3.326917724609375,0.001905767247080803,0.00017958832904696465,-0.001708858646452427
1761506006420952600,3.33695263671875,-0.000053520314395427704,-0.003023129189386964,0.0009015717660076916
1761506006430988500,3.346988525390625,-0.002334451302886009,0.0034233692567795515,0.0007348096114583313
1761506006441024500,3.3570244140625,0.0009428346529603004,-0.0016946939285844564,0.00042029027827084064
1761506006451060500,3.367060546875,0.0017835241742432117,0.0015711538726463914,0.00004958396311849356
1761506006461096400,3.377096435546875,0.0010005547665059566,-0.00030557578429579735,-0.0010433774441480637
1761506006471132400,3.38713232421875,-0.002969249151647091,0.0013923023361712694,0.001358737819828093
1761506006481168400,3.39716845703125,-0.00011593848466873169,0.00095953862182796,0.00029373972211033106
1761506006491203600,3.40720361328125,0.001105661503970623,-0.001331857405602932,0.0011437010252848268
1761506006501239600,3.417239501953125,0.00048567773774266243,0.002420536708086729,0.00026059686206281185
1761506006511275500,3.427275634765625,0.0006854296661913395,0.0006450193468481302,-0.00010519276838749647
1761506006521311500,3.4373115234375,-0.00162805849686265,0.0013747253688052297,0.0029680950101464987
1761506006531347500,3.447347412109375,0.0008170236833393574,0.00005772639997303486,-0.00010515062604099512
1761506006541383400,3.457383544921875,-0.00002852967008948326,-0.0004019353073090315,0.0007262883009389043
1761506006551418600,3.467418701171875,0.0005057868547737598,-0.0007037052419036627,-0.00098100071772933
1761506006561454600,3.47745458984375,0.0006693052127957344,-0.0038595511578023434,0.00007041532080620527
1761506006571490600,3.487490478515625,-0.0004080403596162796,-0.0015794462524354458,-0.0016563525423407555
1761506006581526500,3.497526611328125,-0.00024239160120487213,0.003021430689841509,0.0011610055807977915
1761506006591562500,3.5075625,-0.002669531386345625,0.00016392627730965614,0.0008466297877021134
1761506006601598500,3.517598388671875,0.001531604677438736,0.0010848473757505417,0.0013819251907989383
1761506006611633700,3.527633544921875,-0.0023102513514459133,0.000547825125977397,-0.0005770957795903087
1761506006621669600,3.537669677734375,0.0004453212022781372,-0.000011704862117767334,-0.00027749023865908384
1761506006631705600,3.54770556640625,0.00042416900396347046,-0.003700261004269123,-0.00082152069080621
1761506006641741600,3.557741455078125,-0.0008805138058960438,0.003549129469320178,0.0004011365817859769
1761506006651777500,3.567777587890625,0.000001014210283756256,0.0014177836710587144,-0.0012091794051229954
1761506006661813500,3.5778134765625,0.000908619724214077,-0.0010275307577103376,-0.0002656214637681842
1761506006671849500,3.587849365234375,0.0018161982297897339,-0.000042596133425831795,-0.0000765122240409255
1761506006681884400,3.597884521484375,-0.0011955704540014267,-0.0006734989583492279,-0.00011805747635662556
1761506006691920600,3.607920654296875,0.0004611406475305557,-0.0017802943475544453,-0.001466020243242383
1761506006701956600,3.61795654296875,0.0012771333567798138,-0.00001035747118294239,-0.0013041000347584486
1761506006711992600,3.62799267578125,-0.0008415095508098602,-0.000766214681789279,-0.0010126713896170259
1761506006722028500,3.638028564453125,0.001962000038474798,0.0022996163461357355,0.0021418428514152765
1761506006732064500,3.648064453125,0.0020979749970138073,-0.0003409686032682657,-0.0020567653700709343
1761506006742100500,3.6581005859375,-0.0014091418124735355,0.0008409423753619194,-0.00038909376598894596
1761506006752135400,3.668135498046875,0.0011736880987882614,0.00029902299866080284,0.0005778647027909756
1761506006762171400,3.67817138671875,0.0004192143678665161,0.002148588187992573,0.0021118454169481993
1761506006772207600,3.68820751953125,-0.0012416676618158817,0.0038592680357396603,-0.000010363408364355564
1761506006782243600,3.69824365234375,-0.00003339163959026337,-0.0002590441145002842,0.00006793357897549868
1761506006792279600,3.708279541015625,0.000018316786736249924,-0.0033028791658580303,0.00001949805300682783
1761506006802315500,3.7183154296875,0.0008047483861446381,-0.0013957894407212734,-0.0007661343552172184
1761506006812350500,3.7283505859375,0.0006538559682667255,-0.0026594013907015324,-0.0017719236202538013
1761506006822386400,3.738386474609375,0.0006701014935970306,0.0007774080149829388,-0.0018675311002880335
1761506006832422400,3.74842236328125,-0.0004285750910639763,0.0011441929964348674,0.0009913002140820026
1761506006842458400,3.758458251953125,0.0022481682244688272,0.00017959601245820522,0.0009146011434495449
1761506006852494600,3.76849462890625,-0.0013578403741121292,0.0006840929854661226,-0.001650537713430822
1761506006862530600,3.778530517578125,-0.0005445112474262714,0.0007575962226837873,-0.0010209664469584823
1761506006872566500,3.78856640625,-0.001252880785614252,-0.0006072090473026037,0.0018829896580427885
1761506006882601500,3.7986015625,-0.0012150639668107033,-0.0006396996323019266,-0.000840358785353601
1761506006892637400,3.808637451171875,0.0022205684799700975,-0.0014587356708943844,-0.000671636313199997
1761506006902673400,3.81867333984375,-0.0011536567471921444,0.0005548803601413965,-0.0003440674627199769
1761506006912709400,3.82870947265625,-0.000029478222131729126,0.0022440622560679913,0.0006093845586292446
1761506006922745300,3.838745361328125,0.0022661664988845587,0.00027358951047062874,0.0017718543531373143
1761506006932781600,3.848781494140625,0.0005957838147878647,-0.0038292359095066786,-0.0002001946559175849
1761506006942816500,3.85881640625,-0.0006830659694969654,0.0011386246187612414,0.0021124943159520626
1761506006952852500,3.8688525390625,0.000015079043805599213,0.0010736498516052961,0.00012093712575733662
1761506006962888400,3.878888427734375,0.000855572521686554,0.0009530086535960436,-0.0016428744420409203
1761506006972924400,3.88892431640625,0.00042864587157964706,-0.0007897964678704739,-0.001728278468362987
1761506006982960400,3.89896044921875,-0.0034337365068495274,0.0002925123553723097,-0.00009070080704987049
1761506006992996400,3.908996337890625,-0.00013023335486650467,-0.001802041893824935,0.000789427082054317
1761506007003031600,3.919031494140625,0.0019443691708147526,-0.0003474231343716383,-0.000008189701475203037
1761506007013067500,3.929067626953125,0.002195448148995638,0.000030155759304761887,-0.00032544671557843685
1761506007023103500,3.939103515625,-0.001330843660980463,0.001708746305666864,-0.0012522267643362284
1761506007033139500,3.949139404296875,0.0018465220928192139,-0.0003587855026125908,0.0006250988808460534
1761506007043175400,3.959175537109375,-0.0010030604898929596,0.0011123447911813855,-0.0018079649889841676
1761506007053211400,3.96921142578125,0.00033570826053619385,0.00017546839080750942,-0.0008966968161985278
1761506007063247400,3.979247314453125,0.0009753997437655926,0.0009027777705341578,-0.0009470306104049087
1761506007073282600,3.989282470703125,-0.0003372225910425186,-0.003386154305189848,-0.001704902620986104
1761506007083318500,3.999318603515625,0.001329383347183466,0.0016711883945390582,0.0011790344724431634
1761506007093354500,4.0093544921875,0.0010713026858866215,0.0017884382978081703,0.0007410523248836398
1761506007103389400,4.019389404296875,0.0006880736909806728,-0.000941568287089467,-0.00013858976308256388
1761506007113425400,4.02942529296875,-0.00003574369475245476,-0.00008566840551793575,-0.0010392453987151384
1761506007123461000,4.039461181640625,0.002124346559867263,-0.0008417398203164339,0.002480920869857073
1761506007133497000,4.0494970703125,-0.0019202763214707375,0.0003311578184366226,-0.0020550163462758064
1761506007143533000,4.059532958984375,-0.0008827084675431252,0.0024126844946295023,0.0008267903467640281
1761506007153569000,4.069569091796875,0.0006995550356805325,-0.0016021921765059233,0.001844921731390059
1761506007163604000,4.07960400390625,-0.0014671930111944675,0.0001642822753638029,-0.0012472744565457106
1761506007173640000,4.089639892578125,-0.0006817718967795372,0.0008737097959965467,0.0017613319214433432
1761506007183676000,4.099676025390625,0.0013169306330382824,-0.0007806459907442331,0.0022976924665272236
1761506007193711900,4.1097119140625,0.0020750812254846096,0.0022596505004912615,0.0010409372625872493
1761506007203748000,4.119748046875,0.0005456279031932354,-0.0014626500196754932,0.0015171105042099953
1761506007213784000,4.1297841796875,0.0014307470992207527,0.0009297817014157772,-0.000856669619679451
1761506007223820000,4.139820068359375,-0.0006353333592414856,-0.0002760975621640682,0.00013882003258913755
1761506007233855000,4.14985498046875,0.00019964342936873436,0.000016155419871211052,-0.0003940354799851775
1761506007243891000,4.159890869140625,0.0007043122313916683,0.0015165803488343954,0.0009125113720074296
1761506007253927000,4.169927001953125,0.0015866858884692192,-0.002933710115030408,0.0008863084949553013
1761506007263963000,4.179962890625,0.0007762862369418144,-0.0014109143521636724,0.0008301158086396754
1761506007273998800,4.189998779296875,0.000661416444927454,0.0031274419743567705,-0.0010390423703938723
1761506007284035000,4.20003515625,-0.0017197160050272942,-0.00019245455041527748,0.0007953429594635963
1761506007294070000,4.210070068359375,0.000011482276022434235,0.000288849463686347,-0.0004285830073058605
1761506007304106000,4.22010595703125,0.0018437369726598263,-0.00005416572093963623,-0.0007367108482867479
1761506007314142000,4.230141845703125,0.0003541163168847561,-0.0006688330322504044,-0.0003364199073985219
1761506007324178000,4.240177978515625,0.0015346957370638847,0.0027671772986650467,-0.0020709368400275707
1761506007334214000,4.2502138671875,0.0020539937540888786,-0.00006613926962018013,-0.0006786483572795987
1761506007344249900,4.260249755859375,-0.0006086346693336964,0.001025490346364677,-0.0008056809892877936
1761506007354285000,4.27028515625,0.0006985552608966827,-0.00009003770537674427,-0.0001729186624288559
1761506007364321000,4.280321044921875,-5.243346095085144e-7,0.001968852011486888,-0.0008549541234970093
1761506007374357000,4.29035693359375,-0.0014959103427827358,0.0005607316270470619,0.00100278714671731
1761506007384393000,4.30039306640625,0.00011903047561645508,0.00047258101403713226,0.0016978722997009754
1761506007394429000,4.310428955078125,0.0006669522263109684,-0.00045977067202329636,-0.00008924026042222977
1761506007404465000,4.32046484375,-0.0018521323800086975,-0.0041306717321276665,-0.00075662846211344
1761506007414500000,4.3305,0.001386419404298067,-0.0005116588436067104,-0.0009822089923545718
1761506007424536000,4.3405361328125,0.0006641699001193047,0.0020468400325626135,-0.00021601759362965822
1761506007434572000,4.350572021484375,0.000713779591023922,-0.003085030708462,-0.00008288654498755932
1761506007444608000,4.36060791015625,0.0016022101044654846,-0.0029260399751365185,0.001152553828433156
1761506007454644000,4.37064404296875,-0.000968241598457098,0.0004182867705821991,-0.0029508082661777735
1761506007464680000,4.380679931640625,-0.0007269592024385929,0.0008095051161944866,-0.001060230191797018
1761506007474715000,4.39071484375,-0.0018852553330361843,-0.0011677553411573172,-0.0007021049968898296
1761506007484751000,4.400751220703125,-0.0010508876293897629,-0.002095867181196809,0.0004196184454485774
1761506007494787000,4.410787109375,-0.0009792451746761799,-0.001244226936250925,0.001319454750046134
1761506007504823000,4.420822998046875,-0.0010623359121382236,-0.001734248362481594,0.0008512710337527096
1761506007514859000,4.43085888671875,0.0005190507508814335,-0.00020476803183555603,0.0013354894472286105
1761506007524895000,4.44089501953125,-0.0009845700114965439,-0.0007677602116018534,0.002692902460694313
1761506007534930000,4.450929931640625,0.00017835060134530067,0.0005369735881686211,-0.0013691874919459224
1761506007544966000,4.4609658203125,-0.0019034426659345627,0.0010935742175206542,0.00039542303420603275
1761506007555001900,4.471001953125,0.002030316274613142,0.0006388698238879442,-0.0005247914232313633
1761506007565038000,4.4810380859375,-0.0015431134961545467,-0.001481272978708148,0.0010480715427547693
1761506007575074000,4.491073974609375,0.00011312589049339294,-0.0007006323430687189,0.0011049635941162705
1761506007585110000,4.501110107421875,0.0015443083830177784,-0.0012689507566392422,-0.00026336859446018934
1761506007595146000,4.51114599609375,0.00041255494579672813,-0.00044531538151204586,-0.0009289020672440529
1761506007605181000,4.521180908203125,0.002155593829229474,0.0006694837938994169,0.0018280023941770196
1761506007615217000,4.531216796875,-0.00013806065544486046,-0.0015753135085105896,0.0021359503734856844
1761506007625252900,4.5412529296875,0.0003503630869090557,-0.0029327264055609703,0.00016095011960715055
1761506007635288800,4.551288818359375,0.00006949668750166893,-0.0006481327582150698,-0.0024756728671491146
1761506007645325000,4.561324951171875,-0.0003576739691197872,-0.001679042587056756,0.003772369585931301
1761506007655361000,4.571361083984375,-0.00018100161105394363,-0.00005943514406681061,-0.0005613996181637049
1761506007665396000,4.58139599609375,0.0007266039028763771,0.0008524312870576978,-0.0001137221697717905
1761506007675434000,4.59143408203125,-0.00030259182676672935,0.0005992688238620758,0.0020272356923669577
1761506007685469000,4.601468994140625,0.002095318166539073,-0.0009530875831842422,-0.0006455128313973546
1761506007695505000,4.6115048828125,0.0016102483496069908,-0.0018574097193777561,0.0029401073697954416
1761506007705540900,4.621540771484375,-0.001635079737752676,-0.001643824391067028,-0.0006128157256171107
1761506007715576800,4.631576904296875,-0.0020334101282060146,-0.002454066649079323,-0.0016243859427049756
1761506007725612800,4.64161279296875,0.0007818173617124557,-0.00021940842270851135,0.0020055025815963745
1761506007735648800,4.651648681640625,-0.001781655941158533,0.0029029923025518656,-0.000516214407980442
1761506007745684700,4.661684814453125,-0.0006402251310646534,-0.0009495364502072334,-0.0007540348451584578
1761506007755720000,4.671719970703125,0.002693725982680917,-0.0008986704051494598,0.0020229308865964413
1761506007765756000,4.681755859375,0.003830629400908947,-0.000294398982077837,0.0005885522114112973
1761506007775791900,4.6917919921875,0.0012335698120296001,-0.0011779684573411942,0.0015121909091249108
1761506007785827800,4.701827880859375,0.0004857541061937809,-0.0006930066738277674,-0.0003927681827917695
1761506007795863800,4.71186376953125,0.0000023087486624717712,-0.0016379207372665405,-0.0004673501243814826
1761506007805899800,4.721899658203125,-0.0011979779228568077,0.0007986051496118307,0.0008719535544514656
1761506007815935000,4.73193505859375,0.00015855534002184868,-0.00036896858364343643,0.0018838767427951097
1761506007825971000,4.741970947265625,0.0009093005210161209,0.001209487090818584,0.0014614994870498776
1761506007836007000,4.7520068359375,-0.0005358587950468063,-0.0017225933261215687,0.0006639921921305358
1761506007846043000,4.76204296875,-0.00006474554538726807,0.00012244447134435177,0.001307411934249103
1761506007856078800,4.772078857421875,0.0016515841707587242,0.00031628599390387535,-0.0017789711710065603
1761506007866114800,4.78211474609375,0.0002523595467209816,-0.0010573724284768105,-0.0008748280815780163
1761506007876150000,4.79214990234375,0.00046259351074695587,-0.0013195595238357782,0.0001867571845650673
1761506007886186000,4.80218603515625,0.0008879005908966064,-0.0015214269515126944,-0.001280378084629774
1761506007896222000,4.812221923828125,0.0021002802532166243,-0.0007287594489753246,0.0010064669186249375
1761506007906258000,4.8222578125,-0.0004014931619167328,-0.00014819041825830936,0.0008629225194454193
1761506007916294000,4.8322939453125,0.00039730360731482506,0.0037963199429214,-0.0019213969353586435
1761506007926329900,4.842329833984375,-0.0006479872390627861,-0.0015696834307163954,0.0007164641283452511
1761506007936364800,4.85236474609375,-0.0009185224771499634,-0.0006269670557230711,-0.0015735378256067634
1761506007946400800,4.86240087890625,0.0028085713274776936,0.0021011752542108297,0.0026092228945344687
1761506007956437000,4.87243701171875,-0.0010078451596200466,-0.0020341479685157537,0.0015070053050294518
1761506007966473000,4.882472900390625,0.00017619598656892776,0.003100426634773612,0.004576831124722958
1761506007976509000,4.892509033203125,-0.0015296777710318565,0.0007494830060750246,0.0008774747257120907
1761506007986545000,4.902544921875,-0.0006047617644071579,0.0011574792442843318,0.0002758667105808854
1761506007996580900,4.912580810546875,-0.0001707281917333603,-0.0006771527696400881,0.0002656349679455161
1761506008006615800,4.92261572265625,0.002141960896551609,-0.0003117669839411974,-0.0013064290396869183
1761506008016651800,4.93265185546875,0.0007691811770200729,-0.0003357154782861471,-0.0019212698098272085
1761506008026687700,4.942687744140625,-0.0005711880512535572,-0.0014957883395254612,-0.0015889073256403208
1761506008036724000,4.952723876953125,0.0012974408455193043,-0.0020263195037841797,-0.00003210257273167372
1761506008046760000,4.962760009765625,-0.0014197826385498047,0.0021071727387607098,-0.0007735266117379069
1761506008056796200,4.972796142578125,0.0031095200683921576,0.0020981403067708015,0.0010029259137809277
1761506008066830800,4.982830810546875,-0.0020484905689954758,-0.0017812862060964108,0.0010620480170473456
1761506008076866800,4.99286669921875,0.000015810132026672363,-0.0014716051518917084,0.0004247324541211128
1761506008086902800,5.00290283203125,0.001180144026875496,-0.00004681386053562164,-0.00025677040684968233
1761506008096938800,5.012938720703125,0.0007312842644751072,-0.0019931027200073004,-0.0015673001762479544
1761506008106974700,5.022974609375,-0.0015587680973112583,-0.0014729874674230814,0.00015709665603935719
1761506008117011000,5.033010986328125,-0.00031736213713884354,0.00043652066960930824,0.0006108119850978255
1761506008127046000,5.0430458984375,0.0002743923105299473,-0.00015123886987566948,0.0009184071095660329
1761506008137081900,5.053081787109375,0.0006322944536805153,-0.0003971031401306391,0.00012702727690339088
1761506008147117800,5.063117919921875,0.0023878503125160933,-0.00011747120879590511,-0.0013110797153785825
1761506008157153800,5.07315380859375,0.0007511782459914684,-0.00008050166070461273,-0.0009482771856710315
1761506008167189800,5.083189697265625,-0.0038134800270199776,-0.0002738470211625099,0.0018067630007863045
1761506008177225700,5.093225830078125,0.0010189604945480824,-0.00023603811860084534,-0.000716096255928278
1761506008187261000,5.103260986328125,-0.0007248776964843273,1.8440186977386475e-7,0.0009116277215071023
1761506008197297000,5.113296875,0.001663448754698038,-0.0008047532755881548,-0.001086110365577042
1761506008207332900,5.123332763671875,-0.0005267346277832985,-0.0008689353708177805,0.0007586612482555211
1761506008217368800,5.133368896484375,0.0009430493228137493,0.002271173521876335,-0.0010089969728142023
1761506008227404800,5.14340478515625,-0.001636754721403122,0.0006442484445869923,0.000863205234054476
1761506008237440800,5.153440673828125,-0.00062891049310565,-0.0015217475593090057,-0.0019161028321832418
1761506008247476000,5.16347607421875,-0.00009175064042210579,-0.00011826190166175365,-0.004465014673769474
1761506008257512000,5.173511962890625,-0.000347780529409647,0.0008080119732767344,-0.0008938229875639081
1761506008267548000,5.1835478515625,0.0029758443124592304,-0.0017840424552559853,-0.0011689275270327926
1761506008277584000,5.193583984375,-0.0021961466409265995,0.0002143669407814741,-0.0011314249131828547
1761506008287619800,5.203619873046875,0.003740838263183832,-0.0001422304194420576,0.0006217338959686458
1761506008297655800,5.21365576171875,-0.0002636769786477089,-0.0008666468784213066,0.00007732422091066837
1761506008307691800,5.22369189453125,0.0013339533470571041,-0.0016869001556187868,-0.0007240208797156811
1761506008317727000,5.23372705078125,0.000010977033525705338,0.002606004709377885,-0.0014881116803735495
1761506008327763000,5.243762939453125,-0.0009091449901461601,-0.0007834003772586584,-0.0010324448812752962
1761506008337799000,5.253798828125,0.000654642004519701,-0.00045017059892416,0.00019093812443315983
1761506008347835000,5.2638349609375,-0.0010055727325379848,-0.0008033057674765587,0.00010997802019119263
1761506008357870800,5.273870849609375,-0.000994495116174221,-0.0012499140575528145,0.000002127140760421753
1761506008367906800,5.28390673828125,-0.0005090008489787579,-0.0002741317730396986,0.0020660769660025835
1761506008377941800,5.293941650390625,0.0026748967356979847,-0.00016130250878632069,0.0019487068057060242
1761506008387977700,5.303977783203125,-0.0010226359590888023,-0.0002286804374307394,0.001820076140575111
1761506008398014000,5.314013916015625,-0.0005261525511741638,-0.00036595016717910767,-0.0005500605329871178
1761506008408050000,5.3240498046875,0.001669890247285366,0.0013243581634014845,0.00180550548247993
1761506008418086000,5.3340859375,-0.0002829930745065212,0.00013236142694950104,-0.0007396496366709471
1761506008428121900,5.344121826171875,0.0003167507238686085,-0.0010231842752546072,-0.000617410521954298
1761506008438156800,5.35415673828125,0.0011879019439220428,-0.00047086249105632305,-0.000545110204257071
1761506008448192800,5.36419287109375,0.00010639242827892303,0.0007118473295122385,-0.0004124847473576665
1761506008458228700,5.374228759765625,-0.0008596074767410755,0.002140440745279193,0.0003981073386967182
1761506008468264700,5.3842646484375,-0.0012212647125124931,-0.00034348946064710617,0.002396809868514538
1761506008478301000,5.394301025390625,-0.00037515629082918167,0.001877129659987986,-0.0009782244451344013
1761506008488337000,5.4043369140625,0.0031191774178296328,0.0007436883170157671,-0.00209861621260643
1761506008498371800,5.414371826171875,-0.0006398125551640987,0.0023735121358186007,-0.002224468160420656
1761506008508407800,5.42440771484375,0.000020384788513183594,0.004172743763774633,0.0005161908338777721
1761506008518443800,5.43444384765625,-0.00032941577956080437,0.0009761296678334475,-0.0018510372610762715
1761506008528479700,5.444479736328125,0.00027751876041293144,0.0008743968792259693,-0.0008153339149430394
1761506008538515700,5.454515625,0.0005102832801640034,-0.0014260485768318176,0.006011854857206345
1761506008548551700,5.4645517578125,-0.00021516205742955208,-0.0002846179995685816,0.0001568957231938839
1761506008558587000,5.4745869140625,0.0021250073332339525,0.00023036380298435688,-0.0010338539723306894
1761506008568622800,5.484622802734375,0.0011167344637215137,0.00011611427180469036,0.0026847177650779486
1761506008578658800,5.494658935546875,0.0007191072218120098,0.0012098033912479877,0.0008360253996215761
1761506008588694800,5.50469482421875,-0.0007538869976997375,-0.00176947470754385,0.001999560510739684
1761506008598730800,5.514730712890625,0.0007342835888266563,-0.0005668383091688156,-0.0001802255865186453
1761506008608766700,5.5247666015625,0.00048687588423490524,-0.0011548642069101334,-0.0011397625785320997
1761506008618802000,5.534802001953125,-0.0013585099950432777,-0.0005455696955323219,0.00045179325388744473
1761506008628838000,5.544837890625,0.0011896025389432907,-0.00028404733166098595,0.0007908136467449367
1761506008638873900,5.554873779296875,0.0005810693837702274,-0.0004762597382068634,0.001505009364336729
1761506008648909800,5.564909912109375,-0.0005806013941764832,0.0007517237681895494,-0.001958698034286499
1761506008658945800,5.57494580078125,-0.0007428317330777645,-0.0016905523370951414,0.0001961041707545519
1761506008668981800,5.584981689453125,-0.00047545041888952255,-0.0001946545671671629,0.0006501731113530695
1761506008679016700,5.5950166015625,-0.0008386010304093361,-0.00013665156438946724,-0.00020892801694571972
1761506008689053000,5.605052978515625,0.001599523238837719,0.002215186133980751,0.00036871153861284256
1761506008699089000,5.6150888671875,-0.0005565444007515907,-0.0017181157600134611,-0.0021039177663624287
1761506008709124900,5.625124755859375,-0.0008612102828919888,-0.00040863966569304466,-0.002169697778299451
1761506008719160800,5.635160888671875,0.00040149735286831856,0.0006502943579107523,-0.00005792314186692238
1761506008729196800,5.64519677734375,0.00019856449216604233,0.0008391123265028,-0.00023422448430210352
1761506008739231700,5.655231689453125,0.0002573039382696152,-0.0009744900744408369,0.0007293191738426685
1761506008749267700,5.665267822265625,0.00042694713920354843,0.00032087136059999466,-0.000040600658394396305
1761506008759304000,5.675303955078125,0.000013565178960561752,0.00013479753397405148,0.00022860593162477016
1761506008769340000,5.68533984375,0.0005848128348588943,-0.00243968004360795,0.00213862513191998
1761506008779375900,5.6953759765625,0.00012970669195055962,-0.00007670163176953793,0.0000015550758689641953
1761506008789411800,5.705411865234375,0.0007251896895468235,-0.0016937730833888054,-0.000009097508154809475
1761506008799446800,5.71544677734375,-0.0016697077080607414,0.0009117405861616135,-0.0004901712527498603
1761506008809482800,5.725482666015625,0.0010123620741069317,-0.0017287838272750378,-0.0002488888567313552
1761506008819518700,5.735518798828125,-0.0007243040017783642,0.0011103148572146893,-0.0002571321092545986
1761506008829554700,5.7455546875,-0.000026289839297533035,0.0029162042774260044,0.0020190714858472347
1761506008839591000,5.7555908203125,0.00010127201676368713,-0.0029175530653446913,0.0002151781227439642
1761506008849627000,5.765626953125,-0.0011293748393654823,-0.0011574698146432638,-0.0007379672024399042
1761506008859661800,5.775661865234375,-0.0007748645730316639,0.00045633106492459774,-0.00025535072200000286
1761506008869697800,5.78569775390625,-0.0012425156310200691,-0.000006260117515921593,0.00046130589907988906
1761506008879733800,5.795733642578125,0.0005871192552149296,0.0016245002625510097,0.0000761889386922121
1761506008889769700,5.805769775390625,-0.0012203683145344257,-0.0006426486652344465,-0.0020543397404253483
1761506008899805700,5.8158056640625,0.0019016233272850513,0.0011944801080971956,-0.00036249624099582434
1761506008909841700,5.825841552734375,-0.00019934400916099548,0.0019585411064326763,-0.00006528745871037245
1761506008919876900,5.835876953125,0.0006416854448616505,-0.0010366023052483797,0.0011509577743709087
1761506008929912800,5.845912841796875,-0.0003498094156384468,-0.0029053424950689077,0.0014660097658634186
1761506008939948800,5.85594873046875,-0.0011535859666764736,0.0009407293982803822,-0.00045496877282857895
1761506008949984800,5.86598486328125,-0.0006979191675782204,0.0008611008524894714,0.0006017734995111823
1761506008960020700,5.876020751953125,-0.0026440578512847424,0.0011067682644352317,0.0004060750361531973
1761506008970056700,5.886056640625,-0.0009795823134481907,0.00070915836840868,-0.0011252425611019135
1761506008980092000,5.896091796875,-0.0006240857765078545,0.0008530095219612122,0.0005331140127964318
1761506008990127900,5.9061279296875,0.0031682553235441446,-0.0017603503074496984,0.0008297901949845254
1761506009000163800,5.916163818359375,0.0016048126854002476,-0.001284782774746418,-0.001142153749242425
1761506009010199800,5.92619970703125,0.0017140018753707409,0.0008185820188373327,-0.0002467990852892399
1761506009020235800,5.93623583984375,-0.0012800544500350952,-0.0031376315746456385,0.00004938826896250248
1761506009030271700,5.946271728515625,0.000542080495506525,-0.0017139057163149118,-0.0001713878009468317
1761506009040306700,5.956306640625,0.00026613660156726837,-0.0009613793808966875,-0.001915755681693554
1761506009050343000,5.966343017578125,0.0008477712981402874,0.0009678145870566368,0.0005122482543811202
1761506009060379000,5.97637890625,-0.001019324641674757,-0.0026864041574299335,0.001173194032162428
1761506009070414800,5.986414794921875,-0.00181960454210639,0.003357107285410166,-0.00023854768369346857
1761506009080450800,5.996450927734375,0.0002507772296667099,-0.0008215666748583317,0.0013804412446916103
1761506009090486800,6.00648681640625,0.001602065283805132,-0.001642885385081172,0.000334884156472981
1761506009100521700,6.016521728515625,0.0009169187396764755,0.0031750956550240517,-0.000014350051060318947
1761506009110557700,6.0265576171875,0.0004186411388218403,-0.0024795939680188894,-0.0011592429364100099
1761506009120594000,6.036593994140625,-0.0003376300446689129,-0.0021033899392932653,-0.0007916104514151812
1761506009130630100,6.046630126953125,0.0005958075635135174,-0.00035928585566580296,-0.000496265827678144
1761506009140666000,6.056666015625,0.0006688516587018967,-0.0008776220493018627,-0.0010435590520501137
1761506009150701000,6.066701171875,0.0005037356168031693,0.0008465084247291088,0.001897369627840817
1761506009160737000,6.076737060546875,0.0004345793277025223,0.004052451346069574,0.0007349950610660017
1761506009170773000,6.08677294921875,-0.0009039253927767277,0.0014145902823656797,0.001357642118819058
1761506009180809000,6.09680908203125,0.0009017335250973701,-0.0018159288447350264,0.00041669304482638836
1761506009190845000,6.106844970703125,-0.001744916196912527,-0.0018745183479040861,-0.0019468623213469982
1761506009200881000,6.116880859375,0.00019911257550120354,0.0004386624787002802,-0.00045347411651164293
1761506009210916000,6.126916015625,-0.0007990398444235325,0.0016075239982455969,-0.0005560058634728193
1761506009220952000,6.1369521484375,0.00041460897773504257,-0.0006135310977697372,-0.0019213310442864895
1761506009230988000,6.146988037109375,-0.0004535815678536892,0.002847512951120734,-0.0010984144173562527
1761506009241024000,6.15702392578125,0.0023803128860890865,-0.0008810770232230425,0.00004199007526040077
1761506009251060000,6.16706005859375,0.0018697851337492466,0.0008374608587473631,-0.00016041018534451723
1761506009261096000,6.177095947265625,-0.00036654388532042503,-0.0007294686511158943,-0.0011712051928043365
1761506009271131100,6.187131103515625,0.0008324114605784416,0.0007062416989356279,0.0019012836273759604
1761506009281167000,6.1971669921875,-0.0015227394178509712,-0.0016615185886621475,-0.0002586827613413334
1761506009291203000,6.207203125,-0.00028383685275912285,-0.0013912077993154526,-0.0011971807107329369
1761506009301239000,6.217239013671875,0.0004914505407214165,0.0005721761845052242,0.0016902806237339973
1761506009311275000,6.22727490234375,0.002308259019628167,0.0016614090418443084,0.0018881536088883877
1761506009321311000,6.23731103515625,0.0017785569652915,-0.0025196487549692392,-0.0012741340324282646
1761506009331346000,6.247345947265625,0.0004336605779826641,-0.0011190923396497965,-0.00023203901946544647
1761506009341382100,6.257382080078125,-0.00006962660700082779,-0.0022744378075003624,-0.00160289800260216
1761506009351418000,6.267418212890625,0.00157247856259346,-0.000338585814461112,0.0020493611227720976
1761506009361454000,6.2774541015625,-0.0002766554243862629,0.003047014120966196,-0.000026157009415328503
1761506009371490000,6.287489990234375,-0.0019909320399165154,-0.00019218865782022476,0.0010441674385219812
1761506009381525000,6.29752490234375,0.0011672405526041985,-0.0029246993362903595,-0.0005760091589763761
1761506009391561000,6.30756103515625,-0.0013526426628232002,0.0006865470204502344,-0.002732370514422655
1761506009401597000,6.317596923828125,0.00064448406919837,-0.00046565779484808445,0.00007929897401481867
1761506009411633000,6.3276328125,-0.0005787056870758533,0.0003199747297912836,-0.00031458260491490364
1761506009421669000,6.337669189453125,-0.0007681171409785748,-0.002522239927202463,-0.000709518208168447
1761506009431705000,6.347705078125,0.0007032793946564198,-0.0009488442447036505,0.0002545461757108569
1761506009441740000,6.357739990234375,0.00161721371114254,0.0018547489307820797,0.00031864328775554895
1761506009451776000,6.36777587890625,0.002718697302043438,-0.0004062748048454523,-0.0010635373182594776
1761506009461812000,6.37781201171875,0.000598028302192688,-0.00027712411247193813,0.00005943665746599436
1761506009471848000,6.387847900390625,0.0015405211597681046,-0.000677663367241621,-0.0010889184195548296
1761506009481884000,6.3978837890625,-0.0001824251376092434,0.0005467606242746115,0.000569912779610604
1761506009491920000,6.407919921875,-0.0004945476539433002,-0.0015222490765154362,-0.002244515810161829
1761506009501955000,6.417955078125,-0.0004349900409579277,0.0004475163295865059,-0.0010600487003102899
1761506009511991000,6.427990966796875,0.0014441362582147121,0.00038812775164842606,-0.001560456701554358
1761506009522027000,6.438027099609375,-0.0006678048521280289,-0.0004279986023902893,0.0012276129564270377
1761506009532063000,6.44806298828125,-0.000939447432756424,0.0016135807381942868,-0.000003832741640508175
1761506009542099000,6.458098876953125,0.001980965957045555,0.0015491576632484794,-0.0017353087896481156
1761506009552135000,6.468135009765625,-0.000414813868701458,0.0020104171708226204,0.0018114891136065125
1761506009562170000,6.478170166015625,-0.0008779456838965416,-0.0008524858858436346,0.00029426231049001217
1761506009572206000,6.4882060546875,-0.000762630719691515,0.0014391642762348056,0.0007195691578090191
1761506009582242000,6.498241943359375,0.0002575209364295006,0.0018799920799210668,-0.0011400463990867138
1761506009592278000,6.508278076171875,0.001758212223649025,0.00186641002073884,-0.0027629765681922436
1761506009602314000,6.51831396484375,-0.0012958631850779057,-0.0015359485987573862,0.0009574583964422345
1761506009612349000,6.528348876953125,-0.0014495272189378738,0.0031272461637854576,0.00023680704180151224
1761506009622385200,6.53838525390625,0.001663807313889265,-0.0018392258789390326,-0.0011001103557646275
1761506009632421000,6.548421142578125,0.0008669896051287651,0.000018062768504023552,-0.0008234078995883465
1761506009642457000,6.55845703125,-0.0001724911853671074,0.001993634272366762,0.0008736745221540332
1761506009652493000,6.5684931640625,0.0008304552175104618,0.0006276990752667189,0.0005801941151730716
1761506009662529000,6.578529052734375,-0.0011341548524796963,-0.00016465387307107449,-0.0003622923977673054
1761506009672564000,6.58856396484375,0.0020392676815390587,0.000002592802047729492,0.0002507672179490328
1761506009682600000,6.598599853515625,0.000043421052396297455,0.0008744136430323124,-0.0005982207367196679
1761506009692636000,6.608635986328125,-0.0009169150143861771,0.0006768072489649057,-0.0006605387898162007
1761506009702672100,6.618672119140625,-0.0013798326253890991,-0.0012818416580557823,0.0008400434162467718
1761506009712708000,6.6287080078125,0.0002558808773756027,0.0011365751270204782,-0.0017594679957255721
1761506009722743000,6.638742919921875,-0.00014624278992414474,-0.003825151128694415,-0.0007066088728606701
1761506009732779000,6.648779052734375,-0.0010069767013192177,-0.0016139287035912275,0.0012279113288968801
1761506009742815000,6.65881494140625,0.0019256402738392353,-0.001992133678868413,-0.00015288672875612974
1761506009752851000,6.668850830078125,0.0007506539113819599,-0.0028890862595289946,0.0002662948099896312
1761506009762887000,6.678886962890625,-0.0032775304280221462,0.00033307261765003204,-0.0011241862084716558
1761506009772923000,6.6889228515625,-0.0006852094084024429,-0.000726332888007164,-0.0011457579676061869
1761506009782958000,6.6989580078125,-0.002746914979070425,-0.0016388490330427885,-0.0029287165962159634
1761506009792994000,6.708994140625,0.0013229274190962315,0.0006730409804731607,0.001075612148270011
1761506009803030000,6.719030029296875,-0.0007382123731076717,0.0017695636488497257,0.0004638920072466135
1761506009813066000,6.72906591796875,-0.000670568086206913,-0.00040224427357316017,0.0004234119551256299
1761506009823102000,6.73910205078125,-0.00020668096840381622,-0.0008791799191385508,-0.0021290911827236414
1761506009833137200,6.74913720703125,-0.0009552952833473682,0.0007291031070053577,0.00003818923141807318
1761506009843173000,6.759173095703125,0.0007550306618213654,0.00410550506785512,-0.0005948531907051802
1761506009853209000,6.769208984375,-0.00309749785810709,-0.0019334789831191301,0.00044404587242752314
1761506009863245000,6.7792451171875,-0.00005265744403004646,0.0005197988357394934,-0.002094412222504616
1761506009873281000,6.789281005859375,-0.0009165871888399124,-0.0022203277330845594,-0.0008120998973026872
1761506009883317000,6.79931689453125,-0.0013201329857110977,-0.0016072264406830072,-0.0020868913270533085
1761506009893352000,6.80935205078125,-0.0011177328415215015,0.001579512027092278,0.0003323241835460067
1761506009903388000,6.819387939453125,-0.0001400313340127468,-0.00025672512128949165,-0.0004577456275001168
1761506009913424100,6.829424072265625,-0.00009928504005074501,-0.0005478085950016975,0.001755341305397451
1761506009923460000,6.839460205078125,0.00023156357929110527,0.000016828300431370735,-0.0003001836594194174
1761506009933496000,6.84949609375,-0.0021271980367600918,-0.0024543185718357563,0.0010271357605233788
1761506009943531000,6.859531005859375,-0.0021697701886296272,-0.0024961642920970917,0.0003232340095564723
1761506009953567000,6.86956689453125,0.00198769080452621,0.0018109662923961878,-0.0004347016802057624
1761506009963603000,6.87960302734375,-0.0006511593237519264,0.0022452250123023987,0.000852904049679637
1761506009973639000,6.889638916015625,0.001637294888496399,0.002597561338916421,-0.0011183677706867456
1761506009983675000,6.8996748046875,-0.001434731762856245,-0.0002117662224918604,-0.0009168258402496576
1761506009993711000,6.909711181640625,0.00035624392330646515,-0.0019465493969619274,0.0019069239497184753
1761506010003746000,6.91974609375,-0.0011191880330443382,0.0009695637272670865,0.0012400635750964284
1761506010013782000,6.929781982421875,-0.0006312970072031021,-0.0013607023283839226,-0.002179168863222003
1761506010023818000,6.93981787109375,-0.00015619955956935883,0.0014674533158540726,0.0015925175976008177
1761506010033854000,6.94985400390625,-0.0007940265350043774,-0.00008437060751020908,0.00033257610630244017
1761506010043890000,6.959889892578125,0.0006248285062611103,-0.0003591487184166908,-0.0006848516641184688
1761506010053925000,6.969925048828125,-0.0002857064828276634,0.0012627162504941225,-0.0019898004829883575
1761506010063961000,6.979961181640625,0.0018198820762336254,0.001072856248356402,-0.00021121138706803322
1761506010073997000,6.9899970703125,-0.0003165057860314846,0.0010805794736370444,0.0008756245952099562
1761506010084033000,7.000032958984375,0.0009289621375501156,0.001884750439785421,0.00026106706354767084
1761506010094069000,7.010069091796875,0.001999286701902747,0.0010631652548909187,0.0016365897608920932
1761506010104105000,7.02010498046875,0.0008662729524075985,-0.0007219826802611351,-0.0002482759300619364
1761506010114140200,7.03014013671875,0.0004140683449804783,-0.0005962816067039967,-0.00048316677566617727
1761506010124176100,7.040176025390625,0.000327118206769228,0.000038961414247751236,-0.00020656641572713852
1761506010134212000,7.050212158203125,0.0017271419055759907,0.003303996752947569,-0.0007168281590566039
1761506010144248000,7.060248046875,-0.001687060110270977,0.0027499436400830746,-0.00017706933431327343
1761506010154284000,7.070283935546875,-0.0005171336233615875,-0.00003785337321460247,-0.0002963789738714695
1761506010164319000,7.080319091796875,-0.0006679375655949116,-0.0009320129174739122,0.001157173071987927
1761506010174355000,7.09035498046875,0.00017974665388464928,0.00048079388216137886,-0.0013467309763655066
1761506010184391000,7.100390869140625,0.0000661793164908886,-0.0017160659190267324,0.0009725050185807049
1761506010194427100,7.11042724609375,0.0007359646260738373,0.00012337928637862206,-0.002170025138184428
1761506010204463000,7.120463134765625,0.0010246466845273972,-0.0005616780836135149,-0.001230410998687148
1761506010214499000,7.1304990234375,-0.000531438272446394,-0.00009828805923461914,0.001177353085950017
1761506010224534000,7.140533935546875,0.0005557038821280003,-0.0007225479930639267,-0.0003186343237757683
1761506010234570000,7.150570068359375,0.002900883322581649,0.0018924098694697022,-0.0004075838951393962
1761506010244606000,7.16060595703125,0.0003671660088002682,-0.002564549446105957,-0.00020423706155270338
1761506010254642000,7.170641845703125,-0.0008251313120126724,0.0009428338380530477,0.00042027421295642853
1761506010264678000,7.180677978515625,0.0008370932191610336,0.0003405800089240074,0.0002686548978090286
1761506010274713000,7.190713134765625,0.002045901957899332,0.0030133286491036415,0.0005767826223745942
1761506010284749000,7.2007490234375,-0.0013714563101530075,-0.00239754980430007,-0.0009155774023383856
1761506010294785000,7.210784912109375,-0.0011163256131112576,-0.0020135222002863884,0.0007670077029615641
1761506010304821000,7.220821044921875,-0.0027613691054284573,0.0021496624685823917,0.001623284537345171
1761506010314857000,7.23085693359375,0.0005132541991770267,0.004072997253388166,0.00015907862689346075
1761506010324892200,7.24089208984375,-0.0016355016268789768,-0.0016746209003031254,-0.00007444026414304972
1761506010334928100,7.25092822265625,0.00002657715231180191,0.0009776210645213723,-0.0005801744991913438
1761506010344964000,7.260964111328125,-0.0008764956146478653,-0.0030967986676841974,0.0002782694064080715
1761506010355000000,7.271,0.0008867834694683552,0.0007788997609168291,0.00009637547191232443
1761506010365036000,7.2810361328125,0.0012270184233784676,-0.001939311157912016,-0.00015591096598654985
1761506010375072000,7.291072021484375,-0.0004270710051059723,0.0001592598855495453,0.0007487648981623352
1761506010385107000,7.30110693359375,0.001295511145144701,-0.0009684769902378321,0.000806342635769397
1761506010395143000,7.311142822265625,-0.0008523282594978809,-0.0032848946284502745,0.0019837261643260717
1761506010405179100,7.32117919921875,-0.0013646823354065418,-0.0008604272734373808,-0.0008623721078038216
1761506010415215000,7.331215087890625,0.000821240246295929,0.000504442723467946,0.00009317020885646343
1761506010425251000,7.3412509765625,-0.0016224789433181286,0.00012285844422876835,-0.0013968710554763675
1761506010435286000,7.3512861328125,-0.002017958089709282,0.0027450069319456816,-0.0021582688204944134
1761506010445322000,7.361322021484375,0.0003286972641944885,-0.0020403440576046705,0.0012460651341825724
1761506010455358000,7.37135791015625,0.0018847822211682796,-0.0026099940296262503,-0.0009489122312515974
1761506010465394000,7.381393798828125,-0.0020376010797917843,-0.0004637069068849087,-0.0012673118617385626
1761506010475430000,7.391429931640625,-0.003191548865288496,0.00014269468374550343,0.00031620380468666553
1761506010485465000,7.401465087890625,-0.0006797285750508308,0.0011229518568143249,0.0006890140357427299
1761506010495501000,7.4115009765625,-0.00022565992549061775,-0.00109945610165596,-0.00011313008144497871
1761506010505537000,7.421537109375,0.0003181314095854759,-0.0009405133314430714,-0.0016183226834982634
1761506010515573000,7.431572998046875,0.00045395269989967346,-0.00005155010148882866,-0.0007666437886655331
1761506010525609000,7.44160888671875,-0.0009545441716909409,-0.0017036672215908766,-0.0008928141323849559
1761506010535645000,7.45164501953125,-0.00033642444759607315,0.0009531022515147924,0.0018358607776463032
1761506010545680100,7.46168017578125,0.0008046752773225307,-0.0019275827798992395,-0.000806574709713459
1761506010555716000,7.471716064453125,-0.0004981430247426033,0.0005856421776115894,0.00024377601221203804
1761506010565752000,7.481751953125,0.00019846996292471886,-0.003912063781172037,-0.0031056860461831093
1761506010575788000,7.4917880859375,-0.0003429502248764038,0.00031330762431025505,-0.001240674639120698
1761506010585824000,7.501823974609375,-0.0007112706080079079,0.00020137149840593338,0.0004743256140500307
1761506010595859000,7.51185888671875,-0.0005690581165254116,0.0010139020159840584,0.000496163556817919
1761506010605895200,7.521895263671875,0.0005661789327859879,0.0021697822958230972,-0.0000075178686529397964
1761506010615931100,7.53193115234375,0.0019414352718740702,0.0006437911652028561,-0.0003310919273644686
1761506010625967000,7.541967041015625,-0.002140958793461323,0.0003466426860541105,-0.0012492038076743484
1761506010636003000,7.552003173828125,0.0017504519782960415,-0.0017045240383595228,0.0018097030697390437
1761506010646038000,7.5620380859375,0.0013073952868580818,-0.0009271549060940742,0.0019580284133553505
1761506010656074000,7.572073974609375,-0.0014953152276575565,0.0017969924956560135,-0.000004987698048353195
1761506010666110000,7.58210986328125,-0.00012054480612277985,-0.001280307536944747,0.0017135204980149865
1761506010676146000,7.59214599609375,-0.0009210910648107529,0.0005447566509246826,-0.00025881663896143436
1761506010686182100,7.60218212890625,0.001917288638651371,0.001528166700154543,-0.0016649519093334675
1761506010696218000,7.612218017578125,-0.0022188671864569187,0.0009590492118149996,-0.00005347304977476597
1761506010706253000,7.622253173828125,-0.0005945772863924503,0.001679465058259666,-0.0011263430351391435
1761506010716289000,7.6322890625,0.0013617807999253273,-0.0008779685012996197,-0.0009079639567062259
1761506010726325000,7.642324951171875,-0.0001303795725107193,-0.00011363369412720203,0.0004379114252515137
1761506010736361000,7.65236083984375,-0.00011706352233886719,-0.001098737120628357,0.0011066311271861196
1761506010746397000,7.66239697265625,0.000010128132998943329,0.0012839427217841148,0.0005384653341025114
1761506010756432100,7.67243212890625,0.0009350436739623547,-0.00274595245718956,0.0009216942125931382
1761506010766468000,7.682468017578125,-0.0006068814545869827,-0.001147883478552103,-0.0014827752020210028
1761506010776504000,7.692504150390625,0.0014751777052879333,0.002684671664610505,0.0009449623175896704
1761506010786540000,7.7025400390625,-0.0031547625549137592,0.000018937280401587486,0.002188673010095954
1761506010796576000,7.712575927734375,-0.0014841612428426743,0.00313190626911819,0.0005545574240386486
1761506010806611000,7.72261083984375,-0.0021861824207007885,-0.00009922590106725693,-0.0014044720446690917
1761506010816647200,7.732647216796875,-0.0021680728532373905,0.0017122563440352678,-0.0015360323013737798
1761506010826683100,7.74268310546875,-0.0018251664005219936,-0.0007825451903045177,0.00005370005965232849
1761506010836719000,7.752718994140625,0.0015173670835793018,0.00047180382534861565,0.0008268157253041863
1761506010846755000,7.762755126953125,-0.00018175411969423294,0.001235932344570756,-0.0008258179295808077
1761506010856790000,7.7727900390625,-0.00033248914405703545,0.0018388719763606787,0.00034570659045130014
1761506010866826000,7.782825927734375,0.0014914851635694504,-0.0017561917193233967,0.0011585927568376064
1761506010876862000,7.792862060546875,0.0009697717614471912,0.0012459898134693503,-0.0012936460552737117
1761506010886898000,7.80289794921875,0.0016717351973056793,0.00008202833123505116,-0.00198897416703403
1761506010896934100,7.81293408203125,0.0008216542191803455,0.0017723365454003215,-0.0011165225878357887
1761506010906970000,7.82297021484375,-0.0005954420194029808,0.00030503212474286556,-0.0013237082166597247
1761506010917005000,7.833005126953125,-0.0007078270427882671,0.0007591010071337223,0.0023328119423240423
1761506010927041000,7.843041015625,0.003997536841779947,0.0015953059773892164,0.0005773015436716378
1761506010937077000,7.853076904296875,0.00020945630967617035,0.0005721196066588163,-0.00008768984116613865
1761506010947113000,7.863113037109375,-0.002413383685052395,-0.0023118152748793364,-0.0018449552590027452
1761506010957149000,7.87314892578125,0.00038719596341252327,-0.0006782324053347111,-0.0007565213600173593
1761506010967184100,7.88318408203125,-0.002077180426567793,-0.001027398742735386,-0.0027559581212699413
1761506010977220000,7.89322021484375,0.001166283618658781,0.0023289830423891544,-0.0011668498627841473
1761506010987256000,7.903256103515625,0.0008449554443359375,0.0008446535794064403,-0.0005594054237008095
1761506010997292000,7.9132919921875,-0.003928760997951031,-0.0003628237172961235,-0.0006257181521505117
1761506011007328000,7.923327880859375,-0.0007604961283504963,0.0007699618581682444,-0.0011917119845747948
1761506011017363000,7.933363037109375,0.0007537771016359329,0.0006650334689766169,0.00029086985159665346
1761506011027399200,7.943399169921875,-0.0005219592712819576,0.0010151269380003214,0.0006554584833793342
1761506011037435100,7.95343505859375,-0.0008420711383223534,0.0020569555927067995,-0.0007006230298429728
1761506011047471000,7.96347119140625,0.0028553432784974575,-0.00088342628441751,-0.000007680500857532024
1761506011057507000,7.973507080078125,-0.0011969227343797684,0.0013499004999175668,-0.0010465796804055572
1761506011067542000,7.9835419921875,0.0021462810691446066,0.0002773967571556568,-0.00015187670942395926
1761506011077578000,7.993577880859375,0.0009294827468693256,-0.00217137997969985,-0.00008849345613270998
1761506011087614000,8.003614013671875,0.001917996909469366,0.001990728545933962,0.0017475200584158301
1761506011097648000,8.013648193359375,0.0010247728787362576,-0.00152570940554142,0.0029286318458616734
1761506011107684000,8.02368408203125,0.00163695914670825,-0.0038428010884672403,0.0024622706696391106
1761506011117720000,8.033719970703125,0.0007373434491455555,-0.0014946919400244951,0.0025038160383701324
1761506011127756500,8.043756591796875,0.0008366531692445278,-0.00039229029789566994,0.0011898045195266604
1761506011137792500,8.05379248046875,-0.0009292890317738056,-0.0036101876758038998,-0.0013306110631674528
1761506011147827700,8.06382763671875,-0.0018536094576120377,0.0003357159439474344,-0.0009064623154699802
1761506011157863700,8.07386376953125,0.0006641428917646408,0.0014462540857493877,0.000781715614721179
1761506011167899600,8.083899658203125,0.001377058681100607,-0.001961736474186182,0.0006811951752752066
1761506011177935600,8.093935546875,0.0008444264531135559,-0.0006970015820115805,-0.0005348041886463761
1761506011187971600,8.1039716796875,0.0020376869942992926,-0.0007982966490089893,0.0012315928470343351
1761506011198006500,8.114006591796874,-0.00006647687405347824,0.0018198569305241108,-0.00023394462186843157
1761506011208042500,8.12404248046875,0.00034117838367819786,0.0015652396250516176,0.0008194238762371242
1761506011218078700,8.13407861328125,-0.0022101295180618763,-0.0020217718556523323,-0.00021947524510324
1761506011228114700,8.14411474609375,0.0018602265045046806,0.0017030072631314397,0.000027055037207901478
1761506011238150700,8.154150634765625,0.0009129401296377182,0.002131776185706258,0.0024039263371378183
1761506011248185600,8.164185546875,0.0008283890783786774,-0.00032339757308363914,-0.0016132144955918193
1761506011258221600,8.1742216796875,0.000661142636090517,-0.0009452456142753363,-0.0011269213864579797
1761506011268257500,8.184257568359374,0.0009734840132296085,-0.0007831831462681293,0.00174517126288265
1761506011278293500,8.19429345703125,-0.00029418058693408966,0.0015193858416751027,0.001915613655000925
1761506011288329700,8.204329833984374,-0.0017840052023530006,-0.0020964702125638723,-0.0018648068653419614
1761506011298364700,8.21436474609375,-0.00028118351474404335,-0.0010301405563950539,0.0015062224119901657
1761506011308400600,8.224400634765624,-0.00020148931071162224,-0.0000222744420170784,-0.0018970557721331716
1761506011318436600,8.2344365234375,-0.0014158906415104866,-0.003230584319680929,0.000040394021198153496
1761506011328472600,8.24447265625,0.0007175961509346962,-0.00018469709903001785,0.0005014064954593778
1761506011338508500,8.254508544921874,-0.0018323808908462524,-0.0018337261863052845,0.00015519559383392334
1761506011348543700,8.264543701171876,-0.0020359205082058907,-0.0028524373192340136,-0.0009020286379382014
1761506011358579700,8.274579833984374,-0.0003032675012946129,-0.002179456176236272,-0.002967309672385454
1761506011368615700,8.28461572265625,0.0016276943497359753,-0.00042613642290234566,0.002773936837911606
1761506011378651600,8.294651611328124,-0.0017878096550703049,-0.0018788906745612621,-0.0005440954118967056
1761506011388687600,8.3046875,0.0018572630360722542,0.0009035739349201322,-0.0012224653037264943
1761506011398723600,8.3147236328125,0.00024631666019558907,0.002869253046810627,-0.000034961849451065063
1761506011408758500,8.324758544921876,0.001891427207738161,0.001601495547220111,-0.00015308603178709745
1761506011418794800,8.334794677734376,0.0027486986946314573,-0.0007266397587954998,-0.0003501599421724677
1761506011428830700,8.344830810546876,-0.0017806021496653557,0.06406640261411667,0.019996780902147293
1761506011438866700,8.35486669921875,-0.0031625162810087204,0.2541487216949463,0.060390010476112366
1761506011448902700,8.364902587890626,-0.002886013127863407,0.13268223404884338,0.03094029799103737
1761506011458937600,8.3749375,0.005938371177762747,-0.22117650508880615,-0.04674597457051277
1761506011468973600,8.3849736328125,-0.0005666418001055717,0.04321630299091339,0.00789187103509903
1761506011479009500,8.395009521484376,-0.0005898117087781429,0.06931661069393158,0.012265580706298351
1761506011489045500,8.40504541015625,0.0015383446589112282,-0.10867142677307129,-0.025385886430740356
1761506011499081700,8.415081787109376,0.004811369813978672,-0.20542113482952118,-0.04857243224978447
1761506011509116700,8.42511669921875,-0.0009157340973615646,0.03864188492298126,0.024486767128109932
1761506011519152600,8.435152587890625,0.0009721810929477215,-0.04170648381114006,-0.006278869230300188
