time,seconds_elapsed,z,y,x
1761506003209478700,0.125478759765625,-0.005804892163723707,-0.0020000338554382324,-0.003971572034060955
1761506003219514600,0.1355146484375,-0.006372944451868534,-0.007622499484568834,-0.0007978830835781991
1761506003229550600,0.145550537109375,-0.005277053453028202,-0.0033510555513203144,-0.0023819312918931246
1761506003239585500,0.15558544921875,-0.00635030772536993,-0.004772651009261608,-0.002695119008421898
1761506003249621500,0.16562158203125,-0.0062576294876635075,-0.0027238810434937477,-0.0022426480427384377
1761506003259657700,0.17565771484375,-0.0067423246800899506,-0.0015736619243398309,-0.00012543488992378116
1761506003269693700,0.185693603515625,-0.004618720151484013,-0.002377137541770935,-0.0019568908028304577
1761506003279729700,0.195729736328125,-0.006840329151600599,-0.003468234557658434,-0.0027153589762747288
1761506003289765600,0.205765625,-0.006383863277733326,-0.0023158849216997623,-0.0016200009267777205
1761506003299800600,0.215800537109375,-0.0049737198278307915,0.0011416971683502197,-0.001344363670796156
1761506003309836500,0.22583642578125,-0.006185191683471203,-0.004563060123473406,-0.0013409015955403447
1761506003319872500,0.23587255859375,-0.004995823837816715,-0.0006311691831797361,-0.000107858024421148
1761506003329908700,0.24590869140625,-0.006535930093377829,-0.003942543640732765,-0.0025893915444612503
1761506003339944700,0.25594482421875,-0.004191549029201269,-0.004905809182673693,-0.0024671524297446012
1761506003349980700,0.265980712890625,-0.006681871134787798,-0.005505819339305162,-0.0018080200534313917
1761506003360015600,0.276015625,-0.005298092495650053,-0.005998237524181604,-0.002286856295540929
1761506003370051600,0.286051513671875,-0.007378021255135536,-0.003320961957797408,-0.0022096247412264347
1761506003380087600,0.296087646484375,-0.004483431577682495,-0.0009973538108170033,-0.0006298375665210187
1761506003390123500,0.30612353515625,-0.00529622845351696,-0.0028543761000037193,-0.00010173275222769007
1761506003400159500,0.316159423828125,-0.00785659160465002,-0.0043308325111866,-0.0024088292848318815
1761506003410195700,0.32619580078125,-0.007290669716894627,-0.003850398352369666,-0.0002697782183531672
1761506003420230700,0.336230712890625,-0.006982009392231703,-0.004653075244277716,-0.0016410398529842496
1761506003430266600,0.3462666015625,-0.0031254857312887907,0.0002633866388350725,0.0013781858142465353
1761506003440302600,0.356302490234375,-0.004884237423539162,-0.0006050702068023384,-0.0012519520241767168
1761506003450338600,0.366338623046875,-0.006334328558295965,-0.0005856291390955448,-0.0016674051294103265
1761506003460374500,0.37637451171875,-0.00549250328913331,-0.003096457337960601,-0.0006570018595084548
1761506003470409700,0.38640966796875,-0.00800519622862339,-0.003963582683354616,-0.0013116068439558148
1761506003480445700,0.39644580078125,-0.0049313753843307495,-0.004877579398453236,-0.0016993631143122911
1761506003490481700,0.406481689453125,-0.006841394584625959,-0.0034730283077806234,-0.0016706009628251195
1761506003500517600,0.416517578125,-0.00461632339283824,-0.0002711098059080541,-0.0020868529099971056
1761506003510553600,0.4265537109375,-0.0059846555814146996,-0.004286091309040785,-0.001847434788942337
1761506003520589600,0.436589599609375,-0.005561213009059429,-0.002373675350099802,-0.00216514989733696
1761506003530625800,0.446625732421875,-0.004491687286645174,-0.00430286955088377,0.0001310275256400928
1761506003540660700,0.45666064453125,-0.00401551416143775,-0.002612560987472534,-0.0008165251929312944
1761506003550696700,0.46669677734375,-0.005858155433088541,-0.002162220422178507,-0.002837331732735038
1761506003560732700,0.476732666015625,-0.006247509736567736,-0.0018628811230883002,-0.0010508833220228553
1761506003570768600,0.4867685546875,-0.00532419141381979,-0.0037824877072125673,-0.0027776770293712616
1761506003580804900,0.496804931640625,-0.0052083441987633705,-0.00039867521263659,-0.003605121048167348
1761506003590840800,0.5068408203125,-0.005839513149112463,-0.0012271846644580364,-0.0015180017799139023
1761506003600875500,0.51687548828125,-0.005967078730463982,-0.0029553098138421774,-0.0003832288784906268
1761506003610911500,0.526911376953125,-0.0046938215382397175,-0.0018977685831487179,-0.002214152133092284
1761506003620947700,0.53694775390625,-0.006060555577278137,-0.00336090917699039,-0.001957423286512494
1761506003630983700,0.546983642578125,-0.00833596009761095,-0.0029494508635252714,-0.0038458709605038166
1761506003641020000,0.55702001953125,-0.003958788700401783,-0.0020477045327425003,-0.002085787709802389
1761506003651055900,0.567055908203125,-0.006275472696870565,-0.000023169501218944788,-0.005261607468128204
1761506003661090600,0.577090576171875,-0.005555354058742523,-0.004089283756911755,-0.001347293145954609
1761506003671126500,0.58712646484375,-0.0072954632341861725,-0.0028581044171005487,-0.0017654094845056534
1761506003681162500,0.59716259765625,-0.0040914141573011875,-0.001427720650099218,-0.003299922915175557
1761506003691198500,0.607198486328125,-0.006849650293588638,-0.0012953615514561534,-0.002766757970675826
1761506003701235000,0.61723486328125,-0.003385144053027034,-0.003376888344064355,-0.001222657272592187
1761506003711271000,0.62727099609375,-0.008058725856244564,-0.00279046013019979,-0.0008237157016992569
1761506003721305600,0.6373056640625,-0.004229366313666105,0.00044288369826972485,-0.0034874093253165483
1761506003731341600,0.647341552734375,-0.005375590641051531,-0.0030003173742443323,-0.0012434299569576979
1761506003741377500,0.65737744140625,-0.006865629460662603,-0.004705006722360849,-0.0011893677292391658
1761506003751413800,0.667413818359375,-0.005848301574587822,-0.0015345134306699038,-0.0007286408799700439
1761506003761449700,0.67744970703125,-0.008008657954633236,-0.0019497001776471734,-0.0007853662245906889
1761506003771485700,0.687485595703125,-0.006876814644783735,-0.0017797905020415783,-0.0043625240214169025
1761506003781522000,0.69752197265625,-0.00643845833837986,-0.0013651363551616669,-0.0014740596525371075
1761506003791556600,0.707556640625,-0.007252320181578398,-0.0036525253672152758,-0.0013781858142465353
1761506003801592600,0.717592529296875,-0.00660570478066802,-0.006666691042482853,-0.002094842493534088
1761506003811628800,0.72762890625,-0.006811034400016069,-0.0031169636640697718,-0.000030360035452758893
1761506003821664800,0.737664794921875,-0.003849332919344306,-0.0018346516881138086,-0.0010343717876821756
1761506003831700700,0.74770068359375,-0.006570284720510244,-0.00401578051969409,-0.0023331954143941402
1761506003841736700,0.75773681640625,-0.005672533065080643,-0.005022988189011812,0.000480434246128425
1761506003851771600,0.767771728515625,-0.007607053499668837,-0.00395799009129405,-0.001561944023706019
1761506003861807900,0.777807861328125,-0.003949201665818691,-0.0015614113071933389,-0.0007131945458240807
1761506003871843800,0.78784375,-0.005803826730698347,-0.0033633061684668064,-0.0017776599852368236
1761506003881879800,0.7978798828125,-0.006960437633097172,-0.004614192992448807,-0.0014921691035851836
1761506003891915800,0.807915771484375,-0.005285043269395828,-0.002320678671821952,-0.001782187377102673
1761506003901951700,0.81795166015625,-0.006567355245351791,-0.004799815360456705,-0.0016245282022282481
1761506003911987700,0.82798779296875,-0.003388073528185487,-0.0008671252289786935,-0.0009944243356585503
1761506003922023000,0.83802294921875,-0.009936519898474216,-0.003335342975333333,0.00038456046604551375
1761506003932059000,0.848058837890625,-0.004021905828267336,-0.004094077739864588,-0.0021877868566662073
1761506003942094800,0.8580947265625,-0.006915696896612644,-0.001986984396353364,-0.0018871158827096224
1761506003952130800,0.868130859375,-0.00621022516861558,-0.0052229915745556355,-0.0020413128659129143
1761506003962166800,0.878166748046875,-0.004854143597185612,-0.0024077638518065214,-0.0011507519520819187
1761506003972202800,0.88820263671875,-0.007190801203250885,-0.003564108395949006,-0.0006793724023737013
1761506003982237700,0.89823779296875,-0.0052054147236049175,0.0004921521758660674,0.001118793967179954
1761506003992274000,0.90827392578125,-0.010211092419922352,-0.0014966964954510331,-0.0034208304714411497
1761506004002310000,0.918309814453125,-0.005576126743108034,-0.004287689458578825,-0.0020940436515957117
1761506004012345900,0.928345947265625,-0.006456301547586918,-0.005072789266705513,-0.0016072177095338702
1761506004022381800,0.9383818359375,-0.0071039823815226555,-0.0015811186749488115,0.0009502158500254154
1761506004032417800,0.948417724609375,-0.007065898738801479,-0.001859419047832489,-0.0007976167253218591
1761506004042453800,0.958453857421875,-0.005390238016843796,-0.003349990351125598,-0.0030477214604616165
1761506004052488700,0.96848876953125,-0.006432865746319294,-0.001127582392655313,0.0003507383225951344
1761506004062524700,0.978524658203125,-0.006311958190053701,-0.0031971249263733625,-0.0003281014505773783
1761506004072561000,0.988560791015625,-0.004634965676814318,-0.0023244069889187813,-0.00170761882327497
1761506004082596900,0.998596923828125,-0.00574843306094408,-0.002287655370309949,-0.0015068164793774486
1761506004092632800,1.0086328125,-0.007982292212545872,-0.00392709719017148,-0.002364886924624443
1761506004102668800,1.018668701171875,-0.0062128882855176926,-0.005930859595537186,-0.0005661880713887513
1761506004112704800,1.028704833984375,-0.004093278665095568,-0.0036075180396437645,0.00039254993316717446
1761506004122739700,1.03873974609375,-0.0049433596432209015,-0.003323891432955861,-0.00043036683928221464
1761506004132775700,1.048775634765625,-0.006658701691776514,-0.002691656816750765,-0.002388855442404747
1761506004142811600,1.058811767578125,-0.005380117800086737,-0.002153698354959488,-0.0024740765802562237
1761506004152848000,1.068847900390625,-0.007859254255890846,-0.005047488957643509,-0.0009227853151969612
1761506004162883800,1.0788837890625,-0.00532445777207613,-0.002377403900027275,-0.0035481294617056847
1761506004172919800,1.088919921875,-0.00549223693087697,-0.0003640541108325124,-0.0015686018159613013
1761506004182955800,1.098955810546875,-0.006253102328628302,-0.0023334617726504803,-0.0014713965356349945
1761506004192990700,1.10899072265625,-0.00669465446844697,-0.003035471076145768,-0.001597896683961153
1761506004203026700,1.119026611328125,-0.006669886875897646,-0.0027001791168004274,0.0024921861477196217
1761506004213062700,1.129062744140625,-0.0073228939436376095,-0.003323625074699521,-0.0017595505341887474
1761506004223099000,1.139098876953125,-0.0073316823691129684,-0.0012599414912983775,-0.0005318332696333528
1761506004233134800,1.149134765625,-0.005633118096739054,-0.003312173532322049,-0.002430400811135769
1761506004243170800,1.1591708984375,-0.006112753413617611,-0.0018322548130527139,-0.0015611450653523207
1761506004253206800,1.169206787109375,-0.00395585922524333,-0.0035294874105602503,-0.001895105466246605
1761506004263241700,1.17924169921875,-0.005847502965480089,-0.005246427375823259,-0.0017728663515299559
1761506004273277700,1.189277587890625,-0.0049124667420983315,-0.0034357442054897547,-0.001618403010070324
1761506004283313700,1.199313720703125,-0.005995574407279491,-0.0028067054226994514,-0.001163268811069429
1761506004293349600,1.209349609375,-0.005342034623026848,-0.0009432916413061321,-0.002493251347914338
1761506004303385900,1.2193857421875,-0.006819290108978748,-0.002858903491869569,-0.00008255799184553325
1761506004313421800,1.229421875,-0.007094128523021936,-0.0028599686920642853,-0.0008668589289300144
1761506004323457800,1.239457763671875,-0.00407623453065753,-0.001659948262386024,-0.00004846953015658073
1761506004333492700,1.24949267578125,-0.003594202222302556,-0.004759867675602436,0.0001555285998620093
1761506004343528700,1.25952880859375,-0.005628058221191168,-0.002103098202496767,-0.002587793627753854
1761506004353564700,1.269564697265625,-0.007521831896156073,-0.0007603325066156685,0.0002671150432433933
1761506004363600600,1.2796005859375,-0.006234460044652224,0.00025752768851816654,-0.0027720844373106956
1761506004373636600,1.28963671875,-0.003899933071807027,-0.0033270870335400105,-0.000031691615731688216
1761506004383672800,1.2996728515625,-0.00803422462195158,-0.0008423578692600131,-0.0009329052991233766
1761506004393708800,1.309708740234375,-0.00529463030397892,0.0012607404496520758,-0.0027350664604455233
1761506004403744800,1.319744873046875,-0.006155097857117653,-0.004119910299777985,0.00010120012302650139
1761506004413779700,1.32977978515625,-0.005376123357564211,-0.0017571536591276526,-0.0023124227300286293
1761506004423815700,1.339815673828125,-0.006559898145496845,-0.002907373011112213,-0.00023915186466183513
1761506004433851600,1.3498515625,-0.0051835766062140465,-0.004495149478316307,-0.0014090784825384617
1761506004443887600,1.3598876953125,-0.006930876523256302,-0.000657534459605813,-0.0034293525386601686
1761506004453923600,1.369923583984375,-0.006878145970404148,-0.002089516259729862,-0.0023188143968582153
1761506004463959800,1.379959716796875,-0.0038035267498344183,-0.0017598168924450874,-0.003032275242730975
1761506004473995800,1.389995849609375,-0.005519134923815727,-0.005506617948412895,-0.00022796659322921187
1761506004484030700,1.40003076171875,-0.006142847239971161,-0.0024836640805006027,-0.001669003046117723
1761506004494066700,1.410066650390625,-0.00675324397161603,-0.0016919062472879887,0.00020160128769930452
1761506004504102700,1.4201025390625,-0.004086087923496962,-0.003382214577868581,-0.001856755930930376
1761506004514138600,1.430138671875,-0.00765871861949563,-0.000586161739192903,-0.002083390951156616
1761506004524174600,1.440174560546875,-0.0035294874105602503,-0.003940146882086992,-0.0032519858796149492
1761506004534210600,1.45021044921875,-0.006930876523256302,-0.0006655239267274737,-0.0016245282022282481
1761506004544246800,1.460246826171875,-0.0044381581246852875,-0.0017627463676035404,-0.0016652746126055717
1761506004554281700,1.47028173828125,-0.0062368568032979965,-0.004048537462949753,-0.0016367788193747401
1761506004564317700,1.480317626953125,-0.00606534956023097,-0.00574843306094408,-0.0014708638191223145
1761506004574353700,1.490353759765625,-0.005702360533177853,-0.0034432008396834135,-0.004034422803670168
1761506004584389600,1.5003896484375,-0.008027566596865654,-0.0033752904273569584,-0.001642637769691646
1761506004594425600,1.510425537109375,-0.007866178639233112,-0.0027806065045297146,-0.0032439965289086103
1761506004604461600,1.520461669921875,-0.007101318798959255,-0.0008695221040397882,-0.0018756643403321505
1761506004614497500,1.53049755859375,-0.005851497408002615,-0.003879959462210536,-0.002079928759485483
1761506004624533800,1.54053369140625,-0.007463508751243353,-0.004156928043812513,-0.0019086875254288316
1761506004634568700,1.550568603515625,-0.003203516360372305,-0.006673082709312439,-0.0008008125587366521
1761506004644604700,1.560604736328125,-0.005982525181025267,-0.002537726191803813,-0.0005757753970101476
1761506004654640600,1.570640625,-0.007979363203048706,-0.003913515247404575,-0.0006593986763618886
1761506004664676600,1.580676513671875,-0.00726563623175025,-0.0007403587806038558,-0.0036077843979001045
1761506004674712600,1.590712646484375,-0.00689066294580698,-0.0017827199772000313,-0.0031182952225208282
1761506004684748500,1.60074853515625,-0.0036216326989233494,-0.0022128205746412277,-0.0024956483393907547
1761506004694784800,1.61078466796875,-0.007032875902950764,-0.004222175572067499,-0.004095409065485001
1761506004704819700,1.62081982421875,-0.004293015692383051,-0.003261040663346648,-0.0006420881254598498
1761506004714855700,1.630855712890625,-0.005161472596228123,-0.001806155894882977,-0.0023638217244297266
1761506004724891600,1.6408916015625,-0.005179315805435181,-0.003933488857001066,-0.001088966615498066
1761506004734927600,1.650927734375,-0.004875715356320143,-0.003487143199890852,-0.0015896408585831523
1761506004744963600,1.660963623046875,-0.006061621010303497,-0.0034434671979397535,-0.0001675128296483308
1761506004754999600,1.67099951171875,-0.0041675809770822525,-0.001793905277736485,-0.0022855247370898724
1761506004765035500,1.681035400390625,-0.007586546707898378,-0.005503688473254442,-0.0034115093294531107
1761506004775070700,1.69107080078125,-0.005150021053850651,-0.003745203372091055,-0.0015576828736811876
1761506004785106700,1.701106689453125,-0.007149522192776203,-0.003626426449045539,-0.004320978652685881
1761506004795142700,1.711142578125,-0.0054299188777804375,0.00019760655413847417,-0.0027827369049191475
1761506004805178600,1.7211787109375,-0.006704241503030062,-0.0051835766062140465,-0.001005343277938664
1761506004815214600,1.731214599609375,-0.0051537491381168365,-0.0011590076610445976,-0.0030312100425362587
1761506004825250800,1.741250732421875,-0.004178766161203384,-0.0014687333023175597,-0.0013811152894049883
1761506004835286800,1.751286865234375,-0.007849134504795074,-0.0020636834669858217,0.00002902845517382957
1761506004845322800,1.76132275390625,-0.004067446105182171,-0.006954045966267586,-0.004887965973466635
1761506004855357700,1.771357666015625,-0.005851231049746275,-0.003239202778786421,-0.0016045545926317573
1761506004865393700,1.7813935546875,-0.0064925202168524265,-0.0007006776868365705,-0.00024527712957933545
1761506004875429600,1.7914296875,-0.004757470916956663,-0.001948634977452457,0.001377653214149177
1761506004885465900,1.8014658203125,-0.004878644831478596,-0.00392816262319684,-0.0005811017472296953
1761506004895501800,1.811501708984375,-0.005479720421135426,-0.003425357863306999,-0.0025473134592175484
1761506004905537800,1.821537841796875,-0.0070858728140592575,-0.0029348034877330065,-0.0020128171890974045
1761506004915573800,1.83157373046875,-0.006125004030764103,-0.003328684950247407,-0.0014413028256967664
1761506004925608700,1.841608642578125,-0.006736732088029385,-0.0020154803059995174,-0.0002511360798962414
1761506004935645000,1.85164501953125,-0.0067753479816019535,-0.004773716442286968,-0.0018229337874799967
1761506004945681000,1.861680908203125,-0.007693339604884386,-0.0017241304740309715,-0.0025712819769978523
1761506004955716900,1.871716796875,-0.004102599807083607,-0.005898901727050543,0.0010980212828144431
1761506004965752800,1.8817529296875,-0.005933789070695639,-0.0041524008847773075,-0.0005605954211205244
1761506004975788800,1.891788818359375,-0.004193147178739309,-0.0016684704460203648,0.0024533038958907127
1761506004985824800,1.90182470703125,-0.006097573786973953,-0.001076715998351574,-0.003431216813623905
1761506004995860700,1.91186083984375,-0.006203034892678261,-0.005380384158343077,-0.0017515610670670867
1761506005005896000,1.92189599609375,-0.004767591133713722,-0.0009408948244526982,-0.0010226538870483637
1761506005015932000,1.931931884765625,-0.00498011102899909,-0.002252501668408513,-0.003172357566654682
1761506005025967900,1.9419677734375,-0.0035630431957542896,-0.0046629286371171474,-0.001719603082165122
1761506005036003800,1.95200390625,-0.0076211681589484215,-0.003460245206952095,-0.0018210695125162601
1761506005046039800,1.962039794921875,-0.006614493206143379,-0.002162220422178507,-0.0009752495680004358
1761506005056075800,1.97207568359375,-0.004316451493650675,-0.0041151163168251514,-0.0023185480386018753
1761506005066111700,1.98211181640625,-0.0057532270438969135,-0.0020564929582178593,-0.0012958941515535116
1761506005076147000,1.99214697265625,-0.008058725856244564,-0.004011253360658884,0.0012444951571524143
1761506005086183000,2.002182861328125,-0.007452589925378561,-0.0008253136184066534,-0.002838397165760398
1761506005096219000,2.012218994140625,-0.00577852688729763,-0.003094326937571168,-0.001166198286227882
1761506005106254800,2.0222548828125,-0.006681604776531458,-0.0037055222783237696,-0.0010926949325948954
1761506005116290800,2.032290771484375,-0.005056810099631548,-0.002275937469676137,-0.0018112158868461847
1761506005126326800,2.042326904296875,-0.0052022188901901245,-0.003201385959982872,-0.0023401195649057627
1761506005136362800,2.05236279296875,-0.006685333326458931,-0.002252768026664853,-0.0016407734947279096
1761506005146398000,2.06239794921875,-0.00669305631890893,-0.004816060420125723,-0.001255946815945208
1761506005156434000,2.072433837890625,-0.004228567238897085,-0.0026381274219602346,-0.0013662016717717052
1761506005166470000,2.082469970703125,-0.00675244489684701,-0.002697515767067671,-0.00001704423084447626
1761506005176505900,2.092505859375,-0.004881307948380709,-0.001856489572674036,-0.0011861718958243728
1761506005186541800,2.102541748046875,-0.004209924954921007,-0.0034147051628679037,-0.000678307143971324
1761506005196577800,2.112577880859375,-0.00529676117002964,-0.003838680451735854,0.000892691605258733
1761506005206613800,2.12261376953125,-0.0057316552847623825,-0.0028093685396015644,-0.000477504770969972
1761506005216649700,2.132649658203125,-0.004823783412575722,-0.0028511802665889263,-0.00047936898772604764
1761506005226685000,2.142684814453125,-0.002966228872537613,-0.0016245282022282481,-0.0015249260468408465
1761506005236721000,2.152720947265625,-0.006571882404386997,-0.003634415799751878,-0.0020607539918273687
1761506005246756900,2.1627568359375,-0.006295179948210716,-0.004304200876504183,0.0007206514128483832
1761506005256792800,2.172792724609375,-0.004118045791983604,-0.0022082931827753782,-0.00020000340009573847
1761506005266828800,2.182828857421875,-0.005588643718510866,0.0002540655550546944,-0.0016852483386173844
1761506005276864800,2.19286474609375,-0.0054610781371593475,-0.003102849004790187,-0.00210629403591156
1761506005286900700,2.202900634765625,-0.005903429351747036,-0.000003728425554072601,-0.00017470336752012372
1761506005296935700,2.212935791015625,-0.0057401773519814014,-0.004023237619549036,-0.0012311793398112059
1761506005306972000,2.222971923828125,-0.005970274563878775,-0.004324174486100674,-0.002311357529833913
1761506005317008000,2.2330078125,-0.005546299275010824,-0.0001816275907913223,0.0009001484140753746
1761506005327043800,2.2430439453125,-0.007239004597067833,-0.004997954238206148,-0.0001877528557088226
1761506005337079800,2.253079833984375,-0.005902097560465336,-0.001600293442606926,-0.0034133736044168472
1761506005347115800,2.26311572265625,-0.0041002025827765465,-0.004123106133192778,-0.002864762442186475
1761506005357152000,2.273152099609375,-0.007259244564920664,-0.003936151973903179,-0.0020847225096076727
1761506005367186700,2.283186767578125,-0.006327404174953699,-0.004308994393795729,-0.0005629922379739583
1761506005377222700,2.29322265625,-0.005517803598195314,-0.003457582090049982,0.0004362257895991206
1761506005387259000,2.3032587890625,-0.005371329374611378,-0.00205249828286469,-0.0016458334866911173
1761506005397294800,2.313294921875,-0.005176652688533068,-0.002314020646736026,-0.0023574302904307842
1761506005407331000,2.3233310546875,-0.007674431428313255,-0.003967577591538429,-0.002862365450710058
1761506005417367000,2.333366943359375,-0.004869057331234217,-0.002883404493331909,-0.0034914042335003614
1761506005427403000,2.343403076171875,-0.008007858879864216,-0.0008098672842606902,-0.0031396006233990192
1761506005437439000,2.35343896484375,-0.006960703991353512,-0.0038890140131115913,-0.0031004520133137703
1761506005447473700,2.3634736328125,-0.0060179452411830425,-0.0028700886759907007,-0.006077599711716175
1761506005457509600,2.373509521484375,-0.005938050337135792,-0.0033920682035386562,-0.0022543659433722496
1761506005467546000,2.383546142578125,-0.006570817437022924,-0.0024839304387569427,-0.0004958806093782187
1761506005477582000,2.39358203125,-0.006935670506209135,-0.004632036201655865,-0.0017590179340913892
1761506005487618000,2.4036181640625,-0.006876281928271055,-0.0007166566210798919,-0.001689775730483234
1761506005497654000,2.413654052734375,-0.005212338641285896,-0.0030477214604616165,-0.0014168017078191042
1761506005507690000,2.42368994140625,-0.005047488957643509,-0.0036362800747156143,0.00005512743518920615
1761506005517725000,2.433724853515625,-0.006116748321801424,-0.0026253440883010626,-0.0024831313639879227
1761506005527761000,2.443760986328125,-0.006762032397091389,-0.0012338425731286407,-0.003114300547167659
1761506005537796900,2.453796875,-0.004286624025553465,-0.004178766161203384,-0.000841825210954994
1761506005547833000,2.4638330078125,-0.00780492601916194,-0.003364637726917863,0.00013875069271307439
1761506005557869000,2.473869140625,-0.006174006499350071,-0.0038663772866129875,-0.00012117382721044123
1761506005567905000,2.483905029296875,-0.007318899035453796,-0.003912183456122875,-0.0008982842555269599
1761506005577941000,2.49394091796875,-0.004936435259878635,-0.003936151973903179,0.00006418218254111707
1761506005587976000,2.503975830078125,-0.006460828706622124,-0.004841094370931387,-0.0010050770360976458
1761506005598012000,2.514011962890625,-0.005976133514195681,-0.0054277884773910046,-0.0021252024453133345
1761506005608047900,2.5240478515625,-0.005589442327618599,-0.001261805766262114,-0.00024208133982028812
1761506005618083800,2.534083740234375,-0.004988899454474449,-0.004289287142455578,-0.0005528722540475428
1761506005628120000,2.5441201171875,-0.004991828929632902,-0.0005957491230219603,-0.0023912524338811636
1761506005638156000,2.554156005859375,-0.006888798903673887,-0.0017182715237140656,-0.0010335728293284774
1761506005648192000,2.56419189453125,-0.005861617624759674,-0.0021260015200823545,-0.003549993736669421
1761506005658227000,2.57422705078125,-0.008658736012876034,-0.004781972151249647,-0.0025569009594619274
1761506005668263000,2.584262939453125,-0.0060262009501457214,-0.0035835495218634605,-0.002124403603374958
1761506005678299000,2.594298828125,-0.006923153530806303,-0.001913481275551021,-0.0014261227333918214
1761506005688334800,2.6043349609375,-0.004707137122750282,-0.002913231961429119,-0.0009960222523659468
1761506005698370800,2.614370849609375,-0.004814994987100363,-0.005756688769906759,-0.0017038905061781406
1761506005708407000,2.624406982421875,-0.003430950455367565,-0.0012247877893969417,-0.0015241270884871483
1761506005718443000,2.634443115234375,-0.005003014579415321,-0.0021078919526189566,-0.0027110979426652193
1761506005728478000,2.64447802734375,-0.004778509959578514,-0.0021113541442900896,-0.002380866091698408
1761506005738514000,2.654513916015625,-0.006867227144539356,-0.0033965955954045057,-0.0008442220860160887
1761506005748550000,2.6645498046875,-0.0062640211544930935,-0.0013102752855047584,-0.00009747169679030776
1761506005758585900,2.6745859375,-0.006166283041238785,-0.003659183392301202,-0.0008815063047222793
1761506005768621800,2.684621826171875,-0.006934605073183775,-0.005586246494203806,-0.002298840554431081
1761506005778657800,2.69465771484375,-0.007751929108053446,-0.004463457968086004,-0.004108192399144173
1761506005788694000,2.704694091796875,-0.005425391718745232,-0.0020897823851555586,-0.002585396869108081
1761506005798729000,2.71472900390625,-0.005739378277212381,-0.003549461020156741,-0.0006173207075335085
1761506005808765000,2.724764892578125,-0.005321794655174017,-0.004682902246713638,-0.00035420042695477605
1761506005818801000,2.73480078125,-0.005816610064357519,-0.0038011297583580017,-0.0025036376900970936
1761506005828836900,2.7448369140625,-0.005556685384362936,-0.004590224474668503,-0.0012926984345540404
1761506005838872800,2.754872802734375,-0.005555087700486183,-0.0005834985640831292,-0.003147856332361698
1761506005848908800,2.76490869140625,-0.004060521721839905,-0.002719087526202202,-0.0017811221769079566
1761506005858944800,2.77494482421875,-0.005742840468883514,-0.0030184267088770866,-0.0012535499408841133
1761506005868980000,2.78497998046875,-0.0060262009501457214,-0.005798766855150461,-0.0021494373213499784
1761506005879016000,2.795015869140625,-0.007286142557859421,-0.0016900419723242521,0.0006799050024710596
1761506005889052000,2.805052001953125,-0.006850183010101318,-0.005645901430398226,-0.0018141453620046377
1761506005899088000,2.815087890625,-0.005780657287687063,-0.0035233621019870043,-0.0003528688393998891
1761506005909123800,2.825123779296875,-0.007820638827979565,-0.0020482372492551804,-0.0005688511882908642
1761506005919159800,2.835159912109375,-0.004577707499265671,-0.0020937772933393717,-0.0022386531345546246
1761506005929195800,2.84519580078125,-0.007668572477996349,-0.0030772825703024864,-0.0008855010382831097
1761506005939231000,2.85523095703125,-0.004512726329267025,-0.00256355875171721,-0.004323375876992941
1761506005949267000,2.865266845703125,-0.007010771427303553,-0.000987500068731606,-0.0025917883031070232
1761506005959303000,2.875302978515625,-0.005766009911894798,-0.004081560764461756,-0.001442900625988841
1761506005969339000,2.8853388671875,-0.005008074454963207,-0.007041131611913443,-0.004591289907693863
1761506005979374800,2.895374755859375,-0.007165235001593828,-0.0027917916886508465,-0.0018722022650763392
1761506005989410800,2.905410888671875,-0.005034972447901964,-0.003067695302888751,0.0000031957933970261365
1761506005999446800,2.91544677734375,-0.008957276120781898,-0.0008064051507972181,-0.0011491540353745222
1761506006009482000,2.92548193359375,-0.006204099860042334,-0.0029710223898291588,-0.0017675400013104081
1761506006019518000,2.93551806640625,-0.006983873434364796,-0.0025928535033017397,-0.0018495653057470918
1761506006029554000,2.945553955078125,-0.005752161610871553,-0.0036882117856293917,-0.0010072075529024005
1761506006039590000,2.95558984375,-0.0076512619853019714,-0.002142513170838356,-0.002110288944095373
1761506006049625900,2.9656259765625,-0.00759933004155755,-0.002406965009868145,-0.002234924817457795
1761506006059661800,2.975661865234375,-0.0075665730983018875,-0.0027023095171898603,-0.0024927188642323017
1761506006069697800,2.98569775390625,-0.005811550188809633,-0.0015603461069986224,-0.00025353292585350573
1761506006079733000,2.99573291015625,-0.0070674968883395195,-0.003043194068595767,-0.0011294466676190495
1761506006089769000,3.00576904296875,-0.007711715530604124,-0.00236328924074769,-0.0022144184913486242
1761506006099805000,3.015804931640625,-0.005020857788622379,-0.00253426400013268,-0.0034461303148418665
1761506006109841000,3.0258408203125,-0.007899468764662743,-0.003862116253003478,-0.0006157228490337729
1761506006119877600,3.035877685546875,-0.005853627808392048,-0.003099386813119054,-0.0023965786676853895
1761506006129913600,3.04591357421875,-0.005520733073353767,-0.00446958327665925,-0.000045540054998127744
1761506006139949600,3.055949462890625,-0.005057342816144228,-0.0017025588313117623,-0.0024772724136710167
1761506006149984500,3.065984619140625,-0.006060821935534477,-0.003681021276861429,-0.0009563411585986614
1761506006160020500,3.0760205078125,-0.004904743749648333,0.0003230414295103401,-0.003561445279046893
1761506006170056700,3.086056640625,-0.007269630674272776,-0.002454102970659733,-0.0016168050933629274
1761506006180092700,3.0960927734375,-0.008224640041589737,-0.0028130970895290375,-0.0009651295840740204
1761506006190128600,3.106128662109375,-0.0052442969754338264,-0.003070092061534524,-0.0016157397767528892
1761506006200164600,3.11616455078125,-0.007237406447529793,-0.004894357640296221,0.0001179780374513939
1761506006210200600,3.12620068359375,-0.008470450527966022,-0.004279433749616146,-0.0011374361347407103
1761506006220235500,3.136235595703125,-0.007574296556413174,0.0013440974289551377,-0.0023212111555039883
1761506006230271500,3.146271484375,-0.007273359224200249,-0.004251203965395689,-0.0010575412306934595
1761506006240307500,3.156307373046875,-0.0037561224307864904,-0.0025627599097788334,-0.0012956279097124934
1761506006250343700,3.16634375,-0.006858971435576677,-0.003355849301442504,-0.00210602767765522
1761506006260379600,3.176379638671875,-0.005291700828820467,-0.0020548950415104628,-0.0016977651976048946
1761506006270415600,3.18641552734375,-0.005859753116965294,-0.0008311725687235594,-0.000957939017098397
1761506006280450600,3.196450439453125,-0.005047488957643509,-0.003174221608787775,-0.004449609667062759
1761506006290486500,3.206486572265625,-0.007812649011611938,-0.004218979738652706,-0.0016282566357403994
1761506006300522500,3.2165224609375,-0.006262955721467733,-0.0028128307312726974,-0.001835716888308525
1761506006310558500,3.226558349609375,-0.005798234138637781,-0.002046639332547784,-0.0027470507193356752
1761506006320594400,3.236594482421875,-0.005169728305190802,-0.0033358754590153694,-0.0025129588320851326
1761506006330630700,3.246630615234375,-0.004400074947625399,-0.003171824850142002,-0.0034256239887326956
1761506006340666600,3.25666650390625,-0.003960919566452503,-0.004413124173879623,-0.0023212111555039883
1761506006350701600,3.26670166015625,-0.00503870053216815,-0.004020840395241976,-0.0015970977256074548
1761506006360737500,3.276737548828125,-0.00797510240226984,-0.001315068919211626,-0.0009571401169523597
1761506006370773500,3.2867734375,-0.004028830211609602,-0.003910852130502462,-0.0032863407395780087
1761506006380809500,3.2968095703125,-0.00444002216681838,-0.0006378270918503404,0.00008921589324017987
1761506006390845400,3.306845458984375,-0.0064975805580616,-0.002118278294801712,-0.0038690404035151005
1761506006400881400,3.31688134765625,-0.006952181924134493,-0.004485561978071928,-0.0018575548892840743
1761506006410917600,3.326917724609375,-0.0041244374588131905,-0.002778209513053298,-0.003275688039138913
1761506006420952600,3.33695263671875,-0.006083725020289421,-0.0059809270314872265,-0.0006652576266787946
1761506006430988500,3.346988525390625,-0.00836658664047718,0.00047377636656165123,-0.0008396946941502392
1761506006441024500,3.3570244140625,-0.005089300684630871,-0.004644286818802357,-0.00115421402733773
1761506006451060500,3.367060546875,-0.004249073565006256,-0.0013760552974417806,-0.001526257605291903
1761506006461096400,3.377096435546875,-0.005032042972743511,-0.0032527849543839693,-0.0026192190125584602
1761506006471132400,3.38713232421875,-0.009002283215522766,-0.0015523566398769617,-0.00021917815320193768
1761506006481168400,3.39716845703125,-0.006148972548544407,-0.001985120354220271,-0.0012841762509196997
1761506006491203600,3.40720361328125,-0.0049279131926596165,-0.00427277572453022,-0.00043835630640387535
1761506006501239600,3.417239501953125,-0.005547896958887577,-0.0005203816690482199,-0.0013214604696258903
1761506006511275500,3.427275634765625,-0.005348159931600094,-0.002292981604114175,-0.0016900419723242521
1761506006521311500,3.4373115234375,-0.007661648094654083,-0.0015632755821570754,0.001383245806209743
1761506006531347500,3.447347412109375,-0.0052171326242387295,-0.002877279184758663,-0.0016919062472879887
1761506006541383400,3.457383544921875,-0.00606268597766757,-0.0033369408920407295,-0.0008604673203080893
1761506006551418600,3.467418701171875,-0.005529521498829126,-0.003635481232777238,-0.0025691515766084194
1761506006561454600,3.47745458984375,-0.005366003140807152,-0.006791327148675919,-0.001517735538072884
1761506006571490600,3.487490478515625,-0.006443518213927746,-0.004512193612754345,-0.0032413334120064974
1761506006581526500,3.497526611328125,-0.006277869455516338,0.00008868326403899118,-0.0004239752306602895
1761506006591562500,3.5075625,-0.008706139400601387,-0.0027654264122247696,-0.0007395598222501576
1761506006601598500,3.517598388671875,-0.004505003336817026,-0.001844505313783884,-0.00020426444825716317
1761506006611633700,3.527633544921875,-0.008347944356501102,-0.002375007141381502,-0.002168079372495413
1761506006621669600,3.537669677734375,-0.005592371802777052,-0.0029345371294766665,-0.001868473831564188
1761506006631705600,3.54770556640625,-0.005612611770629883,-0.006621683482080698,-0.0024112260434776545
1761506006641741600,3.557741455078125,-0.006917294580489397,0.000627707049716264,-0.0011885687708854675
1761506006651777500,3.567777587890625,-0.00603498937562108,-0.0015001586871221662,-0.002799248555675149
1761506006661813500,3.5778134765625,-0.00512738386169076,-0.003945473115891218,-0.0018556906143203378
1761506006671849500,3.587849365234375,-0.004218979738652706,-0.0029553098138421774,-0.001669003046117723
1761506006681884400,3.597884521484375,-0.007230748422443867,-0.0035862126387655735,-0.001710548298433423
1761506006691920600,3.607920654296875,-0.005572398193180561,-0.0046903593465685844,-0.003058107802644372
1761506006701956600,3.61795654296875,-0.004756405483931303,-0.0029204224701970816,-0.0028961875941604376
1761506006711992600,3.62799267578125,-0.006873086094856262,-0.003674629610031843,-0.002603239845484495
1761506006722028500,3.638028564453125,-0.004069576505571604,-0.0006087986403144896,0.0005512743373401463
1761506006732064500,3.648064453125,-0.003931358456611633,-0.0032469260040670633,-0.0036456012167036533
1761506006742100500,3.6581005859375,-0.007438475266098976,-0.002065015025436878,-0.001977929612621665
1761506006752135400,3.668135498046875,-0.004854143597185612,-0.002603239845484495,-0.0010104032699018717
1761506006762171400,3.67817138671875,-0.005608617328107357,-0.0007536745979450643,0.000523577444255352
1761506006772207600,3.68820751953125,-0.007267233915627003,0.0009568737586960196,-0.0015928366919979453
1761506006782243600,3.69824365234375,-0.006058957893401384,-0.0031614385079592466,-0.001514539704658091
1761506006792279600,3.708279541015625,-0.006006493698805571,-0.006199039984494448,-0.001564873498864472
1761506006802315500,3.7183154296875,-0.0052200620993971825,-0.004291950259357691,-0.002350505907088518
1761506006812350500,3.7283505859375,-0.005367867648601532,-0.005555620416998863,-0.0033510555513203144
1761506006822386400,3.738386474609375,-0.005351622123271227,-0.002118811011314392,-0.0034466630313545465
1761506006832422400,3.74842236328125,-0.006447513122111559,-0.0017496967921033502,-0.0005866943974979222
1761506006842458400,3.758458251953125,-0.0037707698065787554,-0.0027142937760800123,-0.000663393409922719
1761506006852494600,3.76849462890625,-0.007374825421720743,-0.002204298507422209,-0.0032314795535057783
1761506006862530600,3.778530517578125,-0.006561496295034885,-0.002130795270204544,-0.0026019082870334387
1761506006872566500,3.78856640625,-0.007266967557370663,-0.0034943337086588144,0.0003038666909560561
1761506006882601500,3.7986015625,-0.007229150738567114,-0.0035268242936581373,-0.0024194817524403334
1761506006892637400,3.808637451171875,-0.0037910097744315863,-0.004345213528722525,-0.0022479742765426636
1761506006902673400,3.81867333984375,-0.007165235001593828,-0.0023315974976867437,-0.0019204054260626435
1761506006912709400,3.82870947265625,-0.006039782892912626,-0.0006386260502040386,-0.0009677927591837943
1761506006922745300,3.838745361328125,-0.0037441381718963385,-0.002609098795801401,0.00019467707898002118
1761506006932781600,3.848781494140625,-0.005411543417721987,-0.006713296286761761,-0.0017712684348225594
1761506006942816500,3.85881640625,-0.006690393202006817,-0.0017454357584938407,0.00054142065346241
1761506006952852500,3.8688525390625,-0.0059907808899879456,-0.0018077536951750517,-0.0014474280178546906
1761506006962888400,3.878888427734375,-0.005150287412106991,-0.0019283948931843042,-0.0032112395856529474
1761506006972924400,3.88892431640625,-0.005575860384851694,-0.0036666402593255043,-0.003296460723504424
1761506006982960400,3.89896044921875,-0.009438242763280869,-0.0025843314360827208,-0.0016588830621913075
1761506006992996400,3.908996337890625,-0.006132194772362709,-0.0046821036376059055,-0.0007701861904934049
1761506007003031600,3.919031494140625,-0.004057592246681452,-0.003227484878152609,-0.001567802974022925
1761506007013067500,3.929067626953125,-0.0038069887086749077,-0.002841326640918851,-0.0018905780743807554
1761506007023103500,3.939103515625,-0.007333280518651009,-0.0011627360945567489,-0.002817358123138547
1761506007033139500,3.949139404296875,-0.00415399856865406,-0.0032296155113726854,-0.0009353021741844714
1761506007043175400,3.959175537109375,-0.007003581151366234,-0.0017584852175787091,-0.0033683660440146923
1761506007053211400,3.96921142578125,-0.005663744639605284,-0.002692455891519785,-0.0024546354543417692
1761506007063247400,3.979247314453125,-0.005024053156375885,-0.0019651465117931366,-0.00250496924854815
1761506007073282600,3.989282470703125,-0.006337258033454418,-0.0062453788705170155,-0.003266899613663554
1761506007083318500,3.999318603515625,-0.004670652095228434,-0.0011880361707881093,-0.00038296254933811724
1761506007093354500,4.0093544921875,-0.004927380476146936,-0.001067661214619875,-0.0008178567513823509
1761506007103389400,4.019389404296875,-0.005310609471052885,-0.0037976677995175123,-0.0016974988393485546
1761506007113425400,4.02942529296875,-0.0060328589752316475,-0.002939597237855196,-0.0025947177782654762
1761506007123461000,4.039461181640625,-0.00387276872061193,-0.003695668652653694,0.000925448490306735
1761506007133497000,4.0494970703125,-0.00791624654084444,-0.002516953507438302,-0.003612311789765954
1761506007143533000,4.059532958984375,-0.006878678686916828,-0.00043542683124542236,-0.0007305050967261195
1761506007153569000,4.069569091796875,-0.0052951630204916,-0.004444282967597246,0.0002860235108528286
1761506007163604000,4.07960400390625,-0.0074619110673666,-0.00267780851572752,-0.0028061727061867714
1761506007173640000,4.089639892578125,-0.006674148142337799,-0.001966744428500533,0.0002069276088150218
1761506007183676000,4.099676025390625,-0.0046754456125199795,-0.003621100215241313,0.0007432882557623088
1761506007193711900,4.1097119140625,-0.003916178364306688,-0.0005747101386077702,-0.0005147890187799931
1761506007203748000,4.119748046875,-0.0054456316865980625,-0.004297010600566864,-0.00003861583536490798
1761506007213784000,4.1297841796875,-0.00455826660618186,-0.0019036275334656239,-0.0024082965683192015
1761506007223820000,4.139820068359375,-0.006624347064644098,-0.0031095067970454693,-0.001412806916050613
1761506007233855000,4.14985498046875,-0.005788912996649742,-0.002811232814565301,-0.0019478360190987587
1761506007243891000,4.159890869140625,-0.005284244194626808,-0.0013108078856021166,-0.0006412891671061516
1761506007253927000,4.169927001953125,-0.004400074947625399,-0.0057593523524701595,-0.0006649913266301155
1761506007263963000,4.179962890625,-0.005210474599152803,-0.004236556589603424,-0.0007211840129457414
1761506007273998800,4.189998779296875,-0.00532419141381979,0.0003057308786083013,-0.0025904567446559668
1761506007284035000,4.20003515625,-0.007705323863774538,-0.003014165675267577,-0.0007560714147984982
1761506007294070000,4.210070068359375,-0.005972671322524548,-0.0025302693247795105,-0.001978195970878005
1761506007304106000,4.22010595703125,-0.0041404166258871555,-0.0028732845094054937,-0.0022863238118588924
1761506007314142000,4.230141845703125,-0.005628590937703848,-0.0034850125666707754,-0.0018844527658075094
1761506007324178000,4.240177978515625,-0.004448011517524719,-0.00004900216299574822,-0.0036189695820212364
1761506007334214000,4.2502138671875,-0.003926298581063747,-0.002882871776819229,-0.0022216090001165867
1761506007344249900,4.260249755859375,-0.006588927004486322,-0.001791242160834372,-0.0023486416321247816
1761506007354285000,4.27028515625,-0.005281581077724695,-0.0028988507110625505,-0.0017212009988725185
1761506007364321000,4.280321044921875,-0.0059806606732308865,-0.0008399609941989183,-0.002403236459940672
1761506007374357000,4.29035693359375,-0.007474161684513092,-0.002246376359835267,-0.0005440838285721838
1761506007384393000,4.30039306640625,-0.005859220866113901,-0.0023345269728451967,0.00015100123709999025
1761506007394429000,4.310428955078125,-0.005309544038027525,-0.0032645028550177813,-0.0016351809026673436
1761506007404465000,4.32046484375,-0.00782862864434719,-0.006935404147952795,-0.002302569104358554
1761506007414500000,4.3305,-0.004589159041643143,-0.0033135050907731056,-0.002528405049815774
1761506007424536000,4.3405361328125,-0.005311408545821905,-0.0007550061563961208,-0.0017622136510908604
1761506007434572000,4.350572021484375,-0.005260542035102844,-0.005885586142539978,-0.0016269250772893429
1761506007444608000,4.36060791015625,-0.004372111521661282,-0.005726595409214497,-0.0003914846747647971
1761506007454644000,4.37064404296875,-0.006941529456526041,-0.0023813985753804445,-0.004492752719670534
1761506007464680000,4.380679931640625,-0.006700247060507536,-0.001990180229768157,-0.0026021746452897787
1761506007474715000,4.39071484375,-0.007858721539378166,-0.003962783608585596,-0.002246642718091607
1761506007484751000,4.400751220703125,-0.007024353835731745,-0.004890895448625088,-0.0011249192757532
1761506007494787000,4.410787109375,-0.006952181924134493,-0.004037352278828621,-0.00022450447431765497
1761506007504823000,4.420822998046875,-0.007035272661596537,-0.00452737370505929,-0.0006926882197149098
1761506007514859000,4.43085888671875,-0.005453621037304401,-0.002995523624122143,-0.00020879182557109743
1761506007524895000,4.44089501953125,-0.006957241799682379,-0.00355851580388844,0.0011486213188618422
1761506007534930000,4.450929931640625,-0.005793440621346235,-0.0022562299855053425,-0.0029081718530505896
1761506007544966000,4.4609658203125,-0.007875233888626099,-0.0016996293561533093,-0.0011435613268986344
1761506007555001900,4.471001953125,-0.003942010924220085,-0.002153431996703148,-0.0020628846250474453
1761506007565038000,4.4810380859375,-0.007515440694987774,-0.00427357479929924,-0.0004900216590613127
1761506007575074000,4.491073974609375,-0.005859753116965294,-0.0034946000669151545,-0.0004293015517760068
1761506007585110000,4.501110107421875,-0.004428570624440908,-0.004062918480485678,-0.0017976337112486362
1761506007595146000,4.51114599609375,-0.005560946650803089,-0.0032381375785917044,-0.002463157754391432
1761506007605181000,4.521180908203125,-0.003817907767370343,-0.0021233384031802416,0.0002937466779258102
1761506007615217000,4.531216796875,-0.006111688446253538,-0.004367584362626076,0.0006029396899975836
1761506007625252900,4.5412529296875,-0.005623264703899622,-0.0057249972596764565,-0.0013720606220886111
1761506007635288800,4.551288818359375,-0.005903429351747036,-0.003442135639488697,-0.004005394410341978
1761506007645325000,4.561324951171875,-0.006330600008368492,-0.004473045468330383,0.0022426480427384377
1761506007655361000,4.571361083984375,-0.00615296745672822,-0.002855974016711116,-0.0020865867845714092
1761506007665396000,4.58139599609375,-0.005245361942797899,-0.0019441075855866075,-0.0016389093361794949
1761506007675434000,4.59143408203125,-0.006274407263845205,-0.0021971079986542463,0.0005036037764512002
1761506007685469000,4.601468994140625,-0.003876497270539403,-0.0037494644057005644,-0.002169144805520773
1761506007695505000,4.6115048828125,-0.00436065997928381,-0.004656270612031221,0.0014202637830749154
1761506007705540900,4.621540771484375,-0.0076059880666434765,-0.004442685283720493,-0.002132659312337637
1761506007715576800,4.631576904296875,-0.00800359807908535,-0.005256547126919031,-0.0031396006233990192
1761506007725612800,4.64161279296875,-0.00518837058916688,-0.0030218889005482197,0.0004902879591099918
1761506007735648800,4.651648681640625,-0.007751130498945713,0.00009560748003423214,-0.002025333931669593
1761506007745684700,4.661684814453125,-0.006609699688851833,-0.003756921272724867,-0.0022631543688476086
1761506007755720000,4.671719970703125,-0.003276220755651593,-0.003707652911543846,0.0005147890187799931
1761506007765756000,4.681755859375,-0.002139317337423563,-0.0031033814884722233,-0.0009195895399898291
1761506007775791900,4.6917919921875,-0.004734301473945379,-0.003993942867964506,0.000011451592399680521
1761506007785827800,4.701827880859375,-0.0054821171797811985,-0.0035089810844510794,-0.0018935075495392084
1761506007795863800,4.71186376953125,-0.005964681971818209,-0.004456267226487398,-0.001966744428500533
1761506007805899800,4.721899658203125,-0.007164968643337488,-0.002019741339609027,-0.0006274407496675849
1761506007815935000,4.73193505859375,-0.00580728892236948,-0.0031912659760564566,0.0003880225704051554
1761506007825971000,4.741970947265625,-0.005056543741375208,-0.0016128103015944362,-0.00003435477628954686
1761506007836007000,4.7520068359375,-0.0065013086423277855,-0.004544950556010008,-0.0008322378271259367
1761506007846043000,4.76204296875,-0.006030195392668247,-0.0026999127585440874,-0.00018881811411119998
1761506007856078800,4.772078857421875,-0.004311657976359129,-0.0025129588320851326,-0.0032674323301762342
1761506007866114800,4.78211474609375,-0.005710882600396872,-0.0038866172544658184,-0.00236328924074769
1761506007876150000,4.79214990234375,-0.0055004931055009365,-0.0041489386931061745,-0.0013022858183830976
1761506007886186000,4.80218603515625,-0.005075186025351286,-0.004350806120783091,-0.002769421087577939
1761506007896222000,4.812221923828125,-0.003861317178234458,-0.003561445279046893,-0.0004801679460797459
1761506007906258000,4.8222578125,-0.006363090593367815,-0.002980876248329878,-0.0006237123161554337
1761506007916294000,4.8322939453125,-0.005562544334679842,0.000958205375354737,-0.0034029872622340918
1761506007926329900,4.842329833984375,-0.006607835181057453,-0.0044077979400753975,-0.0007651261985301971
1761506007936364800,4.85236474609375,-0.006878145970404148,-0.0034679684322327375,-0.0030535804107785225
1761506007946400800,4.86240087890625,-0.003151052165776491,-0.0007398261222988367,0.0011291803093627095
1761506007956437000,4.87243701171875,-0.006965763866901398,-0.004881307948380709,0.00003328951424919069
1761506007966473000,4.882472900390625,-0.005781722720712423,0.0002532666258048266,0.003103115363046527
1761506007976509000,4.892509033203125,-0.007486145943403244,-0.0021020330023020506,-0.0005904228310100734
1761506007986545000,4.902544921875,-0.006561229936778545,-0.0016940367640927434,-0.0011920308461412787
1761506007996580900,4.912580810546875,-0.006126335822045803,-0.003531085327267647,-0.0011984225129708648
1761506008006615800,4.92261572265625,-0.0038136467337608337,-0.003165699541568756,-0.002770486520603299
1761506008016651800,4.93265185546875,-0.0051838429644703865,-0.0031944618094712496,-0.0033776871860027313
1761506008026687700,4.942687744140625,-0.006524212192744017,-0.004354534670710564,-0.0030453247018158436
1761506008036724000,4.952723876953125,-0.0046538738533854485,-0.004887433256953955,-0.001484712352976203
1761506008046760000,4.962760009765625,-0.007371097337454557,-0.0007539408979937434,-0.002226136391982436
1761506008056796200,4.972796142578125,-0.002840527566149831,-0.0007651261985301971,-0.00044554684427566826
1761506008066830800,4.982830810546875,-0.007998538203537464,-0.0046445527113974094,-0.00038642468280158937
1761506008076866800,4.99286669921875,-0.005933522712439299,-0.004336957819759846,-0.0010197244118899107
1761506008086902800,5.00290283203125,-0.004769188817590475,-0.002912166528403759,-0.0017012272728607059
1761506008096938800,5.012938720703125,-0.005215534474700689,-0.004865328781306744,-0.003001648932695389
1761506008106974700,5.022974609375,-0.007505586836487055,-0.004345213528722525,-0.0012772521004080772
1761506008117011000,5.033010986328125,-0.0062642875127494335,-0.002433330286294222,-0.0008245146600529552
1761506008127046000,5.0430458984375,-0.005672533065080643,-0.0030210898257791996,-0.0005169195355847478
1761506008137081900,5.053081787109375,-0.005313538946211338,-0.0032676986884325743,-0.0013057478936389089
1761506008147117800,5.063117919921875,-0.00355798308737576,-0.0029880667570978403,-0.0027438548859208822
1761506008157153800,5.07315380859375,-0.0051923650316894054,-0.0029529130551964045,-0.002377936616539955
1761506008167189800,5.083189697265625,-0.009757023304700851,-0.0031462584156543016,0.00037710359902121127
1761506008177225700,5.093225830078125,-0.0049215215258300304,-0.0031135017052292824,-0.002138518262654543
1761506008187261000,5.103260986328125,-0.00666535971686244,-0.002877279184758663,-0.0005107942852191627
1761506008197297000,5.113296875,-0.004275438841432333,-0.003683684393763542,-0.00250496924854815
1761506008207332900,5.123332763671875,-0.00646562222391367,-0.003747866488993168,-0.0006601976347155869
1761506008217368800,5.133368896484375,-0.004995291121304035,-0.0006082659820094705,-0.0024258734192699194
1761506008227404800,5.14340478515625,-0.0075750951655209064,-0.002235191175714135,-0.0005536712124012411
1761506008237440800,5.153440673828125,-0.006567355245351791,-0.004400873556733131,-0.0033310819417238235
1761506008247476000,5.16347607421875,-0.006030195392668247,-0.0029973878990858793,-0.005879993550479412
1761506008257512000,5.173511962890625,-0.006283994764089584,-0.0020788635592907667,-0.0022983080707490444
1761506008267548000,5.1835478515625,-0.002960369922220707,-0.004670917987823486,-0.002573412610217929
1761506008277584000,5.193583984375,-0.008131962269544601,-0.0026727484073489904,-0.0025355955585837364
1761506008287619800,5.203619873046875,-0.0021949773654341698,-0.003029345767572522,-0.000782436749432236
1761506008297655800,5.21365576171875,-0.006198773626238108,-0.0037534593138843775,-0.001327053178101778
1761506008307691800,5.22369189453125,-0.004601143300533295,-0.004573712591081858,-0.0021283982787281275
1761506008317727000,5.23372705078125,-0.005922603886574507,-0.00028069718973711133,-0.002892459277063608
1761506008327763000,5.243762939453125,-0.006842725910246372,-0.0036701022181659937,-0.002436792477965355
1761506008337799000,5.253798828125,-0.005277852527797222,-0.0033358754590153694,-0.0012152004055678844
1761506008347835000,5.2638349609375,-0.006938067264854908,-0.003689010627567768,-0.0012961605098098516
1761506008357870800,5.273870849609375,-0.006925283931195736,-0.0041372207924723625,-0.0014026869321241975
1761506008367906800,5.28390673828125,-0.006439789664000273,-0.0031614385079592466,0.0006612628931179643
1761506008377941800,5.293941650390625,-0.003254382871091366,-0.003052781568840146,0.0005486111622303724
1761506008387977700,5.303977783203125,-0.006951915565878153,-0.0031201594974845648,0.00041998049709945917
1761506008398014000,5.314013916015625,-0.006455768831074238,-0.0032570459879934788,-0.0019502328941598535
1761506008408050000,5.3240498046875,-0.004259726032614708,-0.0015667376574128866,0.00040533312130719423
1761506008418086000,5.3340859375,-0.00621182331815362,-0.00276063266210258,-0.00213665422052145
1761506008428121900,5.344121826171875,-0.00561207951977849,-0.003916178364306688,-0.002014415105804801
1761506008438156800,5.35415673828125,-0.004739894066005945,-0.003367034485563636,-0.0019382486352697015
1761506008448192800,5.36419287109375,-0.005821403581649065,-0.0021843246649950743,-0.001805623178370297
1761506008458228700,5.374228759765625,-0.0067870658822357655,-0.0007563377148471773,-0.0009946906939148903
1761506008468264700,5.3842646484375,-0.007148723118007183,-0.0032402679789811373,0.0010040117194876075
1761506008478301000,5.394301025390625,-0.006302903406322002,-0.0010189254535362124,-0.002371544949710369
1761506008488337000,5.4043369140625,-0.002808569697663188,-0.0021523667965084314,-0.003491936717182398
1761506008498371800,5.414371826171875,-0.006566289812326431,-0.0005254416610114276,-0.0036133769899606705
1761506008508407800,5.42440771484375,-0.005906092468649149,0.0012737899087369442,-0.0008727178792469203
1761506008518443800,5.43444384765625,-0.0062549663707613945,-0.0019228023011237383,-0.0032378712203353643
1761506008528479700,5.444479736328125,-0.005648031830787659,-0.0020245350897312164,-0.0022021678742021322
1761506008538515700,5.454515625,-0.00541340745985508,-0.004326571244746447,0.0046296389773488045
1761506008548551700,5.4645517578125,-0.006138852797448635,-0.0031851406674832106,-0.0012253203894942999
1761506008558587000,5.4745869140625,-0.003799531841650605,-0.0026644926983863115,-0.00242107966914773
1761506008568622800,5.484622802734375,-0.004807804711163044,-0.002778742229565978,0.0012974920682609081
1761506008578658800,5.494658935546875,-0.0052046156488358974,-0.0016857809387147427,-0.0005499427788890898
1761506008588694800,5.50469482421875,-0.006677609868347645,-0.00466505903750658,0.0006135923322290182
1761506008598730800,5.514730712890625,-0.00518810423091054,-0.003465837799012661,-0.0015624766238033772
1761506008608766700,5.5247666015625,-0.005435511935502291,-0.004053863696753979,-0.0025220136158168316
1761506008618802000,5.534802001953125,-0.007281082216650248,-0.0034442662727087736,-0.0009315737406723201
1761506008628838000,5.544837890625,-0.004732969682663679,-0.0031827439088374376,-0.0005925533478148282
1761506008638873900,5.554873779296875,-0.005340436939150095,-0.0033779535442590714,0.00012516857532318681
1761506008648909800,5.564909912109375,-0.006502107717096806,-0.0021499700378626585,-0.003338538808748126
1761506008658945800,5.57494580078125,-0.00666429428383708,-0.004591023549437523,-0.0011856392957270145
1761506008668981800,5.584981689453125,-0.006396912969648838,-0.0030951257795095444,-0.0007315703551284969
1761506008679016700,5.5950166015625,-0.006758836563676596,-0.003038400551304221,-0.0015893745003268123
1761506008689053000,5.605052978515625,-0.004320712294429541,-0.0006865629111416638,-0.00101173494476825
1761506008699089000,5.6150888671875,-0.006475209724158049,-0.0046211169101297855,-0.0034823494497686625
1761506008709124900,5.625124755859375,-0.006779875606298447,-0.003311640815809369,-0.0035481294617056847
1761506008719160800,5.635160888671875,-0.005515939090400934,-0.002251702593639493,-0.001437041675671935
1761506008729196800,5.64519677734375,-0.0057188719511032104,-0.0020628846250474453,-0.0016133430181071162
1761506008739231700,5.655231689453125,-0.005657352972775698,-0.0038804919458925724,-0.0006444850005209446
1761506008749267700,5.665267822265625,-0.0054877097718417645,-0.002585130510851741,-0.0014144048327580094
1761506008759304000,5.675303955078125,-0.005900765769183636,-0.002767823403701186,-0.001148355077020824
1761506008769340000,5.68533984375,-0.005329518113285303,-0.005342300981283188,0.000761664065066725
1761506008779375900,5.6953759765625,-0.005781989078968763,-0.0029816750902682543,-0.0013720606220886111
1761506008789411800,5.705411865234375,-0.0051865060813724995,-0.004598746541887522,-0.0013827132061123848
1761506008799446800,5.71544677734375,-0.0075796227902174,-0.0019912454299628735,-0.0018663433147594333
1761506008809482800,5.725482666015625,-0.0048975530080497265,-0.004631769843399525,-0.0016250609187409282
1761506008819518700,5.735518798828125,-0.006631004624068737,-0.0017944378778338432,-0.0016319850692525506
1761506008829554700,5.7455546875,-0.005932990461587906,0.000011451592399680521,0.0006442186422646046
1761506008839591000,5.7555908203125,-0.005801962688565254,-0.005823001731187105,-0.0011590076610445976
1761506008849627000,5.765626953125,-0.007032609544694424,-0.004062918480485678,-0.002112152986228466
1761506008859661800,5.775661865234375,-0.006674148142337799,-0.0024519723374396563,-0.0016255935188382864
1761506008869697800,5.78569775390625,-0.007141799200326204,-0.0029145635198801756,-0.0009089368977583945
1761506008879733800,5.795733642578125,-0.005309810396283865,-0.0012839100090786815,-0.0012924320762977004
1761506008889769700,5.805769775390625,-0.00711729796603322,-0.0035510589368641376,-0.0034229608718305826
1761506008899805700,5.8158056640625,-0.003993942867964506,-0.0017150756902992725,-0.001728657865896821
1761506008909841700,5.825841552734375,-0.006094910204410553,-0.0009510148083791137,-0.0014314490836113691
1761506008919876900,5.835876953125,-0.005254416726529598,-0.003942277282476425,-0.00021784658019896597
1761506008929912800,5.845912841796875,-0.0062459115870296955,-0.005811017472296953,0.00009720538218971342
1761506008939948800,5.85594873046875,-0.0070496536791324615,-0.00196354859508574,-0.0018232000293210149
1761506008949984800,5.86598486328125,-0.006593986880034208,-0.002043177140876651,-0.0007664577569812536
1761506008960020700,5.876020751953125,-0.008538094349205494,-0.001802693703211844,-0.0009531453251838684
1761506008970056700,5.886056640625,-0.006873618811368942,-0.0022003035992383957,-0.002484462922438979
1761506008980092000,5.896091796875,-0.006518619135022163,-0.00205276464112103,-0.0008279767935164273
1761506008990127900,5.9061279296875,-0.0027262780349701643,-0.0046661244705319405,-0.0005313006113283336
1761506009000163800,5.916163818359375,-0.004288488067686558,-0.004190217703580856,-0.002501773415133357
1761506009010199800,5.92619970703125,-0.0041792988777160645,-0.0020868529099971056,-0.001606418751180172
1761506009020235800,5.93623583984375,-0.007171093951910734,-0.006045641843229532,-0.001306014135479927
1761506009030271700,5.946271728515625,-0.005348959006369114,-0.004621915984898806,-0.0015267902053892612
1761506009040306700,5.956306640625,-0.005623264703899622,-0.0038695731200277805,-0.003270095447078347
1761506009050343000,5.966343017578125,-0.005041630007326603,-0.0019403791520744562,-0.0008420915110036731
1761506009060379000,5.97637890625,-0.006907440721988678,-0.005592904519289732,-0.00018216021999251097
1761506009070414800,5.986414794921875,-0.007707720622420311,0.00045060686534270644,-0.0015939018921926618
1761506009080450800,5.996450927734375,-0.005635781679302454,-0.0037268276792019606,0.0000250337143370416
1761506009090486800,6.00648681640625,-0.004284493625164032,-0.004548146389424801,-0.001020523370243609
1761506009100521700,6.016521728515625,-0.004968659486621618,0.0002716424351092428,-0.0013704627053812146
1761506009110557700,6.0265576171875,-0.0054669370874762535,-0.00538304727524519,-0.0025153555907309055
1761506009120594000,6.036593994140625,-0.0062214103527367115,-0.00500940578058362,-0.002145176287740469
1761506009130630100,6.046630126953125,-0.005287972744554281,-0.0032653016969561577,-0.0018498316640034318
1761506009140666000,6.056666015625,-0.005212338641285896,-0.0037894118577241898,-0.00239151855930686
1761506009150701000,6.066701171875,-0.005377454683184624,-0.0020652813836932182,0.0005494101205840707
1761506009160737000,6.076737060546875,-0.005446697119623423,0.0011448930017650127,-0.000618918624240905
1761506009170773000,6.08677294921875,-0.006785201840102673,-0.0014929680619388819,0.000003728425554072601
1761506009180809000,6.09680908203125,-0.004977447912096977,-0.004727909807115793,-0.0009326389990746975
1761506009190845000,6.106844970703125,-0.0076240976341068745,-0.004786499310284853,-0.003296194365248084
1761506009200881000,6.116880859375,-0.005679457448422909,-0.0024735440965741873,-0.0018040252616629004
1761506009210916000,6.126916015625,-0.006677609868347645,-0.0013046825770288706,-0.0019065570086240768
1761506009220952000,6.1369521484375,-0.0054632085375487804,-0.0035270904190838337,-0.0032711606472730637
1761506009230988000,6.146988037109375,-0.006331399083137512,-0.00006604639202123508,-0.002448244020342827
1761506009241024000,6.15702392578125,-0.003498594742268324,-0.00379021093249321,-0.0013134710025042295
1761506009251060000,6.16706005859375,-0.004009122494608164,-0.0020716730505228043,-0.0015158712631091475
1761506009261096000,6.177095947265625,-0.006243514828383923,-0.0036432044580578804,-0.0025209481827914715
1761506009271131100,6.187131103515625,-0.005044559482485056,-0.002207494108006358,0.0005515406373888254
1761506009281167000,6.1971669921875,-0.007400125730782747,-0.004569984506815672,-0.0016138756182044744
1761506009291203000,6.207203125,-0.006161223165690899,-0.004299673717468977,-0.002552373567596078
1761506009301239000,6.217239013671875,-0.00538491178303957,-0.0023377228062599897,0.00033662354690022767
1761506009311275000,6.22727490234375,-0.003568103304132819,-0.0012484899489209056,0.0005344964447431266
1761506009321311000,6.23731103515625,-0.004096740856766701,-0.005428853910416365,-0.002627741079777479
1761506009331346000,6.247345947265625,-0.005441637244075537,-0.004028297495096922,-0.001585646066814661
1761506009341382100,6.257382080078125,-0.005943110212683678,-0.005185174755752087,-0.002953978255391121
1761506009351418000,6.267418212890625,-0.00430100504308939,-0.0032493227627128363,0.0006982808117754757
1761506009361454000,6.2774541015625,-0.006147641222923994,0.00013315805699676275,-0.0013725932221859694
1761506009371490000,6.287489990234375,-0.007861917838454247,-0.00310604483820498,-0.0003022687742486596
1761506009381525000,6.29752490234375,-0.004703941289335489,-0.005833387840539217,-0.0019273296929895878
1761506009391561000,6.30756103515625,-0.007223824504762888,-0.002222141483798623,-0.004083691164851189
1761506009401597000,6.317596923828125,-0.005224855616688728,-0.0033776871860027313,-0.0012665993999689817
1761506009411633000,6.3276328125,-0.006448045372962952,-0.0025920546613633633,-0.001660480978898704
1761506009421669000,6.337669189453125,-0.006637662649154663,-0.005431517027318478,-0.0020567593164741993
1761506009431705000,6.347705078125,-0.005166266113519669,-0.003858121344819665,-0.0010926949325948954
1761506009441740000,6.357739990234375,-0.004252269398421049,-0.00105328019708395,-0.001029311795718968
1761506009451776000,6.36777587890625,-0.003150785807520151,-0.003314303932711482,-0.0024114924017339945
1761506009461812000,6.37781201171875,-0.005270928610116243,-0.0031827439088374376,-0.001290834159590304
1761506009471848000,6.387847900390625,-0.004328435752540827,-0.0035832831636071205,-0.002439189236611128
1761506009481884000,6.3978837890625,-0.006048837676644325,-0.0023608922492712736,-0.0007779093575663865
1761506009491920000,6.407919921875,-0.006360960192978382,-0.004429901950061321,-0.0035923379473388195
1761506009501955000,6.417955078125,-0.006299707572907209,-0.0024580976460129023,-0.0024106933269649744
1761506009511991000,6.427990966796875,-0.0044205812737345695,-0.002517486223950982,-0.0029111013282090425
1761506009522027000,6.438027099609375,-0.006530337035655975,-0.00333214714191854,-0.00012596751912496984
1761506009532063000,6.44806298828125,-0.00680197961628437,-0.0012905678013339639,-0.0013574132462963462
1761506009542099000,6.458098876953125,-0.0038772961124777794,-0.0013600763631984591,-0.0030834078788757324
1761506009552135000,6.468135009765625,-0.0062730759382247925,-0.0008988168556243181,0.00046339002437889576
1761506009562170000,6.478170166015625,-0.006734868045896292,-0.0037558560725301504,-0.0010607370641082525
1761506009572206000,6.4882060546875,-0.006619553081691265,-0.0014642059104517102,-0.0006354302167892456
1761506009582242000,6.498241943359375,-0.005595034919679165,-0.0010277138790115714,-0.0024889903143048286
1761506009592278000,6.508278076171875,-0.0040943436324596405,-0.001041295938193798,-0.004111920483410358
1761506009602314000,6.51831396484375,-0.00714765815064311,-0.004435494542121887,-0.00040000680019147694
1761506009612349000,6.528348876953125,-0.0073013221845030785,0.00022770027862861753,-0.0011206581257283688
1761506009622385200,6.53838525390625,-0.004186489153653383,-0.004735100548714399,-0.002459961920976639
1761506009632421000,6.548421142578125,-0.004983306862413883,-0.0028778119012713432,-0.002183259464800358
1761506009642457000,6.55845703125,-0.0060206083580851555,-0.0009009473724290729,-0.0004852279380429536
1761506009652493000,6.5684931640625,-0.005017661955207586,-0.002266882685944438,-0.0007787083159200847
1761506009662529000,6.578529052734375,-0.006980677600950003,-0.003055977402254939,-0.001722532557323575
1761506009672564000,6.58856396484375,-0.0038072550669312477,-0.002888730727136135,-0.0011094729416072369
1761506009682600000,6.598599853515625,-0.005800630897283554,-0.002014681464061141,-0.0019592875614762306
1761506009692636000,6.608635986328125,-0.006760966964066029,-0.0022122878581285477,-0.0020216056145727634
1761506009702672100,6.618672119140625,-0.007221959996968508,-0.0041675809770822525,-0.0005230448441579938
1761506009712708000,6.6287080078125,-0.005586246494203806,-0.001749164192005992,-0.0031225562561303377
1761506009722743000,6.638742919921875,-0.0059865196235477924,-0.006706904619932175,-0.0020716730505228043
1761506009732779000,6.648779052734375,-0.006847253534942865,-0.004495682194828987,-0.0001371527905575931
1761506009742815000,6.65881494140625,-0.003913781605660915,-0.004867726005613804,-0.0015222628135234118
1761506009752851000,6.668850830078125,-0.005088767968118191,-0.0057646785862743855,-0.0011030812747776508
1761506009762887000,6.678886962890625,-0.00911493506282568,-0.0025414545089006424,-0.002492984989657998
1761506009772923000,6.6889228515625,-0.0065226140432059765,-0.0036008600145578384,-0.002514556748792529
1761506009782958000,6.6989580078125,-0.008583101443946362,-0.004510063212364912,-0.00430100504308939
1761506009792994000,6.708994140625,-0.004513259045779705,-0.002198173198848963,-0.0002966761530842632
1761506009803030000,6.719030029296875,-0.006573214195668697,-0.0010956244077533484,-0.0009142631897702813
1761506009813066000,6.72906591796875,-0.006505569908767939,-0.0032674323301762342,-0.0009547432418912649
1761506009823102000,6.73910205078125,-0.0060384515672922134,-0.003745203372091055,-0.0035049861762672663
1761506009833137200,6.74913720703125,-0.0067870658822357655,-0.0021369203459471464,-0.0013377057621255517
1761506009843173000,6.759173095703125,-0.005073854699730873,0.0012391688069328666,-0.001969407545402646
1761506009853209000,6.769208984375,-0.008926383219659328,-0.004799815360456705,-0.0009305084822699428
1761506009863245000,6.7792451171875,-0.005880525801330805,-0.002344646956771612,-0.0034708979073911905
1761506009873281000,6.789281005859375,-0.006744455546140671,-0.005084773525595665,-0.0021885856986045837
1761506009883317000,6.79931689453125,-0.00714739179238677,-0.004471447318792343,-0.0034647725988179445
1761506009893352000,6.80935205078125,-0.006944991648197174,-0.001284708851017058,-0.0010455570882186294
1761506009903388000,6.819387939453125,-0.005967078730463982,-0.0031201594974845648,-0.0018370485631749034
1761506009913424100,6.829424072265625,-0.00592633243650198,-0.0034112429711967707,0.0003760383406188339
1761506009923460000,6.839460205078125,-0.005595567636191845,-0.002847185591235757,-0.0016796556301414967
1761506009933496000,6.84949609375,-0.007954329252243042,-0.005318332463502884,-0.00035233621019870043
1761506009943531000,6.859531005859375,-0.007999070920050144,-0.00535614974796772,-0.001062068622559309
1761506009953567000,6.86956689453125,-0.003841609926894307,-0.0010490191634744406,-0.0018200043123215437
1761506009963603000,6.87960302734375,-0.0064805359579622746,-0.0006181196658872068,-0.000529436394572258
1761506009973639000,6.889638916015625,-0.004192081745713949,-0.0002657834847923368,-0.0025007082149386406
1761506009983675000,6.8996748046875,-0.00726457079872489,-0.003073820611461997,-0.0023015039041638374
1761506009993711000,6.909711181640625,-0.0054735951125621796,-0.004808603785932064,0.0005222458858042955
1761506010003746000,6.91974609375,-0.0069503178820014,-0.0018865832826122642,-0.00015206649550236762
1761506010013782000,6.929781982421875,-0.006462426856160164,-0.004216849338263273,-0.0035712989047169685
1761506010023818000,6.93981787109375,-0.00598492193967104,-0.0013957626651972532,0.00020772656716872007
1761506010033854000,6.94985400390625,-0.006622748915106058,-0.002947586588561535,-0.0010522148804739118
1761506010043890000,6.959889892578125,-0.005204082932323217,-0.003221093211323023,-0.0020722055342048407
1761506010053925000,6.969925048828125,-0.006114617921411991,-0.0015992282424122095,-0.0033771544694900513
1761506010063961000,6.979961181640625,-0.004009655211120844,-0.001788312685675919,-0.001600293442606926
1761506010073997000,6.9899970703125,-0.006146043073385954,-0.0017805894603952765,-0.0005134574603289366
1761506010084033000,7.000032958984375,-0.00490234699100256,-0.0009731190511956811,-0.0011318434262648225
1761506010094069000,7.010069091796875,-0.003832022426649928,-0.0017947042360901833,0.0002436792419757694
1761506010104105000,7.02010498046875,-0.004966529086232185,-0.003575559938326478,-0.0016445019282400608
1761506010114140200,7.03014013671875,-0.005418733693659306,-0.0034498588647693396,-0.0018793927738443017
1761506010124176100,7.040176025390625,-0.005505819339305162,-0.0028154938481748104,-0.0015994944842532277
1761506010134212000,7.050212158203125,-0.0041057956404984,0.0004495415778364986,-0.002109756227582693
1761506010144248000,7.060248046875,-0.00752023421227932,-0.00010279801790602505,-0.0015694007743149996
1761506010154284000,7.070283935546875,-0.00635030772536993,-0.0028905950020998716,-0.0016887104138731956
1761506010164319000,7.080319091796875,-0.0065013086423277855,-0.0037830201908946037,-0.00023542344570159912
1761506010174355000,7.09035498046875,-0.005653624422848225,-0.0023702133912593126,-0.0027393274940550327
1761506010184391000,7.100390869140625,-0.0057678744196891785,-0.004563060123473406,-0.0004239752306602895
1761506010194427100,7.11042724609375,-0.00509808911010623,-0.0027236149180680513,-0.0035665053874254227
1761506010204463000,7.120463134765625,-0.004808870144188404,-0.003409911412745714,-0.002625077962875366
1761506010214499000,7.1304990234375,-0.006364955101162195,-0.0029465213883668184,-0.00021731393644586205
1761506010224534000,7.140533935546875,-0.005277319811284542,-0.0035720979794859886,-0.0017121462151408195
1761506010234570000,7.150570068359375,-0.0029321403708308935,-0.0009571401169523597,-0.0018010957865044475
1761506010244606000,7.16060595703125,-0.005465871654450893,-0.005411809775978327,-0.001600559800863266
1761506010254642000,7.170641845703125,-0.006658168975263834,-0.0019044264918193221,-0.0009760485263541341
1761506010264678000,7.180677978515625,-0.004995291121304035,-0.0025073662400245667,-0.0011267834343016148
1761506010274713000,7.190713134765625,-0.0037864823825657368,0.00016538229829166085,-0.0008186557097360492
1761506010284749000,7.2007490234375,-0.00720411678776145,-0.005242432467639446,-0.002313754288479686
1761506010294785000,7.210784912109375,-0.0069489860907197,-0.004858404863625765,-0.0006311691831797361
1761506010304821000,7.220821044921875,-0.008593488484621048,-0.0006956176948733628,0.0002263686910737306
1761506010314857000,7.23085693359375,-0.005318865180015564,0.0012277172645553946,-0.00123783724848181
1761506010324892200,7.24089208984375,-0.007466704584658146,-0.004520982038229704,-0.0014682007022202015
1761506010334928100,7.25092822265625,-0.005804625805467367,-0.0018687400734052062,-0.0019739349372684956
1761506010344964000,7.260964111328125,-0.006707970052957535,-0.005938583053648472,-0.001118527608923614
1761506010355000000,7.271,-0.004944690968841314,-0.0020628846250474453,-0.0013004215434193611
1761506010365036000,7.2810361328125,-0.004603806417435408,-0.004778509959578514,-0.0015523566398769617
1761506010375072000,7.291072021484375,-0.0062578958459198475,-0.002679938916116953,-0.0006476807757280767
1761506010385107000,7.30110693359375,-0.004534830804914236,-0.0038037928752601147,-0.0005904228310100734
1761506010395143000,7.311142822265625,-0.006682670209556818,-0.006120210513472557,0.0005869606975466013
1761506010405179100,7.32117919921875,-0.007195594720542431,-0.0036903421860188246,-0.002261822810396552
1761506010415215000,7.331215087890625,-0.00500967213883996,-0.0023254721891134977,-0.001306280493736267
1761506010425251000,7.3412509765625,-0.007452323567122221,-0.00270683690905571,-0.0027928571216762066
1761506010435286000,7.3512861328125,-0.007847802713513374,-0.00008468852320220321,-0.0035542547702789307
1761506010445322000,7.361322021484375,-0.005501025356352329,-0.004866660572588444,-0.000150202278746292
1761506010455358000,7.37135791015625,-0.003944940399378538,-0.0054363105446100235,-0.0023451796732842922
1761506010465394000,7.381393798828125,-0.007865645922720432,-0.0032887374982237816,-0.0026618295814841986
1761506010475430000,7.391429931640625,-0.009019593708217144,-0.0026823359075933695,-0.0010783139150589705
1761506010485465000,7.401465087890625,-0.0065071675926446915,-0.0016972325975075364,-0.0007073355955071747
1761506010495501000,7.4115009765625,-0.006053098943084478,-0.003919640555977821,-0.0015094797126948833
1761506010505537000,7.421537109375,-0.005507949739694595,-0.0037585191894322634,-0.003013899317011237
1761506010515573000,7.431572998046875,-0.005372128449380398,-0.0028695559594780207,-0.002162220422178507
1761506010525609000,7.44160888671875,-0.006780141964554787,-0.004515922162681818,-0.0022924491204321384
1761506010535645000,7.45164501953125,-0.006162022240459919,-0.001859152689576149,0.0004362257895991206
1761506010545680100,7.46168017578125,-0.005019259639084339,-0.004736165516078472,-0.0022069616243243217
1761506010555716000,7.471716064453125,-0.006322077941149473,-0.002222940558567643,-0.0011566109023988247
1761506010565752000,7.481751953125,-0.005624063778668642,-0.006717557553201914,-0.004506068304181099
1761506010575788000,7.4917880859375,-0.006165483966469765,-0.0024921861477196217,-0.0026410568971186876
1761506010585824000,7.501823974609375,-0.006533799227327108,-0.0025984463281929493,-0.0009297095239162445
1761506010595859000,7.51185888671875,-0.006391586735844612,-0.0017859158106148243,-0.0009078715811483562
1761506010605895200,7.521895263671875,-0.005254416726529598,-0.0006319681415334344,-0.0014058827655389905
1761506010615931100,7.53193115234375,-0.003879160387441516,-0.0021579593885689974,-0.0017294568242505193
1761506010625967000,7.541967041015625,-0.007961519993841648,-0.002448244020342827,-0.002651443239301443
1761506010636003000,7.552003173828125,-0.004070109222084284,-0.00449941074475646,0.00040746363811194897
1761506010646038000,7.5620380859375,-0.004511661361902952,-0.003718305379152298,0.0005558017292059958
1761506010656074000,7.572073974609375,-0.0073143718764185905,-0.0009941579774022102,-0.001407214323990047
1761506010666110000,7.58210986328125,-0.005937783978879452,-0.004069043789058924,0.0003134540456812829
1761506010676146000,7.59214599609375,-0.006738330237567425,-0.002243979601189494,-0.0016588830621913075
1761506010686182100,7.60218212890625,-0.0038983351550996304,-0.0012580773327499628,-0.0030631679110229015
1761506010696218000,7.612218017578125,-0.00803449098020792,-0.0018271948210895061,-0.0014516890514642
1761506010706253000,7.622253173828125,-0.006410761270672083,-0.0010998855577781796,-0.002528405049815774
1761506010716289000,7.6322890625,-0.004454403184354305,-0.0036573191173374653,-0.0023100259713828564
1761506010726325000,7.642324951171875,-0.005946838762611151,-0.0028873991686850786,-0.000966727442573756
1761506010736361000,7.65236083984375,-0.005933522712439299,-0.0038725025951862335,-0.0002980077115353197
1761506010746397000,7.66239697265625,-0.0058067562058568,-0.0014860439114272594,-0.0008673915872350335
1761506010756432100,7.67243212890625,-0.004881840664893389,-0.005515939090400934,-0.00048416267964057624
1761506010766468000,7.682468017578125,-0.006422745529562235,-0.003919374197721481,-0.0028842033352702856
1761506010776504000,7.692504150390625,-0.004340686369687319,-0.00008681904728291556,-0.0004564658156596124
1761506010786540000,7.7025400390625,-0.00897059217095375,-0.002749181119725108,0.0007866977830417454
1761506010796576000,7.712575927734375,-0.007299990858882666,0.00036378781078383327,-0.0008474178612232208
1761506010806611000,7.72261083984375,-0.00800199992954731,-0.0028644960839301348,-0.002804841147735715
1761506010816647200,7.732647216796875,-0.007983890362083912,-0.00105301383882761,-0.002936401404440403
1761506010826683100,7.74268310546875,-0.007641408126801252,-0.0035444011446088552,-0.0013454289874061942
1761506010836719000,7.752718994140625,-0.004298874642699957,-0.002290052128955722,-0.0005723133217543364
1761506010846755000,7.762755126953125,-0.0059993029572069645,-0.0015209312550723553,-0.002225603675469756
1761506010856790000,7.7727900390625,-0.006150037981569767,-0.0009179916232824326,-0.0010540791554376483
1761506010866826000,7.782825927734375,-0.004327370319515467,-0.004507932811975479,-0.00024181502521969378
1761506010876862000,7.792862060546875,-0.004849083721637726,-0.001505751279182732,-0.0026940538082271814
1761506010886898000,7.80289794921875,-0.004147340543568134,-0.0026695525739341974,-0.0033848776947706938
1761506010896934100,7.81293408203125,-0.004997421521693468,-0.000979244359768927,-0.0025124261155724525
1761506010906970000,7.82297021484375,-0.006415022537112236,-0.0024434502702206373,-0.0027182884514331818
1761506010917005000,7.833005126953125,-0.006527407560497522,-0.0019893813878297806,0.0009382316493429244
1761506010927041000,7.843041015625,-0.001823466387577355,-0.0011478224769234657,-0.0008189220097847283
1761506010937077000,7.853076904296875,-0.00561154680326581,-0.002171008847653866,-0.0014839133946225047
1761506010947113000,7.863113037109375,-0.008235558867454529,-0.005050684791058302,-0.0032415995374321938
1761506010957149000,7.87314892578125,-0.005434979218989611,-0.0034171019215136766,-0.002153165638446808
1761506010967184100,7.88318408203125,-0.007898936048150063,-0.003768372815102339,-0.0041460092179477215
1761506010977220000,7.89322021484375,-0.004655472002923489,-0.00041199102997779846,-0.0025569009594619274
1761506010987256000,7.903256103515625,-0.004978779703378677,-0.0018884475575760007,-0.001954760169610381
1761506010997292000,7.9132919921875,-0.009752496145665646,-0.0030959248542785645,-0.0020210728980600834
1761506011007328000,7.923327880859375,-0.006585198454558849,-0.0019600866362452507,-0.0025864620693027973
1761506011017363000,7.933363037109375,-0.00507092522457242,-0.002065015025436878,-0.001103880233131349
1761506011027399200,7.943399169921875,-0.006347644608467817,-0.0017121462151408195,-0.0007382282637991011
1761506011037435100,7.95343505859375,-0.006667756475508213,-0.0006703176186420023,-0.002094309777021408
1761506011047471000,7.96347119140625,-0.002971555106341839,-0.0036064526066184044,-0.0014018879737704992
1761506011057507000,7.973507080078125,-0.007023821119219065,-0.0013731258222833276,-0.0024407871533185244
1761506011067542000,7.9835419921875,-0.0036818201187998056,-0.002442651428282261,-0.001544100814498961
1761506011077578000,7.993577880859375,-0.004898618441075087,-0.004891428165137768,-0.0014807175612077117
1761506011087614000,8.003614013671875,-0.0039113848470151424,-0.0007238471880555153,0.0003539340978022665
1761506011097648000,8.013648193359375,-0.004804608877748251,-0.004240285139530897,0.001535046030767262
1761506011107684000,8.02368408203125,-0.004192614462226629,-0.006554305553436279,0.0010705908061936498
1761506011117720000,8.033719970703125,-0.005092230159789324,-0.004206196404993534,0.0011121360585093498
1761506011127756500,8.043756591796875,-0.004993693437427282,-0.0030983216129243374,-0.00020240024605300277
1761506011137792500,8.05379248046875,-0.006759635638445616,-0.006316218990832567,-0.0027228158432990313
1761506011147827700,8.06382763671875,-0.007684551179409027,-0.0023667511995881796,-0.0022985744290053844
1761506011157863700,8.07386376953125,-0.005166798830032349,-0.0012562130577862263,-0.0006103964988142252
1761506011167899600,8.083899658203125,-0.004453870467841625,-0.004662129562348127,-0.0007091998122632504
1761506011177935600,8.093935546875,-0.004986502695828676,-0.003397394670173526,-0.001925199176184833
1761506011187971600,8.1039716796875,-0.003793406533077359,-0.003495132550597191,-0.00015899071877356619
1761506011198006500,8.114006591796874,-0.00589757040143013,-0.0008769789128564298,-0.0016245282022282481
1761506011208042500,8.12404248046875,-0.005489840172231197,-0.0011281149927526712,-0.000571248063351959
1761506011218078700,8.13407861328125,-0.008041148073971272,-0.004715126473456621,-0.0016101471846923232
1761506011228114700,8.14411474609375,-0.003971039317548275,-0.0009890979854390025,-0.0013616742799058557
1761506011238150700,8.154150634765625,-0.004918325692415237,-0.0005603290628641844,0.0010151970200240612
1761506011248185600,8.164185546875,-0.005003813188523054,-0.0030125677585601807,-0.0030011162161827087
1761506011258221600,8.1742216796875,-0.0051710596308112144,-0.003634415799751878,-0.002514823107048869
1761506011268257500,8.184257568359374,-0.004858937580138445,-0.003471164032816887,0.00035952674807049334
1761506011278293500,8.19429345703125,-0.006126602180302143,-0.0011685950448736548,0.0005299690528772771
1761506011288329700,8.204329833984374,-0.007616906892508268,-0.004781439434736967,-0.0032498554792255163
1761506011298364700,8.21436474609375,-0.006114085204899311,-0.0037151097785681486,0.00012117382721044123
1761506011308400600,8.224400634765624,-0.0060344566591084,-0.002704440150409937,-0.0032812808640301228
1761506011318436600,8.2344365234375,-0.007248857989907265,-0.005912750028073788,-0.0013438310706987977
1761506011328472600,8.24447265625,-0.005115399602800608,-0.0028663603588938713,-0.0008796420879662037
1761506011338508500,8.254508544921874,-0.007665376644581556,-0.004515389446169138,-0.0012258529895916581
1761506011348543700,8.264543701171876,-0.007869907654821873,-0.005532184615731239,-0.002282062778249383
1761506011358579700,8.274579833984374,-0.006137254647910595,-0.004859203472733498,-0.0043473439291119576
1761506011368615700,8.28461572265625,-0.004207528196275234,-0.0031044469214975834,0.0013946974650025368
1761506011378651600,8.294651611328124,-0.007623032201081514,-0.0045572011731565,-0.0019233349012210965
1761506011388687600,8.3046875,-0.003979827743023634,-0.0017747305100783706,-0.0026008430868387222
1761506011398723600,8.3147236328125,-0.005590774118900299,0.00019094864546786994,-0.001413339632563293
1761506011408758500,8.324758544921876,-0.003947869874536991,-0.0010753844399005175,-0.0015329155139625072
1761506011418794800,8.334794677734376,-0.003090598387643695,-0.003403519745916128,-0.0017299894243478775
1761506011428830700,8.344830810546876,-0.0076209018006920815,0.06138985604047775,0.018616294488310814
1761506011438866700,8.35486669921875,-0.009002815932035446,0.2514721751213074,0.05900952219963074
1761506011448902700,8.364902587890626,-0.008726113475859165,0.13000327348709106,0.029562685638666153
1761506011458937600,8.3749375,0.00009827064059209079,-0.22385546565055847,-0.04812358692288399
1761506011468973600,8.3849736328125,-0.00640703272074461,0.04053837060928345,0.0065130265429615974
1761506011479009500,8.395009521484376,-0.006430202629417181,0.06663867831230164,0.01088673621416092
1761506011489045500,8.40504541015625,-0.00430180411785841,-0.11135022342205048,-0.026763703674077988
1761506011499081700,8.415081787109376,-0.0010287790792062879,-0.20809993147850037,-0.0499502494931221
1761506011509116700,8.42511669921875,-0.006756173446774483,0.035964127629995346,0.02310771681368351
1761506011519152600,8.435152587890625,-0.004868258256465197,-0.04438424110412598,-0.00765791954472661
