time,seconds_elapsed,z,y,x
1761479520385174500,0.072174560546875,0.027712587267160416,-0.03600300848484039,-0.06677690148353577
1761479520395211500,0.08221142578125,0.13118597865104675,-0.008506668731570244,-0.12473154813051224
1761479520405247500,0.09224755859375,0.22350366413593292,0.10687824338674545,-0.19853998720645905
1761479520415283500,0.102283447265625,0.24117852747440338,0.1613295078277588,-0.18011623620986938
1761479520425319400,0.1123193359375,0.25174862146377563,0.1985359936952591,-0.12376721203327179
1761479520435355400,0.12235546875,0.27063947916030884,0.20645597577095032,-0.04584711790084839
1761479520445391600,0.1323916015625,0.3203103542327881,0.20830926299095154,0.042262233793735504
1761479520455427600,0.142427490234375,0.37188035249710083,0.25215262174606323,0.1199229434132576
1761479520465463600,0.152463623046875,0.39162370562553406,0.19053825736045837,0.16473008692264557
1761479520475499500,0.16249951171875,0.34228968620300293,-0.052805159240961075,0.2717422842979431
1761479520485535700,0.17253564453125,0.26072531938552856,-0.3691692650318146,0.40089601278305054
1761479520495571700,0.18257177734375,0.25778308510780334,-0.47881773114204407,0.4366984963417053
1761479520505607700,0.192607666015625,0.2886435091495514,-0.3818051517009735,0.3935241401195526
1761479520515643600,0.2026435546875,0.32921677827835083,-0.20849116146564484,0.32378125190734863
1761479520525680600,0.2126806640625,0.3466980457305908,0.012497948482632637,0.2843068242073059
1761479520535716600,0.222716552734375,0.3062901496887207,0.16421237587928772,0.271633118391037
1761479520545752600,0.232752685546875,0.2560613453388214,0.20236589014530182,0.24551787972450256
1761479520555788500,0.24278857421875,0.22138777375221252,0.24096894264221191,0.18108031153678894
1761479520565824500,0.252824462890625,0.12434938549995422,0.04956036061048508,0.19672425091266632
1761479520575860500,0.262860595703125,0.09685491025447845,-0.32627877593040466,0.2655251622200012
1761479520585896400,0.272896484375,0.2555220425128937,-0.44620969891548157,0.2741636335849762
1761479520595932400,0.282932373046875,0.47203171253204346,-0.2951248586177826,0.17526476085186005
1761479520605968400,0.292968505859375,0.5434925556182861,-0.29658186435699463,0.16230128705501556
1761479520616004400,0.30300439453125,0.4759678840637207,-0.39636093378067017,0.2046671211719513
1761479520626040600,0.31304052734375,0.26255863904953003,-0.45366522669792175,0.25257205963134766
1761479520636076500,0.32307666015625,-0.013026053085923195,-0.4636414349079132,0.28544560074806213
1761479520646112500,0.333112548828125,-0.27299824357032776,-0.39607730507850647,0.27676689624786377
1761479520656148500,0.3431484375,-0.5126481056213379,-0.2877542972564697,0.2511962652206421
1761479520666185700,0.353185791015625,-0.6837591528892517,-0.274954617023468,0.21178334951400757
1761479520676221700,0.3632216796875,-0.724612295627594,-0.36050519347190857,0.11458569765090942
1761479520686257700,0.373257568359375,-0.6403632164001465,-0.4365485608577728,-0.037401434034109116
1761479520696293600,0.383293701171875,-0.5005419254302979,-0.4663669168949127,-0.21805617213249207
1761479520706329600,0.39332958984375,-0.39514943957328796,-0.3875378668308258,-0.35702258348464966
1761479520716365600,0.403365478515625,-0.3414561450481415,-0.21004803478717804,-0.4654185473918915
1761479520726401500,0.413401611328125,-0.370897114276886,0.03737906366586685,-0.5351449251174927
1761479520736437500,0.4234375,-0.44787126779556274,0.2862280309200287,-0.5849776864051819
1761479520746473500,0.433473388671875,-0.49416443705558777,0.434407114982605,-0.6464703679084778
1761479520756509400,0.443509521484375,-0.505232036113739,0.4227549731731415,-0.7626339793205261
1761479520766545400,0.45354541015625,-0.5230832099914551,0.3066432774066925,-0.9367642402648926
1761479520776581600,0.46358154296875,-0.5883820056915283,0.2349288910627365,-1.130918264389038
1761479520786617600,0.47361767578125,-0.7170925736427307,0.3069261312484741,-1.220954418182373
1761479520796653600,0.483653564453125,-0.8610857129096985,0.434369832277298,-1.1510794162750244
1761479520806690600,0.493690673828125,-0.9230020642280579,0.6402944922447205,-0.9531427025794983
1761479520816726500,0.5037265625,-0.8163539171218872,0.8231742978096008,-0.7818633317947388
1761479520826762500,0.513762451171875,-0.5217396020889282,0.9377567768096924,-0.5700775980949402
1761479520836798500,0.523798583984375,-0.23297013342380524,0.7494622468948364,-0.423907607793808
1761479520846834400,0.53383447265625,0.058643873780965805,0.4750160574913025,-0.3916894793510437
1761479520856870700,0.54387060546875,0.3582524359226227,0.21423159539699554,-0.42155441641807556
1761479520866906600,0.55390673828125,0.5844749212265015,-0.050266366451978683,-0.4327269196510315
1761479520876942600,0.563942626953125,0.7142366170883179,-0.3083154857158661,-0.2509022653102875
1761479520886978600,0.573978515625,0.7769929766654968,-0.49303606152534485,0.028079571202397346
1761479520897014500,0.5840146484375,0.7816023826599121,-0.5552824139595032,0.2854487895965576
1761479520907050500,0.594050537109375,0.7023996710777283,-0.5625003576278687,0.5512924790382385
1761479520917086700,0.604086669921875,0.5070176720619202,-0.4705278277397156,0.9346328973770142
1761479520927122700,0.614122802734375,0.34609508514404297,-0.35575810074806213,1.2520332336425781
1761479520937159400,0.624159423828125,0.1918107122182846,-0.41665661334991455,1.468485713005066
1761479520947195600,0.634195556640625,0.07868096232414246,-0.5299996733665466,1.5633364915847778
1761479520957231600,0.644231689453125,0.06872686743736267,-0.7661885023117065,1.5274288654327393
1761479520967267600,0.654267578125,0.09542053192853928,-1.0070719718933105,1.30203115940094
1761479520977303600,0.664303466796875,0.09891220182180405,-1.0521411895751953,0.9645867943763733
1761479520987339500,0.674339599609375,0.07652859389781952,-0.9742700457572937,0.6270231604576111
1761479520997375500,0.68437548828125,0.04801306501030922,-0.7646979093551636,0.3823971748352051
1761479521007411500,0.694411376953125,0.008846488781273365,-0.4472787082195282,0.2565478980541229
1761479521017447400,0.704447509765625,-0.03328072652220726,-0.16003866493701935,0.18906232714653015
1761479521027483400,0.7144833984375,-0.04235198348760605,0.004038949962705374,0.1342984139919281
1761479521037519400,0.724519287109375,0.046595197170972824,0.09309319406747818,0.12448547035455704
1761479521047555300,0.734555419921875,0.19081176817417145,0.08896555751562119,0.16177105903625488
1761479521057592000,0.744592041015625,0.27110978960990906,0.06951542943716049,0.22696150839328766
1761479521067629000,0.754629150390625,0.2698163092136383,0.07497277855873108,0.31394967436790466
1761479521077665000,0.7646650390625,0.21839039027690887,0.02636502869427204,0.3347572088241577
1761479521087701000,0.774700927734375,0.2018606811761856,-0.035715918987989426,0.37080177664756775
1761479521097737000,0.784737060546875,0.28132063150405884,0.018006164580583572,0.5013546943664551
1761479521107773200,0.794773193359375,0.4339546263217926,0.05992085859179497,0.6907323598861694
1761479521117809200,0.80480908203125,0.651232123374939,-0.046611711382865906,0.8728142976760864
1761479521127845000,0.81484521484375,0.8455941081047058,-0.30211085081100464,1.003153681755066
1761479521137881000,0.824881103515625,0.8904691934585571,-0.6401174068450928,0.9977671504020691
1761479521147917000,0.8349169921875,0.7977808117866516,-0.7853683233261108,0.8178514242172241
1761479521157953000,0.844953125,0.6033124923706055,-0.7142890691757202,0.5213928818702698
1761479521167989000,0.854989013671875,0.45307907462120056,-0.6657681465148926,0.2433527410030365
1761479521178025000,0.86502490234375,0.39043858647346497,-0.6211847066879272,0.03802674263715744
1761479521188061000,0.87506103515625,0.3831647038459778,-0.5180769562721252,-0.17151635885238647
1761479521198098000,0.885097900390625,0.37685325741767883,-0.4513038098812103,-0.47618839144706726
1761479521208134000,0.8951337890625,0.21521005034446716,-0.3364776074886322,-0.846023678779602
1761479521218169900,0.905169921875,-0.19447201490402222,-0.2601948380470276,-1.0718424320220947
1761479521228205800,0.915205810546875,-0.8503230810165405,-0.40854594111442566,-1.029528021812439
1761479521238242000,0.925241943359375,-1.3624018430709839,-0.4686497747898102,-0.8913581371307373
1761479521248278000,0.935278076171875,-1.445337176322937,-0.283143550157547,-0.7454744577407837
1761479521258314200,0.945314208984375,-1.1142131090164185,0.008139153011143208,-0.5385271310806274
1761479521268350200,0.95535009765625,-0.694948673248291,0.20816917717456818,-0.26768842339515686
1761479521278386200,0.96538623046875,-0.3689226508140564,0.34052908420562744,-0.07047522813081741
1761479521288422100,0.975422119140625,-0.19434897601604462,0.4344406723976135,-0.028919532895088196
1761479521298458000,0.9854580078125,-0.15158818662166595,0.5185254216194153,-0.2312002032995224
1761479521308495000,0.9954951171875,-0.25083860754966736,0.665963351726532,-0.5844429731369019
1761479521318531000,1.005531005859375,-0.5046437382698059,0.8294660449028015,-0.8867791295051575
1761479521328567000,1.015567138671875,-0.7609695196151733,1.0017176866531372,-0.9958765506744385
1761479521338603000,1.02560302734375,-0.8132681250572205,1.1087522506713867,-0.9464775919914246
1761479521348639000,1.035638916015625,-0.6321356296539307,0.9703810811042786,-0.8248060345649719
1761479521358675000,1.045675048828125,-0.26668548583984375,0.663933515548706,-0.6025258302688599
1761479521368711000,1.0557109375,0.16237398982048035,0.37781041860580444,-0.26935264468193054
1761479521378747000,1.065746826171875,0.5566270351409912,0.19783957302570343,0.10544093698263168
1761479521388783000,1.075783203125,0.7443556785583496,-0.025000691413879395,0.5322276949882507
1761479521398819000,1.085819091796875,0.7421273589134216,-0.2524852454662323,0.8854272961616516
1761479521408855000,1.09585498046875,0.6890814900398254,-0.44023358821868896,1.0230823755264282
1761479521418891000,1.10589111328125,0.6687285304069519,-0.4382830858230591,0.957503080368042
1761479521428928300,1.11592822265625,0.6325247287750244,-0.32201051712036133,0.7755199670791626
1761479521438964200,1.125964111328125,0.5837968587875366,-0.23288758099079132,0.594605565071106
1761479521449000200,1.136000244140625,0.5435817837715149,-0.20697927474975586,0.4292440414428711
1761479521459036200,1.1460361328125,0.4025583565235138,-0.3451467454433441,0.3974858522415161
1761479521469072100,1.156072021484375,0.3054720461368561,-0.490405410528183,0.42647701501846313
1761479521479108000,1.166108154296875,0.24370746314525604,-0.5553551316261292,0.47678786516189575
1761479521489144000,1.17614404296875,0.16822576522827148,-0.58534175157547,0.509880006313324
1761479521499180000,1.186179931640625,0.06131022796034813,-0.5297099351882935,0.446442186832428
1761479521509216000,1.196216064453125,-0.06660059839487076,-0.3648320138454437,0.2535225450992584
1761479521519252000,1.206251953125,-0.20600110292434692,-0.171794131398201,-0.06962248682975769
1761479521529288000,1.216287841796875,-0.34414511919021606,-0.023807594552636147,-0.42771539092063904
1761479521539324200,1.22632421875,-0.4616011679172516,0.11840467154979706,-0.7295423746109009
1761479521549361000,1.23636083984375,-0.5515747666358948,0.22310099005699158,-0.8999758958816528
1761479521559396900,1.24639697265625,-0.594298243522644,0.31855401396751404,-0.9188715219497681
1761479521569433000,1.25643310546875,-0.5975355505943298,0.3399392068386078,-0.8224360942840576
1761479521579469000,1.266468994140625,-0.607611358165741,0.3168346881866455,-0.6337636113166809
1761479521589505000,1.276505126953125,-0.6285944581031799,0.2647283375263214,-0.37351420521736145
1761479521599541000,1.286541015625,-0.5939096808433533,0.17496941983699799,-0.044796764850616455
1761479521609577000,1.296576904296875,-0.3866771459579468,0.10790915787220001,0.32739463448524475
1761479521619613000,1.306613037109375,-0.2755996286869049,0.010746654123067856,0.6621704697608948
1761479521629649000,1.31664892578125,-0.18770357966423035,-0.19616205990314484,0.8980575799942017
1761479521639685000,1.32668505859375,-0.0473528690636158,-0.425664484500885,0.9772666692733765
1761479521649721000,1.33672119140625,0.03755509853363037,-0.567104697227478,0.9744895100593567
1761479521659758000,1.346758056640625,0.13103711605072021,-0.6890577673912048,0.8636655211448669
1761479521669794000,1.3567939453125,0.28143781423568726,-0.8185694217681885,0.7181733250617981
1761479521679830000,1.366830078125,0.3949771523475647,-0.9601430892944336,0.6132674217224121
1761479521689866000,1.376865966796875,0.46053698658943176,-1.0699489116668701,0.4722759425640106
1761479521699902000,1.38690185546875,0.5109849572181702,-1.106183409690857,0.23111604154109955
1761479521709938200,1.396938232421875,0.4767918586730957,-0.93709796667099,-0.08003438264131546
1761479521719974100,1.40697412109375,0.3741278052330017,-0.5481853485107422,-0.4369403123855591
1761479521730010000,1.417010009765625,0.1731046736240387,-0.08271431922912598,-0.8154340982437134
1761479521740046000,1.427046142578125,-0.19854319095611572,0.24498312175273895,-1.1076196432113647
1761479521750082000,1.43708203125,-0.7137982845306396,0.23659442365169525,-1.1731141805648804
1761479521760118000,1.447117919921875,-1.2127537727355957,0.08753011375665665,-0.998232901096344
1761479521770155000,1.457155029296875,-1.533951997756958,-0.04025581106543541,-0.733500063419342
1761479521780191000,1.46719091796875,-1.6292519569396973,0.08067913353443146,-0.5775312185287476
1761479521790227000,1.47722705078125,-1.4124470949172974,0.2189943939447403,-0.48018577694892883
1761479521800263000,1.487262939453125,-1.138375163078308,0.17888613045215607,-0.372170627117157
1761479521810299000,1.497298828125,-0.8425546288490295,0.08303043991327286,-0.2716298997402191
1761479521820335000,1.507335205078125,-0.5703145861625671,-0.0035353463608771563,-0.22748401761054993
1761479521830371000,1.51737109375,-0.4068460464477539,0.0870765820145607,-0.3083919286727905
1761479521840407000,1.527406982421875,-0.3786274790763855,0.3234483599662781,-0.5611738562583923
1761479521850443000,1.537443115234375,-0.4758586883544922,0.5673832893371582,-0.8381772041320801
1761479521860479200,1.547479248046875,-0.5886192917823792,0.7383155822753906,-0.9900719523429871
1761479521870515200,1.55751513671875,-0.5922254920005798,0.7730618715286255,-0.9634552597999573
1761479521880552000,1.567552001953125,-0.4459726810455322,0.6689913868904114,-0.7761335372924805
1761479521890588200,1.577588134765625,-0.12079139798879623,0.41836076974868774,-0.45643705129623413
1761479521900624100,1.5876240234375,0.25854313373565674,0.11279366165399551,-0.062077220529317856
1761479521910660000,1.59766015625,0.5805579423904419,-0.12478214502334595,0.3278053104877472
1761479521920696000,1.607696044921875,0.7956656813621521,-0.31893885135650635,0.6516909599304199
1761479521930732000,1.61773193359375,0.8391790986061096,-0.5019770860671997,0.8820200562477112
1761479521940768000,1.62776806640625,0.6994038820266724,-0.7091782093048096,1.0271937847137451
1761479521950804000,1.637803955078125,0.4430631697177887,-0.7865955233573914,1.0804036855697632
1761479521960840000,1.64783984375,0.19202643632888794,-0.7586230039596558,1.008607268333435
1761479521970876000,1.6578759765625,0.02050847001373768,-0.6538459658622742,0.855808675289154
1761479521980911900,1.667911865234375,-0.04073145240545273,-0.5431559681892395,0.6959558725357056
1761479521990949000,1.67794921875,-0.02317296341061592,-0.43359431624412537,0.5584523677825928
1761479522000985000,1.687985107421875,0.1250644475221634,-0.07317327708005905,0.3001643419265747
1761479522011021000,1.69802099609375,0.20043297111988068,0.23340502381324768,0.2145668864250183
1761479522021057000,1.70805712890625,0.2147647589445114,0.3029888868331909,0.2226911336183548
1761479522031093200,1.71809326171875,0.22450847923755646,0.20328733325004578,0.22547094523906708
1761479522041129200,1.728129150390625,0.24373170733451843,0.09358827024698257,0.12803785502910614
1761479522051165200,1.738165283203125,0.29204997420310974,0.028246818110346794,-0.10214447975158691
1761479522061201200,1.748201171875,0.3136301040649414,-0.04175463691353798,-0.40731850266456604
1761479522071237000,1.758237060546875,0.26390647888183594,0.0006857639527879655,-0.6803255081176758
1761479522081273000,1.768273193359375,0.15438318252563477,0.09555394947528839,-0.8918713331222534
1761479522091309000,1.77830908203125,-0.02293194644153118,0.1827482432126999,-0.9098588824272156
1761479522101346000,1.788345947265625,-0.23497362434864044,0.318114310503006,-0.7568389773368835
1761479522111382000,1.798382080078125,-0.3982485830783844,0.3965928852558136,-0.5271876454353333
1761479522121418000,1.80841796875,-0.4570508897304535,0.38219237327575684,-0.2508695125579834
1761479522131454000,1.818453857421875,-0.452080100774765,0.18012076616287231,-0.030667630955576897
1761479522141490000,1.828489990234375,-0.3394952416419983,0.05915866047143936,0.25296515226364136
1761479522151526000,1.83852587890625,-0.10806042701005936,-0.050637077540159225,0.5668802261352539
1761479522161561900,1.848561767578125,0.1658068150281906,-0.14411082863807678,0.8558483719825745
1761479522171598000,1.85859814453125,0.386660099029541,-0.13265419006347656,1.0058029890060425
1761479522181634000,1.868634033203125,0.576299250125885,-0.21393145620822906,0.9078779816627502
1761479522191670000,1.878669921875,0.6841266751289368,-0.5374341607093811,0.5592893958091736
1761479522201706000,1.8887060546875,0.6591552495956421,-0.9093557596206665,0.10443293303251266
1761479522211743200,1.8987431640625,0.5480684041976929,-1.0934172868728638,-0.22525230050086975
1761479522221779200,1.908779296875,0.34884214401245117,-0.8809257745742798,-0.40019986033439636
1761479522231815200,1.918815185546875,0.10980293154716492,-0.31845468282699585,-0.5398387312889099
1761479522241851100,1.92885107421875,-0.14726056158542633,0.2915245294570923,-0.7271335124969482
1761479522251887000,1.93888720703125,-0.4719981551170349,0.7614531517028809,-0.9489050507545471
1761479522261923000,1.948923095703125,-0.877175509929657,1.0796897411346436,-1.0583990812301636
1761479522271959000,1.958958984375,-1.3010835647583008,1.0946282148361206,-0.892417311668396
1761479522281995000,1.9689951171875,-1.537744402885437,0.8376387357711792,-0.6035628318786621
1761479522292031000,1.979031005859375,-1.4721152782440186,0.5533750653266907,-0.3697655200958252
1761479522302067000,1.98906689453125,-1.1021548509597778,0.2579846680164337,-0.17988641560077667
1761479522312103000,1.99910302734375,-0.6656909584999084,0.06370840221643448,-0.036311667412519455
1761479522322140000,2.009139892578125,-0.38575196266174316,0.14597292244434357,-0.09132378548383713
1761479522332176000,2.01917578125,-0.3293725848197937,0.5527989864349365,-0.3585408329963684
1761479522342211800,2.0292119140625,-0.48582983016967773,1.1060092449188232,-0.6396254897117615
1761479522352248000,2.039248046875,-0.7001485228538513,1.498535394668579,-0.7945072054862976
1761479522362284000,2.049283935546875,-0.8106244206428528,1.7755260467529297,-0.8919177055358887
1761479522372320000,2.059320068359375,-0.7488430738449097,1.9426636695861816,-1.0193102359771729
1761479522382356000,2.06935595703125,-0.5201598405838013,1.8298473358154297,-1.1871246099472046
1761479522392392000,2.079391845703125,-0.19812799990177155,1.3774510622024536,-1.2321947813034058
1761479522402428200,2.08942822265625,0.12444152683019638,0.9628602862358093,-1.0000548362731934
1761479522412464000,2.099464111328125,0.4621173143386841,0.7405651807785034,-0.5150388479232788
1761479522422500000,2.1095,0.7384136319160461,0.6044789552688599,0.04255092144012451
1761479522432537000,2.119537109375,0.908186674118042,0.45208650827407837,0.5673971176147461
1761479522442573000,2.129572998046875,0.9478933215141296,0.2873079478740692,0.9522241353988647
1761479522452609000,2.139609130859375,0.8860270380973816,0.10955125838518143,1.174860954284668
1761479522462645000,2.14964501953125,0.7682889699935913,-0.13021525740623474,1.285436749458313
1761479522472681000,2.159680908203125,0.6611270904541016,-0.42211687564849854,1.3011198043823242
1761479522482717000,2.169717041015625,0.5940591096878052,-0.5785198211669922,1.2608875036239624
1761479522492753200,2.179753173828125,0.5487001538276672,-0.628810703754425,1.196096420288086
1761479522502789000,2.1897890625,0.4860982596874237,-0.6823285222053528,1.1177217960357666
1761479522512825000,2.1998251953125,0.3948783576488495,-0.6907662153244019,1.035591721534729
1761479522522861000,2.209861083984375,0.3302101492881775,-0.6180350184440613,0.9621867537498474
1761479522532897000,2.21989697265625,0.3934181332588196,-0.64764004945755,0.8617799878120422
1761479522542934000,2.22993408203125,0.44237634539604187,-0.8070424795150757,0.7052410244941711
1761479522552970000,2.239969970703125,0.47551673650741577,-0.8623392581939697,0.5298947691917419
1761479522563006000,2.250005859375,0.4608014225959778,-0.7293495535850525,0.3242843449115753
1761479522573042200,2.260042236328125,0.3516174256801605,-0.4340561032295227,0.10602044314146042
1761479522583078100,2.270078125,0.23167957365512848,-0.17372599244117737,-0.04529557749629021
1761479522593114000,2.280114013671875,0.14115126430988312,-0.004219246096909046,-0.10745003074407578
1761479522603150000,2.290150146484375,0.10452800989151001,0.04524630680680275,-0.07698532938957214
1761479522613186000,2.30018603515625,0.08847527205944061,-0.05143975466489792,0.0091130705550313
1761479522623222000,2.310221923828125,0.0632343590259552,-0.13340093195438385,0.16966865956783295
1761479522633258000,2.320258056640625,0.01170512568205595,-0.1146613359451294,0.37935957312583923
1761479522643294200,2.330294189453125,-0.036009401082992554,-0.09318986535072327,0.523095965385437
1761479522653331000,2.3403310546875,-0.008218781091272831,-0.10943541675806046,0.6109794974327087
1761479522663367000,2.350366943359375,0.06526502221822739,-0.2610744833946228,0.6446468830108643
1761479522673403100,2.360403076171875,0.170036181807518,-0.4589012563228607,0.6603875160217285
1761479522683439000,2.370439208984375,0.2993728518486023,-0.6571781635284424,0.5880073308944702
1761479522693475000,2.38047509765625,0.44902360439300537,-0.8030130863189697,0.42079490423202515
1761479522703511000,2.390510986328125,0.6308189630508423,-1.0367430448532104,0.28173181414604187
1761479522713547000,2.400547119140625,0.7805339097976685,-1.3274850845336914,0.27870726585388184
1761479522723583000,2.4105830078125,0.9112258553504944,-1.5005831718444824,0.34322234988212585
1761479522733619000,2.420618896484375,0.9983578324317932,-1.5097076892852783,0.5103031992912292
1761479522743655000,2.430655029296875,1.0326361656188965,-1.4300764799118042,0.6964318156242371
1761479522753691000,2.44069091796875,0.9774711728096008,-1.1796237230300903,0.6697951555252075
1761479522763728100,2.45072802734375,0.7239563465118408,-0.7744413614273071,0.40990737080574036
1761479522773764000,2.46076416015625,0.11612900346517563,-0.44440701603889465,-0.023478427901864052
1761479522783800000,2.470800048828125,-0.851101279258728,-0.23574835062026978,-0.492168664932251
1761479522793836000,2.4808359375,-1.7561867237091064,-0.04398716613650322,-0.8208876848220825
1761479522803872000,2.4908720703125,-2.063153028488159,0.05277639627456665,-0.983728289604187
1761479522813908200,2.500908203125,-1.7290266752243042,0.1203482523560524,-1.12664794921875
1761479522823944200,2.510944091796875,-1.1325294971466064,0.1414700448513031,-1.1836744546890259
1761479522833980200,2.520980224609375,-0.5847896933555603,0.16816796362400055,-1.0786726474761963
1761479522844016000,2.53101611328125,-0.1870037019252777,0.33336731791496277,-0.9603537321090698
1761479522854052000,2.541052001953125,-0.052261874079704285,0.619173526763916,-0.960564374923706
1761479522864088000,2.551088134765625,-0.26409077644348145,0.8088763356208801,-1.1604112386703491
1761479522874125000,2.561125,-0.6755089163780212,0.9876311421394348,-1.4650392532348633
1761479522884161000,2.5711611328125,-1.0342316627502441,1.1695830821990967,-1.6229287385940552
1761479522894197000,2.581197021484375,-1.2028363943099976,1.1470330953598022,-1.5481469631195068
1761479522904233000,2.59123291015625,-1.1397008895874023,1.015916109085083,-1.2135961055755615
1761479522914269000,2.60126904296875,-0.7945136427879333,0.8271511793136597,-0.6771475672721863
1761479522924305000,2.611304931640625,-0.22860628366470337,0.8624197244644165,-0.07452696561813354
1761479522934340900,2.6213408203125,0.29543083906173706,0.767113447189331,0.4722575545310974
1761479522944376800,2.631376953125,0.6944797039031982,0.4023013710975647,0.8422891497612
1761479522954413000,2.6414130859375,0.9702087640762329,-0.018514562398195267,0.8625224828720093
1761479522964449000,2.651448974609375,1.0772182941436768,-0.3682030439376831,0.6234118938446045
1761479522974485000,2.661485107421875,0.9614999294281006,-0.5146383047103882,0.4183517098426819
1761479522984521200,2.671521240234375,0.7316017746925354,-0.427684485912323,0.28705814480781555
1761479522994558200,2.68155810546875,0.49427708983421326,-0.291698694229126,0.3690747022628784
1761479523004594200,2.69159423828125,0.3392385244369507,-0.15905596315860748,0.5698831677436829
1761479523014630100,2.701630126953125,0.251163512468338,-0.04207927733659744,0.8265027403831482
1761479523024666000,2.711666015625,0.2045629918575287,-0.04589931294322014,1.0323866605758667
1761479523034702000,2.7217021484375,0.1947644203901291,-0.17859503626823425,1.0903329849243164
1761479523044738000,2.731738037109375,0.2547611892223358,-0.2736467123031616,0.9923846125602722
1761479523054774000,2.74177392578125,0.33094704151153564,-0.2605074942111969,0.7924986481666565
1761479523064809500,2.7518095703125,0.3711668848991394,-0.17560164630413055,0.5545303225517273
1761479523074845400,2.761845458984375,0.34448760747909546,-0.03868241608142853,0.3129142224788666
1761479523084881700,2.771881591796875,0.2888677418231964,0.14087802171707153,0.09893243759870529
1761479523094917600,2.781917724609375,0.24087466299533844,0.3449009358882904,-0.07764872163534164
1761479523104954400,2.791954345703125,0.25025510787963867,0.3914141058921814,-0.17774975299835205
1761479523114990600,2.801990478515625,0.32502496242523193,0.2803110182285309,-0.16584089398384094
1761479523125026600,2.812026611328125,0.39428845047950745,0.14798973500728607,-0.06719181686639786
1761479523135062500,2.8220625,0.4238221049308777,0.05660229176282883,0.058229751884937286
1761479523145098500,2.832098388671875,0.3998938798904419,-0.03453906998038292,0.17881715297698975
1761479523155134500,2.842134521484375,0.35007625818252563,-0.1197357252240181,0.26240044832229614
1761479523165170400,2.85217041015625,0.3369213044643402,-0.1801748275756836,0.31690019369125366
1761479523175206400,2.862206298828125,0.35993048548698425,-0.15226010978221893,0.36824938654899597
1761479523185242600,2.87224267578125,0.48563113808631897,0.07631208002567291,0.44396254420280457
1761479523195278600,2.882278564453125,0.7228785753250122,0.28744643926620483,0.535652220249176
1761479523205314600,2.892314453125,0.9604125618934631,0.31274646520614624,0.6154389381408691
1761479523215350500,2.9023505859375,1.1136239767074585,0.12299862504005432,0.5991305708885193
1761479523225387500,2.912387451171875,1.1183161735534668,-0.3641097843647003,0.39969971776008606
1761479523235423500,2.922423583984375,0.9387775659561157,-0.9677264094352722,0.18145528435707092
1761479523245459500,2.93245947265625,0.7058623433113098,-1.3830509185791016,0.05895199999213219
1761479523255495400,2.942495361328125,0.49767768383026123,-1.3557809591293335,-0.047815192490816116
1761479523265531600,2.95253173828125,0.3174101710319519,-0.8880068063735962,-0.20882804691791534
1761479523275567600,2.962567626953125,-0.1987980455160141,-0.31517231464385986,-0.2461397349834442
1761479523285603600,2.972603515625,-0.9148687720298767,0.1642342209815979,-0.3853341042995453
1761479523295639600,2.9826396484375,-1.5221999883651733,0.5969558358192444,-0.6946578621864319
1761479523305675500,2.992675537109375,-1.659773349761963,0.8035222887992859,-0.9573813676834106
1761479523315711500,3.00271142578125,-1.3841547966003418,0.7880544066429138,-1.0107204914093018
1761479523325747500,3.01274755859375,-0.9562021493911743,0.6018871665000916,-0.831531822681427
1761479523335783400,3.022783447265625,-0.5373659729957581,0.358268678188324,-0.5631805062294006
1761479523345820400,3.0328203125,-0.36043620109558105,0.16560468077659607,-0.31869304180145264
1761479523355856400,3.0428564453125,-0.4162563383579254,0.11683580279350281,-0.18732541799545288
1761479523365892600,3.052892578125,-0.5636782646179199,0.17651191353797913,-0.14600834250450134
1761479523375928600,3.062928466796875,-0.6862771511077881,0.353453665971756,-0.12734277546405792
1761479523385964500,3.072964599609375,-0.7523509860038757,0.5138734579086304,-0.051351603120565414
1761479523396000500,3.08300048828125,-0.7218697667121887,0.6497092843055725,0.046015430241823196
1761479523406036700,3.09303662109375,-0.44933411478996277,0.7266901135444641,0.13043762743473053
1761479523416072700,3.10307275390625,-0.2641083598136902,0.6723541617393494,0.17384129762649536
1761479523426108700,3.113108642578125,-0.14969468116760254,0.4474739134311676,0.17101994156837463
1761479523436144600,3.12314453125,-0.028904618695378304,0.2433982789516449,0.12407428026199341
1761479523446180600,3.1331806640625,0.1089635044336319,0.1574641913175583,0.08256091922521591
1761479523456216600,3.143216552734375,0.24217961728572845,0.0160111915320158,0.15904638171195984
1761479523466253600,3.153253662109375,0.28820011019706726,-0.1230446994304657,0.3125517666339874
1761479523476289500,3.16328955078125,0.2951810359954834,-0.21946178376674652,0.4663701057434082
1761479523486325500,3.173325439453125,0.2839702069759369,-0.3245232105255127,0.5797421932220459
1761479523496361500,3.183361572265625,0.26957449316978455,-0.47553083300590515,0.6352840065956116
1761479523506397400,3.1933974609375,0.2369891107082367,-0.6154847741127014,0.6554361581802368
1761479523516433400,3.203433349609375,0.2015986293554306,-0.7174034118652344,0.6690512895584106
1761479523526469400,3.213469482421875,0.22065646946430206,-0.7517131567001343,0.6638727784156799
1761479523536505300,3.22350537109375,0.266705185174942,-0.7937796711921692,0.636961817741394
1761479523546541600,3.23354150390625,0.2823909521102905,-0.7503429651260376,0.5254539251327515
1761479523556577500,3.24357763671875,0.2359113246202469,-0.5877876281738281,0.2999614179134369
1761479523566613500,3.253613525390625,0.1153726652264595,-0.3473268151283264,-0.024538632482290268
1761479523576650500,3.263650390625,-0.03792900592088699,-0.08215159177780151,-0.4012579321861267
1761479523586686700,3.273686767578125,-0.16307920217514038,0.12415444105863571,-0.7125614881515503
1761479523596722700,3.28372265625,-0.19092068076133728,0.31521254777908325,-0.8986021876335144
1761479523606758700,3.293758544921875,-0.1570415496826172,0.49987080693244934,-0.9309723973274231
1761479523616794600,3.303794677734375,-0.100644052028656,0.6026789546012878,-0.8727921843528748
1761479523626830600,3.31383056640625,-0.059537362307310104,0.5306923389434814,-0.7744868993759155
1761479523636866600,3.323866455078125,-0.030784543603658676,0.33581236004829407,-0.615510880947113
1761479523646902500,3.333902587890625,-0.06953779608011246,0.16314896941184998,-0.3424984812736511
1761479523656938500,3.3439384765625,-0.1438724845647812,0.048462875187397,0.04802025482058525
1761479523666974500,3.353974365234375,-0.20347322523593903,-0.016351809725165367,0.5712624192237854
1761479523677010400,3.364010498046875,-0.23976679146289825,-0.046300917863845825,1.0973536968231201
1761479523687046400,3.37404638671875,-0.1873840093612671,-0.04787884280085564,1.429664969444275
1761479523697082600,3.38408251953125,-0.08768857270479202,-0.08900310844182968,1.4780056476593018
1761479523707119400,3.394119384765625,0.05528775602579117,-0.14109188318252563,1.278488039970398
1761479523717155600,3.404155517578125,0.23441676795482635,-0.5136433243751526,0.8866808414459229
1761479523727191600,3.414191650390625,0.3391176164150238,-0.9530752897262573,0.5980788469314575
1761479523737227500,3.4242275390625,0.5670408010482788,-1.4050334692001343,0.4636656641960144
1761479523747263500,3.434263427734375,0.7876275181770325,-1.473200798034668,0.4140554964542389
1761479523757299500,3.444299560546875,0.9002248644828796,-1.0264149904251099,0.2669169306755066
1761479523767335700,3.454335693359375,0.6563432216644287,-0.2568211257457733,-0.09183564782142639
1761479523777371600,3.46437158203125,0.06027985364198685,0.3680025339126587,-0.5630822777748108
1761479523787407600,3.47440771484375,-0.7220029234886169,0.7170355916023254,-0.8504881858825684
1761479523797443600,3.484443603515625,-1.4260839223861694,0.789309024810791,-0.9318112730979919
1761479523807479600,3.4944794921875,-1.845375418663025,0.975062370300293,-0.9733188152313232
1761479523817515500,3.504515625,-1.884514570236206,1.0912305116653442,-1.0520192384719849
1761479523827552500,3.514552490234375,-1.6604255437850952,0.9801862835884094,-1.1317834854125977
1761479523837588500,3.52458837890625,-1.3443701267242432,0.7870333194732666,-1.1831109523773193
1761479523847624400,3.53462451171875,-1.0800449848175049,0.6875174045562744,-1.1723748445510864
1761479523857660400,3.544660400390625,-0.92365562915802,0.6974017024040222,-1.0187925100326538
1761479523867696600,3.554696533203125,-0.854098379611969,0.8213868141174316,-0.8222240805625916
1761479523877732600,3.564732666015625,-0.8261996507644653,1.1941856145858765,-0.714222252368927
1761479523887768600,3.5747685546875,-0.8252617120742798,1.4238369464874268,-0.7667789459228516
1761479523897804500,3.584804443359375,-0.819877564907074,1.1603184938430786,-0.8508629202842712
1761479523907840500,3.594840576171875,-0.6800357699394226,0.6398326754570007,-0.8819910287857056
1761479523917876500,3.60487646484375,-0.4031594395637512,0.26503753662109375,-0.8821814060211182
1761479523927912400,3.614912353515625,-0.1056305542588234,-0.04085182398557663,-0.8463624119758606
1761479523937948400,3.624948486328125,0.12283111363649368,-0.20589964091777802,-0.6530081629753113
1761479523947984400,3.634984375,0.2764933705329895,-0.013883591629564762,-0.1621825098991394
1761479523958021600,3.645021728515625,0.4034710228443146,0.23536936938762665,0.4150203764438629
1761479523968057600,3.6550576171875,0.4976598620414734,0.2321631908416748,0.7942233681678772
1761479523978093600,3.665093505859375,0.5080515146255493,0.01757047139108181,0.9462903738021851
1761479523988129500,3.675129638671875,0.402314156293869,-0.31532013416290283,0.9375711679458618
1761479523998165500,3.68516552734375,0.2708466649055481,-0.46908387541770935,0.8990887403488159
1761479524008201500,3.695201416015625,0.23880138993263245,-0.3645630478858948,0.8346053957939148
1761479524018237700,3.70523779296875,0.24185417592525482,-0.15837979316711426,0.7767508625984192
1761479524028273700,3.715273681640625,0.29107019305229187,0.04518452286720276,0.6570178270339966
1761479524038309600,3.7253095703125,0.4173405170440674,0.26702210307121277,0.4424338638782501
1761479524048345600,3.735345703125,0.5144675970077515,0.4332299828529358,0.21403080224990845
1761479524058381600,3.745381591796875,0.4660252332687378,0.4172459542751312,0.07857257127761841
1761479524068417500,3.75541748046875,0.29923784732818604,0.22291509807109833,0.03881051391363144
1761479524078454800,3.765454833984375,0.10498979687690735,0.10896829515695572,-0.042746663093566895
1761479524088490800,3.77549072265625,-0.11253400146961212,0.17344555258750916,-0.18823274970054626
1761479524098526700,3.785526611328125,-0.34969860315322876,0.23377254605293274,-0.28940171003341675
1761479524108562700,3.795562744140625,-0.45582184195518494,0.2657270133495331,-0.31335046887397766
1761479524118598700,3.8055986328125,-0.45099568367004395,0.27804332971572876,-0.27629655599594116
1761479524128634600,3.815634521484375,-0.4045911729335785,0.27510401606559753,-0.12795422971248627
1761479524138670600,3.825670654296875,-0.30102109909057617,0.3127983808517456,0.12491609901189804
1761479524148706600,3.83570654296875,-0.17665386199951172,0.36760276556015015,0.3979242146015167
1761479524158742800,3.84574267578125,-0.09801444411277771,0.3843311667442322,0.5402118563652039
1761479524168778800,3.85577880859375,-0.011154916137456894,0.30944493412971497,0.4999978244304657
1761479524178814700,3.865814697265625,-0.0845833271741867,0.05740470439195633,0.29248085618019104
1761479524188850700,3.8758505859375,-0.08613834530115128,-0.3464823067188263,0.05048554390668869
1761479524198886700,3.88588671875,-0.040524523705244064,-0.49859967827796936,-0.13702842593193054
1761479524208923600,3.895923583984375,0.020263992249965668,-0.3299661874771118,-0.38744786381721497
1761479524218959600,3.905959716796875,0.16929075121879578,-0.35376498103141785,-0.8181401491165161
1761479524228995600,3.91599560546875,0.392301470041275,-0.7012255191802979,-1.184433937072754
1761479524239031600,3.926031494140625,0.6692720651626587,-0.797386646270752,-1.3869694471359253
1761479524249067500,3.936067626953125,0.8573274612426758,-0.5134508013725281,-1.3918195962905884
1761479524259103700,3.946103759765625,0.47332388162612915,-0.06611430644989014,-0.8508844971656799
1761479524269139700,3.9561396484375,-0.33063623309135437,0.006166549399495125,0.05914188176393509
1761479524279175700,3.96617578125,-1.0307085514068604,0.07142011821269989,0.788934051990509
1761479524289211600,3.976211669921875,-1.1335997581481934,0.38614824414253235,1.0958303213119507
1761479524299247600,3.98624755859375,-0.865742027759552,0.23491451144218445,0.7417066097259521
1761479524309283800,3.996283935546875,-0.4565936326980591,-0.061294782906770706,0.015217036008834839
1761479524319318800,4.00631884765625,-0.17794284224510193,-0.12347772717475891,-0.7882639765739441
1761479524329354800,4.016354736328125,-0.19412127137184143,0.0572342611849308,-1.4000134468078613
1761479524339390700,4.026390625,-0.4306088984012604,0.4872894883155823,-1.6499779224395752
1761479524349426700,4.0364267578125,-0.7371483445167542,0.7525978684425354,-1.71925687789917
1761479524359462700,4.046462646484375,-1.0229699611663818,0.8298375010490417,-1.5629711151123047
1761479524369498600,4.05649853515625,-1.243363857269287,1.037828803062439,-1.2388346195220947
1761479524379534800,4.066534912109375,-1.3751860857009888,1.1804109811782837,-0.834972620010376
1761479524389570800,4.07657080078125,-1.269890546798706,1.1583755016326904,-0.35007011890411377
1761479524399606800,4.086606689453125,-1.1036677360534668,0.795059859752655,0.12240500748157501
1761479524409643800,4.096643798828125,-0.91730797290802,0.10991531610488892,0.5434675216674805
1761479524419679700,4.1066796875,-0.5274915099143982,-0.41479453444480896,0.8110494613647461
1761479524429715700,4.1167158203125,-0.024396952241659164,-0.4751793146133423,0.7868549227714539
1761479524439751700,4.126751708984375,0.2980426251888275,-0.4175895154476166,0.420915812253952
1761479524449787600,4.13678759765625,0.4567515552043915,-0.3031122088432312,-0.041297636926174164
1761479524459823600,4.14682373046875,0.538263201713562,-0.044797565788030624,-0.42676571011543274
1761479524469859600,4.156859619140625,0.46167895197868347,0.025960760191082954,-0.577567994594574
1761479524479895600,4.1668955078125,0.3109442889690399,0.06331958621740341,-0.4350462555885315
1761479524489931500,4.176931640625,0.23047448694705963,0.2405947595834732,-0.11190816015005112
1761479524499967500,4.186967529296875,0.22857138514518738,0.26722079515457153,0.3177531957626343
1761479524510003500,4.19700341796875,0.31266629695892334,0.07673206180334091,0.7992364764213562
1761479524520039700,4.207039794921875,0.3790961802005768,-0.21740342676639557,1.206476092338562
1761479524530075600,4.21707568359375,0.44255319237709045,-0.5539803504943848,1.4613382816314697
1761479524540112000,4.22711181640625,0.4769369959831238,-0.6743485927581787,1.5294837951660156
1761479524550148600,4.237148681640625,0.48550277948379517,-0.4239603281021118,1.3974186182022095
1761479524560184800,4.247184814453125,0.48444151878356934,-0.22879323363304138,1.1429102420806885
1761479524570220800,4.257220703125,0.5224213600158691,-0.13512399792671204,0.8862294554710388
1761479524580256800,4.2672568359375,0.5786428451538086,-0.1771220564842224,0.6485228538513184
1761479524590292700,4.277292724609375,0.678807258605957,-0.37625324726104736,0.4953000247478485
1761479524600328700,4.28732861328125,0.7730062007904053,-0.5710120797157288,0.4643743336200714
1761479524610364700,4.29736474609375,0.853871762752533,-0.7976585626602173,0.5459868907928467
1761479524620400600,4.307400634765625,0.8656061887741089,-0.8649981617927551,0.6986507177352905
1761479524630436600,4.3174365234375,0.6659335494041443,-0.324009507894516,0.9108572602272034
1761479524640472600,4.32747265625,0.428768128156662,-0.11427198350429535,0.9584429264068604
1761479524650508500,4.337508544921875,0.4127577543258667,0.033729732036590576,0.9715784192085266
1761479524660544500,4.34754443359375,0.648319661617279,0.07161612808704376,0.6827330589294434
1761479524670580700,4.357580810546875,0.9010709524154663,-0.0949142649769783,0.38959914445877075
1761479524680617500,4.367617431640625,1.016588807106018,-0.36041224002838135,0.3454599380493164
1761479524690653400,4.3776533203125,0.9656691551208496,-0.5718209147453308,0.43631312251091003
1761479524700689700,4.387689697265625,0.8064155578613281,-0.40223371982574463,0.3584364354610443
1761479524710725600,4.3977255859375,0.703764796257019,0.002034655073657632,0.07101079076528549
1761479524720761900,4.407761962890625,0.6426519155502319,0.1703972965478897,-0.2488367110490799
1761479524730797800,4.4177978515625,0.6031210422515869,-0.16397854685783386,-0.579291582107544
1761479524740833800,4.427833740234375,0.6214984655380249,-0.6296852827072144,-0.8839476108551025
1761479524750869800,4.437869873046875,0.6882947683334351,-0.6564289927482605,-1.0948777198791504
1761479524760905700,4.44790576171875,0.6665106415748596,-0.28015175461769104,-1.1278045177459717
1761479524770941700,4.457941650390625,0.5585700869560242,0.3122585713863373,-0.9783241748809814
1761479524780977700,4.467977783203125,0.10681086778640747,0.4448549449443817,-0.5864858627319336
1761479524791013600,4.478013671875,-0.5557069182395935,0.03530499339103699,-0.27265283465385437
1761479524801049600,4.488049560546875,-0.7841222286224365,-0.15660212934017181,-0.24812644720077515
1761479524811085800,4.4980859375,-0.498997300863266,-0.1650850921869278,-0.42820966243743896
1761479524821122600,4.50812255859375,-0.16695329546928406,-0.1802816241979599,-0.6324599981307983
1761479524831158500,4.518158447265625,0.01847994141280651,-0.09687834233045578,-0.7259258031845093
1761479524841194800,4.52819482421875,-0.07246062159538269,0.20194163918495178,-0.5914002060890198
1761479524851230700,4.538230712890625,-0.30743902921676636,0.7041834592819214,-0.3223074674606323
1761479524861266700,4.5482666015625,-0.6266431212425232,1.0081462860107422,-0.11280670762062073
1761479524871302700,4.558302734375,-0.9801079630851746,1.0830823183059692,-0.08372525870800018
1761479524881338600,4.568338623046875,-1.3012018203735352,1.0427402257919312,-0.20132406055927277
1761479524891374600,4.57837451171875,-1.2767716646194458,0.8698472380638123,-0.31655532121658325
1761479524901410600,4.58841064453125,-0.8781078457832336,0.39380988478660583,-0.28083565831184387
1761479524911446500,4.598446533203125,-0.3276718854904175,-0.00629038643091917,-0.08774822950363159
1761479524921482500,4.608482421875,0.016952618956565857,-0.2479269802570343,0.041305094957351685
1761479524931518500,4.6185185546875,0.06570843607187271,-0.6088556051254272,-0.1669471710920334
1761479524941554400,4.628554443359375,0.10010316222906113,-0.7622898817062378,-0.44677963852882385
1761479524951590700,4.638590576171875,0.12228090316057205,-0.5678879618644714,-0.8769571185112
1761479524961627600,4.648627685546875,0.02576368674635887,-0.32439273595809937,-1.4640905857086182
1761479524971663600,4.65866357421875,-0.042024947702884674,-0.2647389769554138,-1.9019089937210083
1761479524981699600,4.668699462890625,0.07168057560920715,-0.220510795712471,-1.9601211547851562
1761479524991735800,4.67873583984375,0.2279285043478012,0.012199941091239452,-1.6172668933868408
1761479525001771800,4.688771728515625,0.3183460235595703,0.2714823782444,-1.011459469795227
1761479525011807700,4.698807861328125,0.378404825925827,0.48726314306259155,-0.26987409591674805
1761479525021843700,4.70884375,0.39782753586769104,0.5421758890151978,0.5718430280685425
1761479525031879700,4.718879638671875,0.4511999487876892,0.44819003343582153,1.22795832157135
1761479525041915600,4.72891552734375,0.455066055059433,0.2942843437194824,1.662994146347046
1761479525051951600,4.73895166015625,0.35156363248825073,0.04880748689174652,1.8951187133789062
1761479525061986800,4.74898681640625,0.2071603685617447,-0.24924364686012268,1.8661376237869263
1761479525072023000,4.75902294921875,0.06057572737336159,-0.40438130497932434,1.5998367071151733
1761479525082059000,4.76905908203125,-0.05005251616239548,-0.37235864996910095,1.1836073398590088
1761479525092095700,4.779095703125,-0.10475171357393265,-0.11813196539878845,0.7379630208015442
1761479525102132000,4.789132080078125,-0.09361117333173752,0.15154531598091125,0.3292173147201538
1761479525112168000,4.79916796875,-0.10555519163608551,0.1406460702419281,0.06804509460926056
1761479525122204000,4.809203857421875,-0.05204642191529274,0.07264836877584457,0.09705784171819687
1761479525132240000,4.819239990234375,0.09601041674613953,-0.09627007693052292,0.21650487184524536
1761479525142275800,4.82927587890625,0.17173847556114197,-0.3799436092376709,0.38872724771499634
1761479525152311800,4.839311767578125,0.1555296778678894,-0.4683307111263275,0.573832094669342
1761479525162347800,4.84934765625,0.08335081487894058,-0.4215855896472931,0.6350882649421692
1761479525172384000,4.859384033203125,-0.012652944773435593,-0.17051288485527039,0.5450707674026489
1761479525182420000,4.869419921875,-0.06028224900364876,0.18530380725860596,0.31052112579345703
1761479525192456000,4.8794560546875,-0.004151601810008287,0.45498669147491455,0.06706904619932175
1761479525202492000,4.889491943359375,0.1474461853504181,0.5853101015090942,-0.05450771749019623
1761479525212527900,4.89952783203125,0.3017747700214386,0.4852641522884369,-0.035107385367155075
1761479525222564900,4.90956494140625,0.4215480387210846,0.2062101662158966,0.21306034922599792
1761479525232600800,4.919600830078125,0.4649919271469116,-0.26137036085128784,0.5997406840324402
1761479525242636800,4.92963671875,0.4233861565589905,-0.7868413329124451,0.9623036980628967
1761479525252673000,4.939673095703125,0.43141239881515503,-1.1928119659423828,1.2115808725357056
1761479525262709000,4.949708984375,0.5035691261291504,-1.1417295932769775,1.104697823524475
1761479525272745000,4.959744873046875,0.6267887949943542,-0.8168415427207947,0.6530411839485168
1761479525282781000,4.969781005859375,0.5954087972640991,-0.33222243189811707,0.04694247618317604
1761479525292817000,4.97981689453125,0.2854671776294708,-0.044390369206666946,-0.5108787417411804
1761479525302852900,4.989852783203125,-0.15903812646865845,0.20922832190990448,-0.9471990466117859
1761479525312888800,4.999888916015625,-0.6408396363258362,0.44554978609085083,-1.1971518993377686
1761479525322924800,5.0099248046875,-0.9962565898895264,0.5973856449127197,-1.2321492433547974
1761479525332960800,5.019960693359375,-1.13249933719635,0.558286726474762,-1.1869735717773438
1761479525342996700,5.029996826171875,-1.0575052499771118,0.5714467167854309,-1.1524823904037476
1761479525353034000,5.040033935546875,-0.8772114515304565,0.6066827178001404,-1.1090492010116577
1761479525363070000,5.050070068359375,-0.6883906722068787,0.5129216313362122,-1.0423274040222168
1761479525373106000,5.06010595703125,-0.5071417689323425,0.4008409082889557,-0.9737433195114136
1761479525383142000,5.070141845703125,-0.3833971917629242,0.46465155482292175,-0.9718809723854065
1761479525393178000,5.08017822265625,-0.40247952938079834,0.7448453903198242,-1.0476913452148438
1761479525403214000,5.090214111328125,-0.5286082029342651,0.9561523199081421,-1.1060571670532227
1761479525413250000,5.10025,-0.6607158780097961,0.9253946542739868,-1.159092664718628
1761479525423286000,5.1102861328125,-0.6634544134140015,0.8219900131225586,-1.1387330293655396
1761479525433322000,5.120322021484375,-0.469598650932312,0.725721001625061,-1.0225918292999268
1761479525443358000,5.13035791015625,-0.18923090398311615,0.6747536659240723,-0.8134979605674744
1761479525453394000,5.140393798828125,0.08847180753946304,0.5206402540206909,-0.5162655115127563
1761479525463430000,5.150429931640625,0.28119972348213196,0.030497189611196518,-0.13401319086551666
1761479525473465900,5.1604658203125,0.3549130856990814,-0.6983910799026489,0.22430340945720673
1761479525483502800,5.1705029296875,0.41422486305236816,-1.0631519556045532,0.38952964544296265
1761479525493538800,5.180538818359375,0.45898303389549255,-0.9949455261230469,0.41596072912216187
1761479525503574800,5.19057470703125,0.4762328565120697,-0.7475200295448303,0.3622993528842926
1761479525513610800,5.20061083984375,0.4706178307533264,-0.47469115257263184,0.31682294607162476
1761479525523646700,5.210646728515625,0.4234814941883087,-0.34961047768592834,0.28848424553871155
1761479525533683000,5.220682861328125,0.35883086919784546,-0.24042698740959167,0.2927091121673584
1761479525543719000,5.230718994140625,0.27075454592704773,-0.1242377981543541,0.35437726974487305
1761479525553755000,5.2407548828125,0.17118053138256073,-0.07462363690137863,0.49574822187423706
1761479525563790800,5.250790771484375,0.07047709822654724,-0.04309713840484619,0.6677394509315491
1761479525573827000,5.2608271484375,-0.06095123291015625,-0.1622469574213028,0.7563169598579407
1761479525583863000,5.270863037109375,-0.2265777438879013,-0.40794941782951355,0.6835090517997742
1761479525593899000,5.28089892578125,-0.378480464220047,-0.5824950933456421,0.45906397700309753
1761479525603935000,5.29093505859375,-0.2993425130844116,-0.4683528244495392,0.07584735751152039
1761479525613972000,5.300971923828125,-0.2635386884212494,-0.27274206280708313,-0.27734053134918213
1761479525624008000,5.311008056640625,-0.2522202730178833,-0.15225984156131744,-0.4509488046169281
1761479525634044000,5.3210439453125,-0.21313437819480896,0.045167211443185806,-0.4154808223247528
1761479525644079900,5.331079833984375,-0.2263876050710678,0.1759558469057083,-0.24651150405406952
1761479525654115800,5.34111572265625,-0.2568216621875763,0.24619965255260468,-0.019297530874609947
1761479525664151800,5.35115185546875,-0.2113489955663681,0.1613105982542038,0.15952201187610626
1761479525674187800,5.361187744140625,-0.132960706949234,0.033718280494213104,0.30011799931526184
1761479525684224000,5.37122412109375,-0.03898734599351883,0.02839355729520321,0.39390814304351807
1761479525694260000,5.381260009765625,0.05787528306245804,0.09381091594696045,0.49426910281181335
1761479525704296000,5.3912958984375,0.07621114701032639,0.2601679265499115,0.7870895266532898
1761479525714332000,5.401331787109375,0.12030750513076782,0.29745590686798096,1.0138810873031616
1761479525724368000,5.411367919921875,0.21075643599033356,0.28413185477256775,1.040601372718811
1761479525734403800,5.42140380859375,0.3781962990760803,-0.20483464002609253,0.9660558104515076
1761479525744440800,5.43144091796875,0.6678145527839661,-0.7207422256469727,0.8820112347602844
1761479525754477000,5.44147705078125,1.0430816411972046,-1.1623505353927612,0.704508364200592
1761479525764513000,5.451512939453125,1.3615658283233643,-1.3435386419296265,0.5081548094749451
1761479525774549000,5.461549072265625,1.4514470100402832,-1.1822973489761353,0.3543058931827545
1761479525784585000,5.4715849609375,1.2252333164215088,-0.6914982795715332,0.17484530806541443
1761479525794621000,5.481620849609375,0.6505386233329773,-0.028626585379242897,0.06075229495763779
1761479525804657000,5.491656982421875,-0.10735947638750076,0.2895146310329437,0.07363560795783997
1761479525814692900,5.50169287109375,-0.7599854469299316,0.3861660659313202,0.024945296347141266
1761479525824729000,5.51172900390625,-1.1091924905776978,0.4893779456615448,-0.2215113490819931
1761479525834765000,5.52176513671875,-1.195101022720337,0.6469894051551819,-0.6374576687812805
1761479525844801000,5.531801025390625,-0.9957122206687927,0.731846809387207,-1.0292611122131348
1761479525854837000,5.5418369140625,-0.5870696306228638,0.6815929412841797,-1.3131376504898071
1761479525864873000,5.551873046875,-0.21428033709526062,0.5617376565933228,-1.5654913187026978
1761479525874909000,5.561908935546875,-0.06889437884092331,0.40492379665374756,-1.7810174226760864
1761479525884946000,5.57194580078125,-0.15087606012821198,0.4599660038948059,-1.7257273197174072
1761479525894982000,5.58198193359375,-0.400222510099411,0.7895992994308472,-1.4418543577194214
1761479525905017900,5.592017822265625,-0.6240007281303406,1.071673035621643,-0.9573062658309937
1761479525915053800,5.6020537109375,-0.7691256999969482,1.126518964767456,-0.474901020526886
1761479525925089800,5.61208984375,-0.7578440308570862,1.0569343566894531,-0.21188083291053772
1761479525935125800,5.622125732421875,-0.6015995740890503,0.9159966707229614,-0.14142769575119019
1761479525945161700,5.63216162109375,-0.27612000703811646,0.5953616499900818,-0.09277867525815964
1761479525955197700,5.64219775390625,0.12932975590229034,0.09750205278396606,0.031022630631923676
1761479525965234000,5.65223388671875,0.49205124378204346,-0.4439087510108948,0.30394843220710754
1761479525975270000,5.662269775390625,0.6946573257446289,-0.8772956132888794,0.6116018891334534
1761479525985306000,5.67230615234375,0.7579127550125122,-1.0674487352371216,0.7980449795722961
1761479525995342000,5.682342041015625,0.7377704381942749,-0.8328250646591187,0.8059481978416443
1761479526005378000,5.6923779296875,0.6591262221336365,-0.3927174508571625,0.630755603313446
1761479526015415000,5.7024150390625,0.5644205212593079,0.0054693338461220264,0.4378335475921631
1761479526025451000,5.712450927734375,0.4433979392051697,0.15909644961357117,0.3696267902851105
1761479526035487000,5.722487060546875,0.320689857006073,-0.010845989920198917,0.45162391662597656
1761479526045523000,5.73252294921875,0.18060334026813507,-0.2945331037044525,0.5825755596160889
1761479526055559000,5.742558837890625,0.013803696259856224,-0.5234578847885132,0.7116349935531616
1761479526065596400,5.752596435546875,-0.10456822067499161,-0.6469182968139648,0.7550413012504578
1761479526075632400,5.76263232421875,-0.17428764700889587,-0.6101000905036926,0.7082809805870056
1761479526085668400,5.77266845703125,-0.1997344195842743,-0.4759273827075958,0.5890664458274841
1761479526095704300,5.782704345703125,-0.18784765899181366,-0.3374462127685547,0.38487711548805237
1761479526105740300,5.792740234375,-0.16857250034809113,-0.2124803066253662,0.14717666804790497
1761479526115776300,5.8027763671875,-0.059122707694768906,-0.07261934131383896,-0.018873821943998337
1761479526125812200,5.812812255859375,0.0749453455209732,-0.10111036896705627,-0.12318291515111923
1761479526135848200,5.82284814453125,0.1265781819820404,-0.06480136513710022,-0.2265268862247467
1761479526145884200,5.83288427734375,0.10890491306781769,-0.03630128130316734,-0.2709406912326813
1761479526155921200,5.842921142578125,0.017728663980960846,-0.005646966863423586,-0.20196907222270966
1761479526165957000,5.85295703125,-0.09090620279312134,0.02604491636157036,-0.03142903000116348
1761479526175993300,5.862993408203125,-0.22257155179977417,0.014247112907469273,0.19704729318618774
1761479526186029300,5.873029296875,-0.3765571415424347,-0.17948932945728302,0.3834291398525238
1761479526196065500,5.8830654296875,-0.4472312927246094,-0.28884005546569824,0.4606429636478424
1761479526206101500,5.8931015625,-0.4172065556049347,-0.2328135371208191,0.4819677174091339
1761479526216137500,5.903137451171875,-0.27187225222587585,-0.15867166221141815,0.5522969961166382
1761479526226173400,5.91317333984375,-0.052862416952848434,-0.17871515452861786,0.7178609371185303
1761479526236209400,5.92320947265625,0.1674172282218933,-0.531697154045105,0.8917368650436401
1761479526246245400,5.933245361328125,0.42633986473083496,-0.9171250462532043,0.9664835333824158
1761479526256281300,5.94328125,0.6668635010719299,-1.0287245512008667,0.8125845193862915
1761479526266317300,5.9533173828125,0.8186938166618347,-0.8215327262878418,0.5196940302848816
1761479526276353300,5.963353271484375,0.8979880809783936,-0.5427013635635376,0.264054536819458
1761479526286389200,5.97338916015625,0.9378601312637329,-0.3106643855571747,0.1391184777021408
1761479526296426200,5.98342626953125,1.046264410018921,-0.44769495725631714,-0.07769745588302612
1761479526306462200,5.993462158203125,1.1984856128692627,-0.6725685596466064,-0.6734748482704163
1761479526316498200,6.003498291015625,1.3217284679412842,-0.5057153701782227,-1.4672363996505737
1761479526326534100,6.0135341796875,1.0869420766830444,-0.18610595166683197,-1.972698450088501
1761479526336570400,6.0235703125,-0.0209465604275465,-0.0030213561840355396,-1.8218841552734375
1761479526346606300,6.0336064453125,-1.42120361328125,0.2365472912788391,-1.3511528968811035
1761479526356642300,6.043642333984375,-2.3720476627349854,0.7980843782424927,-0.849614679813385
1761479526366678300,6.05367822265625,-2.6299562454223633,1.0784015655517578,-0.5001121163368225
1761479526376714200,6.06371435546875,-2.3306326866149902,1.1059184074401855,-0.3625243902206421
1761479526386750200,6.073750244140625,-1.6954493522644043,1.0284185409545898,-0.40427371859550476
1761479526396786200,6.0837861328125,-1.1111563444137573,0.5523526668548584,-0.44289645552635193
1761479526406822400,6.093822509765625,-0.5679625272750854,0.24863991141319275,-0.5229343175888062
1761479526416858400,6.1038583984375,-0.23633237183094025,0.28898999094963074,-0.5991798043251038
1761479526426894300,6.113894287109375,-0.19727098941802979,0.3254590630531311,-0.6548369526863098
1761479526436930300,6.123930419921875,-0.28728237748146057,0.5562110543251038,-0.6684451699256897
1761479526446967300,6.13396728515625,-0.32250267267227173,0.7204018235206604,-0.5734164118766785
1761479526457003300,6.144003173828125,-0.21130052208900452,0.7424829006195068,-0.4108929932117462
1761479526467039200,6.154039306640625,0.00421232171356678,0.6843317151069641,-0.25623631477355957
1761479526477075500,6.164075439453125,0.24973446130752563,0.5802697539329529,-0.11574523895978928
1761479526487111400,6.174111328125,0.49143630266189575,0.42040714621543884,0.018182998523116112
1761479526497147400,6.1841474609375,0.6928277611732483,0.29421350359916687,0.1417696475982666
1761479526507183400,6.194183349609375,0.8073801398277283,0.11347995698451996,0.27143868803977966
1761479526517219300,6.20421923828125,0.7870296239852905,-0.0647672787308693,0.41015371680259705
1761479526527255300,6.21425537109375,0.6524321436882019,-0.2723846435546875,0.47812584042549133
1761479526537291300,6.224291259765625,0.4050920903682709,-0.31251075863838196,0.4639256000518799
1761479526547327200,6.2343271484375,0.09764932841062546,-0.25355345010757446,0.45919474959373474
1761479526557363200,6.24436328125,-0.11041545867919922,0.012202337384223938,0.5019797682762146
1761479526567399200,6.254399169921875,-0.29990655183792114,0.26421648263931274,0.5580022931098938
1761479526577435100,6.26443505859375,-0.42227986454963684,0.2927759289741516,0.6464133858680725
1761479526587471400,6.274471435546875,-0.5086677670478821,0.38134893774986267,0.808671236038208
1761479526597508400,6.28450830078125,-0.5748504996299744,0.4845144748687744,0.9573891162872314
1761479526607544300,6.29454443359375,-0.7028763890266418,0.42017143964767456,1.0091633796691895
1761479526617580300,6.304580322265625,-0.7923426032066345,0.514882504940033,0.8858957290649414
1761479526627616500,6.314616455078125,-0.9483433961868286,0.7005796432495117,0.7417771816253662
1761479526637652500,6.324652587890625,-0.8527609705924988,0.20130275189876556,0.08153454214334488
1761479526647688400,6.3346884765625,-0.46118733286857605,0.010926683433353901,-0.3648461401462555
1761479526657724400,6.344724365234375,-0.09152911603450775,-0.2925679385662079,-0.7858314514160156
1761479526667760400,6.354760498046875,0.16622759401798248,-0.5405404567718506,-0.9331282377243042
1761479526677796400,6.36479638671875,0.3096827566623688,-0.8696256875991821,-0.7054111957550049
1761479526687832300,6.374832275390625,0.2972535192966461,-1.06577730178833,-0.025431323796510696
1761479526697868300,6.384868408203125,0.18608412146568298,-1.095051646232605,0.8084129095077515
