time,seconds_elapsed,z,y,x
1761479520401483500,0.0884833984375,0.2042335420846939,0.07104496657848358,-0.18091847002506256
1761479520411519500,0.09851953125,0.24608482420444489,0.15538927912712097,-0.18961000442504883
1761479520421555500,0.108555419921875,0.2531379461288452,0.18339082598686218,-0.14888760447502136
1761479520431591400,0.11859130859375,0.26406219601631165,0.22322145104408264,-0.07425415515899658
1761479520441627400,0.12862744140625,0.3044336140155792,0.19987991452217102,0.009573635645210743
1761479520451663600,0.13866357421875,0.3596540689468384,0.2463051974773407,0.09687332808971405
1761479520461699600,0.148699462890625,0.39320671558380127,0.22929957509040833,0.14891070127487183
1761479520471735600,0.158735595703125,0.3863831162452698,0.09775680303573608,0.20122002065181732
1761479520481771500,0.168771484375,0.2854546308517456,-0.2581395208835602,0.36524516344070435
1761479520491807500,0.178807373046875,0.2575077414512634,-0.46627509593963623,0.4384687840938568
1761479520501843500,0.188843505859375,0.28032755851745605,-0.42608481645584106,0.4183605909347534
1761479520511879400,0.19887939453125,0.3205345571041107,-0.2783411145210266,0.34846171736717224
1761479520521915400,0.208915283203125,0.34904715418815613,-0.07538667321205139,0.29678788781166077
1761479520531952600,0.21895263671875,0.3323650062084198,0.12950468063354492,0.2712586522102356
1761479520541988600,0.228988525390625,0.27759552001953125,0.19303810596466064,0.25926244258880615
1761479520552024600,0.239024658203125,0.23999178409576416,0.229833722114563,0.20768246054649353
1761479520562060500,0.249060546875,0.19564217329025269,0.19462540745735168,0.16328942775726318
1761479520572096500,0.259096435546875,0.08581353724002838,-0.19424033164978027,0.24549025297164917
1761479520582132500,0.269132568359375,0.1878187358379364,-0.4434906244277954,0.2837830185890198
1761479520592168400,0.27916845703125,0.4047892987728119,-0.3536049425601959,0.21102368831634521
1761479520602204700,0.28920458984375,0.5363004803657532,-0.26985517144203186,0.15765047073364258
1761479520612240600,0.29924072265625,0.5274868011474609,-0.3554080128669739,0.18794463574886322
1761479520622276600,0.309276611328125,0.3602016568183899,-0.4325627386569977,0.2381066083908081
1761479520632312600,0.3193125,0.09170668572187424,-0.46384719014167786,0.27756938338279724
1761479520642348500,0.3293486328125,-0.17164106667041779,-0.427302747964859,0.2869831323623657
1761479520652384500,0.339384521484375,-0.42003342509269714,-0.3213094472885132,0.2603732943534851
1761479520662421500,0.34942138671875,-0.6246147751808167,-0.263235479593277,0.23482665419578552
1761479520672457500,0.35945751953125,-0.7240859866142273,-0.3229086101055145,0.15658755600452423
1761479520682493400,0.369493408203125,-0.676505982875824,-0.4094943702220917,0.02931349352002144
1761479520692529400,0.379529296875,-0.5464858412742615,-0.4610901474952698,-0.1518649458885193
1761479520702565400,0.3895654296875,-0.4254576861858368,-0.4220018684864044,-0.30706173181533813
1761479520712601300,0.399601318359375,-0.3425648510456085,-0.286091685295105,-0.43041786551475525
1761479520722637600,0.409637451171875,-0.34353795647621155,-0.0543719083070755,-0.5092054009437561
1761479520732673500,0.419673583984375,-0.41038763523101807,0.19946740567684174,-0.5637496709823608
1761479520742709800,0.429709716796875,-0.47707265615463257,0.39882180094718933,-0.6152306795120239
1761479520752745700,0.439745849609375,-0.4954153895378113,0.4480768144130707,-0.7091648578643799
1761479520762781700,0.44978173828125,-0.5069165229797363,0.35127463936805725,-0.8638880848884583
1761479520772817700,0.459817626953125,-0.5470016598701477,0.25737276673316956,-1.0588301420211792
1761479520782853600,0.469853515625,-0.6562764644622803,0.26533403992652893,-1.211960792541504
1761479520792889600,0.4798896484375,-0.8062533140182495,0.395271897315979,-1.1945178508758545
1761479520802926600,0.489926513671875,-0.9065154194831848,0.5172721147537231,-1.0356559753417969
1761479520812962600,0.499962646484375,-0.8838551640510559,0.8286454081535339,-0.8323235511779785
1761479520822998500,0.50999853515625,-0.6278244256973267,0.8823209404945374,-0.6577370762825012
1761479520833034500,0.520034423828125,-0.3304271101951599,0.8596499562263489,-0.46119019389152527
1761479520843070500,0.530070556640625,-0.05150388926267624,0.583859384059906,-0.391679048538208
1761479520853106400,0.5401064453125,0.2596023976802826,0.31409379839897156,-0.4063619077205658
1761479520863142400,0.550142333984375,0.5156784057617188,0.05297937989234924,-0.4395374357700348
1761479520873178400,0.560178466796875,0.6830044388771057,-0.20967629551887512,-0.34781864285469055
1761479520883214600,0.570214599609375,0.7658429145812988,-0.43065181374549866,-0.07412585616111755
1761479520893250600,0.58025048828125,0.7964961528778076,-0.5484197735786438,0.18978798389434814
1761479520903286500,0.59028662109375,0.7529122233390808,-0.5517644286155701,0.4325697422027588
1761479520913322500,0.600322509765625,0.5908564925193787,-0.5195325613021851,0.7946291565895081
1761479520923358500,0.6103583984375,0.40855300426483154,-0.3775975704193115,1.1463147401809692
1761479520933394400,0.62039453125,0.2551814913749695,-0.378065824508667,1.4024168252944946
1761479520943431700,0.630431640625,0.11644889414310455,-0.4772523045539856,1.5420063734054565
1761479520953467600,0.640467529296875,0.07095259428024292,-0.6573348045349121,1.5594227313995361
1761479520963503600,0.650503662109375,0.09120966494083405,-0.9243435859680176,1.4096870422363281
1761479520973539600,0.66053955078125,0.10672220587730408,-1.0598818063735962,1.097442388534546
1761479520983575600,0.670575439453125,0.09135283529758453,-1.0088934898376465,0.7486308813095093
1761479520993611500,0.680611572265625,0.06553367525339127,-0.8607963919639587,0.4568980932235718
1761479521003647500,0.6906474609375,0.033097703009843826,-0.5619292855262756,0.2940167486667633
1761479521013683500,0.700683349609375,-0.016685891896486282,-0.2513520419597626,0.21153339743614197
1761479521023719400,0.710719482421875,-0.04111054539680481,-0.04277326539158821,0.1542285531759262
1761479521033755600,0.720755615234375,0.0036251128185540438,0.0727672204375267,0.12323169410228729
1761479521043791600,0.73079150390625,0.14786110818386078,0.10190486162900925,0.14794902503490448
1761479521053827600,0.74082763671875,0.25520211458206177,0.07752534002065659,0.19883809983730316
1761479521063864800,0.75086474609375,0.2846587896347046,0.07309596985578537,0.28412026166915894
1761479521073901000,0.760901123046875,0.2459861785173416,0.059382714331150055,0.33489271998405457
1761479521083937000,0.77093701171875,0.20026636123657227,-0.020529162138700485,0.34805938601493835
1761479521093973000,0.780972900390625,0.24950551986694336,-0.012531853280961514,0.44156962633132935
1761479521104009200,0.79100927734375,0.3737254738807678,0.06479436159133911,0.6178905963897705
1761479521114045200,0.801045166015625,0.5701587200164795,0.018860988318920135,0.8089605569839478
1761479521124081200,0.8110810546875,0.7922444939613342,-0.18628044426441193,0.9660617709159851
1761479521134117000,0.8211171875,0.8999677896499634,-0.5124962329864502,1.0224984884262085
1761479521144153000,0.831153076171875,0.8480835556983948,-0.7595547437667847,0.9012239575386047
1761479521154189000,0.84118896484375,0.6927538514137268,-0.742550253868103,0.6389886140823364
1761479521164225000,0.85122509765625,0.5079749226570129,-0.6756945252418518,0.34326666593551636
1761479521174261000,0.861260986328125,0.4114093482494354,-0.6458178758621216,0.11071218550205231
1761479521184297000,0.871296875,0.38432180881500244,-0.5513832569122314,-0.08030810207128525
1761479521194334000,0.881333984375,0.3959003984928131,-0.47984617948532104,-0.34744465351104736
1761479521204370000,0.891369873046875,0.3089982569217682,-0.3813406229019165,-0.7106736898422241
1761479521214406000,0.901406005859375,0.01536279171705246,-0.25287628173828125,-1.02522873878479
1761479521224442000,0.911442138671875,-0.5943570137023926,-0.3339117467403412,-1.0616226196289062
1761479521234478000,0.92147802734375,-1.2000916004180908,-0.47555258870124817,-0.9475073218345642
1761479521244514000,0.93151416015625,-1.4672671556472778,-0.3720639944076538,-0.7999215722084045
1761479521254550000,0.941550048828125,-1.2593533992767334,-0.09222188591957092,-0.62448650598526
1761479521264586000,0.9515859375,-0.8428110480308533,0.1479203999042511,-0.36902788281440735
1761479521274622000,0.9616220703125,-0.4654272198677063,0.2974996268749237,-0.12669605016708374
1761479521284658000,0.971657958984375,-0.2365437000989914,0.40715473890304565,-0.015585241839289665
1761479521294694000,0.98169384765625,-0.14263829588890076,0.4881781339645386,-0.1297391802072525
1761479521304729900,0.991729736328125,-0.193015456199646,0.6078779101371765,-0.44490912556648254
1761479521314767000,1.00176708984375,-0.38769030570983887,0.7692257761955261,-0.7956821322441101
1761479521324803000,1.011802978515625,-0.6759026646614075,0.9432321786880493,-0.975909411907196
1761479521334839000,1.021839111328125,-0.8152098059654236,1.0934984683990479,-0.9754618406295776
1761479521344875000,1.031875,-0.7216694355010986,1.0571413040161133,-0.8769400715827942
1761479521354911000,1.041910888671875,-0.4122788608074188,0.7868485450744629,-0.7004292607307434
1761479521364947200,1.051947265625,0.007715499959886074,0.4698396921157837,-0.40037283301353455
1761479521374983200,1.061983154296875,0.4254848062992096,0.2656228244304657,-0.03256598860025406
1761479521385019100,1.07201904296875,0.7096065282821655,0.0740179568529129,0.36848369240760803
1761479521395055000,1.08205517578125,0.7634493708610535,-0.1635132133960724,0.7764649987220764
1761479521405091000,1.092091064453125,0.7147929072380066,-0.38161036372184753,1.0013595819473267
1761479521415127000,1.102126953125,0.6804027557373047,-0.4581194818019867,1.0048185586929321
1761479521425164000,1.1121640625,0.6572141051292419,-0.36500975489616394,0.8508878946304321
1761479521435200000,1.122199951171875,0.6067842245101929,-0.25211942195892334,0.6649544835090637
1761479521445236000,1.132236083984375,0.5774627923965454,-0.19732384383678436,0.47650837898254395
1761479521455272000,1.14227197265625,0.46496501564979553,-0.27895206212997437,0.4000309705734253
1761479521465308000,1.152307861328125,0.33800891041755676,-0.445745587348938,0.4108878970146179
1761479521475344000,1.16234375,0.275432825088501,-0.5283499956130981,0.45652657747268677
1761479521485379800,1.1723798828125,0.20767083764076233,-0.5831267237663269,0.5041103959083557
1761479521495415800,1.182415771484375,0.11093764007091522,-0.5636616349220276,0.4820324182510376
1761479521505452000,1.1924521484375,-0.011989878490567207,-0.43489938974380493,0.34501147270202637
1761479521515488300,1.20248828125,-0.1494331955909729,-0.23518136143684387,0.06562837958335876
1761479521525524200,1.212524169921875,-0.29011812806129456,-0.07425560802221298,-0.2982473075389862
1761479521535560200,1.222560302734375,-0.4133055806159973,0.07421083003282547,-0.6277962327003479
1761479521545597200,1.23259716796875,-0.5191468000411987,0.18823593854904175,-0.8542690277099609
1761479521555633200,1.242633056640625,-0.5757642984390259,0.2940513789653778,-0.9257785081863403
1761479521565669000,1.252669189453125,-0.5919520854949951,0.3446117639541626,-0.873037576675415
1761479521575705000,1.262705078125,-0.5938484072685242,0.33429333567619324,-0.7123005986213684
1761479521585741000,1.272740966796875,-0.6178919672966003,0.2928958237171173,-0.47808972001075745
1761479521595777000,1.282777099609375,-0.6130090355873108,0.217912495136261,-0.1752621978521347
1761479521605813000,1.29281298828125,-0.4739486575126648,0.13846027851104736,0.19427883625030518
1761479521615849000,1.302848876953125,-0.310555100440979,0.04683610051870346,0.5432718396186829
1761479521625885000,1.312885009765625,-0.22100630402565002,-0.09874479472637177,0.8239365816116333
1761479521635921000,1.3229208984375,-0.0936204120516777,-0.35223156213760376,0.9615671634674072
1761479521645957000,1.33295703125,0.018251262605190277,-0.5098963379859924,0.9869763851165771
1761479521655993900,1.342993896484375,0.09359004348516464,-0.6483554244041443,0.9236259460449219
1761479521666029800,1.35302978515625,0.23230451345443726,-0.7563013434410095,0.7674267292022705
1761479521676066000,1.363066162109375,0.36709901690483093,-0.9131363034248352,0.6534423828125
1761479521686102300,1.373102294921875,0.4441085755825043,-1.0282418727874756,0.5360393524169922
1761479521696138200,1.38313818359375,0.505151093006134,-1.1087603569030762,0.3388306796550751
1761479521706174200,1.39317431640625,0.5085668563842773,-1.0335177183151245,0.043518345803022385
1761479521716210200,1.403210205078125,0.42487362027168274,-0.6961227655410767,-0.2969527542591095
1761479521726246100,1.41324609375,0.2725892961025238,-0.2595480978488922,-0.6744494438171387
1761479521736282000,1.4232822265625,-0.03266749158501625,0.16202187538146973,-1.019762635231018
1761479521746318000,1.433318115234375,-0.5065895318984985,0.275202214717865,-1.1741234064102173
1761479521756354000,1.44335400390625,-1.0346853733062744,0.14974598586559296,-1.087751865386963
1761479521766391000,1.45339111328125,-1.4215515851974487,-0.007754427846521139,-0.8196142911911011
1761479521776427000,1.463427001953125,-1.6291555166244507,0.011935870163142681,-0.6209740042686462
1761479521786463000,1.473462890625,-1.5068024396896362,0.18919800221920013,-0.5137431025505066
1761479521796499000,1.4834990234375,-1.2347146272659302,0.20888210833072662,-0.41515645384788513
1761479521806535000,1.493534912109375,-0.9506187438964844,0.12286999821662903,-0.30256253480911255
1761479521816571000,1.50357080078125,-0.6537678837776184,0.025695238262414932,-0.2357661873102188
1761479521826607000,1.513607177734375,-0.4482342004776001,0.026366088539361954,-0.255612313747406
1761479521836643000,1.52364306640625,-0.3652418553829193,0.23495648801326752,-0.44954627752304077
1761479521846679000,1.533678955078125,-0.42372727394104004,0.4832211434841156,-0.7384446263313293
1761479521856715000,1.543715087890625,-0.5458313822746277,0.6924579739570618,-0.9492068886756897
1761479521866751000,1.5537509765625,-0.5999529361724854,0.7745962142944336,-0.9939075112342834
1761479521876788200,1.563788330078125,-0.5174576640129089,0.7300041913986206,-0.8653027415275574
1761479521886824200,1.57382421875,-0.2555014193058014,0.5316681861877441,-0.585436224937439
1761479521896860200,1.583860107421875,0.12628792226314545,0.22614403069019318,-0.21209953725337982
1761479521906896100,1.593896240234375,0.47522807121276855,-0.041188858449459076,0.18971528112888336
1761479521916932000,1.60393212890625,0.7345782518386841,-0.24721184372901917,0.5400270223617554
1761479521926968000,1.613968017578125,0.8516817092895508,-0.42408275604248047,0.8072502017021179
1761479521937004000,1.624004150390625,0.7783344388008118,-0.6352778673171997,0.9823380708694458
1761479521947040000,1.6340400390625,0.5477784276008606,-0.7625694870948792,1.080458641052246
1761479521957076000,1.644075927734375,0.2894206941127777,-0.7817661762237549,1.0467665195465088
1761479521967112200,1.6541123046875,0.07711883634328842,-0.6941663026809692,0.9205532073974609
1761479521977148200,1.664148193359375,-0.020209044218063354,-0.5805225372314453,0.7525686621665955
1761479521987185000,1.674184814453125,-0.037302277982234955,-0.4872373342514038,0.6206468343734741
1761479521997221000,1.68422119140625,0.08287837356328964,-0.20379653573036194,0.38336479663848877
1761479522007257000,1.694257080078125,0.18991880118846893,0.1428130716085434,0.2302069365978241
1761479522017293000,1.70429296875,0.21661674976348877,0.31581878662109375,0.2162046730518341
1761479522027329000,1.7143291015625,0.22837141156196594,0.2509433925151825,0.2319657951593399
1761479522037365000,1.724364990234375,0.2404155284166336,0.1344965249300003,0.18180857598781586
1761479522047401000,1.73440087890625,0.27711737155914307,0.05360142141580582,-0.002313590608537197
1761479522057437000,1.74443701171875,0.3175404965877533,-0.02054312825202942,-0.2925654351711273
1761479522067473000,1.754472900390625,0.2965198755264282,-0.023690717294812202,-0.5879161357879639
1761479522077508900,1.7645087890625,0.20878764986991882,0.06531532108783722,-0.8220615386962891
1761479522087544800,1.774544921875,0.060783274471759796,0.14647062122821808,-0.9276103377342224
1761479522097582000,1.78458203125,-0.15356582403182983,0.2766554653644562,-0.8219432234764099
1761479522107618000,1.7946181640625,-0.3384395241737366,0.3732278048992157,-0.6171805262565613
1761479522117654000,1.804654052734375,-0.4381144940853119,0.4110378623008728,-0.3468179702758789
1761479522127690000,1.81468994140625,-0.4486616551876068,0.2716139256954193,-0.11068027466535568
1761479522137726000,1.824725830078125,-0.3960494101047516,0.09592347592115402,0.13272076845169067
1761479522147762200,1.83476220703125,-0.2003086507320404,-0.00345052033662796,0.4545997381210327
1761479522157798100,1.844798095703125,0.07708338648080826,-0.11287511140108109,0.7524963021278381
1761479522167834000,1.854834228515625,0.31139999628067017,-0.13777272403240204,0.9740369915962219
1761479522177870000,1.8648701171875,0.5173386335372925,-0.14778298139572144,0.9798189401626587
1761479522187906000,1.874906005859375,0.6612585186958313,-0.3901383578777313,0.7143670320510864
1761479522197942000,1.88494189453125,0.6911956071853638,-0.7784700989723206,0.27304521203041077
1761479522207979000,1.89497900390625,0.602042555809021,-1.0633409023284912,-0.12241528183221817
1761479522218015000,1.905014892578125,0.4382713735103607,-1.0066461563110352,-0.34251004457473755
1761479522228051000,1.915051025390625,0.208170548081398,-0.5550537705421448,-0.4788556396961212
1761479522238087000,1.9250869140625,-0.03935181349515915,0.0860368013381958,-0.6493618488311768
1761479522248123000,1.935122802734375,-0.3383403718471527,0.5993608832359314,-0.864389181137085
1761479522258158800,1.945158935546875,-0.7092099785804749,0.9961560368537903,-1.0455104112625122
1761479522268195000,1.955195068359375,-1.1440876722335815,1.1307090520858765,-0.9827176332473755
1761479522278231000,1.96523095703125,-1.4733808040618896,0.9562146067619324,-0.7093676924705505
1761479522288267000,1.97526708984375,-1.5354063510894775,0.6637507677078247,-0.44472694396972656
1761479522298303200,1.98530322265625,-1.2559614181518555,0.3708719313144684,-0.25033286213874817
1761479522308339200,1.995339111328125,-0.8148906230926514,0.11225743591785431,-0.07530806958675385
1761479522318376200,2.005376220703125,-0.45636236667633057,0.08511637896299362,-0.0422307513654232
1761479522328412200,2.015412109375,-0.31983354687690735,0.3663523197174072,-0.24270473420619965
1761479522338448100,2.0254482421875,-0.4027847349643707,0.9125400185585022,-0.5465265512466431
1761479522348484000,2.035484130859375,-0.6198837757110596,1.3785420656204224,-0.7463719844818115
1761479522358520000,2.04552001953125,-0.781212329864502,1.684279203414917,-0.8541949391365051
1761479522368556000,2.05555615234375,-0.7863538265228271,1.902888536453247,-0.9591181874275208
1761479522378592000,2.065592041015625,-0.6150031089782715,1.9210600852966309,-1.1282975673675537
1761479522388628000,2.0756279296875,-0.31552180647850037,1.5652685165405273,-1.23972749710083
1761479522398664000,2.085663818359375,0.010537471622228622,1.099830150604248,-1.1229971647262573
1761479522408700000,2.095699951171875,0.3378245234489441,0.8072419762611389,-0.7119182348251343
1761479522418735900,2.10573583984375,0.6521860957145691,0.65387362241745,-0.17213670909404755
1761479522428772900,2.11577294921875,0.8614853024482727,0.5176327228546143,0.3931301534175873
1761479522438808800,2.125808837890625,0.9580935835838318,0.3462902903556824,0.819280207157135
1761479522448845000,2.135844970703125,0.9202250242233276,0.1887693852186203,1.1232256889343262
1761479522458881000,2.145881103515625,0.8215126991271973,-0.02669101394712925,1.24782395362854
1761479522468917200,2.155917236328125,0.7011900544166565,-0.3147377371788025,1.3145811557769775
1761479522478953200,2.165953125,0.6219269633293152,-0.5420200824737549,1.2783619165420532
1761479522488989200,2.1759892578125,0.5718702077865601,-0.613220751285553,1.225734829902649
1761479522499025200,2.186025146484375,0.5179755687713623,-0.6596986055374146,1.1523610353469849
1761479522509061000,2.19606103515625,0.4396778345108032,-0.6945295333862305,1.0642999410629272
1761479522519097000,2.20609716796875,0.3458043336868286,-0.6417084336280823,0.9955770373344421
1761479522529133000,2.216133056640625,0.3812379837036133,-0.6086269021034241,0.9134001731872559
1761479522539170000,2.226170166015625,0.4299764633178711,-0.7438653111457825,0.7648664712905884
1761479522549206000,2.2362060546875,0.47134652733802795,-0.8601083159446716,0.5998796820640564
1761479522559242000,2.246241943359375,0.4841357171535492,-0.7964058518409729,0.40796658396720886
1761479522569278000,2.25627783203125,0.4023450016975403,-0.541304349899292,0.18360060453414917
1761479522579314000,2.26631396484375,0.28201615810394287,-0.2563041150569916,0.0027598892338573933
1761479522589350000,2.276349853515625,0.17444470524787903,-0.05526313930749893,-0.09383189678192139
1761479522599385900,2.2863857421875,0.12339401245117188,0.053338538855314255,-0.09378555417060852
1761479522609422000,2.296422119140625,0.09861382842063904,0.0015219468623399734,-0.02580304443836212
1761479522619458000,2.3064580078125,0.08198443800210953,-0.11341607570648193,0.10291104763746262
1761479522629494000,2.316493896484375,0.04178508371114731,-0.12433503568172455,0.3031408190727234
1761479522639530000,2.326530029296875,-0.01805957779288292,-0.0946163684129715,0.4814265966415405
1761479522649566000,2.33656591796875,-0.02310893125832081,-0.0846787765622139,0.5827463269233704
1761479522659603200,2.346603271484375,0.039054784923791885,-0.1852070540189743,0.6390268802642822
1761479522669639200,2.35663916015625,0.13328807055950165,-0.38923341035842896,0.6583816409111023
1761479522679675100,2.366675048828125,0.25296786427497864,-0.5777146816253662,0.6308316588401794
1761479522689711000,2.376711181640625,0.39434948563575745,-0.7475436925888062,0.4902889132499695
1761479522699747000,2.3867470703125,0.5683215260505676,-0.9228065609931946,0.32050642371177673
1761479522709783000,2.396782958984375,0.7401052713394165,-1.2315462827682495,0.27170559763908386
1761479522719819000,2.406819091796875,0.867011308670044,-1.4359627962112427,0.3107616901397705
1761479522729855000,2.41685498046875,0.9776150584220886,-1.5259822607040405,0.4381031394004822
1761479522739891000,2.426890869140625,1.0315473079681396,-1.4588171243667603,0.6395009756088257
1761479522749927200,2.43692724609375,1.0191553831100464,-1.3120167255401611,0.7128502726554871
1761479522759963100,2.446963134765625,0.857401430606842,-0.9154332280158997,0.5335477590560913
1761479522770000000,2.456999755859375,0.4019513726234436,-0.5460914373397827,0.14736223220825195
1761479522780036000,2.4670361328125,-0.4651723802089691,-0.309400349855423,-0.3220820724964142
1761479522790072000,2.477072021484375,-1.454633355140686,-0.10041063278913498,-0.7200493812561035
1761479522800108000,2.48710791015625,-2.0287232398986816,0.025194087997078896,-0.9311710000038147
1761479522810144000,2.49714404296875,-1.9012316465377808,0.09896151721477509,-1.071609377861023
1761479522820180000,2.507179931640625,-1.3546857833862305,0.1492939442396164,-1.180117130279541
1761479522830216000,2.5172158203125,-0.7665272355079651,0.15103857219219208,-1.1293482780456543
1761479522840252000,2.527251953125,-0.30845099687576294,0.25860774517059326,-0.9984562397003174
1761479522850288000,2.5372880859375,-0.05641956999897957,0.5190896391868591,-0.9315845370292664
1761479522860324000,2.547323974609375,-0.13877594470977783,0.7581023573875427,-1.0666868686676025
1761479522870360000,2.557360107421875,-0.5094485282897949,0.9137076735496521,-1.3538709878921509
1761479522880397000,2.56739697265625,-0.9191393256187439,1.1161118745803833,-1.5864307880401611
1761479522890433000,2.57743310546875,-1.154361367225647,1.1797430515289307,-1.6065635681152344
1761479522900469000,2.587468994140625,-1.187743902206421,1.0790398120880127,-1.367418646812439
1761479522910505000,2.5975048828125,-0.9730188250541687,0.8982969522476196,-0.8967762589454651
1761479522920541000,2.607541015625,-0.43669989705085754,0.8270706534385681,-0.3001211881637573
1761479522930577200,2.6175771484375,0.11845467239618301,0.8498073816299438,0.2828386425971985
1761479522940613000,2.627613037109375,0.5721211433410645,0.5614382028579712,0.7389603853225708
1761479522950649000,2.637649169921875,0.8832142949104309,0.1412518173456192,0.8940426111221313
1761479522960685000,2.64768505859375,1.069679856300354,-0.24378059804439545,0.7221963405609131
1761479522970721000,2.657720947265625,1.0317164659500122,-0.49938732385635376,0.4964228570461273
1761479522980757000,2.667757080078125,0.8347203731536865,-0.468429297208786,0.31636711955070496
1761479522990794000,2.6777939453125,0.5788670778274536,-0.3417661488056183,0.32218319177627563
1761479523000830000,2.687829833984375,0.39553919434547424,-0.20888042449951172,0.48494505882263184
1761479523010866000,2.697865966796875,0.2836049199104309,-0.07107782363891602,0.7310259342193604
1761479523020902000,2.70790185546875,0.2287384569644928,-0.026345934718847275,0.9686214923858643
1761479523030938000,2.717938232421875,0.19578610360622406,-0.11588620394468307,1.0881363153457642
1761479523040974000,2.72797412109375,0.2295820116996765,-0.25576841831207275,1.0471394062042236
1761479523051010000,2.738010009765625,0.3094845712184906,-0.2648830711841583,0.8761504888534546
1761479523061045800,2.748045654296875,0.3692997395992279,-0.2188250869512558,0.6464719772338867
1761479523071081700,2.758081787109375,0.3707543611526489,-0.08774083852767944,0.40621063113212585
1761479523081117700,2.76811767578125,0.31501784920692444,0.06578216701745987,0.17664183676242828
1761479523091153700,2.778153564453125,0.25989627838134766,0.28573527932167053,-0.018279187381267548
1761479523101189600,2.788189697265625,0.24354779720306396,0.4034532606601715,-0.15162260830402374
1761479523111226600,2.7982265625,0.3007109463214874,0.3368832767009735,-0.1802808940410614
1761479523121262600,2.8082626953125,0.37807968258857727,0.19635175168514252,-0.10917863994836807
1761479523131298600,2.818298583984375,0.428275465965271,0.09591381996870041,0.010802359320223331
1761479523141334500,2.82833447265625,0.4201391041278839,-0.0009885365143418312,0.1386978030204773
1761479523151370500,2.83837060546875,0.37666910886764526,-0.08378701657056808,0.2400912642478943
1761479523161406500,2.848406494140625,0.3419418931007385,-0.16179834306240082,0.29612183570861816
1761479523171442400,2.8584423828125,0.3514019846916199,-0.18134701251983643,0.35070252418518066
1761479523181478400,2.868478515625,0.4314976930618286,-0.02524866722524166,0.4134335219860077
1761479523191514400,2.878514404296875,0.6312970519065857,0.23515388369560242,0.5020126104354858
1761479523201550600,2.888550537109375,0.8814593553543091,0.32187405228614807,0.5910953879356384
1761479523211586600,2.898586669921875,1.0778218507766724,0.2346038818359375,0.6289932727813721
1761479523221623300,2.908623291015625,1.1392619609832764,-0.15585553646087646,0.4955351948738098
1761479523231659800,2.91865966796875,1.0165544748306274,-0.7381397485733032,0.2510002553462982
1761479523241695700,2.92869580078125,0.809459924697876,-1.2696911096572876,0.10055840760469437
1761479523251731700,2.938731689453125,0.5716585516929626,-1.4174596071243286,-0.000044630374759435654
1761479523261767700,2.948767578125,0.4111536741256714,-1.1059175729751587,-0.14648951590061188
1761479523271803600,2.9588037109375,0.040304508060216904,-0.5166729092597961,-0.2404186725616455
1761479523281839600,2.968839599609375,-0.6330979466438293,-0.014217579737305641,-0.30638763308525085
1761479523291875600,2.97887548828125,-1.3272674083709717,0.45861974358558655,-0.5673853754997253
1761479523301911600,2.98891162109375,-1.6680691242218018,0.7590975165367126,-0.8759616613388062
1761479523311947500,2.998947509765625,-1.5107313394546509,0.817051887512207,-1.019305944442749
1761479523321983500,3.0089833984375,-1.1172945499420166,0.6876153945922852,-0.9159500002861023
1761479523332019500,3.01901953125,-0.6769942045211792,0.44774556159973145,-0.6643974184989929
1761479523342056400,3.029056396484375,-0.38608089089393616,0.23009634017944336,-0.3998962640762329
1761479523352092400,3.039092529296875,-0.37069955468177795,0.12176535278558731,-0.2182425856590271
1761479523362128400,3.04912841796875,-0.5037888884544373,0.1452062875032425,-0.1548299491405487
1761479523372164600,3.05916455078125,-0.6410903334617615,0.2844123840332031,-0.13947975635528564
1761479523382200600,3.06920068359375,-0.730083703994751,0.45856404304504395,-0.08586494624614716
1761479523392236500,3.079236572265625,-0.7439611554145813,0.6074129343032837,0.009214433841407299
1761479523402272500,3.0892724609375,-0.5449078679084778,0.7147849202156067,0.11063575744628906
1761479523412308500,3.09930859375,-0.3123286962509155,0.7184486389160156,0.15977826714515686
1761479523422344400,3.109344482421875,-0.18403129279613495,0.5478690266609192,0.18331773579120636
1761479523432380400,3.11938037109375,-0.07118090987205505,0.3002578914165497,0.14504572749137878
1761479523442416400,3.12941650390625,0.0552956759929657,0.202347069978714,0.08798668533563614
1761479523452452400,3.139452392578125,0.20780132710933685,0.07672256231307983,0.12065009027719498
1761479523462489600,3.149489501953125,0.28368327021598816,-0.07413262873888016,0.25407472252845764
1761479523472525600,3.159525634765625,0.3017682731151581,-0.18015705049037933,0.41202521324157715
1761479523482561500,3.1695615234375,0.2975687086582184,-0.2807203233242035,0.5438807010650635
1761479523492597500,3.179597412109375,0.2818200886249542,-0.41051745414733887,0.621320903301239
1761479523502633500,3.189633544921875,0.2589920461177826,-0.564110279083252,0.6497038006782532
1761479523512669400,3.19966943359375,0.21585124731063843,-0.687017023563385,0.666450560092926
1761479523522705700,3.20970556640625,0.21445505321025848,-0.736075758934021,0.6702854037284851
1761479523532741600,3.21974169921875,0.25468504428863525,-0.778817892074585,0.6517084836959839
1761479523542777600,3.229777587890625,0.2862612307071686,-0.7788164615631104,0.5815578103065491
1761479523552813600,3.2398134765625,0.26802414655685425,-0.6574618220329285,0.40122130513191223
1761479523562849500,3.249849609375,0.17349570989608765,-0.4439133405685425,0.10761401802301407
1761479523572885500,3.259885498046875,0.026720639318227768,-0.17612265050411224,-0.2596031427383423
1761479523582922500,3.269922607421875,-0.1221945732831955,0.0566219687461853,-0.6066867113113403
1761479523592958500,3.27995849609375,-0.18198946118354797,0.24653731286525726,-0.8444960713386536
1761479523602994400,3.289994384765625,-0.16933296620845795,0.4370005130767822,-0.9348762035369873
1761479523613030400,3.300030517578125,-0.11315623670816422,0.5881370306015015,-0.8978228569030762
1761479523623066400,3.31006640625,-0.0676417276263237,0.5845044255256653,-0.816100001335144
1761479523633102600,3.3201025390625,-0.031018463894724846,0.41853299736976624,-0.6861899495124817
1761479523643138600,3.330138671875,-0.03838743269443512,0.22655344009399414,-0.4567626416683197
1761479523653174500,3.340174560546875,-0.11465051025152206,0.08743416517972946,-0.11171896755695343
1761479523663210800,3.350210693359375,-0.17395851016044617,0.004505522549152374,0.3685736060142517
1761479523673246700,3.360246826171875,-0.22818446159362793,-0.04444736987352371,0.919147789478302
1761479523683282700,3.37028271484375,-0.20978593826293945,-0.02082565799355507,1.3385236263275146
1761479523693318700,3.380318603515625,-0.12349925190210342,-0.08302485197782516,1.4881796836853027
1761479523703354600,3.390354736328125,0.001289167907088995,-0.08279386162757874,1.3843626976013184
1761479523713391600,3.4003916015625,0.17014236748218536,-0.35398513078689575,1.0388129949569702
1761479523723427600,3.410427490234375,0.3152950704097748,-0.7872895002365112,0.6799108386039734
1761479523733463600,3.420463623046875,0.47137707471847534,-1.2403546571731567,0.5011043548583984
1761479523743499500,3.43049951171875,0.7231780886650085,-1.508410930633545,0.4291522800922394
1761479523753535500,3.440535400390625,0.8834830522537231,-1.2551016807556152,0.3541070520877838
1761479523763571500,3.450571533203125,0.8047844767570496,-0.5532440543174744,0.06996113061904907
1761479523773607400,3.460607421875,0.3238966464996338,0.1774684637784958,-0.393288791179657
1761479523783643400,3.470643310546875,-0.41693615913391113,0.6300641894340515,-0.7721640467643738
1761479523793679400,3.480679443359375,-1.185340404510498,0.7638453841209412,-0.9152939915657043
1761479523803715600,3.490715576171875,-1.720824956893921,0.9003668427467346,-0.9534841179847717
1761479523813751600,3.50075146484375,-1.912449598312378,1.0798064470291138,-1.0201642513275146
1761479523823787500,3.51078759765625,-1.7562172412872314,1.0450009107589722,-1.104359745979309
1761479523833824500,3.520824462890625,-1.4589335918426514,0.8566197752952576,-1.1653155088424683
1761479523843860700,3.53086083984375,-1.1613380908966064,0.7157868146896362,-1.1934419870376587
1761479523853896700,3.540896728515625,-0.9671714901924133,0.693475604057312,-1.087088942527771
1761479523863932700,3.5509326171875,-0.863822877407074,0.7416411638259888,-0.8916078805923462
1761479523873968600,3.56096875,-0.8305323123931885,1.0568315982818604,-0.7355155348777771
1761479523884004600,3.571004638671875,-0.8186435699462891,1.3870110511779785,-0.7288761734962463
1761479523894040600,3.58104052734375,-0.8230774998664856,1.3175052404403687,-0.8281494975090027
1761479523904076500,3.59107666015625,-0.7424789667129517,0.8341463804244995,-0.8771215677261353
1761479523914112500,3.601112548828125,-0.514042854309082,0.3917982280254364,-0.8811749219894409
1761479523924148500,3.6111484375,-0.20423412322998047,0.07142383605241776,-0.8707622289657593
1761479523934184400,3.621184326171875,0.05529810115695,-0.16976560652256012,-0.7521207928657532
1761479523944220400,3.631220458984375,0.23013749718666077,-0.12350311130285263,-0.38528019189834595
1761479523954257400,3.64125732421875,0.3630252480506897,0.17622289061546326,0.21689432859420776
1761479523964293400,3.65129345703125,0.47307589650154114,0.26374533772468567,0.6820593476295471
1761479523974329300,3.661329345703125,0.5285852551460266,0.12156929075717926,0.9144529104232788
1761479523984365600,3.671365478515625,0.45607760548591614,-0.19102972745895386,0.9524255394935608
1761479523994401500,3.681401611328125,0.323834091424942,-0.43171370029449463,0.9125723838806152
1761479524004437500,3.6914375,0.2469049096107483,-0.41718870401382446,0.8620924353599548
1761479524014473500,3.701473388671875,0.24116180837154388,-0.23988530039787292,0.8013907074928284
1761479524024509400,3.711509521484375,0.27116498351097107,-0.021445374935865402,0.7130379676818848
1761479524034545400,3.72154541015625,0.37214404344558716,0.1712026298046112,0.5298811793327332
1761479524044581600,3.73158154296875,0.4983467757701874,0.39817509055137634,0.2960476875305176
1761479524054617600,3.74161767578125,0.5085083842277527,0.4469018876552582,0.1165253072977066
1761479524064653600,3.751653564453125,0.3712676167488098,0.3080504834651947,0.052181486040353775
1761479524074689500,3.761689453125,0.18694116175174713,0.12725698947906494,-0.004719347693026066
1761479524084726500,3.7717265625,-0.019407059997320175,0.14460597932338715,-0.12898392975330353
1761479524094762500,3.781762451171875,-0.2593756914138794,0.22427549958229065,-0.259161114692688
1761479524104798500,3.791798583984375,-0.4282526671886444,0.25505730509757996,-0.3096947968006134
1761479524114834400,3.80183447265625,-0.4528224468231201,0.29044246673583984,-0.30157190561294556
1761479524124870700,3.81187060546875,-0.42165786027908325,0.27440884709358215,-0.19537977874279022
1761479524134907000,3.821906982421875,-0.3388380706310272,0.300125390291214,0.024318495765328407
1761479524144942800,3.83194287109375,-0.21607492864131927,0.34715643525123596,0.3033244013786316
1761479524154978800,3.841978759765625,-0.1178266629576683,0.39473727345466614,0.5083978772163391
1761479524165014800,3.852014892578125,-0.03728027269244194,0.34808167815208435,0.5374062657356262
1761479524175050800,3.86205078125,-0.04039883613586426,0.20204591751098633,0.38017696142196655
1761479524185086700,3.872086669921875,-0.09037965536117554,-0.209620401263237,0.14142218232154846
1761479524195122700,3.882122802734375,-0.05122533068060875,-0.4785972833633423,-0.07307253032922745
1761479524205158700,3.89215869140625,-0.0027517136186361313,-0.40695902705192566,-0.265987753868103
1761479524215195600,3.902195556640625,0.10751141607761383,-0.2854384481906891,-0.6443449258804321
1761479524225231600,3.912231689453125,0.3082404136657715,-0.5578141808509827,-1.0660629272460938
1761479524235267600,3.922267578125,0.5662581324577332,-0.8125455379486084,-1.3229442834854126
1761479524245303600,3.932303466796875,0.8202809691429138,-0.6556850671768188,-1.4217151403427124
1761479524255339500,3.942339599609375,0.713036298751831,-0.20555759966373444,-1.1357778310775757
1761479524265375500,3.95237548828125,0.016274888068437576,0.04690675809979439,-0.26940080523490906
1761479524275411700,3.96241162109375,-0.8355656862258911,-0.018749220296740532,0.542349100112915
1761479524285447700,3.97244775390625,-1.1462801694869995,0.3171633183956146,1.0627857446670532
1761479524295483600,3.982483642578125,-0.9909549951553345,0.33663928508758545,0.9355205297470093
1761479524305519600,3.99251953125,-0.6003567576408386,0.047941904515028,0.31122922897338867
1761479524315554600,4.002554443359375,-0.24372971057891846,-0.13610543310642242,-0.49526143074035645
1761479524325590500,4.012590576171875,-0.14883321523666382,-0.029661931097507477,-1.210307240486145
1761479524335626500,4.02262646484375,-0.3104844391345978,0.2824821174144745,-1.5905781984329224
1761479524345663500,4.03266357421875,-0.6244215369224548,0.7425020933151245,-1.708750605583191
1761479524355699700,4.04269970703125,-0.9129571914672852,0.7641298770904541,-1.6492904424667358
1761479524365735700,4.052735595703125,-1.1653062105178833,0.9699086546897888,-1.3685938119888306
1761479524375771600,4.062771728515625,-1.3281928300857544,1.1362943649291992,-0.9900084137916565
1761479524385808000,4.072807861328125,-1.3237415552139282,1.1964287757873535,-0.5280126333236694
1761479524395843800,4.08284375,-1.158766508102417,0.9824341535568237,-0.04831630364060402
1761479524405879800,4.0928798828125,-0.9941627383232117,0.3816111981868744,0.39701494574546814
1761479524415915800,4.102915771484375,-0.6979089975357056,-0.2629225254058838,0.7365096807479858
1761479524425951700,4.11295166015625,-0.19792014360427856,-0.4954659640789032,0.8478921055793762
1761479524435987700,4.12298779296875,0.2071107029914856,-0.4242069721221924,0.5862828493118286
1761479524446023700,4.133023681640625,0.4115683138370514,-0.3731929063796997,0.13306282460689545
1761479524456059600,4.1430595703125,0.5273971557617188,-0.1305438131093979,-0.3005128502845764
1761479524466095600,4.153095703125,0.5139645338058472,0.024343304336071014,-0.5591742396354675
1761479524476132600,4.163132568359375,0.3674909174442291,0.028751367703080177,-0.5149732232093811
1761479524486168600,4.17316845703125,0.26079097390174866,0.18463823199272156,-0.24150213599205017
1761479524496204500,4.18320458984375,0.22337782382965088,0.2881827652454376,0.1431424766778946
1761479524506240500,4.193240478515625,0.28222960233688354,0.17249740660190582,0.6205501556396484
1761479524516276500,4.2032763671875,0.3628599941730499,-0.08692430704832077,1.070992112159729
1761479524526312700,4.213312744140625,0.42265787720680237,-0.4301479160785675,1.3863431215286255
1761479524536348700,4.2233486328125,0.47649073600769043,-0.676871120929718,1.5322332382202148
1761479524546384600,4.233384521484375,0.49280083179473877,-0.5267657041549683,1.4698113203048706
1761479524556420600,4.243420654296875,0.4889799952507019,-0.28590136766433716,1.2425832748413086
1761479524566456600,4.25345654296875,0.5106728076934814,-0.15634030103683472,0.980682909488678
1761479524576492500,4.263492431640625,0.5586317777633667,-0.13241766393184662,0.7364881038665771
1761479524586528800,4.27352880859375,0.6413314938545227,-0.292953759431839,0.5345442891120911
1761479524596564700,4.283564697265625,0.7443529367446899,-0.4937475621700287,0.4721599817276001
1761479524606600700,4.2936005859375,0.8314075469970703,-0.7156583070755005,0.5060288906097412
1761479524616637700,4.3036376953125,0.8855652809143066,-0.8818928003311157,0.6349564790725708
1761479524626673700,4.313673583984375,0.7767079472541809,-0.5639318823814392,0.8426751494407654
1761479524636709600,4.323709716796875,0.5017799735069275,-0.1173437163233757,0.9485254287719727
1761479524646745600,4.33374560546875,0.3947887122631073,-0.04140304774045944,0.9905736446380615
1761479524656781600,4.343781494140625,0.5518182516098022,0.08649313449859619,0.8222344517707825
1761479524666817800,4.35381787109375,0.8210712671279907,-0.010817289352416992,0.4766920804977417
1761479524676853800,4.363853759765625,1.0032788515090942,-0.25250688195228577,0.336276113986969
1761479524686889700,4.3738896484375,1.0107645988464355,-0.5135937929153442,0.40680602192878723
1761479524696925700,4.38392578125,0.8692184090614319,-0.5046921968460083,0.4205058515071869
1761479524706961700,4.393961669921875,0.7396140694618225,-0.14283190667629242,0.19286437332630157
1761479524716997600,4.40399755859375,0.6682083606719971,0.15958735346794128,-0.12648113071918488
1761479524727033600,4.41403369140625,0.6218402981758118,0.020274251699447632,-0.4492713510990143
1761479524737069600,4.424069580078125,0.6071199178695679,-0.48623260855674744,-0.7748925685882568
1761479524747105500,4.43410546875,0.6814660429954529,-0.7071148157119751,-1.0277868509292603
1761479524757142500,4.444142578125,0.6919175982475281,-0.4406042695045471,-1.1350009441375732
1761479524767178800,4.4541787109375,0.6304606795310974,0.08448788523674011,-1.06080162525177
1761479524777214700,4.464214599609375,0.3339075744152069,0.5101286768913269,-0.7440162301063538
1761479524787250700,4.474250732421875,-0.3199666738510132,0.20317785441875458,-0.3594711422920227
1761479524797286700,4.48428662109375,-0.7774679064750671,-0.13721540570259094,-0.22324752807617188
1761479524807322600,4.494322509765625,-0.6253575682640076,-0.15143221616744995,-0.34884166717529297
1761479524817358800,4.50435888671875,-0.27297791838645935,-0.1832503378391266,-0.5565048456192017
1761479524827394800,4.514394775390625,-0.017182733863592148,-0.1332271695137024,-0.7136178612709045
1761479524837430800,4.5244306640625,-0.005153501406311989,0.04905101656913757,-0.6727702617645264
1761479524847466800,4.534466796875,-0.19603967666625977,0.5321083664894104,-0.42368853092193604
1761479524857502700,4.544502685546875,-0.4975593090057373,0.9260625839233398,-0.16915051639080048
1761479524867538700,4.55453857421875,-0.839444100856781,1.081993579864502,-0.07305572926998138
1761479524877574700,4.56457470703125,-1.1920026540756226,1.0649248361587524,-0.1383891999721527
1761479524887610600,4.574610595703125,-1.3371812105178833,0.9707399010658264,-0.2888769507408142
1761479524897648600,4.584648681640625,-1.0570025444030762,0.5981114506721497,-0.3143783211708069
1761479524907684600,4.5946845703125,-0.518886387348175,0.14205630123615265,-0.16615425050258636
1761479524917720600,4.604720458984375,-0.06593833863735199,-0.17317701876163483,0.02708418481051922
1761479524927756500,4.614756591796875,0.07228100299835205,-0.4617327153682709,-0.05901553854346275
1761479524937792800,4.624792724609375,0.08266572654247284,-0.7527051568031311,-0.3392490744590759
1761479524947828700,4.634828857421875,0.1362951248884201,-0.6602455377578735,-0.681836724281311
1761479524957865700,4.64486572265625,0.07829201966524124,-0.3947092294692993,-1.2393873929977417
1761479524967901700,4.654901611328125,-0.027830515056848526,-0.2714717388153076,-1.7708879709243774
1761479524977937700,4.664937744140625,0.02026936784386635,-0.2505350112915039,-1.9884124994277954
1761479524987973600,4.6749736328125,0.1784815937280655,-0.0885290578007698,-1.7844784259796143
1761479524998009600,4.685009521484375,0.2977598011493683,0.18607214093208313,-1.258113145828247
1761479525008045600,4.695045654296875,0.3715548813343048,0.42426982522010803,-0.5755283236503601
1761479525018081800,4.705081787109375,0.39183059334754944,0.549534261226654,0.27416232228279114
1761479525028117800,4.71511767578125,0.43482276797294617,0.49346306920051575,1.0088638067245483
1761479525038153700,4.72515380859375,0.47277653217315674,0.3649146854877472,1.5266854763031006
1761479525048189700,4.735189697265625,0.4049212634563446,0.16061560809612274,1.8355249166488647
1761479525058225000,4.745224853515625,0.2690883278846741,-0.1411450356245041,1.9114539623260498
1761479525068260900,4.7552607421875,0.11964777112007141,-0.36354321241378784,1.7223551273345947
1761479525078296800,4.765296875,-0.005742908455431461,-0.40411168336868286,1.3506925106048584
1761479525088333800,4.775333740234375,-0.08850964158773422,-0.24303194880485535,0.909214437007904
1761479525098369800,4.785369873046875,-0.09287802875041962,0.07739640027284622,0.4670564830303192
1761479525108405800,4.79540576171875,-0.09029603004455566,0.18881438672542572,0.14391055703163147
1761479525118441700,4.805441650390625,-0.09277010709047318,0.08112441003322601,0.0526546835899353
1761479525128477700,4.815477783203125,0.05133301019668579,0.005598731338977814,0.17630982398986816
1761479525138514000,4.825513916015625,0.15899448096752167,-0.28682994842529297,0.31383174657821655
1761479525148550000,4.8355498046875,0.17519733309745789,-0.4563467800617218,0.5195015668869019
1761479525158586000,4.845586181640625,0.12418635189533234,-0.44788432121276855,0.6257119178771973
1761479525168622000,4.8556220703125,0.026992036029696465,-0.29117536544799805,0.5974681973457336
1761479525178658000,4.865657958984375,-0.04712506756186485,0.05733495205640793,0.41171249747276306
1761479525188694000,4.875694091796875,-0.03272014856338501,0.3682401776313782,0.14817975461483002
1761479525198730000,4.88572998046875,0.09107369929552078,0.5653868317604065,-0.017278453335165977
1761479525208766000,4.895765869140625,0.25411027669906616,0.5500346422195435,-0.06578908115625381
1761479525218803000,4.905802978515625,0.3833151161670685,0.3357764184474945,0.10464230924844742
1761479525228839000,4.9158388671875,0.4691387712955475,-0.06557987630367279,0.4416922926902771
1761479525238875000,4.925875,0.4440920054912567,-0.572314977645874,0.8322552442550659
1761479525248910800,4.935910888671875,0.4315049350261688,-1.0962399244308472,1.1535444259643555
1761479525258946800,4.94594677734375,0.4745709300041199,-1.1971423625946045,1.1965986490249634
1761479525268982800,4.955982666015625,0.5864250063896179,-0.9631770849227905,0.8524947762489319
1761479525279018800,4.966018798828125,0.6446827054023743,-0.49879932403564453,0.2765401601791382
1761479525289055000,4.976054931640625,0.4303915798664093,-0.13245905935764313,-0.31457123160362244
1761479525299091000,4.986091064453125,0.022409958764910698,0.11443646997213364,-0.8014463186264038
1761479525309127000,4.996126953125,-0.45957446098327637,0.3644483983516693,-1.132493019104004
1761479525319163000,5.006162841796875,-0.882735013961792,0.5649316906929016,-1.236560583114624
1761479525329198800,5.01619873046875,-1.1017707586288452,0.5928866863250732,-1.1973546743392944
1761479525339234800,5.02623486328125,-1.0982003211975098,0.5453529953956604,-1.1633301973342896
1761479525349272000,5.03627197265625,-0.9451696276664734,0.6123689413070679,-1.1261838674545288
1761479525359308000,5.04630810546875,-0.7499923706054688,0.5641279220581055,-1.0676387548446655
1761479525369344000,5.056343994140625,-0.5686058402061462,0.43595853447914124,-0.995023250579834
1761479525379380000,5.0663798828125,-0.40759727358818054,0.4127112627029419,-0.9575245976448059
1761479525389416000,5.076416015625,-0.3732438385486603,0.6272019743919373,-1.0220181941986084
1761479525399452000,5.086451904296875,-0.468192458152771,0.9184279441833496,-1.081170678138733
1761479525409488000,5.09648779296875,-0.6126387715339661,0.9563906788825989,-1.140586018562317
1761479525419523800,5.10652392578125,-0.6757074594497681,0.8623235821723938,-1.1521477699279785
1761479525429560000,5.11656005859375,-0.5573626160621643,0.7648241519927979,-1.0788805484771729
1761479525439596000,5.126595947265625,-0.29350516200065613,0.6963031888008118,-0.9028469324111938
1761479525449632000,5.136632080078125,-0.004997557960450649,0.6024596691131592,-0.6333564519882202
1761479525459668000,5.14666796875,0.2329058200120926,0.2689259648323059,-0.2820618152618408
1761479525469704000,5.156703857421875,0.3406294584274292,-0.4388894736766815,0.11098595708608627
1761479525479741000,5.166740966796875,0.39912763237953186,-0.9828864336013794,0.35020679235458374
1761479525489777000,5.17677685546875,0.4511662721633911,-1.0537837743759155,0.4218140244483948
1761479525499812900,5.186812744140625,0.47634750604629517,-0.8428342938423157,0.3901011049747467
1761479525509848800,5.196848876953125,0.4847079813480377,-0.5610525608062744,0.3282122015953064
1761479525519884800,5.206884765625,0.4490163028240204,-0.3785695731639862,0.29707399010658264
1761479525529920800,5.216920654296875,0.3869633376598358,-0.29108357429504395,0.290953129529953
1761479525539956700,5.226956787109375,0.31813952326774597,-0.1522338092327118,0.3217312693595886
1761479525549992700,5.23699267578125,0.2158236801624298,-0.08955361694097519,0.43983548879623413
1761479525560029000,5.24702880859375,0.11554714292287827,-0.0411733016371727,0.6078788042068481
1761479525570065000,5.25706494140625,-0.0006110919639468193,-0.0917879194021225,0.7428200244903564
1761479525580101000,5.26710107421875,-0.15910778939723969,-0.30757054686546326,0.7343195080757141
1761479525590137000,5.27713720703125,-0.3212485909461975,-0.5321374535560608,0.5576207041740417
1761479525600173000,5.287173095703125,-0.335626482963562,-0.5396894216537476,0.2316814810037613
1761479525610210000,5.2972099609375,-0.26038500666618347,-0.3299587666988373,-0.16198453307151794
1761479525620246000,5.30724609375,-0.2588329315185547,-0.1997741013765335,-0.40962257981300354
1761479525630282000,5.317281982421875,-0.22411827743053436,-0.0327417328953743,-0.447159081697464
1761479525640318000,5.32731787109375,-0.20517201721668243,0.1462666392326355,-0.32120513916015625
1761479525650354000,5.33735400390625,-0.24110516905784607,0.2290213406085968,-0.10351882874965668
1761479525660390000,5.347389892578125,-0.23367388546466827,0.2213413119316101,0.09959673881530762
1761479525670425900,5.35742578125,-0.15374529361724854,0.058146387338638306,0.2520471513271332
1761479525680461800,5.3674619140625,-0.07998666167259216,0.053697578608989716,0.37953853607177734
1761479525690497800,5.377497802734375,0.042279891669750214,0.033525627106428146,0.4302150011062622
1761479525700533800,5.38753369140625,0.07609404623508453,0.24236458539962769,0.668348491191864
1761479525710570000,5.397570068359375,0.098459392786026,0.258321076631546,0.9610511064529419
1761479525720606000,5.40760595703125,0.1772058606147766,0.3525935411453247,1.0509974956512451
1761479525730642000,5.417641845703125,0.3107210099697113,0.0046820808202028275,0.9967606663703918
1761479525740679000,5.427678955078125,0.5525419116020203,-0.5304020643234253,0.9211532473564148
1761479525750715100,5.437715087890625,0.9039971232414246,-1.0078620910644531,0.7789160013198853
1761479525760751000,5.447751220703125,1.263146996498108,-1.3140153884887695,0.5813677906990051
1761479525770787000,5.457787109375,1.4611077308654785,-1.2745141983032227,0.4085630774497986
1761479525780823000,5.467822998046875,1.3494771718978882,-0.9182503819465637,0.24819660186767578
1761479525790859000,5.47785888671875,0.9024911522865295,-0.24658651649951935,0.08302681148052216
1761479525800895000,5.48789501953125,0.19392094016075134,0.21223138272762299,0.06565527617931366
1761479525810931000,5.497930908203125,-0.5395835041999817,0.36149847507476807,0.06494751572608948
1761479525820967000,5.507966796875,-1.0036026239395142,0.4468538463115692,-0.10078232735395432
1761479525831003000,5.5180029296875,-1.1897523403167725,0.5934195518493652,-0.4741666913032532
1761479525841038800,5.528038818359375,-1.0972645282745361,0.7190622091293335,-0.8914925456047058
1761479525851074800,5.53807470703125,-0.7434890270233154,0.7123945951461792,-1.2182812690734863
1761479525861111000,5.548111083984375,-0.32396286725997925,0.6175858378410339,-1.466666340827942
1761479525871147000,5.55814697265625,-0.0870022103190422,0.4563727080821991,-1.7192752361297607
1761479525881183700,5.568183837890625,-0.08810422569513321,0.4046541154384613,-1.775905966758728
1761479525891220000,5.578219970703125,-0.2937842309474945,0.6531064510345459,-1.567909836769104
1761479525901256000,5.588255859375,-0.5400171279907227,0.9877669811248779,-1.1553633213043213
1761479525911292000,5.5982919921875,-0.7258076667785645,1.1371840238571167,-0.634289026260376
1761479525921327900,5.608327880859375,-0.7755712270736694,1.0940978527069092,-0.2789682447910309
1761479525931363800,5.61836376953125,-0.6761259436607361,0.9837815761566162,-0.15565289556980133
1761479525941399800,5.62839990234375,-0.41167089343070984,0.7520673871040344,-0.11559415608644485
1761479525951435800,5.638435791015625,-0.017985230311751366,0.29768723249435425,-0.03196413069963455
1761479525961471700,5.6484716796875,0.3739050626754761,-0.24625596404075623,0.18923617899417877
1761479525971508000,5.658508056640625,0.6567010879516602,-0.7226077318191528,0.5028753280639648
1761479525981544000,5.6685439453125,0.7503077387809753,-1.038813829421997,0.746962308883667
1761479525991580000,5.678579833984375,0.761376678943634,-0.9597297310829163,0.8293001055717468
1761479526001616100,5.6886162109375,0.6938221454620361,-0.5597767233848572,0.7107915878295898
1761479526011652900,5.69865283203125,0.6076000332832336,-0.12585005164146423,0.5041265487670898
1761479526021688800,5.708688720703125,0.5024552345275879,0.14998739957809448,0.37224897742271423
1761479526031725000,5.71872509765625,0.3678278625011444,0.08310361206531525,0.41067230701446533
1761479526041761000,5.728760986328125,0.2474180907011032,-0.18377947807312012,0.5303619503974915
1761479526051797000,5.738796875,0.08025277405977249,-0.4461023211479187,0.672276496887207
1761479526061834200,5.748834228515625,-0.06018369644880295,-0.6152287721633911,0.7526895403862
1761479526071870200,5.7588701171875,-0.14415088295936584,-0.6337712407112122,0.7333034873008728
1761479526081906400,5.768906494140625,-0.1910771131515503,-0.530596137046814,0.6461523175239563
1761479526091942400,5.7789423828125,-0.18956007063388824,-0.38122668862342834,0.47444653511047363
1761479526101978400,5.788978271484375,-0.17929065227508545,-0.26942694187164307,0.22917179763317108
1761479526112014300,5.799014404296875,-0.10577456653118134,-0.1045614629983902,0.039263058453798294
1761479526122050300,5.80905029296875,0.03679962456226349,-0.07955358177423477,-0.08531589061021805
1761479526132086300,5.819086181640625,0.12118769437074661,-0.08184927701950073,-0.18903641402721405
1761479526142122200,5.829122314453125,0.1314363330602646,-0.03925441950559616,-0.26022350788116455
1761479526152159200,5.8391591796875,0.058892883360385895,-0.011631077155470848,-0.24216802418231964
1761479526162195500,5.849195556640625,-0.0405825711786747,0.014564307406544685,-0.10395369678735733
1761479526172231400,5.8592314453125,-0.16025550663471222,0.04336897283792496,0.11350197345018387
1761479526182267400,5.869267333984375,-0.3170459270477295,-0.09549437463283539,0.32377904653549194
1761479526192303400,5.879303466796875,-0.4316323697566986,-0.27651625871658325,0.4543505907058716
1761479526202339300,5.88933935546875,-0.4350193738937378,-0.26206302642822266,0.47633230686187744
1761479526212375300,5.899375244140625,-0.33817794919013977,-0.1813584566116333,0.5157909393310547
1761479526222411500,5.90941162109375,-0.1287272870540619,-0.1362367868423462,0.648846447467804
1761479526232447500,5.919447509765625,0.08924809843301773,-0.36868178844451904,0.8329527974128723
1761479526242483500,5.9294833984375,0.3339257538318634,-0.7798970341682434,0.9570012092590332
1761479526252519400,5.93951953125,0.5909563899040222,-1.0198642015457153,0.8975063562393188
1761479526262555400,5.949555419921875,0.777919352054596,-0.9133678078651428,0.634571373462677
1761479526272591400,5.95959130859375,0.8806058168411255,-0.6400120854377747,0.34616032242774963
1761479526282627300,5.96962744140625,0.9261807799339294,-0.37187811732292175,0.18123206496238708
1761479526292664300,5.979664306640625,1.0018501281738281,-0.33681315183639526,0.032495249062776566
1761479526302700300,5.9897001953125,1.146264672279358,-0.6280937194824219,-0.39794906973838806
1761479526312736300,5.999736328125,1.3032686710357666,-0.594010591506958,-1.1762391328811646
1761479526322772200,6.009772216796875,1.2603890895843506,-0.30627602338790894,-1.8557350635528564
1761479526332808200,6.01980810546875,0.47934284806251526,-0.04634573310613632,-1.9394553899765015
1761479526342844200,6.02984423828125,-0.9110823273658752,0.10377851873636246,-1.5451229810714722
1761479526352880000,6.039880126953125,-2.0862159729003906,0.591591477394104,-1.023718237876892
1761479526362916400,6.049916259765625,-2.610617160797119,1.019527554512024,-0.6050381660461426
1761479526372952300,6.059952392578125,-2.4840939044952393,1.1166003942489624,-0.3895498216152191
1761479526382988300,6.06998828125,-1.9398376941680908,1.0972940921783447,-0.3823763132095337
1761479526393024500,6.0800244140625,-1.311504602432251,0.7745320200920105,-0.4275389313697815
1761479526403060500,6.090060546875,-0.7543414831161499,0.29663389921188354,-0.49219781160354614
1761479526413096400,6.100096435546875,-0.3188127279281616,0.28628697991371155,-0.570911705493927
1761479526423132400,6.11013232421875,-0.17681936919689178,0.29520538449287415,-0.6349106431007385
1761479526433168400,6.12016845703125,-0.24416354298591614,0.4608902931213379,-0.6750138401985168
1761479526443205400,6.130205322265625,-0.320083886384964,0.6816394329071045,-0.6205697655677795
1761479526453241300,6.140241455078125,-0.25979122519493103,0.7457080483436584,-0.46909767389297485
1761479526463277300,6.15027734375,-0.07890905439853668,0.7159799337387085,-0.31058019399642944
1761479526473313300,6.160313232421875,0.1652345210313797,0.6362338066101074,-0.16484206914901733
1761479526483349200,6.170349365234375,0.4112839996814728,0.48411035537719727,-0.028051452711224556
1761479526493385200,6.18038525390625,0.6318700909614563,0.3535584509372711,0.09493357688188553
1761479526503421200,6.190421142578125,0.7835472822189331,0.18664750456809998,0.2228369414806366
1761479526513457400,6.20045751953125,0.8156003355979919,0.013256672769784927,0.3648238182067871
1761479526523493400,6.210493408203125,0.7258598208427429,-0.19939275085926056,0.46754273772239685
1761479526533529300,6.220529296875,0.5138996839523315,-0.31558308005332947,0.4770597815513611
1761479526543565300,6.2305654296875,0.21945737302303314,-0.2827412188053131,0.4548495411872864
1761479526553601300,6.240601318359375,-0.033420756459236145,-0.10997520387172699,0.48377877473831177
1761479526563637200,6.25063720703125,-0.23424147069454193,0.2070099413394928,0.5325284600257874
1761479526573673200,6.260673095703125,-0.3766716718673706,0.29597824811935425,0.6069942116737366
1761479526583709200,6.270709228515625,-0.47400593757629395,0.3324486315250397,0.7403165698051453
1761479526593746400,6.280746337890625,-0.5407674312591553,0.46792763471603394,0.9138287901878357
1761479526603782400,6.290782470703125,-0.639633059501648,0.45402032136917114,1.0086586475372314
1761479526613818400,6.300818359375,-0.7639407515525818,0.4468110501766205,0.9295024871826172
1761479526623854300,6.310854248046875,-0.8668327927589417,0.7312004566192627,0.895453691482544
1761479526633890300,6.320890380859375,-0.9229980707168579,0.37386325001716614,0.30915743112564087
1761479526643926300,6.33092626953125,-0.6230316162109375,0.09790995717048645,-0.19038580358028412
1761479526653962500,6.34096240234375,-0.20768362283706665,-0.18472842872142792,-0.6520207524299622
1761479526663998500,6.35099853515625,0.08247337490320206,-0.4305874705314636,-0.9120345115661621
1761479526674034400,6.361034423828125,0.292637437582016,-0.7180218696594238,-0.8612021803855896
1761479526684070400,6.3710703125,0.33023008704185486,-1.02469801902771,-0.329683393239975
1761479526694106400,6.3811064453125,0.2377084344625473,-1.0729609727859497,0.5294541716575623
