time,seconds_elapsed,z,y,x
1761478251991793700,0.092793701171875,0.20008359640538692,-0.13218670274317265,0.012267507029324769
1761478252001829600,0.10282958984375,0.17812369353175161,-0.12133381175212561,-0.11605842863246797
1761478252011866600,0.11286669921875,-0.022363222977519033,-0.052931671981513495,-0.17475728583857417
1761478252021902600,0.122902587890625,-0.21001988400816915,0.01081343576349318,-0.1979562289878726
1761478252031938600,0.1329384765625,-0.2188987715125084,0.05994155074357986,-0.1728349394738674
1761478252041974500,0.142974609375,-0.04489595730304718,0.02368102757781744,-0.03704115214943886
1761478252052010500,0.153010498046875,0.04511866014301777,-0.0016796967152506112,0.07995368055030704
1761478252062046500,0.16304638671875,0.00665887336730957,0.03774308987371623,0.025374533622711897
1761478252072082700,0.173082763671875,-0.051363692012429234,0.029504326903820037,0.0023199673801660536
1761478252082118700,0.18311865234375,-0.04626841470003128,-0.021464812833070755,0.05444631432816386
1761478252092155600,0.19315576171875,0.022706921848654745,-0.056657925963029265,0.1310765495441854
1761478252102191600,0.203191650390625,0.013082768934965133,-0.05610175338499248,0.14888327826112507
1761478252112227600,0.2132275390625,-0.15768822374641894,-0.07257562606297432,0.04507788974121213
1761478252122263600,0.223263671875,-0.379325480312109,-0.04237484132759273,-0.11753010862022638
1761478252132299800,0.2332998046875,-0.4643962116152048,-0.015193915870040655,-0.18016601301431656
1761478252142335700,0.243335693359375,-0.42083413326442237,-0.020561361187323927,-0.11199585536867379
1761478252152371700,0.253371826171875,-0.2833101611465216,-0.03323576851710677,0.015212766700983047
1761478252162407700,0.26340771484375,-0.163969495972991,-0.012327420523017643,0.10816431438177823
1761478252172444700,0.273444580078125,-0.11275836417376994,-0.005378916559368372,0.11929185759574173
1761478252182480600,0.283480712890625,-0.07851473378837108,0.016707243042439222,0.009958499434590339
1761478252192516600,0.2935166015625,-0.0311965177744627,0.030822204569354653,-0.06278510360643268
1761478252202552600,0.303552490234375,-0.00703355189859867,0.02885404630154371,-0.08993585312142968
1761478252212588500,0.313588623046875,-0.009593173253536223,0.04342091631442308,-0.10082403462156653
1761478252222624500,0.32362451171875,0.005744096609950065,-0.016109423279762267,-0.04529474736228585
1761478252232660500,0.333660400390625,-0.02350245614051819,-0.03721307465024292,-0.024489567481726406
1761478252242697700,0.34369775390625,-0.14984452450871466,0.047455359462276095,-0.09016235535368322
1761478252252733700,0.353733642578125,-0.2955857053518295,0.039488253040611744,-0.07237769233807921
1761478252262769700,0.363769775390625,-0.3596083879292011,-0.0007449731484055519,-0.02725406375899911
1761478252272805600,0.3738056640625,-0.2655909645825624,-0.00503609447106719,-0.05150178530886769
1761478252282841600,0.383841552734375,-0.07805705314874649,-0.03514993157535791,-0.021287994961440564
1761478252292877600,0.393877685546875,0.03502279806435108,-0.054349868216365574,0.0635386984527111
1761478252302913800,0.403913818359375,0.04682371049523353,-0.007415975344926118,0.09266571647673845
1761478252312949800,0.41394970703125,-0.041706805872917176,0.040375265008211134,0.07173369534611701
1761478252322986500,0.423986572265625,-0.10507833106517792,0.025442630422860383,0.0394116806730628
1761478252333022700,0.434022705078125,-0.14482523504197597,0.001870177786052227,-0.01738455778211355
1761478252343058700,0.44405859375,-0.23417700466513633,-0.012727014299854636,-0.08302914247289299
1761478252353094700,0.4540947265625,-0.2861445077896118,-0.021914894688129422,-0.11188012003451585
1761478252363130600,0.464130615234375,-0.20379121875166892,-0.022605653431266547,-0.0579421936199069
1761478252373166600,0.47416650390625,-0.1045347257077694,0.001949088241159916,-0.02556947167292237
1761478252383202600,0.48420263671875,-0.0672165101826191,0.027021131785959003,-0.02587123109847307
1761478252393239800,0.49423974609375,-0.08832301109731197,0.056369537475705146,-0.05198372360691428
1761478252403275800,0.50427587890625,-0.17000819161534308,0.06479666262455284,-0.0633995822429657
1761478252413311700,0.514311767578125,-0.21354513552486895,0.041762700778618454,-0.06830503607168793
1761478252423347700,0.52434765625,-0.18049802144765853,0.00937098187021911,-0.1026202703885734
1761478252433383700,0.5343837890625,-0.17026421220302582,-0.0204356159158051,-0.13339403270632028
1761478252443419600,0.544419677734375,-0.13013386186659334,-0.0286905993681401,-0.12054551091864704
1761478252453455600,0.55445556640625,-0.026961656683683395,-0.04265723846554756,-0.037586364942044016
1761478252463492600,0.56449267578125,0.08722294090092182,-0.06035524611100554,0.05777136709764599
1761478252473528600,0.574528564453125,0.08330781328380107,-0.017421821052581072,0.06483268378600478
1761478252483564500,0.584564453125,-0.02572013218998909,0.013090879176184534,0.006307867972552776
1761478252493600500,0.5946005859375,-0.14156711002886294,0.004978665195405483,0.0265573136664927
1761478252503636500,0.604636474609375,-0.20764555609226226,-0.00619987755343318,0.07150193241685629
1761478252513672700,0.614672607421875,-0.20951953327059744,-0.034605230239406225,0.06275120133683085
1761478252523708700,0.624708740234375,-0.19349603470861912,-0.08187946098111569,0.06387260658219457
1761478252533745400,0.634745361328125,-0.1851923167437315,-0.08356799858994782,0.04644830131158233
1761478252543781600,0.64478173828125,-0.1380009419798851,-0.02608443545773625,-0.027319237949699163
1761478252553817900,0.65481787109375,-0.07963643129467964,-0.0027631811030209064,-0.09008739042133092
1761478252563853800,0.664853759765625,-0.09533902733922005,-0.03146218297332525,-0.07658040472492575
1761478252573889800,0.674889892578125,-0.1757370906561613,0.01003149160556495,-0.07315174545049667
1761478252583925800,0.68492578125,-0.20264438680410385,0.026388240709900854,-0.054792205156385894
1761478252593961700,0.694961669921875,-0.1989648215085268,-0.01733282759487629,-0.014082739757746458
1761478252603998700,0.704998779296875,-0.16715046409666537,-0.059652723864838476,-0.01902253424748778
1761478252614034700,0.71503466796875,-0.17652970233857632,-0.01766417844109237,-0.020434885263442993
1761478252624070700,0.725070556640625,-0.24581015931367872,0.008451382807269692,0.009089607645571231
1761478252634106600,0.735106689453125,-0.28402503141760826,-0.005089870484918355,0.08907412172555923
1761478252644142600,0.745142578125,-0.2221884607076645,-0.012090543027222156,0.10152721445485949
1761478252654178600,0.755178466796875,-0.15151917972266674,-0.00874335149116814,0.05731880102455616
1761478252664215600,0.765215576171875,-0.21001871496438979,-0.002326908577606082,-0.043242637138068675
1761478252674251500,0.77525146484375,-0.22730419628620147,0.05236483187898993,-0.11923691253811121
1761478252684287500,0.78528759765625,-0.13135785070359707,0.02992657090388238,-0.04154328587427735
1761478252694323500,0.795323486328125,0.03728782038688659,-0.002207958373054862,0.042319677074253555
1761478252704359400,0.805359375,0.19541151294112205,0.012033552142977714,0.026573680279403922
1761478252714395600,0.815395751953125,0.23550036222338674,-0.03514123681224882,0.008051204508543014
1761478252724432000,0.825431884765625,0.1118845039486885,-0.053960138246417044,-0.02475961659476161
1761478252734468600,0.835468505859375,-0.1202893442004919,0.012039689622819424,-0.08781257735714317
1761478252744504600,0.845504638671875,-0.35384091044366356,0.057279638057947155,-0.10137304680645465
1761478252754540800,0.855540771484375,-0.43219314714670176,0.05548332922570407,-0.04942264094725251
1761478252764576800,0.86557666015625,-0.4240338060885668,0.04905950672328472,-0.048621553697437044
1761478252774612700,0.87561279296875,-0.29345336949825285,0.007075637474656104,-0.07797361264899373
1761478252784648700,0.885648681640625,-0.11384382132291793,-0.10801372692994773,-0.03880757730007171
1761478252794685700,0.895685791015625,0.010694412493705749,-0.10533727426230907,-0.03916588921844959
1761478252804721700,0.9057216796875,0.030936405533552168,-0.0310614932179451,-0.07608078463971614
1761478252814757600,0.915757568359375,0.012262100201845169,-0.03969634283334016,0.030490269201248883
1761478252824793600,0.925793701171875,0.04609831883013248,-0.03107961339652538,0.16613485731333494
1761478252834829600,0.93582958984375,0.08217208725214004,-0.028027605414763093,0.2226699606142938
1761478252844865800,0.94586572265625,-0.07055003851950169,-0.04615063353925943,0.14649521408081054
1761478252854901800,0.95590185546875,-0.2708727043777704,-0.021032047438994048,0.017377835780382156
1761478252864938800,0.965938720703125,-0.3803846339762211,-0.032900106821954246,-0.06596504881680011
1761478252874974700,0.975974609375,-0.3945435077100992,-0.05901406063511967,-0.10201631314605474
1761478252885010700,0.9860107421875,-0.3765086693257093,-0.05837744323201477,-0.11649345904886722
1761478252895046700,0.996046630859375,-0.36301264341473577,-0.020627777487039565,-0.042617198716104025
1761478252905082600,1.00608251953125,-0.22687398817539214,0.008114917394518853,0.028738895489275454
1761478252915118600,1.01611865234375,-0.10906418583095073,0.025514161289110777,0.05064414556622505
1761478252925155600,1.026155517578125,-0.04401099116206169,0.037429713075608016,0.034019612371176476
1761478252935191600,1.036191650390625,0.03645370765030384,0.010015709514543414,-0.017207886040955783
1761478252945227500,1.0462275390625,0.10463584799468517,-0.05018617266565561,-0.0652392187602818
1761478252955263500,1.056263427734375,0.08812076652348041,-0.03349675754085183,-0.1549605523481965
1761478252965299700,1.0662998046875,-0.040319735428690905,0.018136545193195342,-0.20014467894285917
1761478252975335700,1.076335693359375,-0.12747720987796782,0.024638474433124065,-0.14040741859972475
1761478252985372700,1.08637255859375,-0.10982640237510204,0.0711071609456092,-0.08264554998278617
1761478252995409000,1.096408935546875,-0.2242126600116491,0.05991217851862311,-0.08564677762538195
1761478253005444900,1.10644482421875,-0.2803670934319496,-0.0002517097387462854,-0.14022227129116654
1761478253015480800,1.116480712890625,-0.18320786492824553,-0.013843743370100855,-0.13259616032689808
1761478253025516800,1.126516845703125,-0.06675298432409763,-0.04501870689988136,-0.011881138060241938
1761478253035552800,1.136552734375,-0.043971243673563004,-0.07483589914515613,0.103195439928025
1761478253045589800,1.14658984375,-0.05643325036168098,-0.04719466269947588,0.08729396031051874
1761478253055625700,1.156625732421875,-0.09129998108148574,-0.03022014702297747,0.04317015642374754
1761478253065661700,1.16666162109375,-0.21240297975242137,-0.030313889721035957,0.007016016241908073
1761478253075697700,1.17669775390625,-0.3277800019919872,-0.021870690220221877,-0.03709434364140034
1761478253085733600,1.186733642578125,-0.332303032374382,-0.011084434724599123,-0.025671032351255417
1761478253095769600,1.19676953125,-0.2601058111697435,-0.0030961393844336268,0.02607201436758041
1761478253105806600,1.206806640625,-0.15235504602491853,-0.02441277591846883,0.04593348365724086
1761478253115842600,1.216842529296875,-0.11489245359301567,-0.03779357795193791,0.005030103121697903
1761478253125878500,1.22687841796875,-0.09394961880743503,-0.029320860095694658,-0.055053632571548224
1761478253135914800,1.236914794921875,-0.04914660048484802,-0.009919044207036494,-0.07386646959111094
1761478253145950700,1.24695068359375,0.023481997874379157,-0.026611747267469763,-0.05417743425890803
1761478253155986700,1.256986572265625,-0.058445174705982206,-0.005873056751862168,-0.06417290470302105
1761478253166023700,1.267023681640625,-0.16049802047014236,0.04435556681603193,-0.08362783901840448
1761478253176059600,1.2770595703125,-0.18724983379542826,0.027399755840003488,-0.026163930434733626
1761478253186095600,1.287095703125,-0.176177820160985,0.0020396160688251255,0.011375088234245776
1761478253196131600,1.297131591796875,-0.13751169715821743,-0.005895195518434047,-0.0037923780202865597
1761478253206167800,1.307167724609375,-0.0898679024517536,-0.00011003624573349952,-0.01031184291690588
1761478253216204500,1.31720458984375,-0.05897124440670013,-0.035793197914958,0.011443038903921843
1761478253226240500,1.327240478515625,-0.08628829039931296,-0.013366042855754493,-0.031873101861774916
1761478253236276700,1.33727685546875,-0.20423954704105854,0.027924364235997198,-0.10258286098763346
1761478253246312700,1.347312744140625,-0.25329788472056386,0.043997547158598896,-0.1335495155289769
1761478253256348700,1.3573486328125,-0.20749416492283343,0.036072160986810924,-0.06885609408318996
1761478253266384600,1.367384521484375,-0.11670622501671314,0.00744629741795361,-0.04107143057882785
1761478253276422000,1.377421875,-0.06401040761768817,0.0039031449183821675,-0.08586743463873862
1761478253286457900,1.387457763671875,-0.01575461849272251,-0.01404839909672737,-0.11593947842791676
1761478253296493800,1.397493896484375,-0.00958382090330124,-0.00606054214797914,-0.11592004307508467
1761478253306529800,1.40752978515625,-0.04304068482518196,0.014543854463472962,-0.07417626619264484
1761478253316565800,1.417565673828125,-0.11062778188586235,0.02379668984673917,0.005488514413684606
1761478253326601700,1.427601806640625,-0.24081074359118937,0.010640855675563216,0.022721096504479645
1761478253336638700,1.437638671875,-0.2672346401363611,-0.02963789015561342,-0.021884645680338145
1761478253346674700,1.4476748046875,-0.22020810054540632,-0.06600165450014174,-0.03959390537217259
1761478253356710700,1.457710693359375,-0.1281365505695343,-0.08367014379017054,-0.0050970308780670165
1761478253366746600,1.46774658203125,-0.07101940959692,-0.059206076075881714,0.04654986198991537
1761478253376782600,1.477782470703125,-0.08594751413762569,0.007654387210682034,0.0720886462636292
1761478253386818600,1.487818603515625,-0.13788228403627872,0.038211291907355185,0.05016235339865088
1761478253396855600,1.49785546875,-0.17873101177513598,0.008888312919810414,0.009596241993457079
1761478253406891500,1.5078916015625,-0.22698972350955007,0.017097046077623964,-0.05561038967147469
1761478253416927500,1.517927490234375,-0.2599859841823578,0.035193770717084405,-0.14287600067034362
1761478253426963500,1.52796337890625,-0.23173545673191545,-0.0013154665127396582,-0.14761983419656752
1761478253436999700,1.537999755859375,-0.15927812328636645,-0.011922054592519998,-0.07032178272157907
1761478253447036700,1.54803662109375,-0.14774141474962232,-0.007737608514726162,0.018276099794358014
1761478253457072600,1.55807275390625,-0.15764496912658213,-0.03848711317405104,0.08391703122332692
1761478253467108600,1.568108642578125,-0.16811901686787603,-0.0474378238055855,0.03113455845415592
1761478253477144800,1.578144775390625,-0.17116905208826064,-0.02312353982552886,-0.08217471760064363
1761478253487180800,1.588180908203125,-0.12078560328483581,0.010359627581387757,-0.11247019488215446
1761478253497216800,1.598216796875,-0.11877718607187271,0.012293152927234768,-0.07001461646854877
1761478253507253800,1.608253662109375,-0.07099135254621505,0.03528575984947383,0.004711977083235979
1761478253517289700,1.618289794921875,0.009199205499887467,0.02457169280722737,0.06849982799142598
1761478253527325700,1.62832568359375,0.061442018434405325,-0.03923639717139304,0.09137041596919297
1761478253537361700,1.638361572265625,0.0772159261494875,-0.04353796682283282,0.06486629379466176
1761478253547397600,1.648397705078125,0.004105681753158569,-0.03007547785528004,0.05581248811483383
1761478253557435000,1.658434814453125,-0.12553835076987743,-0.043374739085137844,0.01809007570296526
1761478253567470800,1.668470947265625,-0.2043061825364828,-0.06824490338228642,-0.0027671266257762906
1761478253577506800,1.6785068359375,-0.22795360010564325,-0.07817410365715623,-0.017619535581767556
1761478253587542800,1.688542724609375,-0.25749767449796196,-0.09700929863899946,-0.06836056565120815
1761478253597578800,1.698578857421875,-0.25599019254446026,-0.06289104819893837,-0.1305500414520502
1761478253607614700,1.70861474609375,-0.2962006223797798,-0.04783990180045366,-0.12943345851227642
1761478253617651700,1.718651611328125,-0.33416999529004093,-0.04779518587589263,-0.04823226211890578
1761478253627687700,1.728687744140625,-0.36665070765614505,-0.03462897644117474,0.028952245979011058
1761478253637723600,1.7387236328125,-0.31867139738500116,-0.013068886540085076,-0.0018820143543183802
1761478253647759600,1.748759521484375,-0.1807125409811735,-0.019094503505155444,-0.055800505416095256
1761478253657795600,1.758795654296875,0.04045008381009101,-0.04414170486964285,-0.051582010938227174
1761478253667831600,1.76883154296875,0.1700596295416355,-0.05296659716442227,-0.015005115299671887
1761478253677868500,1.77886865234375,0.1384358262658119,-0.0167469174657017,0.01656608100607991
1761478253687904500,1.788904541015625,0.00750935271680355,0.010640709545090794,0.02672974762395024
1761478253697940500,1.7989404296875,-0.11944997076690196,0.02437953123599291,-0.0066736325450241565
1761478253707976700,1.808976806640625,-0.19485446358025074,0.004462386236339808,-0.11445464669764041
1761478253718012700,1.8190126953125,-0.19927637167572973,-0.03214000916965306,-0.1603681104801595
1761478253728049700,1.829049560546875,-0.12164251237511634,-0.05510324386693537,-0.11204027903228997
1761478253738085600,1.839085693359375,-0.10169102671444416,-0.05535612264946103,-0.05623173644021153
1761478253748121900,1.849121826171875,-0.12793898217082023,-0.05332271712571382,-0.04811141221821308
1761478253758157800,1.85915771484375,-0.10416004717648028,-0.05674735781215131,-0.07182619593515992
1761478253768193800,1.86919384765625,-0.06437339571118354,-0.04812931320108473,-0.06689516927376389
1761478253778229800,1.879229736328125,-0.08367430850863457,-0.05249598397798836,-0.04691927982419729
1761478253788266800,1.889266845703125,-0.15736849027276037,-0.03937098333649337,-0.0644831396959722
1761478253798302500,1.899302490234375,-0.19233108258247375,-0.029600334624201058,0.017421528791636227
1761478253808338400,1.90933837890625,-0.21928046430647372,-0.016497838075459,0.10815861529335379
1761478253818374400,1.91937451171875,-0.19924889914691446,-0.0120030839394778,0.10481383491009473
1761478253828410400,1.929410400390625,-0.21306290496587751,-0.06850399270989001,0.08882087761685252
1761478253838447400,1.939447265625,-0.2479682141304016,-0.0937820071555674,0.01288023210018873
1761478253848483300,1.9494833984375,-0.25672259847223755,-0.08669957461394369,-0.0465548304259777
1761478253858519600,1.95951953125,-0.2415156769901514,-0.08454363868907093,-0.02417480244413018
1761478253868555500,1.969555419921875,-0.17186638670265675,-0.05188946945220232,0.0077433076031506055
1761478253878591500,1.979591552734375,-0.11097323432266712,-0.022872706869617104,-0.002102963628619909
1761478253888627500,1.98962744140625,-0.07457271816432476,-0.03364413012228906,0.004755670094490051
1761478253898664400,1.99966455078125,-0.034492636710405346,-0.04222907618135214,-0.01231383038908243
1761478253908700400,2.009700439453125,-0.016625556108355522,-0.018496391481533647,-0.0030422903053462505
1761478253918736400,2.019736328125,-0.07215981180369853,-0.007848229282349347,0.047904053077846766
1761478253928772400,2.0297724609375,-0.10547872855961322,-0.025281302381306884,0.053677960304170845
1761478253938808300,2.039808349609375,-0.09904723420739173,-0.05019589034207165,0.03120134008005261
1761478253948845300,2.04984521484375,-0.14018997645676134,-0.049132645024731754,0.018323884458839892
1761478253958881300,2.05988134765625,-0.2509177115857601,-0.04461399855650961,-0.01330342594832182
1761478253968917200,2.069917236328125,-0.2616425192177296,-0.05753565864562988,-0.017415245181322096
1761478253978953500,2.079953369140625,-0.21952420993447302,-0.048564197487011546,-0.003339373555779457
1761478253988989400,2.089989501953125,-0.20123510452806948,-0.017714228127896785,-0.014926497105509041
1761478253999025400,2.100025390625,-0.1764952155470848,-0.020743512821197508,-0.04839563598707318
1761478254009062700,2.110062744140625,-0.13415128081440925,-0.032573359085619445,-0.04309855249226093
1761478254019098600,2.1200986328125,-0.097245153221488,-0.02896386335156858,0.0007670388497412205
1761478254029134600,2.130134521484375,-0.08792144455909728,-0.010541998410969972,0.0316224881015718
1761478254039170600,2.140170654296875,-0.08275310201048851,-0.022433365604281424,0.03130260849744081
1761478254049206500,2.15020654296875,-0.06098258422911167,-0.048708062937110656,0.009111234955489635
1761478254059243500,2.160243408203125,-0.09300269334614276,-0.030489757744595405,-0.03426628060862422
1761478254069279500,2.170279541015625,-0.2100625541061163,-0.024271102425456045,-0.07909794050380588
1761478254079315500,2.1803154296875,-0.36527649669349194,-0.024479484479129312,-0.09839724586606025
1761478254089351400,2.190351318359375,-0.3958072440356016,-0.006897431363537907,-0.1174297169856727
1761478254099387400,2.200387451171875,-0.31878537915349003,0.009433233451470732,-0.12644348291605711
1761478254109423400,2.21042333984375,-0.16724807925224303,-0.01084726496785879,-0.06321428880393505
1761478254119460400,2.22046044921875,0.003240589356422424,-0.03346994259916246,0.006334463718533516
1761478254129496300,2.230496337890625,0.16212883654236793,-0.01920717009939253,0.03530906765982508
1761478254139532300,2.2405322265625,0.1878629972577095,-0.00945880628414452,0.036917818030714984
1761478254149568300,2.250568359375,0.1076104798913002,0.020474413556233046,0.017810235848277806
1761478254159604500,2.2606044921875,-0.041184243303537364,0.060375119855254886,-0.008138006009161472
1761478254169641500,2.270641357421875,-0.19802958648502825,0.051483665130287404,-0.06465718108862638
1761478254179677400,2.280677490234375,-0.34164603025913237,0.020828268495202064,-0.15297463922798632
1761478254189713400,2.29071337890625,-0.4112181636571884,0.009318959422037004,-0.1907861912280321
1761478254199749400,2.300749267578125,-0.33336393960416316,-0.007466828749328852,-0.13282353934198618
1761478254209785300,2.310785400390625,-0.19800854369699955,-0.03492174884267151,-0.04484554229006171
1761478254219821600,2.320821533203125,-0.08399170389473437,-0.05516096540354192,0.02092646817266941
1761478254229858300,2.3308583984375,-0.031034605211019514,-0.04973806357197463,0.06487681518867612
1761478254239894300,2.340894287109375,-0.05427285745739936,-0.03889956643246114,0.07595876569524407
1761478254249930500,2.350930419921875,-0.12564064210057257,-0.016111176845431327,0.044156244851648804
1761478254259966500,2.360966552734375,-0.16128361788988113,0.029054245048761366,-0.010861731884628533
1761478254270002400,2.37100244140625,-0.17548165459036827,0.03525741053782403,-0.04583996015489101
1761478254280038400,2.381038330078125,-0.19639117162823677,0.0068379562612622975,-0.02898337176963687
1761478254290075600,2.39107568359375,-0.2108452289164066,-0.0410460769418627,-0.04893208095133304
1761478254300111600,2.401111572265625,-0.1934527800887823,-0.09568060731850564,-0.052555824406445024
1761478254310147600,2.411147705078125,-0.19265841484069823,-0.11001103822700678,-0.024532237579673526
1761478254320183600,2.42118359375,-0.14440437928140162,-0.053846448738873,0.0098272742703557
1761478254330219500,2.431219482421875,-0.0897854848653078,-0.0036859950363636014,0.04955298932865262
1761478254340256500,2.441256591796875,-0.012260346636176108,-0.007009805696830153,0.07409414086714386
1761478254350292500,2.45129248046875,0.023105565777420997,0.009612608606368303,0.0708607119038701
1761478254360328400,2.461328369140625,-0.061706806850433345,0.02302702064849436,0.054357174739986656
1761478254370364400,2.471364501953125,-0.18322773867249487,0.009407368357852101,0.028147943858802316
1761478254380400400,2.481400390625,-0.3237842103540897,0.01622501248344779,-0.06711524176523088
1761478254390436400,2.491436279296875,-0.379170582011342,-0.016158815379440784,-0.15202201467826962
1761478254400473300,2.501473388671875,-0.30060850194990635,-0.046684448155015705,-0.1970361915335059
1761478254410509300,2.51150927734375,-0.20276246022582053,-0.045147813172265884,-0.18202640005871654
1761478254420545300,2.521545166015625,-0.11746025825440883,-0.03090396456867456,-0.07609817416593433
1761478254430581200,2.531581298828125,-0.030154899767041204,-0.016694164365157485,0.04048267090544104
1761478254440617200,2.5416171875,-0.03777648068666458,-0.0042461862023919815,0.08104600583165883
1761478254450654500,2.551654541015625,-0.1105903724849224,0.00034347967542707917,-0.009087415688484906
1761478254460690400,2.5616904296875,-0.13181202421188354,0.01772518791332841,-0.11892930789366364
1761478254470726400,2.571726318359375,-0.13929682700932025,0.01865486997887492,-0.1486841024272144
1761478254480762400,2.581762451171875,-0.1515507439047098,0.010702303539216518,-0.09978753118067979
1761478254490798600,2.591798583984375,-0.14636778830885885,-0.004448796102404594,-0.011207476582378148
1761478254500834600,2.60183447265625,-0.1318926882326603,-0.03472885661907494,0.049526247452199454
1761478254510871300,2.611871337890625,-0.16841946111917494,-0.0364777461130172,0.013375029879808426
1761478254520907500,2.621907470703125,-0.16856792967915535,-0.02875643114596605,-0.05315905099660158
1761478254530943500,2.631943603515625,-0.12337328169047831,-0.04611556222587824,-0.06548237986639141
1761478254540979500,2.6419794921875,0.004178162467479705,-0.07560498382151126,-0.04293459410220384
1761478254551015400,2.652015380859375,0.09494155245423316,-0.04901764034293592,-0.02501432200819254
1761478254561051400,2.662051513671875,0.13401508721411226,-0.03135565385892987,0.05263780360147357
1761478254571088600,2.672088623046875,0.11938918049037456,-0.02237615552432835,0.13797595366910098
1761478254581124600,2.68212451171875,0.01802373246848583,-0.014709639484435318,0.1668456359311938
1761478254591160600,2.69216064453125,-0.17289339166283607,0.008230287402495741,0.10632350882068275
1761478254601196500,2.702196533203125,-0.38363048402965066,0.008697174261882901,-0.04101750843450427
1761478254611232500,2.712232421875,-0.49838849758803844,-0.018522987227514384,-0.16854864045679568
1761478254621269500,2.72226953125,-0.5018400993466376,-0.029929931904748082,-0.21515461654812096
1761478254631305500,2.732305419921875,-0.44035015011727807,-0.040998584538325666,-0.18834011325016617
1761478254641341400,2.742341552734375,-0.41130759550631046,-0.06287826178260147,-0.04704509816095233
1761478254651377400,2.75237744140625,-0.3839648305505514,-0.03489288807436824,0.02546016607955098
1761478254661413400,2.762413330078125,-0.28126725714206696,-0.009838964708149432,0.07425035434216261
1761478254671449300,2.772449462890625,-0.181030520889163,-0.013051131687685846,0.09685454646870494
1761478254681486300,2.782486328125,-0.10458090293705463,-0.019391367559880017,0.05330401242524385
1761478254691522300,2.792522216796875,-0.05653320360481739,-0.010084098575636745,0.012567951280623674
1761478254701558300,2.802558349609375,0.011132803910970688,-0.03770283092856407,0.016222528265416623
1761478254711594200,2.81259423828125,0.05939677634239197,-0.015801672504842282,0.02452098553329706
1761478254721630200,2.822630126953125,0.0717734428346157,0.0019439736746251581,0.028254034581780434
1761478254731666400,2.83266650390625,0.07535831558406353,-0.010066635984182358,0.04464622032567858
1761478254741703400,2.842703369140625,0.009325462228059769,-0.00833045984134078,-0.010415449421852827
1761478254751739400,2.852739501953125,-0.03552256428003311,-0.03345226081199944,-0.08654781811833381
1761478254761775600,2.862775634765625,-0.036194764453172684,-0.029314284224435685,-0.10088277907148004
1761478254771811600,2.8728115234375,-0.07643383586108685,0.00030950434058904644,-0.06822744079083204
1761478254781847600,2.88284765625,-0.1976262663811445,0.010835793725773691,-0.035439269910752774
1761478254791884500,2.892884521484375,-0.30232290465235706,0.026841099043935536,-0.07767799070328474
1761478254801920800,2.902920654296875,-0.3367050667256117,-0.004983998957648873,-0.11638926802203059
1761478254811957000,2.91295703125,-0.31157179451286793,-0.0253111129976809,-0.14112272726222871
1761478254821993000,2.922992919921875,-0.22745032675862312,-0.03535217614918947,-0.0998031671412289
1761478254832029000,2.93302880859375,-0.12635083619654178,-0.06226626736409962,-0.008786533045768737
1761478254842065000,2.94306494140625,-0.07027239062190055,-0.0653681789021939,0.03734101187884807
1761478254852102000,2.953101806640625,-0.08534078041613101,-0.04388108117207885,0.004248889616131782
1761478254862137900,2.963137939453125,-0.1153834519803524,-0.05497077659368515,-0.05717573929205536
1761478254872173800,2.973173828125,-0.1804939297944307,-0.01920768155604601,-0.08878799826055765
1761478254882209800,2.983209716796875,-0.24202362651228904,0.02537489894889295,-0.05957432486638426
1761478254892246000,2.99324609375,-0.25283903503715993,0.03487009172067046,0.0008424421735107898
1761478254902282000,3.003281982421875,-0.19402210440933704,0.023390958590060473,0.02220642498061061
1761478254912319000,3.013319091796875,-0.1441962894886732,-0.007528641939163207,0.03020341508388519
1761478254922355000,3.02335498046875,-0.12193068166673182,-0.02206292485669255,0.054149231077730654
1761478254932391000,3.033390869140625,-0.10807692835927009,-0.03643164194896817,0.061584203384071584
1761478254942427000,3.043427001953125,-0.07178805588185787,-0.047666591060161585,0.013711422227323054
1761478254952462800,3.053462890625,-0.014629413855075836,-0.023734219069778916,-0.09904255803227424
1761478254962499800,3.063499755859375,0.0556786326020956,-0.04041413571387529,-0.1190593640141189
1761478254972535800,3.073535888671875,0.07263678166568278,-0.04034443147853017,-0.008763444431126118
1761478254982571800,3.08357177734375,-0.014634090030193328,-0.015708002872020007,0.09191913589313626
1761478254992607700,3.093607666015625,-0.18584347412884233,0.011732596435025333,0.07420783037468791
1761478255002643700,3.103643798828125,-0.32946050242483615,0.04751066984608769,-0.05050912100970745
1761478255012680000,3.113679931640625,-0.3833937526643276,0.03025930998958647,-0.16659999060705302
1761478255022717000,3.123717041015625,-0.3589081307053566,-0.0024979542955756184,-0.24646321639493107
1761478255032753000,3.1337529296875,-0.28144904344975946,-0.03188471923433244,-0.2557709968358278
1761478255042788900,3.143788818359375,-0.16996961317062376,-0.07229651686064899,-0.14208704224973917
1761478255052825000,3.1538251953125,-0.024804770910739897,-0.08767302275598049,-0.010701280625909566
1761478255062861000,3.163861083984375,0.050934068423509594,-0.05472973437942564,0.1114240468300879
1761478255072897000,3.17389697265625,-0.0026268413722515104,-0.04347089293599128,0.16703370584920046
1761478255082934000,3.18393408203125,-0.07038578786849975,-0.044747561808303,0.1452123346634209
1761478255092970000,3.193969970703125,-0.1102723925769329,-0.0419513552185148,0.11168459746241569
1761478255103006000,3.204005859375,-0.16480711584091184,-0.07136018585860729,0.054800096201896666
1761478255113042000,3.2140419921875,-0.22335691996514795,-0.07073131337054073,-0.01362140585631132
1761478255123078000,3.224077880859375,-0.25152093817591664,-0.07917005589194595,-0.013470160817354917
1761478255133113900,3.23411376953125,-0.30279928999245165,-0.08806450629159808,0.010031272409856318
1761478255143150800,3.24415087890625,-0.2956733836352825,-0.07604556719586253,-0.02555149762481451
1761478255153186800,3.254186767578125,-0.24363866049349306,-0.059225511428713795,-0.05015972305014729
1761478255163222800,3.264222900390625,-0.17082710678279397,-0.042434900951758024,-0.04482435337156057
1761478255173258800,3.2742587890625,-0.09513152206838131,-0.042133214591443535,0.014324001167714595
1761478255183295000,3.284294921875,0.00599661006629467,-0.015455489415675401,0.05391834493130445
1761478255193331000,3.2943310546875,-0.008076338949799537,-0.0006847673937678336,0.018946254140883682
1761478255203368000,3.304367919921875,-0.07451777310669422,-0.003167231859266758,-0.008717267201840876
1761478255213404000,3.31440380859375,-0.113034258505702,-0.0029840573120862245,-0.03980857103615999
1761478255223440000,3.32443994140625,-0.09787000712156295,0.003763371121510863,-0.07500307240560651
1761478255233475800,3.334475830078125,-0.06007540625631809,-0.014230916056782006,-0.10455927562713623
1761478255243511800,3.34451171875,-0.01233867256939411,-0.0058148968238383525,-0.16436083337813615
1761478255253548000,3.354548095703125,-0.025050270104408263,-0.02897489620223641,-0.206243580339849
1761478255263584800,3.364584716796875,-0.13294833476543425,-0.018608838880062102,-0.18460092672184109
1761478255273620700,3.374620849609375,-0.2167372095644474,0.008082622560113668,-0.08369900455847382
1761478255283657000,3.384656982421875,-0.25660277148485183,-0.012293225992470978,0.029768676928430795
1761478255293693000,3.39469287109375,-0.2561018362253904,-0.012840046220272778,0.07449263866543769
1761478255303729000,3.40472900390625,-0.23449790718257427,-0.023062749549001452,0.04285582977756858
1761478255313764900,3.414764892578125,-0.1880155574709177,-0.043569750200584526,-0.034884412506967784
1761478255323802000,3.424802001953125,-0.19531565135121345,-0.0725133014164865,-0.08036737591773271
1761478255333838000,3.434838134765625,-0.2418418402045965,-0.08553126148693263,-0.07288023503273725
1761478255343874000,3.4448740234375,-0.23300036210119723,-0.06042348904162645,-0.04799348492696881
1761478255353910000,3.454909912109375,-0.15599311026632784,-0.0642184974104166,-0.0036760581642389296
1761478255363946000,3.464946044921875,-0.05152385101020336,-0.07445406022071838,0.027137451642006635
1761478255373982000,3.47498193359375,0.09231646464765071,-0.05848083054125309,0.01807882365658879
1761478255384019000,3.48501904296875,0.1424491535604,-0.05223631012849509,0.04675795178264379
1761478255394055000,3.495054931640625,0.018651508978009223,-0.03248370804078877,0.01685015864446759
1761478255404091000,3.5050908203125,-0.16565291901528834,-0.006991612453013658,-0.03127294401153922
1761478255414126800,3.515126953125,-0.31497604999840256,-0.01112323236502707,-0.0803024939879775
1761478255424162800,3.525162841796875,-0.32729660238921643,-0.04035283398069441,-0.11398439883738755
1761478255434199800,3.53519970703125,-0.270968565967679,-0.07212722470834851,-0.12597031244635581
1761478255444235800,3.54523583984375,-0.19356325472593305,-0.07815050358586013,-0.07178308744579553
1761478255454271700,3.555271728515625,-0.09718027129173278,-0.08182553883679211,-0.0029968437284231186
1761478255464307700,3.5653076171875,-0.0700876817047596,-0.05941219310723245,0.019694003768265245
1761478255474343700,3.57534375,-0.10418401257395744,-0.046884208510816094,0.009352496365457773
1761478255484380000,3.5853798828125,-0.169301504650712,-0.03339380862303078,-0.001416734930127859
1761478255494417000,3.5954169921875,-0.15802315478920936,-0.012623773121088743,0.005522855074703693
1761478255504452900,3.605452880859375,-0.14426292498409748,-0.042034795718267556,0.057260056574642657
1761478255514488800,3.61548876953125,-0.11793781263828276,-0.04109093899689614,0.054438715543597936
1761478255524524800,3.62552490234375,-0.15178104552924632,-0.03253806857652962,0.02783303269073367
1761478255534561000,3.63556103515625,-0.21314882968366144,-0.038696664271503686,-0.037608284512907264
1761478255544597000,3.645596923828125,-0.2184486896574497,-0.025143866671994326,-0.10998904559090733
1761478255554633000,3.655633056640625,-0.21663784084320067,-0.03807604815512895,-0.10035758615359663
1761478255564670000,3.665669921875,-0.18167524853348732,-0.0676553399913013,-0.08325725214034319
1761478255574706000,3.675705810546875,-0.12631167322993278,-0.06265270939841866,-0.02458382163643837
1761478255584742000,3.685741943359375,-0.04673661673367023,-0.04174553044810891,0.04412687262669206
1761478255594777900,3.69577783203125,-0.03428688500523567,-0.021296178267896173,0.06168269532248377
1761478255604813800,3.705813720703125,-0.07617197005450725,0.004218859804049134,-0.01976180830746889
1761478255614851000,3.71585107421875,-0.1799415566086769,0.016627455804497003,-0.07797185908332467
1761478255624887000,3.725886962890625,-0.24193419466316698,0.008944134760275483,-0.11930500933825969
1761478255634923000,3.735923095703125,-0.2439373511791229,0.011203823320567607,-0.14357128945812583
1761478255644959000,3.745958984375,-0.17614157980382442,-0.010631649455800652,-0.13225479954332112
1761478255654995000,3.755994873046875,-0.09113339234292507,-0.015452493740990758,-0.08285320138409734
1761478255665031000,3.766031005859375,-0.0054179333955049515,-0.007558525620773434,0.04049085421189665
1761478255675067000,3.77606689453125,-0.04088496809601783,-0.02069024826399982,0.1215638941809535
1761478255685103900,3.786103759765625,-0.1444400351166725,-0.020897022882476447,0.07239201312437653
1761478255695139800,3.796139892578125,-0.2545031688570976,-0.006899915581569075,-0.038382337625324725
1761478255705175800,3.80617578125,-0.3026929070085287,-0.006733107647299766,-0.16475114786997436
1761478255715211800,3.816211669921875,-0.2723334245800972,-0.04954465989172458,-0.25565555376261473
1761478255725247700,3.826247802734375,-0.18348901995718478,-0.06382832904905081,-0.19729908025339243
1761478255735284000,3.836283935546875,-0.08622399299144744,-0.08978490034341811,-0.03691664898693561
1761478255745320700,3.84632080078125,-0.008703530937433243,-0.07409392167143523,0.0998050668373704
1761478255755356700,3.856356689453125,-0.022122399958968163,-0.05494783410951495,0.1549861251808703
1761478255765393000,3.866392822265625,-0.10967384216189384,-0.028897885443270203,0.1602295787923038
1761478255775429000,3.87642919921875,-0.1761725594639778,-0.0018700316555798054,0.1441045195519924
1761478255785465000,3.886465087890625,-0.24532500614523886,0.007482172448933124,0.06437544153779745
1761478255795499800,3.896499755859375,-0.26357261049747466,-0.019884192578122017,-0.03745718560442328
1761478255805536800,3.906536865234375,-0.205230896165967,-0.024573884764313696,-0.0929246596738696
1761478255815572700,3.91657275390625,-0.13533318407535552,-0.017519070881977676,-0.1087777701050043
1761478255825608700,3.926608642578125,-0.08531915310621262,-0.024209143105149267,-0.09120105075165628
1761478255835644700,3.936644775390625,-0.0963432359457016,-0.030450594777986405,-0.06253858149945736
1761478255845680600,3.9466806640625,-0.09960077643692493,0.002365633152797818,-0.09447042781114577
1761478255855716600,3.956716552734375,-0.07560147669017314,0.036380569348856806,-0.12674363490641116
1761478255865753600,3.966753662109375,-0.08193944754004479,0.03901617854945361,-0.1201017126739025
1761478255875789800,3.976789794921875,-0.1266454352289438,0.05666136002913117,-0.1183639290958643
1761478255885825800,3.98682568359375,-0.17271686605215072,0.04188376987501979,-0.09080065325722098
1761478255895861800,3.99686181640625,-0.20425240652263163,0.02580642223395407,-0.08763546722456812
1761478255905897700,4.006897705078125,-0.21991467055678365,0.027711744398623703,-0.09979571448713541
1761478255915934000,4.016933837890625,-0.1907382604330778,0.0047777357958257195,-0.0715438718624413
1761478255925970700,4.026970703125,-0.08258359066247939,-0.060167395388707516,-0.028574060316383838
1761478255936007000,4.0370068359375,0.018178630769252777,-0.05830510864816606,0.013063479712605476
1761478255946043000,4.04704296875,0.08314005550146103,-0.06203260473869741,0.06092807756289839
1761478255956078800,4.057078857421875,-0.0035182372540235518,-0.05206994058564305,0.07527472895383834
1761478255966114800,4.06711474609375,-0.15709201141893864,-0.002713715938106179,0.014685966347903012
1761478255976150800,4.07715087890625,-0.2986480155318975,0.01548559229299426,-0.022746815467625855
1761478255986186800,4.087186767578125,-0.37975218129158017,0.00787073337510228,0.006419803914427757
1761478255996223700,4.0972236328125,-0.36299510775804517,-0.02157806394919753,0.07275777769684791
1761478256006259700,4.107259765625,-0.34304069948792454,-0.05148140010796487,0.04952493227794766
1761478256016295700,4.117295654296875,-0.2891343372553587,-0.05549604257680475,-0.025596359679847955
1761478256026331600,4.12733154296875,-0.24390578699707985,-0.06402027142457664,-0.036255262468755246
1761478256036367600,4.13736767578125,-0.14133096318542956,-0.03417984443418681,-0.027090397629886864
1761478256046403800,4.14740380859375,-0.03753624219000339,-0.033944866634532805,0.007377689161151647
1761478256056440800,4.15744091796875,-0.007086158868670463,-0.010300810066238045,0.03125014765784144
1761478256066476800,4.167476806640625,-0.010091185903549195,0.019241876086592672,0.026782354594022034
1761478256076512800,4.1775126953125,-0.053442836374044414,0.047387335727363825,-0.04354585786834359
1761478256086548700,4.187548828125,-0.13912790018320081,0.03827544318474829,-0.11443185034394264
1761478256096584700,4.197584716796875,-0.2005769328802824,0.0035926907297223806,-0.19451456410139797
1761478256106620700,4.20762060546875,-0.16416647984981536,0.003756283793598413,-0.20783026500940321
1761478256116657700,4.21765771484375,-0.08563596397042274,-0.017735270915925503,-0.09341448901742697
1761478256126693600,4.227693603515625,0.007182020458579063,0.006210398947447538,-0.013274053723365068
1761478256136729600,4.2377294921875,0.022213000851869582,0.03958835241422057,0.010686083056777715
1761478256146765800,4.247765869140625,-0.04779343231022358,0.040314986188337204,0.029712124435603615
1761478256156801800,4.2578017578125,-0.0779869105219841,0.011552125301584601,-0.02135331528261304
1761478256166837800,4.267837646484375,-0.12962357425689697,-0.016328180596977472,-0.05399345599412918
1761478256176873700,4.277873779296875,-0.18758534936010837,-0.04434343798682094,-0.04477160027101636
1761478256186911000,4.287910888671875,-0.28121348112821576,-0.028918197578936815,-0.004954845928400755
1761478256196947000,4.297947021484375,-0.35740181779563424,-0.024916414591670034,0.04600976376384496
1761478256206983000,4.30798291015625,-0.4104910184264183,-0.01854629503786564,0.02172901672720909
1761478256217019000,4.318018798828125,-0.3833540051758289,-0.001897358053922653,-0.06206774911731481
1761478256227054800,4.328054931640625,-0.3056120093256235,-0.022343641494214535,-0.0944394481509924
1761478256237090800,4.3380908203125,-0.1587842022895813,-0.0592998187739402,-0.012626111208647489
1761478256247127800,4.3481279296875,-0.043080432313680646,-0.053760377890616655,0.063215311717242
1761478256257163800,4.358163818359375,-0.0254886615216732,-0.009325389162823557,0.09812456640452145
1761478256267199700,4.36819970703125,-0.0641010085105896,-0.0075306877657771104,0.12577157500386238
1761478256277235700,4.378235595703125,-0.07606792515814303,-0.014211772964894771,0.024765315683186052
1761478256287271700,4.388271728515625,-0.11108370895981788,-0.023147359092533588,-0.13348887138292193
1761478256297307600,4.3983076171875,-0.13034312070310114,-0.03365494377724826,-0.21309563819169997
1761478256307344600,4.4083447265625,-0.11130758084356784,-0.03922565658167004,-0.19731164747402072
1761478256317380600,4.418380615234375,-0.08532908997833728,-0.022826456575095654,-0.14834507973119615
1761478256327416600,4.42841650390625,-0.10324994659423828,-0.026544673380628228,-0.02663096342459321
1761478256337452500,4.43845263671875,-0.1919026280373335,-0.0014346359129995107,0.03936901057511568
1761478256347488800,4.44848876953125,-0.2358078207373619,0.011828750285878776,0.07863602208048105
1761478256357525000,4.45852490234375,-0.2346440376549959,0.02083871682398021,0.029137685548514126
1761478256367561000,4.46856103515625,-0.13688976586759088,0.0032325521804392335,-0.0469699870981276
1761478256377597700,4.47859765625,-0.02679974412024021,-0.03846139421090483,-0.0300090615555644
1761478256387634000,4.488634033203125,0.0047165071278810495,-0.047874826983362435,-0.00779693748652935
1761478256397670000,4.498669921875,0.0006260229438543319,-0.054042921159043904,-0.03984656495898962
1761478256407705900,4.508705810546875,-0.01705517969727516,-0.04974792737886309,-0.09471811896190047
1761478256417741800,4.518741943359375,-0.12411562449038029,-0.033918270888552066,-0.13112754907906055
1761478256427777800,4.52877783203125,-0.2109504428565502,-0.010453004953265189,-0.07732435496002435
1761478256437814800,4.538814697265625,-0.26808628852963445,-0.008847396387532352,0.006255699393898248
1761478256447850800,4.548850830078125,-0.2432972997099161,-0.008943696368858218,0.03374313351735472
1761478256457886700,4.55888671875,-0.20640929229557514,-0.005755567852035164,-0.016343816557526588
1761478256467922700,4.568922607421875,-0.18073767542243002,-0.03787906427830458,-0.04864171970263123
1761478256477958700,4.578958740234375,-0.17931144201159477,-0.01223740415200591,-0.0351309346139431
1761478256487994600,4.58899462890625,-0.20808862368464467,0.013127046468108892,-0.01052227079719305
1761478256498031900,4.599031982421875,-0.22613573702871798,0.01205547171384096,-0.026506021870672702
1761478256508067800,4.60906787109375,-0.1976578305631876,-0.003032937955111265,-0.06491364006772637
1761478256518103800,4.619103759765625,-0.180306882789731,-0.018940116661041975,-0.036222529242932795
1761478256528139800,4.629139892578125,-0.1477221255272627,-0.024305735347419977,0.026586101369559762
1761478256538175700,4.63917578125,-0.09426526062786579,-0.023263678948581216,0.05624488818272948
1761478256548211700,4.649211669921875,-0.09733107793927193,-0.03908661343716085,0.019782997225970027
1761478256558247700,4.65924755859375,-0.11204817007780074,-0.02254844335131347,-0.03217939133197069
1761478256568284700,4.66928466796875,-0.09110416624844074,-0.03432436747141182,-0.04737652207240462
1761478256578320600,4.679320556640625,-0.07738485297560692,-0.054990065816044806,-0.029273148496448992
1761478256588356600,4.689356689453125,-0.08854980559051036,-0.06036613283120095,-0.023150866223871705
1761478256598392800,4.699392822265625,-0.14634791456460952,-0.026618103943020104,-0.058038055209815496
1761478256608428800,4.7094287109375,-0.1921113023519516,-0.000592559065669775,-0.058119011491537094
1761478256618464800,4.71946484375,-0.17222352957725523,-0.019463044556602836,0.006702274117618799
1761478256628501800,4.729501708984375,-0.15516951892375946,-0.007369140528514981,0.06127265321686864
1761478256638538000,4.7395380859375,-0.17981354631483554,-0.015730945356190202,0.08814268609434366
1761478256648574000,4.749573974609375,-0.21433774720728396,-0.02334383151270449,0.032556261820346113
1761478256658610000,4.75960986328125,-0.20333704524338245,0.009022533758729696,-0.047709991810470816
1761478256668646000,4.76964599609375,-0.1828133126527071,0.024523323620855807,-0.07700915153101086
1761478256678681900,4.779681884765625,-0.1441045195519924,0.008271788456663489,-0.10684534073770045
1761478256688718800,4.78971875,-0.104817049780488,0.011099632293730973,-0.13779679770991204
1761478256698754800,4.7997548828125,-0.10248773005008698,0.011681816095858812,-0.12432692915350198
1761478256708790800,4.809790771484375,-0.11013093827962875,0.03231675397604704,-0.06464826712980866
1761478256718826800,4.81982666015625,-0.08435176937878132,0.037187574882805344,-0.038582682503014804
1761478256728862700,4.82986279296875,-0.07207213352024555,0.010243746116757392,-0.01629442445784807
1761478256738898700,4.839898681640625,-0.04168634760677814,0.0013808598991483449,-0.013909282886981964
1761478256748934700,4.8499345703125,-0.0072737903952598566,-0.001184752805158496,-0.05544160897582769
1761478256758971600,4.8599716796875,-0.05191021997928619,-0.030432986056059597,-0.08956190524250268
1761478256769007600,4.870007568359375,-0.11659165872633456,-0.02010353441722691,-0.12731003661751747
1761478256779043600,4.880043701171875,-0.153874218416214,-0.0576546088501811,-0.1075187099546194
1761478256789079600,4.89007958984375,-0.1792529898226261,-0.07638458989188075,-0.003588379880785942
1761478256799116500,4.900116455078125,-0.2623240717411041,-0.03954626683816313,0.07041662139818072
1761478256809152500,4.910152587890625,-0.3431201944649219,-0.0006265344005078077,0.1428872527167201
1761478256819189800,4.920189697265625,-0.3245481804639101,-0.018317673913761972,0.21832360197305678
1761478256829225700,4.930225830078125,-0.21947160296440124,-0.046783159289136525,0.2238262910425663
1761478256839261700,4.94026171875,-0.12523673747479916,-0.0927376126691699,0.17759192474260926
1761478256849297700,4.950297607421875,-0.10387129336297511,-0.08518990070335566,0.09352057974040508
1761478256859333600,4.960333740234375,-0.15626608198881148,-0.05123575478382408,-0.0007917348995804786
1761478256869369900,4.970369873046875,-0.23278291995823383,-0.034611440784484145,-0.0474188999094069
1761478256879406600,4.980406494140625,-0.304913505667448,0.006960048270970583,-0.11617153361812234
1761478256889442600,4.990442626953125,-0.3027449294567108,0.06207249835766852,-0.18914120049998162
1761478256899478800,5.000478759765625,-0.29026714067757126,0.06435863653346896,-0.20598288357704878
1761478256909514800,5.0105146484375,-0.19590777202546594,0.046301294056326145,-0.17639497004300356
1761478256919550700,5.02055078125,-0.06251461610198021,0.015187486129254102,-0.11005319686830044
1761478256929586700,5.030586669921875,0.02860708580315113,-0.00885083045363426,-0.06353709101751447
1761478256939623700,5.040623779296875,0.12234744577407836,0.0027874387614428993,-0.06759454971477388
1761478256949659600,5.05065966796875,0.11769991222918033,0.012113047119975089,-0.0987925287939608
1761478256959695600,5.060695556640625,0.01784779137969017,0.024034224929660557,-0.08130831002965569
1761478256969731600,5.070731689453125,-0.08149930255711078,0.026871494182199238,-0.08391235504820943
1761478256979767800,5.080767822265625,-0.10170154810845851,-0.025091478897631168,-0.10943185009956359
1761478256989803800,5.0908037109375,-0.08015548673272133,-0.045617111184448,-0.114873164370656
1761478256999840800,5.1008408203125,-0.08819616984724998,-0.06386354649290442,-0.08867810814529657
1761478257009876700,5.110876708984375,-0.08703004867732525,-0.06304302389025687,-0.009416793773323297
1761478257019912700,5.12091259765625,-0.0923258169978857,-0.029956892976909875,0.1393606860257685
1761478257029948700,5.13094873046875,-0.1340887369722128,0.0017906097438186407,0.20163520976155996
1761478257039984600,5.140984619140625,-0.18570377339720726,0.0024586451984941957,0.15466040035784243
1761478257050020600,5.1510205078125,-0.24263737449645995,-0.03587415419667959,0.047908875383436675
1761478257060056600,5.161056640625,-0.28707331307232375,-0.08742489321380853,-0.06669613957032561
1761478257070093600,5.171093505859375,-0.311506328061223,-0.11205854534134269,-0.07210603578984737
1761478257080129500,5.181129638671875,-0.3060480626553297,-0.10149294685907662,0.00027969372421503063
1761478257090165500,5.19116552734375,-0.2593435946255922,-0.06477751953266561,0.04170724426433444
1761478257100201700,5.20120166015625,-0.17341127805709838,-0.013131138121336698,0.05822407930120825
1761478257110237700,5.21123779296875,-0.11893851411342621,0.01053030797317624,0.08712707931101321
1761478257120273700,5.221273681640625,-0.12296703897714614,0.042477717180177565,0.09291764541119336
1761478257130310700,5.231310546875,-0.16546178035736084,0.056931628337875004,0.07726020368263124
1761478257140347000,5.241346923828125,-0.25375790344774724,0.03264240573383868,0.006538607988506555
1761478257150382800,5.2513828125,-0.265216870573163,-0.008084083864837884,-0.12265505041852592
1761478257160418800,5.261418701171875,-0.16583879697620868,-0.04251614949442446,-0.2292985849738121
1761478257170454800,5.271454833984375,-0.04100830221474171,-0.052189109985902905,-0.1911912648975849
1761478257180490800,5.28149072265625,0.04954232180416584,-0.047962578332051635,-0.08880904104858636
1761478257190527700,5.29152783203125,0.09991057303845882,-0.0023849954403936864,0.02276055173203349
1761478257200563700,5.301563720703125,0.10119301406443118,0.05135945422872901,0.06798924812078476
1761478257210599700,5.311599609375,0.011451368340849876,0.0008387158464640378,0.05912658109888434
1761478257220635600,5.3216357421875,-0.07996843972802162,0.07242934946008026,-0.05044292390570044
1761478257230671600,5.331671630859375,-0.1847252837538719,0.04021415616236627,-0.191375681553781
1761478257240707600,5.34170751953125,-0.2919084781438112,0.0026548253577202557,-0.25624255987033245
1761478257250744600,5.35174462890625,-0.35079321331083774,-0.004640665412694215,-0.2728114173553884
1761478257260780500,5.361780517578125,-0.35716099477708335,-0.03994936774633825,-0.18711261728182435
1761478257270816800,5.371816650390625,-0.3584574643284082,-0.0845893044617027,-0.0741159143075347
1761478257280852700,5.381852783203125,-0.25104630640149117,-0.10036781528666615,-0.005448620794713497
1761478257290888700,5.391888671875,-0.07814940760731696,-0.10605667457804083,0.051867988272756335
1761478257300924700,5.401924560546875,0.04948445413708687,-0.09416355381906032,0.09272226896956562
1761478257310961000,5.4119609375,0.11265431927740573,-0.05720416166894138,0.10716273612380027
1761478257320997600,5.42199755859375,0.054545829179883,-0.010074380899220704,0.08960472147092223
1761478257331033600,5.43203369140625,-0.0571118802756071,-0.016215733198449014,0.05549757694676518
1761478257341069800,5.44206982421875,-0.19173077860176563,-0.006816621212288737,-0.003663490943610668
1761478257351105800,5.452105712890625,-0.291843596214056,-0.018939093747735024,-0.048196898544579744
1761478257361141800,5.462141845703125,-0.3114899614483118,-0.04198876461945474,-0.060467620444297786
1761478257371177700,5.472177734375,-0.2955336829036474,-0.0765489866733551,-0.07806772067323327
1761478257381214700,5.482214599609375,-0.24631869335770606,-0.10230901248231529,-0.04269567077979445
1761478257391250700,5.492250732421875,-0.16531740345060825,-0.0907988266263157,-0.019996493846178055
1761478257401286700,5.50228662109375,-0.09899053558409214,-0.07705474423840641,0.0019397358909249306
1761478257411322600,5.512322509765625,-0.053367433050274846,-0.018810791192948817,-0.00999663948789239
1761478257421358600,5.522358642578125,-0.051564183020591736,0.027384266009926793,-0.03715367261320352
1761478257431394600,5.53239453125,-0.05761106196939945,0.035981706224381925,-0.011393646804243325
1761478257441431800,5.542431884765625,-0.1528974823385477,0.023874138997122644,0.019376754512637852
1761478257451467800,5.5524677734375,-0.22973054665029047,0.007525646264478564,-0.03142185096293688
1761478257461503700,5.562503662109375,-0.24000527242720127,-0.011701835970580577,-0.14709610258340836
1761478257471539700,5.572539794921875,-0.1880640727877617,-0.05030724176205694,-0.20349018997848034
1761478257481575700,5.58257568359375,-0.07589841381013393,-0.0736387252498418,-0.17197642294839025
1761478257491611600,5.592611572265625,0.03404255485534668,-0.06902275588698685,-0.027258155412226915
1761478257501647600,5.602647705078125,0.057032969820499414,-0.03885689633451402,0.07774637976437807
1761478257511684600,5.6126845703125,-0.047829672667384145,0.02309533664435148,0.08896277030557394
1761478257521720600,5.622720458984375,-0.1583393811315298,0.06197612531110644,0.004570376655459404
1761478257531756500,5.632756591796875,-0.22114041295945644,0.04414177793487906,-0.10545739351063967
1761478257541792500,5.64279248046875,-0.26538170574605463,-0.026200097726657986,-0.1618080801554024
1761478257551828700,5.652828857421875,-0.28193828827142714,-0.07563216408938168,-0.14760522114932537
1761478257561864700,5.66286474609375,-0.2608329564005136,-0.1209522650886327,-0.04114624938070774
1761478257571901700,5.672901611328125,-0.14944412701427937,-0.13577296373210845,0.06520517036020755
1761478257581937700,5.682937744140625,-0.03902560396492481,-0.10411708481758833,0.13580299354419112
1761478257591974000,5.692973876953125,-0.013147650864720344,-0.06310483708009124,0.15670184305757284
1761478257602009900,5.703009765625,-0.0264560452491045,-0.013975260795280336,0.14366335165575145
1761478257612045800,5.7130458984375,-0.11630816560983658,0.00788388511762023,0.10757584696933627
1761478257622081800,5.723081787109375,-0.19314649061858652,-0.00536189235933125,0.05847761567085981
1761478257632117800,5.73311767578125,-0.24247546193301675,-0.01162497134208679,0.03893646437674761
1761478257642154800,5.74315478515625,-0.24954583871066569,-0.05327741667926311,-0.03415536758005619
1761478257652190700,5.753190673828125,-0.24650340227484702,-0.07840024056322872,-0.13681743128374219
1761478257662226700,5.763226806640625,-0.2576630941927433,-0.08219188793115317,-0.16464651845172046
1761478257672262700,5.7732626953125,-0.28921733936369415,-0.044797026973217725,-0.04905249246060848
1761478257682298600,5.783298583984375,-0.2982978869199753,-0.00982289035618305,0.08726999491304159
1761478257692334600,5.79333447265625,-0.24423954899609088,0.01982837073765695,0.04510682357475161
1761478257702371600,5.80337158203125,-0.18067220897078512,0.027026903939619658,-0.07659691746830939
1761478257712407600,5.813407470703125,-0.1369599084943533,0.0007584902171045542,-0.1323956693187356
1761478257722443500,5.823443603515625,-0.09861761061847209,0.021697744806110857,-0.0838568254686892
1761478257732479500,5.8334794921875,-0.04914133978784084,0.019201836337149142,0.001212736790627241
1761478257742515700,5.843515625,-0.003760813838243484,0.006261398482322693,0.031544308298826214
1761478257752551700,5.8535517578125,0.010751695638895034,-0.00804462863728404,0.010620762735605239
1761478257762588000,5.863587890625,-0.023530513191223144,-0.010208674803376198,-0.06066518884301185
1761478257772624600,5.873624755859375,-0.07347323248982429,-0.010053776502609251,-0.08433876376673578
1761478257782660600,5.88366064453125,-0.10787935996055602,-0.015310235726088285,-0.08656710734069346
1761478257792696800,5.89369677734375,-0.11067045198380947,-0.005597089354693889,-0.07204173838198184
1761478257802731800,5.903731689453125,-0.06466390309035777,-0.035285102262347934,-0.03824629015550017
1761478257812767700,5.913767822265625,-0.008838555493950843,-0.05395933452881872,-0.009369885891675948
1761478257822803700,5.9238037109375,-0.031081951484084127,-0.03869264568351209,0.035846973928809166
1761478257832840700,5.9338408203125,-0.12684475719332694,-0.05032704244107008,0.0578834491699934
1761478257842876700,5.943876708984375,-0.21270868470072746,-0.06553323327079415,0.0855573457762599
1761478257852912600,5.95391259765625,-0.36616263187825676,-0.03440079370848834,0.06774228762239218
1761478257862948600,5.963948486328125,-0.458670235183835,0.01753887156099081,0.040811026076972484
1761478257872984800,5.97398486328125,-0.45162207023799417,0.03929492242559791,0.059806672317534684
1761478257883020800,5.984020751953125,-0.34546003558933736,0.012423866634815931,0.0734064508639276
1761478257893056800,5.994056884765625,-0.23245909483134744,0.006900792364403605,0.045681408592313524
1761478257903093800,6.00409375,-0.17895663722455502,-0.013273323071002959,-0.030250615226477384
1761478257913129700,6.014129638671875,-0.10350421361625194,-0.040604178393259645,-0.10444456320628523
1761478257923165700,6.024165771484375,-0.030476386806368827,-0.010636617891862987,-0.13032909217774868
1761478257933201700,6.03420166015625,0.027885785791277883,0.021178981629014014,-0.08752703841403126
1761478257943238000,6.04423779296875,-0.007943652480840682,0.04210406156219542,-0.05268500374406576
1761478257953273900,6.05427392578125,-0.05623334387540817,0.05111797362305224,-0.09770824068859219
1761478257963309800,6.064309814453125,-0.07963000155389309,0.04103248680792749,-0.12508300821781157
1761478257973346800,6.074346923828125,-0.08723872299194335,0.016701324758306144,-0.06405351610705257
1761478257983382800,6.0843828125,-0.14429448916614054,0.027195173178613183,0.010190993016213177
1761478257993418800,6.094418701171875,-0.2053869635105133,0.038629882645606996,0.03772957280501723
1761478258003454700,6.104454833984375,-0.19154139350950716,0.036224282808601856,-0.041702714219689366
1761478258013490700,6.11449072265625,-0.14336276127398012,-0.0012535802576690912,-0.12717340462580323
1761478258023526700,6.124526611328125,-0.11639759745895861,-0.013206176118925213,-0.12856149798333644
1761478258033564000,6.13456396484375,-0.16866320674717425,-0.034783290220052,-0.02526142863705754
1761478258043600000,6.144599853515625,-0.19228432083129882,-0.05014861713424325,0.11439940937906504
1761478258053635800,6.1546357421875,-0.20302432603240012,-0.0431435606777668,0.14099135596752166
1761478258063671800,6.164671875,-0.232857154238224,-0.03325103915147483,0.006051555123925209
1761478258073707800,6.174707763671875,-0.2579115159958601,-0.039396410038694735,-0.11014116741269826
1761478258083743700,6.18474365234375,-0.23532909730970858,-0.04102269606627524,-0.11365312105640768
1761478258093779700,6.19477978515625,-0.15506430498361587,-0.03336107539720833,-0.03541691194847226
1761478258103816700,6.204816650390625,-0.03822480897605419,-0.05209544035308063,0.06500847874432802
1761478258113852700,6.214852783203125,0.0629810645699501,-0.07743417201004922,0.1150141802765429
1761478258123888600,6.224888671875,0.08081775003373623,-0.06363061451986432,0.12070903091728687
1761478258133924600,6.234924560546875,0.033625790748000144,-0.0749077953375876,0.13702595946788787
1761478258143960800,6.2449609375,-0.07925240041315555,-0.052825288997590536,0.11525851042643188
1761478258153996800,6.254996826171875,-0.18994798683822153,-0.02962919539250433,0.06538081918805837
1761478258164033500,6.265033447265625,-0.2727238852024078,-0.06331738385222851,-0.01009177042543888
1761478258174069800,6.27506982421875,-0.31749826195240016,-0.053609717373549935,-0.11143062270134686
1761478258184106000,6.28510595703125,-0.3106920890688896,-0.027895576532930132,-0.1701958231419325
1761478258194142000,6.295141845703125,-0.2729465880423784,-0.023517215318232775,-0.15609583998844026
1761478258204178000,6.305177978515625,-0.23686288274824618,0.01309482469893992,-0.09145487938225269
1761478258214214000,6.3152138671875,-0.2326882274121046,0.04690890456065535,-0.04079845885634422
1761478258224249900,6.325249755859375,-0.20571195768117903,0.035194720565155144,0.0026715572968125344
1761478258234286800,6.335286865234375,-0.12030512629151344,0.031213907300680875,-0.004284837712347507
1761478258244322800,6.34532275390625,-0.07284194884896278,0.017576792418584227,-0.06065306001380086
1761478258254358800,6.35535888671875,-0.05347966125309467,-0.02061579478830099,-0.12032470777481794
1761478258264394800,6.365394775390625,0.0008744447469711303,-0.03586794365160167,-0.12467691163495183
1761478258274430700,6.3754306640625,0.027289573463797567,-0.07559322031848133,-0.08458470135182142
1761478258284466700,6.385466796875,-0.012261515679955481,-0.06626154754534364,-0.02732274508103728
1761478258294502700,6.395502685546875,-0.0889314983844757,-0.05726093335747719,0.025584815372526645
1761478258304539600,6.40553955078125,-0.16023966179490087,-0.04073847229741513,0.033238983387500046
1761478258314575600,6.41557568359375,-0.18602584495842456,-0.014794175962731242,0.07350508893281221
1761478258324611600,6.425611572265625,-0.19355039524435996,-0.016561039504781366,0.14774813675135373
1761478258334647600,6.4356474609375,-0.18916355846226215,-0.017509060944616794,0.16163433102369307
1761478258344683800,6.445683837890625,-0.21915362305641173,-0.022136720745265483,0.10549114964976906
1761478258354720000,6.455719970703125,-0.21744623461663723,-0.043937560599669814,0.01411313489601016
1761478258364756000,6.465755859375,-0.22723463818132875,-0.04460946851186454,-0.08589037712290883
1761478258374792700,6.475792724609375,-0.24838322467207907,-0.028644276008382437,-0.1884719229362905
1761478258384829000,6.485828857421875,-0.2628928115397692,-0.015834624926373362,-0.22770766252055763
1761478258394865000,6.495864990234375,-0.25082009643018244,-0.012924874959513544,-0.14475216980576514
1761478258404900900,6.50590087890625,-0.1878314330756664,0.016568053767457604,-0.05239201214686036
1761478258414936800,6.515936767578125,-0.1284276424705982,0.014681509368494152,0.009582944120466709
1761478258424972800,6.525972900390625,-0.08436345981657505,-0.00664908262565732,0.012195026315003632
1761478258435008800,6.5360087890625,-0.07259118895828723,-0.0011135141998529433,-0.03641381403133273
1761478258445045800,6.546045654296875,-0.09069500092566013,0.00936111806333065,-0.0847445680886507
1761478258455081700,6.556081787109375,-0.08750818758308887,0.007530395504832268,-0.07932166625708341
1761478258465117700,6.56611767578125,-0.035056115812063214,0.028940263280272483,-0.037717882367223496
1761478258475153700,6.576153564453125,-0.006629062750935554,0.02127791195884347,-0.0015391922660171985
1761478258485189600,6.586189697265625,-0.06025485447645187,-0.0011965163081884384,-0.002706044088304043
1761478258495225600,6.5962255859375,-0.11005611947774886,-0.041076910471543666,-0.017490502374619243
1761478258505261600,6.606261474609375,-0.16803659928143022,-0.05791019104644656,-0.03675838968530297
1761478258515298800,6.616298828125,-0.2266325806349516,-0.07163922199569642,-0.010201076018810271
1761478258525334800,6.626334716796875,-0.24567747284471989,-0.07279138770550489,0.03366013140901923
1761478258535370800,6.636370849609375,-0.28149697424471376,-0.06692213034592569,0.04244257280156016
1761478258545406700,6.64640673828125,-0.2751081499904394,-0.022483269160613415,-0.013219547057151794
1761478258555442700,6.656442626953125,-0.20681787309646604,0.00969407634474337,-0.09842720261290669
1761478258565479000,6.66647900390625,-0.1316828448742628,-0.004386909847334027,-0.08108706849440932
1761478258575515000,6.676514892578125,-0.0954191068381071,-0.024369667429104448,0.06025500060692429
1761478258585551600,6.686551513671875,-0.12025719549655914,-0.00530599745362997,0.15222162890359758
1761478258595587800,6.696587890625,-0.19855799427330492,-0.0037140520870685575,0.09314546281769871
1761478258605623800,6.706623779296875,-0.2511456751227379,-0.02694894333258271,-0.0635191169694066
1761478258615659800,6.71665966796875,-0.2227630457252264,-0.008001520147919654,-0.19914353907629848
1761478258625695700,6.72669580078125,-0.143974755692482,-0.003611468495428562,-0.23712781729474663
1761478258635731700,6.736731689453125,-0.026065000104904174,-0.04722761512100696,-0.19482143809348343
1761478258645767700,6.746767578125,0.15273381620943546,-0.08045052415654062,-0.10839826926812529
1761478258655805000,6.756804931640625,0.26516660169065,-0.07877996059581636,0.034625323179364204
1761478258665841000,6.7668408203125,0.19463292978405952,-0.07777312164083122,0.1377512050025165
1761478258675876900,6.776876953125,0.041275428718328476,-0.036057694070041175,0.16595891622453926
1761478258685912800,6.786912841796875,-0.2161748995065689,0.012101064421236514,0.21074892893508076
1761478258695948800,6.79694873046875,-0.43547114590406416,0.011462912648171186,0.19832740038782357
1761478258705984800,6.80698486328125,-0.5244365465581416,-0.0033919805258512494,0.0888173704855144
1761478258716020700,6.817020751953125,-0.49636079115271564,-0.041618543067574496,-0.055401130834966894
1761478258726057700,6.8270576171875,-0.3557487898916006,-0.07640015278719366,-0.17251505986973642
1761478258736093700,6.83709375,-0.23197686427235603,-0.06489880782477557,-0.22204700641036032
1761478258746129700,6.847129638671875,-0.15204232681393623,-0.036092984579131,-0.1792583966501057
1761478258756165600,6.85716552734375,-0.11100479850471019,0.00791230749450624,-0.12819149562716484
1761478258766201900,6.867201904296875,-0.12765081287920474,0.04194309884682298,-0.06489449697583913
1761478258776237800,6.87723779296875,-0.1336211194604635,0.06598565321341157,0.04535407633408904
1761478258786273800,6.887273681640625,-0.10471592749357223,0.029268910712748765,0.11640680367872118
1761478258796310800,6.897310791015625,-0.013636311164498328,-0.006347907721996307,0.05506415396556258
1761478258806347000,6.907346923828125,-0.007295417705178261,-0.0033652386493980883,-0.06291954364106059
1761478258816383200,6.91738330078125,-0.09604220717251301,-0.010148322918266058,-0.18766016816198824
1761478258826419200,6.927419189453125,-0.1517290230810642,-0.004273731796443462,-0.26067308966368435
1761478258836455200,6.937455078125,-0.1597036552220583,-0.031420681919157506,-0.19897081285789608
1761478258846491100,6.9474912109375,-0.11753215444684027,-0.03548281679153442,-0.02709551219642162
1761478258856527000,6.957527099609375,-0.06709259154200553,-0.023158903399854897,0.052572629410773515
1761478258866564400,6.967564453125,-0.00725274760723114,-0.027003596129268406,0.0725977648295462
1761478258876600300,6.977600341796875,0.04432838654816151,-0.0361024099946022,0.0737527800835669
1761478258886636300,6.98763623046875,0.043991117417812343,-0.04049845299646258,0.05881196219176053
1761478258896672300,6.99767236328125,-0.031814941933751104,-0.028074074904993175,0.021196663416177035
1761478258906708200,7.007708251953125,-0.21713994514644144,0.019553864645212887,0.020213497597724197
1761478258916744200,7.017744140625,-0.43297932908833026,0.06968838018886744,-0.02392521159723401
1761478258926780200,7.0277802734375,-0.5245557890236378,0.0584795884322375,-0.15181319423317907
1761478258936817200,7.037817138671875,-0.4726859010547399,-0.0018446049533784388,-0.20292685700729488
1761478258946853000,7.04785302734375,-0.2667600083619356,-0.04749328031986952,-0.1660793277338147
1761478258956889000,7.05788916015625,-0.07241933952271938,-0.07816876989491284,-0.08270692478120327
1761478258966925000,7.067925048828125,0.004890694651007652,-0.05172273458316922,-0.019955723444372415
1761478258976961000,7.0779609375,-0.06675064623653888,0.00018916589654982088,0.018839140504598617
1761478258986997200,7.087997314453125,-0.14277531677484512,0.05531454853005707,0.0058352820247411724
1761478258997033200,7.098033203125,-0.16001988156437874,0.060330842322111125,-0.013588088108599185
1761478259007069200,7.108069091796875,-0.11628829186558723,0.015299641266837714,-0.04382818194106221
1761478259017106200,7.118106201171875,-0.06751812347769737,-0.04709967789240181,-0.06353679875656962
1761478259027142400,7.128142333984375,-0.04209726649522781,-0.07075009113624692,-0.0718226888038218
1761478259037178400,7.138178466796875,-0.0691290658056736,-0.06927789969183504,-0.07851473378837108
1761478259047214300,7.14821435546875,-0.13489070100486278,-0.05376856119707227,0.024207097278535365
1761478259057250300,7.158250244140625,-0.20491057817041872,-0.01795081336274743,0.11209054791480302
1761478259067286300,7.168286376953125,-0.25849194623231886,-0.011184095706790685,0.09795359375178814
1761478259077322200,7.178322265625,-0.2730366044133901,0.0028737288054078818,0.014799655855447054
1761478259087359200,7.188359130859375,-0.17693419148623943,-0.002272328846156597,-0.04291150548756122
1761478259097395200,7.198395263671875,-0.08567980311214923,-0.042677185275033114,-0.017558306913822888
1761478259107431200,7.20843115234375,-0.012201309925317764,-0.08204838780723511,0.030253683966398236
1761478259117467100,7.218467041015625,-0.04906769002974033,-0.06510865118317305,0.05706351108923554
1761478259127503000,7.228503173828125,-0.18127075938582418,-0.04229081630595028,0.05203326183706522
1761478259137539000,7.2385390625,-0.32429274439811706,-0.01506385974958539,-0.04876607673466205
1761478259147575000,7.248574951171875,-0.3956114292025566,0.004914952309429645,-0.1766024753138423
1761478259157612000,7.258612060546875,-0.348120194709301,0.031472192910686134,-0.21304960709288714
1761478259167648000,7.26864794921875,-0.2151204220175743,-0.015496844339370727,-0.14917349337935445
1761478259177684000,7.27868408203125,-0.03259177152514457,-0.056400955527275795,-0.06318740079700946
1761478259187720200,7.28872021484375,0.04435293646752834,-0.06037745794281363,0.024148206698149443
1761478259197756400,7.29875634765625,0.07237257777154445,-0.05607552296519279,0.1109691426694393
1761478259207792400,7.30879248046875,0.04007423623502254,-0.040290070942789316,0.15385010688826442
1761478259217828400,7.318828369140625,-0.04177402589023113,-0.022678280276060104,0.1639211267866194
1761478259227864300,7.3288642578125,-0.1251525663226843,-0.026478841602802276,0.13476532105952502
1761478259237901300,7.3389013671875,-0.17989947103261947,-0.04250555503517389,0.07661138438507914
1761478259247937300,7.348937255859375,-0.24969606083631515,-0.03107420656904578,-0.0060690907806158064
1761478259257973200,7.35897314453125,-0.3083002254962921,-0.02137055867835879,-0.1327986971616745
1761478259268009200,7.36900927734375,-0.2858171755313873,-0.025005261918902396,-0.21274171018749474
1761478259278045200,7.379045166015625,-0.20335750350952148,-0.03277034296244383,-0.18506532936319708
1761478259288081200,7.3890810546875,-0.15911211906969547,-0.021819033098220825,0.008991407968103885
1761478259298117000,7.3991171875,-0.14938801291286943,-0.009073241032660008,0.13268573830649255
1761478259308154000,7.409154052734375,-0.12257307122349738,0.007224690556526183,0.10240881959497929
1761478259318190000,7.419190185546875,-0.11725041489601135,-0.0061950552478432655,-0.014236469014734028
1761478259328226000,7.42922607421875,-0.12510638909339905,-0.007346124979108572,-0.13601035268455744
1761478259338262000,7.439261962890625,-0.10039864881634712,-0.0053398997232317925,-0.16958455937579273
1761478259348298000,7.449298095703125,-0.014507833302021026,-0.03952113239690661,-0.13589081795811653
1761478259358334200,7.459334228515625,0.017764789271354674,-0.02847206124663353,-0.028874796828627584
1761478259368370200,7.4693701171875,0.0015291092634201048,0.005667378111928701,0.059288785923272365
1761478259378406400,7.479406494140625,-0.0862520500421524,0.024164573311060665,-0.023119009780883788
1761478259388443100,7.489443115234375,-0.2019499747991562,0.029817630636692044,-0.21442177222892642
1761478259398479000,7.49947900390625,-0.28463410322666166,0.005796411319077014,-0.25091858836859465
1761478259408515300,7.509515380859375,-0.3181733847349882,-0.015553835223615168,-0.08185206151753664
1761478259418551300,7.51955126953125,-0.3064385232776403,-0.028234745359420773,0.11273045325353741
1761478259428587300,7.529587158203125,-0.19744564911723136,-0.013873919312655926,0.15304507411569357
1761478259438623200,7.539623291015625,-0.10506897871494293,-0.060625733615458005,0.08714096170589328
1761478259448659200,7.5496591796875,-0.08336977260410786,-0.05909267882928252,-0.00215367090255022
1761478259458696200,7.5596962890625,-0.08665186301469803,-0.04763444235622882,-0.024887773019075392
1761478259468732200,7.569732177734375,-0.08992752368450165,-0.04320741969421506,0.017758359530568122
1761478259478768000,7.57976806640625,-0.12033084525465965,-0.018243658829480407,0.02156476607620716
1761478259488804000,7.58980419921875,-0.20076865606009958,0.005713993732631206,-0.004783581014722585
1761478259498840000,7.599840087890625,-0.2965221094191074,0.00043218087218701835,-0.07577347225621342
1761478259508876000,7.6098759765625,-0.295415024960041,0.004309533762186765,-0.11586305219084024
1761478259518912000,7.619912109375,-0.1802981149613857,0.0027891923271119593,-0.045519203767925495
1761478259528948000,7.629947998046875,-0.08504735042750836,0.007399024210125208,0.06279328691288828
1761478259538985200,7.639985107421875,-0.06819967600107192,0.014082301366329193,0.12129983641728759
1761478259549021200,7.650021240234375,-0.1236614509820938,0.044561318521201605,0.07929960055574774
1761478259559057200,7.66005712890625,-0.12206687526702881,0.033334114325046536,-0.07081848019734024
1761478259569093000,7.670093017578125,-0.04303834673762321,-0.020537468855082987,-0.22788623395785687
1761478259579129300,7.68012939453125,-0.028000352081656455,-0.06055661390200257,-0.2388026186391711
1761478259589165300,7.690165283203125,-0.10174421820640564,-0.07149886367693543,-0.17240546201542017
1761478259599201300,7.700201171875,-0.18510989915728568,-0.0375680255677551,-0.1438958452373743
1761478259609238300,7.71023828125,-0.26582886499166486,-0.004416355137526988,-0.08603679985627531
1761478259619274200,7.720274169921875,-0.2505973935902119,0.05791735143959522,-0.018085984049737453
1761478259629310200,7.730310302734375,-0.1531762992799282,0.0484599333949387,0.034208705202490086
1761478259639346200,7.74034619140625,-0.09001052579283714,-0.007683540239930152,0.05032470435351133
1761478259649382100,7.750382080078125,-0.07585866632163524,-0.05468056147545576,0.03923939284607768
1761478259659418000,7.760418212890625,-0.12126608027815818,-0.08277794419080019,0.02322247015535831
1761478259669454000,7.7704541015625,-0.17398060237765312,-0.06566065904274583,0.006065437518805265
1761478259679490000,7.780489990234375,-0.2109989581733942,-0.05580167445987463,-0.03651946636289358
1761478259689527300,7.79052734375,-0.15849194134473799,-0.03777385033816099,-0.06002016893774271
1761478259699563300,7.800563232421875,-0.077494743090868,-0.05358414454087615,-0.00884980754032731
1761478259709599200,7.81059912109375,0.008661445361375808,-0.07244885787814855,0.06633125178068876
1761478259719635200,7.82063525390625,-0.05027063607871532,-0.047811990880221124,0.04795446809083223
1761478259729671200,7.830671142578125,-0.1950947020769119,-0.02757555079832673,-0.02889014052823186
1761478259739707100,7.84070703125,-0.3165636114507913,-0.007738485297560691,-0.007740092732757329
1761478259749743000,7.8507431640625,-0.2569838797569275,-0.04722089311927557,0.05715747298300266
1761478259759779300,7.860779296875,-0.24769056623280047,-0.07278247374668717,0.06668064974024891
1761478259769816000,7.870816162109375,-0.2633405553072691,-0.05562704854533076,0.025123335340619085
1761478259779852000,7.88085205078125,-0.26612521758973595,-0.024998832178115844,-0.08373948269933462
1761478259789888300,7.89088818359375,-0.24408698878288268,-0.036963556868582964,-0.18667349521219728
1761478259799923700,7.900923828125,-0.16428163066208362,-0.020308336274325847,-0.22783289633542297
1761478259809959700,7.910959716796875,-0.01445581085383892,0.00735401602461934,-0.1393146549269557
1761478259819995600,7.92099560546875,0.016612696626782417,0.012715396927297114,0.05843713752999902
1761478259830031600,7.931031494140625,-0.058631637188792225,0.04020750722587108,0.21506109304577112
1761478259840067600,7.941067626953125,-0.07785247048735618,0.021196078894287346,0.11858370932638644
1761478259850104600,7.9511044921875,-0.11161211674809456,-0.06399974009320139,-0.033733342775702474
1761478259860140500,7.961140625,-0.08176526001691818,-0.12724924634099005,-0.11834171726405619
1761478259870176500,7.971176513671875,-0.1047434000223875,-0.07127002335712314,-0.09921294616311788
1761478259880212500,7.98121240234375,-0.12398644515275954,-0.031563159129768606,-0.0006599252134561538
1761478259890248400,7.99124853515625,-0.10613690020740031,-0.020208821422606705,0.0563921876989305
1761478259900284400,8.001284423828125,-0.1281102470844984,0.012934008114039898,0.010777414602041244
1761478259910320600,8.011320556640625,-0.16665888118743896,-0.0010321195267140864,-0.05141512993872165
1761478259920356600,8.021356689453125,-0.17398644759654996,-0.05472016283348202,-0.07568477105945348
1761478259930393300,8.031393310546875,-0.10940320852696896,-0.0699621556289494,-0.07240238838791847
1761478259940429600,8.0414296875,-0.13792320056855678,-0.04470905642881989,-0.03819996679574251
1761478259950465800,8.0514658203125,-0.3093359982848167,0.0054253860495984555,0.0648699470564723
1761478259960501800,8.061501708984375,-0.3104734778821468,0.04647387414425611,0.05374664162620902
1761478259970537700,8.071537841796875,-0.23278642708957195,0.0018681319594383238,-0.022260347124934195
1761478259980573700,8.08157373046875,-0.20965806495845316,-0.036358138321340085,-0.06548311051875352
1761478259990609700,8.091609619140625,-0.1747393117904663,0.007459083834290504,-0.059513826850801706
1761478260000645600,8.101645751953125,-0.1381441498428583,-0.0027849545434117315,-0.07966843386813997
1761478260010682600,8.1116826171875,-0.02091594677865505,-0.010606003557890653,-0.09525660975277424
1761478260020718600,8.121718505859375,0.024071195939183235,0.012577888152748346,-0.13029913543090224
1761478260030754600,8.131754638671875,0.01703530595302582,0.007192103461176156,-0.1506676774598658
1761478260040790500,8.14179052734375,-0.11930676290392875,-0.027535949440300463,-0.1317065180107951
1761478260050826500,8.151826416015625,-0.2804594478905201,-0.0065080667197704315,-0.14227847316861153
1761478260060862500,8.161862548828125,-0.22678747893571852,0.03222381499558687,-0.10391995481029152
1761478260070898400,8.1718984375,-0.10821662909090518,0.016719518002122638,0.050920770550519225
1761478260080934400,8.181934326171875,-0.014732874229550361,-0.025059330193698406,0.11480740565806627
1761478260090971400,8.191971435546876,0.04821370354890823,-0.03378361165821552,0.09807882756665348
1761478260101007400,8.20200732421875,-0.01680383528470993,-0.05274447884634137,0.11474924573004246
1761478260111043300,8.212043212890626,-0.23149755632281302,-0.0495494821973145,0.1171123215995729
1761478260121079600,8.22207958984375,-0.3925263226687908,-0.008228022380173205,0.0018393442563712596
1761478260131115800,8.23211572265625,-0.4754921906471252,0.0046808512926101685,-0.12993614733740685
1761478260141151700,8.24215185546875,-0.3693032679915428,-0.017247487398982048,-0.26937501316592094
1761478260151187700,8.252187744140626,-0.20544600022137163,-0.01691124118193984,-0.2715482655517757
1761478260161224700,8.262224609375,-0.03132803519964218,-0.043548488216847175,-0.1554189636401832
1761478260171260700,8.2722607421875,-0.005753448960185051,-0.04229235067591071,-0.02629705529510975
1761478260181296600,8.282296630859374,0.10110299769341945,0.052415831413865084,0.07158347322046757
1761478260191332600,8.29233251953125,0.07039864735007285,0.059914224345237015,0.12395327353551983
1761478260201368600,8.30236865234375,-0.36834815922379494,0.11420666328594088,0.13490677535682916
1761478260211404500,8.312404541015624,0.052774143332242965,0.5669508694216608,-0.128272305778414
1761478260221440500,8.3224404296875,0.24274668008983133,-0.19405176889523862,0.10927622114643454
1761478260231476500,8.3324765625,-0.2864490436941385,-0.6929208896070719,0.2890710627608001
1761478260241512400,8.342512451171874,-1.0078414100259543,-0.21418094921037553,-0.1839347178980708
1761478260251549400,8.352549560546874,-1.0743845509916543,-0.042401510138809675,-0.2572518830433488
1761478260261585400,8.36258544921875,-0.7528425666064024,-0.2677295840464532,-0.11090586817488074
1761478260271621400,8.372621337890624,-0.330768077892065,-0.12114274615943431,0.056828825550526374
1761478260281657300,8.3826572265625,0.19407588042318819,-0.013106003680080174,0.2370586975812912
1761478260291693600,8.392693603515625,0.42446050706803795,0.010779898820072412,0.3631020752638578
1761478260301729800,8.402729736328125,0.3606301321923733,0.2686579509377479,0.26156755428537726
1761478260311765800,8.412765869140625,0.3885919058293104,0.7034332235321402,0.07267156071811914
