time,seconds_elapsed,z,y,x
1761478251977995500,0.07899560546875,-0.9712371826171875,-0.11834716796875,-0.166168212890625
1761478251988031700,0.08903173828125,-0.958740234375,-0.126739501953125,-0.1839752197265625
1761478251998067700,0.099067626953125,-0.9527587890625,-0.1278839111328125,-0.199859619140625
1761478252008104400,0.1091044921875,-0.968475341796875,-0.1224517822265625,-0.2089691162109375
1761478252018140700,0.119140625,-0.9899749755859375,-0.11492919921875,-0.2130126953125
1761478252028176600,0.1291767578125,-0.9994659423828125,-0.109100341796875,-0.2132720947265625
1761478252038212600,0.139212646484375,-0.9865264892578125,-0.1097259521484375,-0.203216552734375
1761478252048248600,0.14924853515625,-0.971038818359375,-0.1151123046875,-0.1868896484375
1761478252058284800,0.159284912109375,-0.971771240234375,-0.1120758056640625,-0.1867523193359375
1761478252068320800,0.16932080078125,-0.97772216796875,-0.1107635498046875,-0.1921234130859375
1761478252078356700,0.179356689453125,-0.981048583984375,-0.1151275634765625,-0.1887054443359375
1761478252088393700,0.189393798828125,-0.975067138671875,-0.1202239990234375,-0.18072509765625
1761478252098429700,0.1994296875,-0.9709320068359375,-0.1199493408203125,-0.175811767578125
1761478252108465700,0.209465576171875,-0.98248291015625,-0.12060546875,-0.1821136474609375
1761478252118501600,0.219501708984375,-1.0061492919921875,-0.1192474365234375,-0.198699951171875
1761478252128537600,0.22953759765625,-1.0205535888671875,-0.11468505859375,-0.2098846435546875
1761478252138573600,0.239573486328125,-1.021026611328125,-0.1150970458984375,-0.207305908203125
1761478252148609500,0.249609619140625,-1.0093841552734375,-0.1165313720703125,-0.1949005126953125
1761478252158645500,0.2596455078125,-0.9957275390625,-0.1162261962890625,-0.1831817626953125
1761478252168682500,0.2696826171875,-0.987335205078125,-0.1148681640625,-0.1779022216796875
1761478252178718500,0.279718505859375,-0.9846343994140625,-0.1138458251953125,-0.1857757568359375
1761478252188754400,0.28975439453125,-0.9796295166015625,-0.111785888671875,-0.196380615234375
1761478252198790700,0.299790771484375,-0.9756622314453125,-0.1123046875,-0.1996612548828125
1761478252208826600,0.30982666015625,-0.97601318359375,-0.11083984375,-0.20208740234375
1761478252218862600,0.319862548828125,-0.9743194580078125,-0.1137237548828125,-0.198883056640625
1761478252228898600,0.329898681640625,-0.9756011962890625,-0.1192626953125,-0.193115234375
1761478252238935800,0.339935791015625,-0.9837799072265625,-0.11322021484375,-0.197998046875
1761478252248971800,0.3499716796875,-1.00067138671875,-0.108612060546875,-0.2005157470703125
1761478252259007700,0.3600078125,-1.0100555419921875,-0.1138763427734375,-0.19439697265625
1761478252269043700,0.370043701171875,-1.0081329345703125,-0.115081787109375,-0.1951446533203125
1761478252279079700,0.38007958984375,-0.9894866943359375,-0.117431640625,-0.1951446533203125
1761478252289115600,0.39011572265625,-0.9745635986328125,-0.1208343505859375,-0.1873931884765625
1761478252299151600,0.400151611328125,-0.969146728515625,-0.1183624267578125,-0.1813201904296875
1761478252309187600,0.4101875,-0.9752349853515625,-0.1116943359375,-0.1827850341796875
1761478252319224600,0.420224609375,-0.9837493896484375,-0.1110687255859375,-0.1854248046875
1761478252329260500,0.430260498046875,-0.988525390625,-0.113067626953125,-0.1908111572265625
1761478252339296500,0.440296630859375,-0.994476318359375,-0.114471435546875,-0.1967926025390625
1761478252349332500,0.45033251953125,-1.003875732421875,-0.1160125732421875,-0.2021331787109375
1761478252359368400,0.460368408203125,-1.0000457763671875,-0.1168060302734375,-0.1989288330078125
1761478252369404700,0.47040478515625,-0.9886474609375,-0.1149749755859375,-0.1934967041015625
1761478252379440600,0.480440673828125,-0.9829864501953125,-0.1124267578125,-0.192840576171875
1761478252389477600,0.4904775390625,-0.98236083984375,-0.109222412109375,-0.194854736328125
1761478252399513600,0.500513671875,-0.988922119140625,-0.1070709228515625,-0.1971893310546875
1761478252409549800,0.5105498046875,-0.996002197265625,-0.108612060546875,-0.19744873046875
1761478252419585800,0.520585693359375,-0.995086669921875,-0.1115875244140625,-0.1998291015625
1761478252429621800,0.530621826171875,-0.9925994873046875,-0.1152191162109375,-0.2035369873046875
1761478252439657700,0.54065771484375,-0.99053955078125,-0.1172027587890625,-0.204010009765625
1761478252449693700,0.550693603515625,-0.9822998046875,-0.1181488037109375,-0.198028564453125
1761478252459730700,0.560730712890625,-0.9698486328125,-0.12042236328125,-0.1873321533203125
1761478252469766700,0.5707666015625,-0.9643707275390625,-0.1185302734375,-0.182464599609375
1761478252479802600,0.580802734375,-0.9732208251953125,-0.11279296875,-0.1880035400390625
1761478252489838600,0.590838623046875,-0.984893798828125,-0.112457275390625,-0.1893463134765625
1761478252499874600,0.60087451171875,-0.9949493408203125,-0.1127777099609375,-0.184783935546875
1761478252509910500,0.61091064453125,-0.996734619140625,-0.1153564453125,-0.1835479736328125
1761478252519946500,0.620946533203125,-0.9953765869140625,-0.118682861328125,-0.18426513671875
1761478252529983700,0.630983642578125,-0.9947357177734375,-0.1221771240234375,-0.18438720703125
1761478252540019700,0.641019775390625,-0.99139404296875,-0.117401123046875,-0.1899871826171875
1761478252550055700,0.6510556640625,-0.9853057861328125,-0.1123504638671875,-0.1983184814453125
1761478252560091600,0.661091552734375,-0.982696533203125,-0.1145782470703125,-0.1991119384765625
1761478252570127600,0.671127685546875,-0.9907379150390625,-0.1124267578125,-0.197967529296875
1761478252580163800,0.681163818359375,-0.9952239990234375,-0.1089630126953125,-0.1973114013671875
1761478252590199800,0.69119970703125,-0.9962921142578125,-0.111114501953125,-0.192779541015625
1761478252600236500,0.701236572265625,-0.9937286376953125,-0.1173858642578125,-0.1912078857421875
1761478252610272800,0.711272705078125,-0.9919586181640625,-0.1157379150390625,-0.1923980712890625
1761478252620308700,0.721308837890625,-0.9976043701171875,-0.1114959716796875,-0.19085693359375
1761478252630344700,0.7313447265625,-1.003997802734375,-0.1114654541015625,-0.1840667724609375
1761478252640380700,0.741380615234375,-1.0009307861328125,-0.113250732421875,-0.179595947265625
1761478252650416600,0.751416748046875,-0.992584228515625,-0.112945556640625,-0.182769775390625
1761478252660453600,0.76145361328125,-0.992828369140625,-0.113250732421875,-0.1905670166015625
1761478252670489600,0.771489501953125,-0.999847412109375,-0.109588623046875,-0.201751708984375
1761478252680525600,0.781525634765625,-0.9933013916015625,-0.1084442138671875,-0.1993560791015625
1761478252690561500,0.7915615234375,-0.9785614013671875,-0.1138458251953125,-0.1876068115234375
1761478252700597800,0.80159765625,-0.9600372314453125,-0.11309814453125,-0.1860504150390625
1761478252710633700,0.8116337890625,-0.9512176513671875,-0.11529541015625,-0.1884765625
1761478252720669700,0.821669677734375,-0.956695556640625,-0.119049072265625,-0.1910552978515625
1761478252730706700,0.831706787109375,-0.9787750244140625,-0.1143798828125,-0.1968994140625
1761478252740742700,0.84174267578125,-1.002777099609375,-0.10693359375,-0.20147705078125
1761478252750778600,0.851778564453125,-1.01861572265625,-0.1055450439453125,-0.19805908203125
1761478252760814600,0.861814697265625,-1.01959228515625,-0.1064605712890625,-0.194183349609375
1761478252770850600,0.8718505859375,-1.01153564453125,-0.1087646484375,-0.19757080078125
1761478252780886500,0.881886474609375,-0.9940643310546875,-0.1196136474609375,-0.19537353515625
1761478252790923500,0.891923583984375,-0.9773101806640625,-0.1259613037109375,-0.1923980712890625
1761478252800959500,0.90195947265625,-0.9720001220703125,-0.118499755859375,-0.19708251953125
1761478252810995500,0.911995361328125,-0.9735870361328125,-0.1165618896484375,-0.1923828125
1761478252821031700,0.92203173828125,-0.9725341796875,-0.1171722412109375,-0.177276611328125
1761478252831068000,0.93206787109375,-0.967041015625,-0.1154327392578125,-0.1677703857421875
1761478252841104000,0.942103759765625,-0.9744720458984375,-0.1166534423828125,-0.17071533203125
1761478252851139800,0.952139892578125,-0.9964447021484375,-0.114959716796875,-0.18310546875
1761478252861176800,0.9621767578125,-1.0112152099609375,-0.1133880615234375,-0.1942596435546875
1761478252871212800,0.972212890625,-1.01641845703125,-0.1168670654296875,-0.1985321044921875
1761478252881248800,0.982248779296875,-1.0142974853515625,-0.1178741455078125,-0.201690673828125
1761478252891284700,0.99228466796875,-1.013946533203125,-0.11590576171875,-0.196990966796875
1761478252901320700,1.00232080078125,-1.0049896240234375,-0.1121978759765625,-0.188720703125
1761478252911356700,1.012356689453125,-0.989501953125,-0.1114654541015625,-0.1845855712890625
1761478252921393700,1.0223935546875,-0.982666015625,-0.10955810546875,-0.18450927734375
1761478252931429600,1.0324296875,-0.9744720458984375,-0.1116790771484375,-0.1891326904296875
1761478252941465600,1.042465576171875,-0.967010498046875,-0.1166229248046875,-0.1940765380859375
1761478252951501600,1.05250146484375,-0.9637908935546875,-0.119293212890625,-0.201263427734375
1761478252961537500,1.06253759765625,-0.9740142822265625,-0.11285400390625,-0.2097015380859375
1761478252971573500,1.072573486328125,-0.9868011474609375,-0.111297607421875,-0.206329345703125
1761478252981610800,1.08261083984375,-0.9868927001953125,-0.107666015625,-0.1998138427734375
1761478252991646700,1.092646728515625,-0.9927215576171875,-0.1053619384765625,-0.196563720703125
1761478253001682700,1.1026826171875,-1.00390625,-0.111328125,-0.2014312744140625
1761478253011718700,1.11271875,-0.9992523193359375,-0.114501953125,-0.20391845703125
1761478253021754600,1.122754638671875,-0.985565185546875,-0.1163482666015625,-0.195892333984375
1761478253031790800,1.132790771484375,-0.9801483154296875,-0.1209259033203125,-0.1810455322265625
1761478253041827600,1.14282763671875,-0.9803314208984375,-0.1197509765625,-0.1782684326171875
1761478253051863600,1.152863525390625,-0.9826202392578125,-0.117034912109375,-0.183380126953125
1761478253061899800,1.162899658203125,-0.99163818359375,-0.1159820556640625,-0.187042236328125
1761478253071935700,1.172935791015625,-1.0052642822265625,-0.11572265625,-0.1918487548828125
1761478253081971700,1.1829716796875,-1.0104522705078125,-0.114959716796875,-0.192718505859375
1761478253092007700,1.193007568359375,-1.0053253173828125,-0.1138916015625,-0.188507080078125
1761478253102044700,1.203044677734375,-0.99462890625,-0.1155548095703125,-0.184234619140625
1761478253112080600,1.21308056640625,-0.987640380859375,-0.1180877685546875,-0.1863861083984375
1761478253122116900,1.223116943359375,-0.98590087890625,-0.118194580078125,-0.192169189453125
1761478253132152800,1.23315283203125,-0.982666015625,-0.1159820556640625,-0.19659423828125
1761478253142188800,1.243188720703125,-0.9744415283203125,-0.1171722412109375,-0.195465087890625
1761478253152224800,1.253224853515625,-0.9764862060546875,-0.11663818359375,-0.1947174072265625
1761478253162261800,1.26326171875,-0.9883575439453125,-0.1120452880859375,-0.1975860595703125
1761478253172297700,1.273297607421875,-0.994232177734375,-0.1110382080078125,-0.1945648193359375
1761478253182333700,1.283333740234375,-0.9940185546875,-0.114105224609375,-0.1883087158203125
1761478253192369700,1.29336962890625,-0.9908447265625,-0.11602783203125,-0.1883087158203125
1761478253202405600,1.303405517578125,-0.986236572265625,-0.115020751953125,-0.1900787353515625
1761478253212442600,1.313442626953125,-0.9822845458984375,-0.1175384521484375,-0.188018798828125
1761478253222478600,1.323478515625,-0.981597900390625,-0.118408203125,-0.1897735595703125
1761478253232514600,1.3335146484375,-0.9915618896484375,-0.113861083984375,-0.197113037109375
1761478253242550500,1.343550537109375,-1.0001220703125,-0.1109771728515625,-0.2028350830078125
1761478253252586500,1.35358642578125,-0.9994049072265625,-0.1111602783203125,-0.198974609375
1761478253262622700,1.363622802734375,-0.989776611328125,-0.1137847900390625,-0.19342041015625
1761478253272659700,1.37365966796875,-0.9835357666015625,-0.1156158447265625,-0.195220947265625
1761478253282695700,1.38369580078125,-0.9781494140625,-0.1166839599609375,-0.200164794921875
1761478253292731600,1.393731689453125,-0.97564697265625,-0.1176910400390625,-0.2008514404296875
1761478253302767900,1.403767822265625,-0.9781646728515625,-0.1149139404296875,-0.198577880859375
1761478253312803800,1.413803955078125,-0.98248291015625,-0.113677978515625,-0.1913909912109375
1761478253322839800,1.42383984375,-0.99530029296875,-0.1135101318359375,-0.185943603515625
1761478253332876800,1.433876708984375,-1.0028076171875,-0.1172943115234375,-0.189178466796875
1761478253342912800,1.443912841796875,-0.9998321533203125,-0.121063232421875,-0.192840576171875
1761478253352948700,1.45394873046875,-0.991912841796875,-0.12408447265625,-0.1908416748046875
1761478253362984700,1.463984619140625,-0.9835357666015625,-0.1236419677734375,-0.185546875
1761478253373020700,1.474020751953125,-0.982635498046875,-0.1184234619140625,-0.1820220947265625
1761478253383056600,1.484056640625,-0.9873504638671875,-0.1121978759765625,-0.1822662353515625
1761478253393093600,1.49409375,-0.9915313720703125,-0.1141357421875,-0.1861572265625
1761478253403129600,1.504129638671875,-0.996368408203125,-0.1152191162109375,-0.1918182373046875
1761478253413165600,1.51416552734375,-1.0008544921875,-0.1125640869140625,-0.200958251953125
1761478253423201800,1.524201904296875,-1.00054931640625,-0.1144866943359375,-0.205780029296875
1761478253433237800,1.53423779296875,-0.9938507080078125,-0.1181640625,-0.19970703125
1761478253443274800,1.544274658203125,-0.989501953125,-0.1173248291015625,-0.1909027099609375
1761478253453310700,1.554310791015625,-0.9909515380859375,-0.1198577880859375,-0.1822509765625
1761478253463346700,1.5643466796875,-0.991180419921875,-0.12225341796875,-0.1825408935546875
1761478253473382700,1.574382568359375,-0.9930267333984375,-0.1208953857421875,-0.1943359375
1761478253483418600,1.584418701171875,-0.988739013671875,-0.1177825927734375,-0.20123291015625
1761478253493454600,1.59445458984375,-0.9870452880859375,-0.11688232421875,-0.1994476318359375
1761478253503491600,1.60449169921875,-0.98431396484375,-0.1153411865234375,-0.19287109375
1761478253513527600,1.614527587890625,-0.9770660400390625,-0.114288330078125,-0.1851959228515625
1761478253523563500,1.6245634765625,-0.96966552734375,-0.12017822265625,-0.18072509765625
1761478253533599500,1.634599609375,-0.966888427734375,-0.1233673095703125,-0.181732177734375
1761478253543635700,1.6446357421875,-0.970184326171875,-0.121307373046875,-0.1836700439453125
1761478253553672700,1.654672607421875,-0.9826202392578125,-0.121002197265625,-0.185943603515625
1761478253563708700,1.664708740234375,-0.994384765625,-0.1232452392578125,-0.1897430419921875
1761478253573745000,1.674744873046875,-0.996368408203125,-0.1244354248046875,-0.1904144287109375
1761478253583780900,1.68478076171875,-1.0009613037109375,-0.126678466796875,-0.1942596435546875
1761478253593816800,1.69481689453125,-1.0008087158203125,-0.124725341796875,-0.20062255859375
1761478253603852800,1.704852783203125,-1.0032196044921875,-0.1218109130859375,-0.2035369873046875
1761478253613889800,1.714889892578125,-1.0076446533203125,-0.1219329833984375,-0.1976470947265625
1761478253623925800,1.72492578125,-1.011627197265625,-0.12188720703125,-0.1879730224609375
1761478253633961700,1.734961669921875,-1.010101318359375,-0.1198577880859375,-0.18743896484375
1761478253643997700,1.744997802734375,-0.999725341796875,-0.119903564453125,-0.1933746337890625
1761478253654033700,1.75503369140625,-0.97894287109375,-0.12249755859375,-0.19586181640625
1761478253664069600,1.765069580078125,-0.9602203369140625,-0.1246490478515625,-0.192596435546875
1761478253674106600,1.775106689453125,-0.9573822021484375,-0.122772216796875,-0.188995361328125
1761478253684142600,1.785142578125,-0.968475341796875,-0.1185760498046875,-0.1873321533203125
1761478253694178600,1.795178466796875,-0.9823150634765625,-0.116943359375,-0.18817138671875
1761478253704214500,1.805214599609375,-0.992523193359375,-0.11669921875,-0.1974029541015625
1761478253714250800,1.815250732421875,-0.99578857421875,-0.1211090087890625,-0.20562744140625
1761478253724287700,1.825287841796875,-0.99017333984375,-0.1236419677734375,-0.2031402587890625
1761478253734323700,1.83532373046875,-0.98468017578125,-0.124755859375,-0.196746826171875
1761478253744359700,1.845359619140625,-0.986968994140625,-0.12396240234375,-0.1940155029296875
1761478253754395600,1.855395751953125,-0.986785888671875,-0.1245880126953125,-0.19549560546875
1761478253764431600,1.865431640625,-0.982391357421875,-0.12347412109375,-0.1973724365234375
1761478253774467600,1.875467529296875,-0.981353759765625,-0.12347412109375,-0.1946258544921875
1761478253784504600,1.885504638671875,-0.9884033203125,-0.123321533203125,-0.1956329345703125
1761478253794540300,1.895540283203125,-0.993133544921875,-0.12109375,-0.1919403076171875
1761478253804576500,1.905576416015625,-0.9966888427734375,-0.1209716796875,-0.1804962158203125
1761478253814612500,1.915612548828125,-0.99603271484375,-0.118682861328125,-0.1778717041015625
1761478253824648400,1.9256484375,-0.9954986572265625,-0.1229248046875,-0.1793365478515625
1761478253834685400,1.935685546875,-0.9990692138671875,-0.127410888671875,-0.18408203125
1761478253844721400,1.945721435546875,-1.0008544921875,-0.1275634765625,-0.1934356689453125
1761478253854757600,1.955757568359375,-1.0008087158203125,-0.1273956298828125,-0.1932830810546875
1761478253864793600,1.965793701171875,-0.9944915771484375,-0.1259002685546875,-0.1897430419921875
1761478253874829600,1.97582958984375,-0.9886474609375,-0.1222991943359375,-0.1888885498046875
1761478253884865500,1.985865478515625,-0.9827880859375,-0.121917724609375,-0.18927001953125
1761478253894902500,1.995902587890625,-0.98052978515625,-0.12432861328125,-0.18939208984375
1761478253904938500,2.0059384765625,-0.9756011962890625,-0.12237548828125,-0.190704345703125
1761478253914974500,2.015974365234375,-0.9798126220703125,-0.1206512451171875,-0.18560791015625
1761478253925010400,2.026010498046875,-0.984832763671875,-0.12158203125,-0.182861328125
1761478253935046400,2.03604638671875,-0.9853973388671875,-0.1239471435546875,-0.184844970703125
1761478253945083400,2.04608349609375,-0.9854888916015625,-0.125244140625,-0.1861724853515625
1761478253955119400,2.056119384765625,-0.997039794921875,-0.1237335205078125,-0.1893463134765625
1761478253965155300,2.0661552734375,-1.001861572265625,-0.125030517578125,-0.1905364990234375
1761478253975191300,2.07619140625,-0.9989776611328125,-0.1256561279296875,-0.18963623046875
1761478253985227300,2.086227294921875,-0.9951019287109375,-0.1224822998046875,-0.1890716552734375
1761478253995263200,2.09626318359375,-0.994384765625,-0.121734619140625,-0.192779541015625
1761478254005300500,2.106300537109375,-0.989715576171875,-0.1230316162109375,-0.1938018798828125
1761478254015336400,2.11633642578125,-0.985992431640625,-0.1236724853515625,-0.190155029296875
1761478254025372400,2.126372314453125,-0.9834136962890625,-0.1221160888671875,-0.1859893798828125
1761478254035408400,2.136408447265625,-0.9838409423828125,-0.122283935546875,-0.184814453125
1761478254045444600,2.146444580078125,-0.9813232421875,-0.124603271484375,-0.1863555908203125
1761478254055481300,2.1564814453125,-0.982208251953125,-0.124908447265625,-0.18994140625
1761478254065517300,2.166517333984375,-0.9902496337890625,-0.122406005859375,-0.195220947265625
1761478254075553500,2.176553466796875,-1.006591796875,-0.1230010986328125,-0.1981353759765625
1761478254085589500,2.186589599609375,-1.01568603515625,-0.1220703125,-0.2001190185546875
1761478254095625500,2.19662548828125,-1.010894775390625,-0.1207733154296875,-0.20184326171875
1761478254105661400,2.206661376953125,-0.99761962890625,-0.12139892578125,-0.1977081298828125
1761478254115698400,2.216698486328125,-0.9814453125,-0.126434326171875,-0.1894989013671875
1761478254125734400,2.226734375,-0.9627227783203125,-0.1249847412109375,-0.18499755859375
1761478254135770400,2.236770263671875,-0.954864501953125,-0.1247711181640625,-0.1842803955078125
1761478254145806600,2.246806640625,-0.95916748046875,-0.12164306640625,-0.1854248046875
1761478254155842600,2.256842529296875,-0.9727630615234375,-0.1175537109375,-0.188446044921875
1761478254165879600,2.266879638671875,-0.9889984130859375,-0.115234375,-0.192230224609375
1761478254175915500,2.27691552734375,-1.0039825439453125,-0.1181640625,-0.201171875
1761478254185951500,2.286951416015625,-1.015716552734375,-0.1198272705078125,-0.2079010009765625
1761478254195987500,2.296987548828125,-1.012664794921875,-0.12139892578125,-0.204803466796875
1761478254206023400,2.3070234375,-1.0005950927734375,-0.1243896484375,-0.1959686279296875
1761478254216059400,2.317059326171875,-0.9865264892578125,-0.1276702880859375,-0.1880645751953125
1761478254226096400,2.327096435546875,-0.9788970947265625,-0.1276092529296875,-0.182708740234375
1761478254236132400,2.33713232421875,-0.9781036376953125,-0.1265869140625,-0.1805267333984375
1761478254246168300,2.347168212890625,-0.984405517578125,-0.1246185302734375,-0.1824951171875
1761478254256204300,2.357204345703125,-0.9899139404296875,-0.120574951171875,-0.187652587890625
1761478254266240300,2.367240234375,-0.9921112060546875,-0.1173248291015625,-0.193145751953125
1761478254276276200,2.377276123046875,-0.993011474609375,-0.119903564453125,-0.192596435546875
1761478254286313500,2.3873134765625,-0.9960479736328125,-0.12347412109375,-0.19268798828125
1761478254296349400,2.397349365234375,-0.9948883056640625,-0.12994384765625,-0.1947174072265625
1761478254306385400,2.407385498046875,-0.9938507080078125,-0.1335296630859375,-0.1925201416015625
1761478254316421600,2.417421630859375,-0.991729736328125,-0.1307525634765625,-0.18902587890625
1761478254326457600,2.42745751953125,-0.985260009765625,-0.1240081787109375,-0.1847991943359375
1761478254336494300,2.437494384765625,-0.979339599609375,-0.1234283447265625,-0.1817474365234375
1761478254346530600,2.447530517578125,-0.9715728759765625,-0.1226806640625,-0.18072509765625
1761478254356566500,2.45756640625,-0.9767608642578125,-0.1200103759765625,-0.1829071044921875
1761478254366602500,2.4676025390625,-0.9880218505859375,-0.1207427978515625,-0.1841888427734375
1761478254376638500,2.477638427734375,-1.0022735595703125,-0.1206207275390625,-0.1910400390625
1761478254386674400,2.48767431640625,-1.012969970703125,-0.121551513671875,-0.2019195556640625
1761478254396711400,2.49771142578125,-1.008758544921875,-0.1265869140625,-0.2071075439453125
1761478254406747400,2.507747314453125,-0.9988250732421875,-0.127288818359375,-0.208831787109375
1761478254416783400,2.517783447265625,-0.989837646484375,-0.1269073486328125,-0.2005767822265625
1761478254426819300,2.5278193359375,-0.980072021484375,-0.1254730224609375,-0.18817138671875
1761478254436855600,2.53785546875,-0.9765625,-0.1243743896484375,-0.179779052734375
1761478254446892500,2.547892578125,-0.9829559326171875,-0.12371826171875,-0.1850128173828125
1761478254456928500,2.557928466796875,-0.987579345703125,-0.1220855712890625,-0.1972198486328125
1761478254466964500,2.567964599609375,-0.988037109375,-0.1213531494140625,-0.2040557861328125
1761478254477000400,2.57800048828125,-0.98895263671875,-0.1220855712890625,-0.2012481689453125
1761478254487036400,2.588036376953125,-0.9900360107421875,-0.1229705810546875,-0.193572998046875
1761478254497072400,2.598072265625,-0.9874267578125,-0.126251220703125,-0.18487548828125
1761478254507109400,2.608109375,-0.9901123046875,-0.1278839111328125,-0.185333251953125
1761478254517145300,2.618145263671875,-0.99163818359375,-0.1273040771484375,-0.1919097900390625
1761478254527181300,2.628181396484375,-0.9895782470703125,-0.128143310546875,-0.1956024169921875
1761478254537217300,2.63821728515625,-0.9785919189453125,-0.1313934326171875,-0.19366455078125
1761478254547253200,2.648253173828125,-0.967559814453125,-0.1305084228515625,-0.192352294921875
1761478254557289500,2.65828955078125,-0.961395263671875,-0.1279144287109375,-0.1865997314453125
1761478254567326500,2.668326416015625,-0.96124267578125,-0.1259765625,-0.1772308349609375
1761478254577362400,2.678362548828125,-0.9667816162109375,-0.1246185302734375,-0.17193603515625
1761478254587398700,2.688398681640625,-0.984588623046875,-0.122100830078125,-0.1738739013671875
1761478254597434600,2.6984345703125,-1.0058746337890625,-0.1197357177734375,-0.186431884765625
1761478254607470600,2.708470703125,-1.023162841796875,-0.121307373046875,-0.2015838623046875
1761478254617507600,2.718507568359375,-1.026580810546875,-0.123748779296875,-0.209014892578125
1761478254627543600,2.72854345703125,-1.0222625732421875,-0.1240692138671875,-0.209808349609375
1761478254637579500,2.73857958984375,-1.01666259765625,-0.1276397705078125,-0.198394775390625
1761478254647615500,2.748615478515625,-1.015960693359375,-0.12713623046875,-0.1875152587890625
1761478254657651500,2.7586513671875,-1.007232666015625,-0.1240692138671875,-0.1825103759765625
1761478254667687400,2.7686875,-0.9964752197265625,-0.1244659423828125,-0.17877197265625
1761478254677724400,2.778724365234375,-0.98736572265625,-0.1263885498046875,-0.1805572509765625
1761478254687760400,2.788760498046875,-0.9817657470703125,-0.125396728515625,-0.186492919921875
1761478254697796400,2.79879638671875,-0.975616455078125,-0.1281280517578125,-0.187652587890625
1761478254707832300,2.808832275390625,-0.969390869140625,-0.1281890869140625,-0.1865234375
1761478254717868300,2.818868408203125,-0.9664764404296875,-0.125152587890625,-0.18682861328125
1761478254727904300,2.828904296875,-0.966033935546875,-0.1259002685546875,-0.1850433349609375
1761478254737941500,2.83894140625,-0.9698028564453125,-0.12615966796875,-0.1868133544921875
1761478254747977500,2.8489775390625,-0.9763946533203125,-0.126983642578125,-0.195831298828125
1761478254758013400,2.859013427734375,-0.97784423828125,-0.128509521484375,-0.19927978515625
1761478254768049400,2.86904931640625,-0.97918701171875,-0.1250457763671875,-0.197662353515625
1761478254778085400,2.87908544921875,-0.9891815185546875,-0.123260498046875,-0.1927490234375
1761478254788122400,2.889122314453125,-1.0016632080078125,-0.1216278076171875,-0.1944732666015625
1761478254798158800,2.899158935546875,-1.00823974609375,-0.1222686767578125,-0.1990966796875
1761478254808194800,2.90919482421875,-1.007781982421875,-0.1262054443359375,-0.201995849609375
1761478254818230800,2.919230712890625,-1.0006866455078125,-0.126678466796875,-0.20074462890625
1761478254828266800,2.929266845703125,-0.991119384765625,-0.130035400390625,-0.192596435546875
1761478254838303000,2.939302978515625,-0.9821014404296875,-0.1310882568359375,-0.185302734375
1761478254848339700,2.949339599609375,-0.9821929931640625,-0.1292724609375,-0.1860504150390625
1761478254858375700,2.959375732421875,-0.9841461181640625,-0.1293182373046875,-0.192535400390625
1761478254868412000,2.969411865234375,-0.99005126953125,-0.1282958984375,-0.19708251953125
1761478254878448000,2.9794482421875,-0.9965057373046875,-0.1230621337890625,-0.19732666015625
1761478254888484000,2.989484130859375,-1.0006866455078125,-0.1208343505859375,-0.1909332275390625
1761478254898520000,2.99952001953125,-0.9962158203125,-0.121734619140625,-0.186920166015625
1761478254908557000,3.00955712890625,-0.990570068359375,-0.12445068359375,-0.186004638671875
1761478254918593000,3.019593017578125,-0.9867401123046875,-0.1271209716796875,-0.1842193603515625
1761478254928629000,3.02962890625,-0.98577880859375,-0.1285247802734375,-0.1824493408203125
1761478254938665000,3.0396650390625,-0.9830322265625,-0.1302947998046875,-0.18408203125
1761478254948701000,3.049700927734375,-0.9779052734375,-0.1286773681640625,-0.1946563720703125
1761478254958738000,3.059738037109375,-0.97100830078125,-0.1285400390625,-0.201812744140625
1761478254968774000,3.06977392578125,-0.9663848876953125,-0.1298370361328125,-0.1945037841796875
1761478254978809900,3.079809814453125,-0.970733642578125,-0.127227783203125,-0.1817626953125
1761478254988845800,3.089845703125,-0.9861602783203125,-0.1243896484375,-0.178131103515625
1761478254998881800,3.0998818359375,-1.00360107421875,-0.1198883056640625,-0.1884918212890625
1761478255008917800,3.109917724609375,-1.012237548828125,-0.11907958984375,-0.2013397216796875
1761478255018955000,3.119955078125,-1.01263427734375,-0.123016357421875,-0.210662841796875
1761478255028991000,3.129990966796875,-1.006561279296875,-0.1255950927734375,-0.2154388427734375
1761478255039027000,3.14002685546875,-0.9965972900390625,-0.1306304931640625,-0.2077789306640625
1761478255049063000,3.15006298828125,-0.9820709228515625,-0.1334075927734375,-0.19415283203125
1761478255059099000,3.160098876953125,-0.9702606201171875,-0.131988525390625,-0.181243896484375
1761478255069134800,3.170134765625,-0.9716033935546875,-0.128753662109375,-0.1718902587890625
1761478255079171800,3.180171875,-0.9794769287109375,-0.129425048828125,-0.1722869873046875
1761478255089207800,3.190207763671875,-0.9838409423828125,-0.127960205078125,-0.17547607421875
1761478255099243800,3.200243896484375,-0.98907470703125,-0.130462646484375,-0.17999267578125
1761478255109279700,3.21027978515625,-0.9952392578125,-0.13128662109375,-0.1873779296875
1761478255119316000,3.22031591796875,-0.9989013671875,-0.1312103271484375,-0.190887451171875
1761478255129352000,3.23035205078125,-1.00335693359375,-0.13262939453125,-0.187164306640625
1761478255139388700,3.240388671875,-1.005462646484375,-0.1321258544921875,-0.1895904541015625
1761478255149425000,3.2504248046875,-1.001556396484375,-0.1314697265625,-0.19281005859375
1761478255159460900,3.2604609375,-0.9941864013671875,-0.1290740966796875,-0.19390869140625
1761478255169497000,3.2704970703125,-0.9876556396484375,-0.1295623779296875,-0.1894378662109375
1761478255179533000,3.280532958984375,-0.9762115478515625,-0.127655029296875,-0.1834869384765625
1761478255189569000,3.290569091796875,-0.97332763671875,-0.1256561279296875,-0.184539794921875
1761478255199606000,3.30060595703125,-0.97900390625,-0.1249237060546875,-0.188201904296875
1761478255209642000,3.31064208984375,-0.984954833984375,-0.1259307861328125,-0.191131591796875
1761478255219678000,3.320677978515625,-0.984893798828125,-0.1239166259765625,-0.1945953369140625
1761478255229714000,3.3307138671875,-0.982269287109375,-0.1259613037109375,-0.197509765625
1761478255239750000,3.34075,-0.9770050048828125,-0.12518310546875,-0.202392578125
1761478255249785900,3.350785888671875,-0.97479248046875,-0.1263275146484375,-0.2080078125
1761478255259822800,3.36082275390625,-0.98358154296875,-0.1270599365234375,-0.208587646484375
1761478255269858800,3.37085888671875,-0.9936981201171875,-0.1235504150390625,-0.2011871337890625
1761478255279894800,3.380894775390625,-0.9993438720703125,-0.1237945556640625,-0.188812255859375
1761478255289930800,3.3909306640625,-1.001434326171875,-0.124847412109375,-0.1808319091796875
1761478255299966700,3.400966796875,-0.9989776611328125,-0.12518310546875,-0.1814727783203125
1761478255310002700,3.411002685546875,-0.9953155517578125,-0.1270599365234375,-0.188201904296875
1761478255320040000,3.4210400390625,-0.9929656982421875,-0.1294708251953125,-0.1955108642578125
1761478255330076000,3.431075927734375,-0.9976806640625,-0.1323089599609375,-0.1964569091796875
1761478255340112000,3.44111181640625,-0.999481201171875,-0.13079833984375,-0.194488525390625
1761478255350147800,3.45114794921875,-0.99346923828125,-0.13006591796875,-0.191070556640625
1761478255360184000,3.46118408203125,-0.98388671875,-0.1315460205078125,-0.1858673095703125
1761478255370220000,3.471219970703125,-0.9703826904296875,-0.130645751953125,-0.1865997314453125
1761478255380256800,3.4812568359375,-0.9590911865234375,-0.1291961669921875,-0.184234619140625
1761478255390293000,3.49129296875,-0.966583251953125,-0.1277618408203125,-0.1847686767578125
1761478255400329000,3.501328857421875,-0.9837646484375,-0.1243133544921875,-0.1897430419921875
1761478255410365000,3.511364990234375,-1.002227783203125,-0.1231536865234375,-0.19482421875
1761478255420401000,3.52140087890625,-1.0088043212890625,-0.1258544921875,-0.198822021484375
1761478255430438000,3.53143798828125,-1.00445556640625,-0.12896728515625,-0.20111083984375
1761478255440473900,3.541473876953125,-0.9970703125,-0.1309051513671875,-0.1981964111328125
1761478255450509800,3.551509765625,-0.9884033203125,-0.13116455078125,-0.1903228759765625
1761478255460545800,3.5615458984375,-0.9809417724609375,-0.1299285888671875,-0.1864776611328125
1761478255470582000,3.57158203125,-0.98358154296875,-0.1274566650390625,-0.186798095703125
1761478255480618000,3.581617919921875,-0.9891204833984375,-0.1270294189453125,-0.18768310546875
1761478255490655000,3.591655029296875,-0.991973876953125,-0.1241455078125,-0.1887359619140625
1761478255500691000,3.60169091796875,-0.989044189453125,-0.12579345703125,-0.18414306640625
1761478255510727000,3.611726806640625,-0.9876556396484375,-0.1275787353515625,-0.181732177734375
1761478255520763000,3.621762939453125,-0.9868927001953125,-0.1259613037109375,-0.1840972900390625
1761478255530798800,3.631798828125,-0.9949951171875,-0.1263427734375,-0.1891632080078125
1761478255540834800,3.641834716796875,-0.996307373046875,-0.1255645751953125,-0.19769287109375
1761478255550870800,3.651870849609375,-0.996917724609375,-0.1256561279296875,-0.19989013671875
1761478255560907800,3.66190771484375,-0.9948883056640625,-0.128631591796875,-0.197998046875
1761478255570943700,3.67194384765625,-0.98956298828125,-0.1301422119140625,-0.1937408447265625
1761478255580979700,3.681979736328125,-0.9818267822265625,-0.1278533935546875,-0.1863250732421875
1761478255591016000,3.692015869140625,-0.9774627685546875,-0.12603759765625,-0.1819000244140625
1761478255601052000,3.702052001953125,-0.979736328125,-0.1236114501953125,-0.1872406005859375
1761478255611089000,3.7120888671875,-0.988250732421875,-0.1209869384765625,-0.194915771484375
1761478255621124900,3.722124755859375,-0.997589111328125,-0.1218414306640625,-0.199554443359375
1761478255631161000,3.7321611328125,-0.999725341796875,-0.120880126953125,-0.2033843994140625
1761478255641197000,3.742197021484375,-0.995452880859375,-0.12322998046875,-0.2034912109375
1761478255651233000,3.75223291015625,-0.986785888671875,-0.124542236328125,-0.2001495361328125
1761478255661269000,3.76226904296875,-0.977386474609375,-0.1239471435546875,-0.1900787353515625
1761478255671305000,3.772304931640625,-0.9753875732421875,-0.12457275390625,-0.1779022216796875
1761478255681342000,3.782342041015625,-0.9847564697265625,-0.125244140625,-0.1788787841796875
1761478255691378000,3.7923779296875,-0.996185302734375,-0.1240234375,-0.188629150390625
1761478255701414000,3.802413818359375,-1.0039215087890625,-0.12237548828125,-0.2014312744140625
1761478255711449900,3.812449951171875,-1.0040130615234375,-0.126495361328125,-0.2136383056640625
1761478255721485800,3.82248583984375,-0.996734619140625,-0.1290130615234375,-0.213470458984375
1761478255731521800,3.832521728515625,-0.9867706298828125,-0.1313323974609375,-0.1999969482421875
1761478255741558800,3.842558837890625,-0.977264404296875,-0.1323089599609375,-0.1838226318359375
1761478255751594800,3.8525947265625,-0.97454833984375,-0.1290130615234375,-0.175048828125
1761478255761631000,3.862630859375,-0.9814910888671875,-0.1273651123046875,-0.173583984375
1761478255771667000,3.8726669921875,-0.989959716796875,-0.124267578125,-0.1743011474609375
1761478255781703000,3.882702880859375,-0.9960479736328125,-0.12213134765625,-0.1795654296875
1761478255791739000,3.89273876953125,-1.001556396484375,-0.123870849609375,-0.19085693359375
1761478255801774800,3.90277490234375,-0.9975738525390625,-0.125885009765625,-0.1984710693359375
1761478255811810800,3.912810791015625,-0.9908447265625,-0.125579833984375,-0.201171875
1761478255821846800,3.9228466796875,-0.9835205078125,-0.1256103515625,-0.2008819580078125
1761478255831882800,3.9328828125,-0.9830780029296875,-0.126861572265625,-0.19720458984375
1761478255841918700,3.942918701171875,-0.98406982421875,-0.12554931640625,-0.1980133056640625
1761478255851954700,3.95295458984375,-0.98291015625,-0.120758056640625,-0.20233154296875
1761478255861992000,3.962991943359375,-0.98126220703125,-0.1197357177734375,-0.202789306640625
1761478255872028000,3.97302783203125,-0.98516845703125,-0.118743896484375,-0.2020111083984375
1761478255882064000,3.98306396484375,-0.99017333984375,-0.1179962158203125,-0.20062255859375
1761478255892099800,3.993099853515625,-0.993408203125,-0.1206207275390625,-0.198699951171875
1761478255902135800,4.0031357421875,-0.99627685546875,-0.12103271484375,-0.1999664306640625
1761478255912171000,4.0131708984375,-0.9953765869140625,-0.121551513671875,-0.1984100341796875
1761478255922207000,4.02320703125,-0.986846923828125,-0.1283111572265625,-0.194366455078125
1761478255932243000,4.033242919921875,-0.9758758544921875,-0.1303863525390625,-0.190093994140625
1761478255942279000,4.04327880859375,-0.9669036865234375,-0.1297454833984375,-0.185272216796875
1761478255952315000,4.05331494140625,-0.9687652587890625,-0.1297607421875,-0.1820526123046875
1761478255962351900,4.063351806640625,-0.9847564697265625,-0.124908447265625,-0.18609619140625
1761478255972387800,4.073387939453125,-0.99920654296875,-0.1212005615234375,-0.191925048828125
1761478255982423800,4.083423828125,-1.01123046875,-0.120635986328125,-0.1914825439453125
1761478255992459800,4.093459716796875,-1.0123291015625,-0.123443603515625,-0.184967041015625
1761478256002495700,4.103495849609375,-1.0099334716796875,-0.127044677734375,-0.1825408935546875
1761478256012531700,4.11353173828125,-1.0059356689453125,-0.1282196044921875,-0.1901702880859375
1761478256022568700,4.123568603515625,-1.0012359619140625,-0.13018798828125,-0.19384765625
1761478256032604700,4.133604736328125,-0.9926910400390625,-0.1284942626953125,-0.19354248046875
1761478256042640600,4.143640625,-0.9809112548828125,-0.1270751953125,-0.19073486328125
1761478256052676600,4.153676513671875,-0.9749755859375,-0.126617431640625,-0.1881103515625
1761478256062712600,4.163712646484375,-0.9748382568359375,-0.122802734375,-0.186981201171875
1761478256072748500,4.17374853515625,-0.976593017578125,-0.1202239990234375,-0.191864013671875
1761478256082785800,4.183785888671875,-0.9848785400390625,-0.118377685546875,-0.199981689453125
1761478256092821800,4.19382177734375,-0.9926300048828125,-0.1230926513671875,-0.2075958251953125
1761478256102857700,4.203857666015625,-0.9933624267578125,-0.1232147216796875,-0.2126617431640625
1761478256112893700,4.213893798828125,-0.985870361328125,-0.1250457763671875,-0.205108642578125
1761478256122930000,4.223929931640625,-0.9761199951171875,-0.12530517578125,-0.1929931640625
1761478256132966000,4.2339658203125,-0.9710845947265625,-0.120697021484375,-0.1904449462890625
1761478256143001900,4.244001953125,-0.97613525390625,-0.1195526123046875,-0.1865081787109375
1761478256153038800,4.254038818359375,-0.981048583984375,-0.1205902099609375,-0.1896514892578125
1761478256163074800,4.26407470703125,-0.984954833984375,-0.123779296875,-0.1946868896484375
1761478256173110800,4.27411083984375,-0.9910736083984375,-0.12615966796875,-0.1947784423828125
1761478256183146800,4.284146728515625,-0.999053955078125,-0.126373291015625,-0.1922760009765625
1761478256193182700,4.2941826171875,-1.0083770751953125,-0.12432861328125,-0.1865386962890625
1761478256203218700,4.30421875,-1.0144195556640625,-0.12451171875,-0.1858062744140625
1761478256213256000,4.314255859375,-1.015625,-0.122528076171875,-0.1926116943359375
1761478256223292000,4.3242919921875,-1.00872802734375,-0.12347412109375,-0.199798583984375
1761478256233327900,4.334327880859375,-0.9965667724609375,-0.1279754638671875,-0.194793701171875
1761478256243363800,4.34436376953125,-0.981475830078125,-0.1295318603515625,-0.185455322265625
1761478256253399800,4.35439990234375,-0.9765625,-0.12579345703125,-0.181304931640625
1761478256263435800,4.364435791015625,-0.978851318359375,-0.12384033203125,-0.1775970458984375
1761478256273472800,4.37447265625,-0.9814300537109375,-0.124481201171875,-0.1825408935546875
1761478256283508700,4.3845087890625,-0.9839630126953125,-0.1251678466796875,-0.1978607177734375
1761478256293544700,4.394544677734375,-0.986663818359375,-0.1260223388671875,-0.2108306884765625
1761478256303580700,4.40458056640625,-0.9866943359375,-0.1274871826171875,-0.210968017578125
1761478256313616600,4.41461669921875,-0.98333740234375,-0.1259307861328125,-0.208251953125
1761478256323652900,4.42465283203125,-0.982757568359375,-0.126373291015625,-0.197509765625
1761478256333688800,4.434688720703125,-0.9903717041015625,-0.12451171875,-0.1880645751953125
1761478256343725600,4.4447255859375,-0.9966583251953125,-0.122406005859375,-0.1831817626953125
1761478256353761800,4.45476171875,-0.99908447265625,-0.1220703125,-0.18402099609375
1761478256363797800,4.4647978515625,-0.992340087890625,-0.1218109130859375,-0.193145751953125
1761478256373833700,4.474833740234375,-0.9804534912109375,-0.1262054443359375,-0.1948089599609375
1761478256383870000,4.484869873046875,-0.97381591796875,-0.1282806396484375,-0.191558837890625
1761478256393906000,4.494906005859375,-0.97332763671875,-0.128936767578125,-0.1928253173828125
1761478256403943000,4.50494287109375,-0.9744110107421875,-0.12835693359375,-0.197967529296875
1761478256413979000,4.514978759765625,-0.9817047119140625,-0.1271820068359375,-0.2035064697265625
1761478256424014800,4.525014892578125,-0.9933013916015625,-0.1239776611328125,-0.2009124755859375
1761478256434050800,4.53505078125,-0.9993896484375,-0.1233062744140625,-0.1923828125
1761478256444086800,4.545086669921875,-1.000579833984375,-0.1234893798828125,-0.1866607666015625
1761478256454122800,4.555122802734375,-0.99639892578125,-0.1226043701171875,-0.1893157958984375
1761478256464158700,4.56515869140625,-0.9933624267578125,-0.1250457763671875,-0.194854736328125
1761478256474195700,4.57519580078125,-0.9920501708984375,-0.1255950927734375,-0.1943359375
1761478256484232700,4.585232666015625,-0.99383544921875,-0.121185302734375,-0.1923370361328125
1761478256494270000,4.59527001953125,-0.997100830078125,-0.1214141845703125,-0.1919403076171875
1761478256504306000,4.605305908203125,-0.9952850341796875,-0.1220550537109375,-0.1957855224609375
1761478256514342000,4.615341796875,-0.9929962158203125,-0.1243896484375,-0.1961517333984375
1761478256524377900,4.6253779296875,-0.9906768798828125,-0.12548828125,-0.1895599365234375
1761478256534413800,4.635413818359375,-0.9850311279296875,-0.125518798828125,-0.1849212646484375
1761478256544449800,4.64544970703125,-0.9832000732421875,-0.1270294189453125,-0.18634033203125
1761478256554485800,4.65548583984375,-0.985198974609375,-0.1263580322265625,-0.1919708251953125
1761478256564522800,4.665522705078125,-0.9840850830078125,-0.12603759765625,-0.19512939453125
1761478256574558700,4.675558837890625,-0.9817047119140625,-0.1284332275390625,-0.19439697265625
1761478256584594700,4.6855947265625,-0.9822235107421875,-0.129608154296875,-0.1928558349609375
1761478256594630700,4.695630615234375,-0.986053466796875,-0.1278533935546875,-0.1948089599609375
1761478256604666600,4.70566650390625,-0.9928131103515625,-0.1236724853515625,-0.1972503662109375
1761478256614702600,4.71570263671875,-0.9923858642578125,-0.12493896484375,-0.19268798828125
1761478256624739800,4.72573974609375,-0.9903564453125,-0.1248931884765625,-0.185638427734375
1761478256634775800,4.73577587890625,-0.9905853271484375,-0.124267578125,-0.18182373046875
1761478256644811800,4.745811767578125,-0.9950408935546875,-0.1262054443359375,-0.184051513671875
1761478256654847700,4.75584765625,-0.9952850341796875,-0.1240081787109375,-0.192962646484375
1761478256664884000,4.765884033203125,-0.9934844970703125,-0.12103271484375,-0.1981964111328125
1761478256674920000,4.775919921875,-0.99005126953125,-0.12274169921875,-0.2000732421875
1761478256684956700,4.785956787109375,-0.985870361328125,-0.122711181640625,-0.2041778564453125
1761478256694993000,4.795992919921875,-0.9839324951171875,-0.1233673095703125,-0.2045440673828125
1761478256705028900,4.80602880859375,-0.9851226806640625,-0.1216888427734375,-0.1993865966796875
1761478256715064800,4.81606494140625,-0.9837493896484375,-0.120819091796875,-0.1946258544921875
1761478256725100800,4.826100830078125,-0.981475830078125,-0.1220703125,-0.1931304931640625
1761478256735136800,4.83613671875,-0.9798736572265625,-0.1246490478515625,-0.1908416748046875
1761478256745172700,4.8461728515625,-0.975311279296875,-0.123809814453125,-0.1940460205078125
1761478256755209700,4.856209716796875,-0.9761810302734375,-0.12628173828125,-0.1977691650390625
1761478256765245700,4.86624560546875,-0.9837799072265625,-0.1262969970703125,-0.2019195556640625
1761478256775281700,4.87628173828125,-0.9886627197265625,-0.127532958984375,-0.203033447265625
1761478256785317600,4.886317626953125,-0.9909210205078125,-0.1308746337890625,-0.1949615478515625
1761478256795354600,4.896354736328125,-0.9966583251953125,-0.1293487548828125,-0.18511962890625
1761478256805390600,4.906390625,-1.0069732666015625,-0.12384033203125,-0.17852783203125
1761478256815427800,4.916427734375,-1.0089111328125,-0.123992919921875,-0.170074462890625
1761478256825463800,4.9264638671875,-1.0014190673828125,-0.12725830078125,-0.1660919189453125
1761478256835499800,4.936499755859375,-0.9891357421875,-0.1307220458984375,-0.169708251953125
1761478256845535700,4.94653564453125,-0.9844512939453125,-0.13397216796875,-0.1767425537109375
1761478256855571700,4.95657177734375,-0.98736572265625,-0.129486083984375,-0.18707275390625
1761478256865607700,4.966607666015625,-0.9940032958984375,-0.1278076171875,-0.19427490234375
1761478256875644700,4.976644775390625,-1.0032958984375,-0.125030517578125,-0.199371337890625
1761478256885680600,4.9866806640625,-1.0052947998046875,-0.1192474365234375,-0.2082672119140625
1761478256895716600,4.996716552734375,-1.0038604736328125,-0.11712646484375,-0.2118072509765625
1761478256905752600,5.006752685546875,-0.9990997314453125,-0.119110107421875,-0.2103729248046875
1761478256915788500,5.01678857421875,-0.98431396484375,-0.122650146484375,-0.2047271728515625
1761478256925824800,5.02682470703125,-0.97406005859375,-0.12652587890625,-0.1981048583984375
1761478256935861500,5.036861572265625,-0.9640960693359375,-0.126312255859375,-0.1972808837890625
1761478256945897500,5.0468974609375,-0.9601287841796875,-0.12518310546875,-0.19964599609375
1761478256955933700,5.05693359375,-0.9669952392578125,-0.1241455078125,-0.200653076171875
1761478256965970000,5.066969970703125,-0.9790191650390625,-0.1222991943359375,-0.1986083984375
1761478256976006000,5.077005859375,-0.9840087890625,-0.1260986328125,-0.20159912109375
1761478256986041900,5.087041748046875,-0.982513427734375,-0.12945556640625,-0.2025299072265625
1761478256996078800,5.097078857421875,-0.9818572998046875,-0.130889892578125,-0.2009429931640625
1761478257006114800,5.10711474609375,-0.9830474853515625,-0.1317901611328125,-0.195892333984375
1761478257016150800,5.11715087890625,-0.982574462890625,-0.1291961669921875,-0.1812591552734375
1761478257026186800,5.127186767578125,-0.9854736328125,-0.1250762939453125,-0.170562744140625
1761478257036222700,5.13722265625,-0.9908905029296875,-0.1234893798828125,-0.171478271484375
1761478257046258700,5.1472587890625,-0.996337890625,-0.125335693359375,-0.1812286376953125
1761478257056294700,5.157294677734375,-1.0023040771484375,-0.1305084228515625,-0.1934661865234375
1761478257066331600,5.16733154296875,-1.004547119140625,-0.1340789794921875,-0.1995391845703125
1761478257076367600,5.17736767578125,-1.005950927734375,-0.1345672607421875,-0.1930694580078125
1761478257086403600,5.187403564453125,-1.0024566650390625,-0.132049560546875,-0.1872100830078125
1761478257096439600,5.197439453125,-0.9951019287109375,-0.1267852783203125,-0.184906005859375
1761478257106475500,5.2074755859375,-0.987274169921875,-0.1235504150390625,-0.1826629638671875
1761478257116511500,5.217511474609375,-0.9857635498046875,-0.1208648681640625,-0.18072509765625
1761478257126548700,5.227548828125,-0.988677978515625,-0.1179351806640625,-0.1815948486328125
1761478257136584700,5.237584716796875,-0.9961395263671875,-0.119354248046875,-0.1866607666015625
1761478257146620700,5.24762060546875,-1.0021209716796875,-0.1228790283203125,-0.197723388671875
1761478257156656600,5.25765673828125,-0.9949798583984375,-0.12762451171875,-0.2118682861328125
1761478257166692600,5.267692626953125,-0.982452392578125,-0.1297607421875,-0.2129058837890625
1761478257176728800,5.277728759765625,-0.9713592529296875,-0.1298065185546875,-0.204254150390625
1761478257186765600,5.287765625,-0.9653472900390625,-0.1279144287109375,-0.1921234130859375
1761478257196801500,5.297801513671875,-0.9622039794921875,-0.11798095703125,-0.1844329833984375
1761478257206837800,5.307837646484375,-0.9688873291015625,-0.124267578125,-0.183837890625
1761478257216873700,5.317873779296875,-0.9783935546875,-0.1174163818359375,-0.1899261474609375
1761478257226909700,5.32790966796875,-0.9891204833984375,-0.1160736083984375,-0.206085205078125
1761478257236945700,5.337945556640625,-0.99945068359375,-0.1209259033203125,-0.2151641845703125
1761478257246982700,5.347982666015625,-1.008575439453125,-0.1221771240234375,-0.21917724609375
1761478257257019000,5.358018798828125,-1.0099945068359375,-0.1242218017578125,-0.21441650390625
1761478257267054800,5.368054931640625,-1.011383056640625,-0.1302490234375,-0.2018585205078125
1761478257277090800,5.3780908203125,-1.00482177734375,-0.132659912109375,-0.193023681640625
1761478257287126800,5.388126708984375,-0.9885406494140625,-0.134307861328125,-0.18701171875
1761478257297162800,5.398162841796875,-0.97320556640625,-0.133880615234375,-0.1817626953125
1761478257307198700,5.40819873046875,-0.9640350341796875,-0.1314697265625,-0.1790771484375
1761478257317235700,5.418235595703125,-0.9649200439453125,-0.12530517578125,-0.1803131103515625
1761478257327271700,5.428271728515625,-0.97509765625,-0.1237335205078125,-0.183441162109375
1761478257337307600,5.4383076171875,-0.988250732421875,-0.1236572265625,-0.188568115234375
1761478257347343600,5.448343505859375,-1.0009918212890625,-0.1233062744140625,-0.1949005126953125
1761478257357379600,5.458379638671875,-1.005828857421875,-0.1255340576171875,-0.1963348388671875
1761478257367415600,5.46841552734375,-1.0050506591796875,-0.1283416748046875,-0.1982269287109375
1761478257377452500,5.47845263671875,-1.0015869140625,-0.1331634521484375,-0.1960906982421875
1761478257387488500,5.488488525390625,-0.9939727783203125,-0.1321258544921875,-0.1931304931640625
1761478257397524500,5.4985244140625,-0.9866790771484375,-0.1324005126953125,-0.1905975341796875
1761478257407560700,5.508560791015625,-0.9802093505859375,-0.127227783203125,-0.1903533935546875
1761478257417596700,5.5185966796875,-0.9796600341796875,-0.12164306640625,-0.1933746337890625
1761478257427632600,5.528632568359375,-0.9785003662109375,-0.11920166015625,-0.19305419921875
1761478257437669600,5.538669677734375,-0.9853515625,-0.120147705078125,-0.1892547607421875
1761478257447705900,5.548705810546875,-0.995330810546875,-0.12109375,-0.190582275390625
1761478257457741800,5.558741943359375,-0.99835205078125,-0.1235504150390625,-0.2010650634765625
1761478257467777800,5.56877783203125,-0.996368408203125,-0.1265869140625,-0.2099151611328125
1761478257477813800,5.578813720703125,-0.986053466796875,-0.130340576171875,-0.21063232421875
1761478257487849700,5.588849609375,-0.974212646484375,-0.1313018798828125,-0.1986541748046875
1761478257497885700,5.5988857421875,-0.967498779296875,-0.128692626953125,-0.18499755859375
1761478257507922700,5.608922607421875,-0.9736785888671875,-0.1234588623046875,-0.18060302734375
1761478257517958700,5.618958740234375,-0.9864349365234375,-0.1169891357421875,-0.185791015625
1761478257527994600,5.62899462890625,-0.994598388671875,-0.11590576171875,-0.1977996826171875
1761478257538030600,5.639030517578125,-0.9999237060546875,-0.1222686767578125,-0.205718994140625
1761478257548066600,5.649066650390625,-1.002044677734375,-0.1278839111328125,-0.2076568603515625
1761478257558102500,5.6591025390625,-1.0027923583984375,-0.1328887939453125,-0.1996307373046875
1761478257568139800,5.669139892578125,-0.9940643310546875,-0.1365509033203125,-0.187225341796875
1761478257578175700,5.67917578125,-0.9811859130859375,-0.1346588134765625,-0.1784515380859375
1761478257588211700,5.689211669921875,-0.9760589599609375,-0.1308441162109375,-0.1746826171875
1761478257598247700,5.69924755859375,-0.97540283203125,-0.125762939453125,-0.1747589111328125
1761478257608283600,5.70928369140625,-0.9819488525390625,-0.12152099609375,-0.17779541015625
1761478257618320000,5.71931982421875,-0.99078369140625,-0.1216888427734375,-0.1826934814453125
1761478257628355800,5.72935595703125,-0.997528076171875,-0.122344970703125,-0.185791015625
1761478257638392600,5.739392578125,-0.9994964599609375,-0.12506103515625,-0.1902923583984375
1761478257648428800,5.7494287109375,-0.999542236328125,-0.1287689208984375,-0.20025634765625
1761478257658464800,5.75946484375,-0.9994659423828125,-0.1306610107421875,-0.2076263427734375
1761478257668500700,5.769500732421875,-1.0027008056640625,-0.128204345703125,-0.200958251953125
1761478257678536700,5.77953662109375,-1.0045166015625,-0.124359130859375,-0.184600830078125
1761478257688572700,5.78957275390625,-1.002166748046875,-0.121917724609375,-0.1812286376953125
1761478257698609700,5.799609619140625,-0.9943084716796875,-0.119659423828125,-0.1935577392578125
1761478257708645600,5.809645751953125,-0.9895477294921875,-0.123046875,-0.202789306640625
1761478257718681600,5.819681640625,-0.985443115234375,-0.1218719482421875,-0.2014923095703125
1761478257728717800,5.8297177734375,-0.9810028076171875,-0.1218414306640625,-0.1932220458984375
1761478257738753800,5.83975390625,-0.9754180908203125,-0.1226959228515625,-0.187286376953125
1761478257748789800,5.849789794921875,-0.97332763671875,-0.124725341796875,-0.1878662109375
1761478257758825700,5.85982568359375,-0.9736480712890625,-0.124847412109375,-0.193389892578125
1761478257768862700,5.86986279296875,-0.980133056640625,-0.124786376953125,-0.1988525390625
1761478257778898700,5.879898681640625,-0.983612060546875,-0.125396728515625,-0.198822021484375
1761478257788934700,5.8899345703125,-0.98583984375,-0.1243743896484375,-0.1985931396484375
1761478257798969900,5.899969970703125,-0.982940673828125,-0.1258087158203125,-0.195343017578125
1761478257809005800,5.910005859375,-0.9765625,-0.1287384033203125,-0.192413330078125
1761478257819041800,5.920041748046875,-0.9747161865234375,-0.12762451171875,-0.1877899169921875
1761478257829078800,5.930078857421875,-0.983428955078125,-0.12677001953125,-0.1851043701171875
1761478257839114800,5.94011474609375,-0.9920654296875,-0.1285552978515625,-0.182037353515625
1761478257849150700,5.950150634765625,-1.0055084228515625,-0.12713623046875,-0.1821746826171875
1761478257859187000,5.96018701171875,-1.0187530517578125,-0.121429443359375,-0.185760498046875
1761478257869223000,5.970222900390625,-1.021453857421875,-0.1178436279296875,-0.1851043701171875
1761478257879259000,5.9802587890625,-1.0145111083984375,-0.119781494140625,-0.182830810546875
1761478257889294800,5.990294921875,-1.000885009765625,-0.12200927734375,-0.18426513671875
1761478257899331800,6.000331787109375,-0.99456787109375,-0.123199462890625,-0.189971923828125
1761478257909367800,6.010367919921875,-0.987335205078125,-0.1269073486328125,-0.1990203857421875
1761478257919403800,6.02040380859375,-0.980194091796875,-0.1265106201171875,-0.2036895751953125
1761478257929439700,6.030439697265625,-0.971923828125,-0.1228790283203125,-0.2018585205078125
1761478257939475700,6.040475830078125,-0.9728851318359375,-0.1204071044921875,-0.19622802734375
1761478257949511700,6.05051171875,-0.9777679443359375,-0.118927001953125,-0.1981353759765625
1761478257959547600,6.060547607421875,-0.98162841796875,-0.1190185546875,-0.2034454345703125
1761478257969584600,6.070584716796875,-0.98211669921875,-0.1210784912109375,-0.1998443603515625
1761478257979620600,6.08062060546875,-0.985748291015625,-0.1214599609375,-0.1921539306640625
1761478257989656600,6.090656494140625,-0.9933013916015625,-0.119873046875,-0.1863861083984375
1761478257999692800,6.10069287109375,-0.9945068359375,-0.1191253662109375,-0.1912078857421875
1761478258009728800,6.110728759765625,-0.99090576171875,-0.1222381591796875,-0.20050048828125
1761478258019764700,6.1207646484375,-0.9856414794921875,-0.124420166015625,-0.2049713134765625
1761478258029801700,6.1308017578125,-0.988555908203125,-0.1257171630859375,-0.1978302001953125
1761478258039838000,6.140837890625,-0.993560791015625,-0.1282958984375,-0.183807373046875
1761478258049874000,6.1508740234375,-0.993988037109375,-0.127532958984375,-0.1751556396484375
1761478258059910000,6.160909912109375,-0.99639892578125,-0.1269683837890625,-0.183868408203125
1761478258069945900,6.17094580078125,-0.9995269775390625,-0.1265716552734375,-0.1994476318359375
1761478258079981800,6.18098193359375,-0.9994964599609375,-0.127471923828125,-0.2038726806640625
1761478258090017800,6.191017822265625,-0.99298095703125,-0.12725830078125,-0.198394775390625
1761478258100054800,6.2010546875,-0.982513427734375,-0.128082275390625,-0.188140869140625
1761478258110090800,6.2110908203125,-0.969970703125,-0.131500244140625,-0.180145263671875
1761478258120126700,6.221126708984375,-0.965850830078125,-0.13092041015625,-0.17852783203125
1761478258130162700,6.23116259765625,-0.96746826171875,-0.1307220458984375,-0.177093505859375
1761478258140198700,6.24119873046875,-0.9774017333984375,-0.130523681640625,-0.1772613525390625
1761478258150234600,6.251234619140625,-0.989410400390625,-0.1255035400390625,-0.1819000244140625
1761478258160272000,6.26127197265625,-0.9989166259765625,-0.128265380859375,-0.188323974609375
1761478258170307800,6.271307861328125,-1.00531005859375,-0.12860107421875,-0.1984100341796875
1761478258180343800,6.28134375,-1.006256103515625,-0.1263580322265625,-0.206390380859375
1761478258190379800,6.2913798828125,-1.0038604736328125,-0.12481689453125,-0.2077484130859375
1761478258200415700,6.301415771484375,-0.9991607666015625,-0.1235504150390625,-0.202301025390625
1761478258210452000,6.311451904296875,-0.9977569580078125,-0.1189727783203125,-0.196075439453125
1761478258220488000,6.321488037109375,-0.9965972900390625,-0.1189727783203125,-0.1911773681640625
1761478258230524700,6.331524658203125,-0.9896697998046875,-0.12091064453125,-0.1894683837890625
1761478258240561000,6.341560791015625,-0.982452392578125,-0.12103271484375,-0.193572998046875
1761478258250596900,6.351596923828125,-0.9804229736328125,-0.1254119873046875,-0.20074462890625
1761478258260632800,6.3616328125,-0.9760589599609375,-0.127166748046875,-0.20343017578125
1761478258270668800,6.371668701171875,-0.971893310546875,-0.13079833984375,-0.200592041015625
1761478258280704800,6.381704833984375,-0.972503662109375,-0.131744384765625,-0.1949462890625
1761478258290740700,6.39174072265625,-0.9799041748046875,-0.1301422119140625,-0.189117431640625
1761478258300777700,6.40177783203125,-0.988433837890625,-0.1291656494140625,-0.1864166259765625
1761478258310813700,6.411813720703125,-0.99200439453125,-0.1258087158203125,-0.1844482421875
1761478258320849700,6.421849609375,-0.9935150146484375,-0.1252288818359375,-0.17718505859375
1761478258330886000,6.431885986328125,-0.9933929443359375,-0.1253509521484375,-0.1723175048828125
1761478258340921900,6.441921875,-0.995147705078125,-0.1256866455078125,-0.1762237548828125
1761478258350957800,6.451957763671875,-0.9967193603515625,-0.1266937255859375,-0.1849365234375
1761478258360993800,6.461993896484375,-0.99652099609375,-0.128326416015625,-0.194915771484375
1761478258371030800,6.47203076171875,-0.9985198974609375,-0.1269073486328125,-0.205718994140625
1761478258381066800,6.482066650390625,-1.0003662109375,-0.1256561279296875,-0.2134857177734375
1761478258391102700,6.492102783203125,-1.0006866455078125,-0.1253814697265625,-0.2088775634765625
1761478258401138700,6.502138671875,-0.99591064453125,-0.1237030029296875,-0.1981201171875
1761478258411174700,6.512174560546875,-0.9891357421875,-0.1226043701171875,-0.190673828125
1761478258421211000,6.5222109375,-0.9839935302734375,-0.124847412109375,-0.187591552734375
1761478258431246800,6.532246826171875,-0.9810638427734375,-0.1257171630859375,-0.191131591796875
1761478258441283600,6.54228369140625,-0.982147216796875,-0.124420166015625,-0.197235107421875
1761478258451319800,6.55231982421875,-0.9832611083984375,-0.1244964599609375,-0.198974609375
1761478258461355800,6.562355712890625,-0.9796142578125,-0.122894287109375,-0.195770263671875
1761478258471391700,6.572391845703125,-0.9747314453125,-0.122772216796875,-0.191192626953125
1761478258481427700,6.582427734375,-0.97747802734375,-0.1237335205078125,-0.1900787353515625
1761478258491463700,6.592463623046875,-0.9832000732421875,-0.127593994140625,-0.191009521484375
1761478258501499600,6.602499755859375,-0.9886322021484375,-0.129852294921875,-0.1932525634765625
1761478258511537000,6.612536865234375,-0.9954376220703125,-0.131256103515625,-0.1922454833984375
1761478258521572900,6.62257275390625,-0.9981689453125,-0.1321563720703125,-0.1879425048828125
1761478258531608800,6.63260888671875,-1.0009765625,-0.131317138671875,-0.18505859375
1761478258541644800,6.642644775390625,-1.003265380859375,-0.12872314453125,-0.1886138916015625
1761478258551680800,6.6526806640625,-0.9978790283203125,-0.1240386962890625,-0.1975860595703125
1761478258561716700,6.662716796875,-0.9895172119140625,-0.1240997314453125,-0.200958251953125
1761478258571752700,6.672752685546875,-0.984771728515625,-0.1270904541015625,-0.1901397705078125
1761478258581789700,6.682789794921875,-0.983642578125,-0.1262664794921875,-0.1768341064453125
1761478258591825700,6.69282568359375,-0.99072265625,-0.125030517578125,-0.17718505859375
1761478258601861600,6.702861572265625,-0.9975433349609375,-0.127227783203125,-0.1909332275390625
1761478258611897600,6.712897705078125,-0.9984588623046875,-0.12689208984375,-0.2069244384765625
1761478258621933800,6.722933837890625,-0.991546630859375,-0.125396728515625,-0.2144622802734375
1761478258631969800,6.7329697265625,-0.9813079833984375,-0.1286468505859375,-0.2128753662109375
1761478258642005800,6.743005859375,-0.96533203125,-0.1337127685546875,-0.205352783203125
1761478258652042800,6.753042724609375,-0.9484100341796875,-0.1337738037109375,-0.1928863525390625
1761478258662079000,6.763078857421875,-0.9501495361328125,-0.13397216796875,-0.17852783203125
1761478258672115000,6.773114990234375,-0.9622802734375,-0.130401611328125,-0.17388916015625
1761478258682151000,6.78315087890625,-0.9857025146484375,-0.1241912841796875,-0.1697998046875
1761478258692187000,6.793186767578125,-1.0113525390625,-0.12200927734375,-0.1678009033203125
1761478258702222800,6.803222900390625,-1.025726318359375,-0.1225738525390625,-0.1757659912109375
1761478258712258800,6.8132587890625,-1.027587890625,-0.1261444091796875,-0.1895599365234375
1761478258722295800,6.8232958984375,-1.015625,-0.130096435546875,-0.2035675048828125
1761478258732331800,6.833331787109375,-1.0021514892578125,-0.13140869140625,-0.2117462158203125
1761478258742367700,6.84336767578125,-0.9918060302734375,-0.1291656494140625,-0.2102813720703125
1761478258752403700,6.85340380859375,-0.986175537109375,-0.125335693359375,-0.2051849365234375
1761478258762439700,6.863439697265625,-0.985870361328125,-0.12200927734375,-0.1993408203125
1761478258772475600,6.8734755859375,-0.987579345703125,-0.118499755859375,-0.189605712890625
1761478258782511600,6.88351171875,-0.9868011474609375,-0.1205902099609375,-0.1785888671875
1761478258792548600,6.893548583984375,-0.9789276123046875,-0.1251678466796875,-0.179962158203125
1761478258802585000,6.903585205078125,-0.9728851318359375,-0.12591552734375,-0.1908416748046875
1761478258812621000,6.91362109375,-0.9805145263671875,-0.126434326171875,-0.204010009765625
1761478258822657000,6.923656982421875,-0.987701416015625,-0.125762939453125,-0.2147064208984375
1761478258832693000,6.93369287109375,-0.99041748046875,-0.1274871826171875,-0.2140350341796875
1761478258842729200,6.943729248046875,-0.987823486328125,-0.1298980712890625,-0.198577880859375
1761478258852765200,6.95376513671875,-0.9824371337890625,-0.128326416015625,-0.185516357421875
1761478258862802200,6.96380224609375,-0.977508544921875,-0.1283111572265625,-0.181549072265625
1761478258872838100,6.973838134765625,-0.970733642578125,-0.1289825439453125,-0.1808319091796875
1761478258882874400,6.983874267578125,-0.969146728515625,-0.1293182373046875,-0.18115234375
1761478258892910300,6.993910400390625,-0.9729461669921875,-0.1284637451171875,-0.1854095458984375
1761478258902946300,7.0039462890625,-0.9886322021484375,-0.1239013671875,-0.1875457763671875
1761478258912982300,7.013982177734375,-1.0099639892578125,-0.117767333984375,-0.1890106201171875
1761478258923018200,7.024018310546875,-1.026336669921875,-0.11602783203125,-0.20050048828125
1761478258933055200,7.03405517578125,-1.02606201171875,-0.1210174560546875,-0.209259033203125
1761478258943091200,7.04409130859375,-1.0103607177734375,-0.1274566650390625,-0.2084197998046875
1761478258953127200,7.054127197265625,-0.98779296875,-0.13140869140625,-0.200286865234375
1761478258963163100,7.0641630859375,-0.974822998046875,-0.13189697265625,-0.193145751953125
1761478258973199000,7.07419921875,-0.9767913818359375,-0.126678466796875,-0.18841552734375
1761478258983235000,7.084235107421875,-0.9862518310546875,-0.120697021484375,-0.1880645751953125
1761478258993271000,7.09427099609375,-0.990478515625,-0.118194580078125,-0.1904754638671875
1761478259003307000,7.10430712890625,-0.9877471923828125,-0.1205596923828125,-0.1926116943359375
1761478259013344300,7.11434423828125,-0.9825592041015625,-0.1273345947265625,-0.1958160400390625
1761478259023380200,7.124380126953125,-0.9783477783203125,-0.131744384765625,-0.1958465576171875
1761478259033416200,7.134416259765625,-0.9796295166015625,-0.1316986083984375,-0.1981964111328125
1761478259043452200,7.1444521484375,-0.9846343994140625,-0.13116455078125,-0.191650390625
1761478259053488000,7.154488037109375,-0.992279052734375,-0.127593994140625,-0.1802520751953125
1761478259063524400,7.1645244140625,-0.9984588623046875,-0.1254730224609375,-0.1776275634765625
1761478259073560300,7.174560302734375,-1.0023956298828125,-0.12493896484375,-0.1845245361328125
1761478259083597000,7.18459716796875,-0.996337890625,-0.1237945556640625,-0.1923980712890625
1761478259093633300,7.19463330078125,-0.98590087890625,-0.1270294189453125,-0.1925506591796875
1761478259103669200,7.204669189453125,-0.97705078125,-0.132415771484375,-0.1874847412109375
1761478259113705200,7.214705322265625,-0.9759674072265625,-0.1320037841796875,-0.1845703125
1761478259123741200,7.2247412109375,-0.986846923828125,-0.1297607421875,-0.1830902099609375
1761478259133777200,7.234777099609375,-1.0018157958984375,-0.1267852783203125,-0.189483642578125
1761478259143813000,7.244813232421875,-1.0132293701171875,-0.1244659423828125,-0.20367431640625
1761478259153850000,7.25485009765625,-1.0121612548828125,-0.12237548828125,-0.2110595703125
1761478259163886000,7.264885986328125,-1.0020751953125,-0.1239013671875,-0.207977294921875
1761478259173922300,7.27492236328125,-0.983917236328125,-0.131011962890625,-0.198760986328125
1761478259183958300,7.284958251953125,-0.9703826904296875,-0.131744384765625,-0.190216064453125
1761478259193994200,7.294994140625,-0.9677581787109375,-0.132476806640625,-0.18096923828125
1761478259204030200,7.3050302734375,-0.967132568359375,-0.1309661865234375,-0.1745452880859375
1761478259214066200,7.315066162109375,-0.9750518798828125,-0.128662109375,-0.1725006103515625
1761478259224102100,7.32510205078125,-0.9835662841796875,-0.128082275390625,-0.1733551025390625
1761478259234139100,7.33513916015625,-0.9906158447265625,-0.129150390625,-0.1789093017578125
1761478259244175000,7.345175048828125,-0.9959869384765625,-0.1293182373046875,-0.1855316162109375
1761478259254211000,7.355211181640625,-1.004119873046875,-0.127716064453125,-0.19793701171875
1761478259264247300,7.365247314453125,-1.005126953125,-0.1277313232421875,-0.20831298828125
1761478259274283300,7.375283203125,-0.9977264404296875,-0.1287841796875,-0.2111663818359375
1761478259284319200,7.3853193359375,-0.990936279296875,-0.1282806396484375,-0.1957244873046875
1761478259294355200,7.395355224609375,-0.9900360107421875,-0.1277618408203125,-0.177734375
1761478259304392200,7.40539208984375,-0.9875030517578125,-0.1257476806640625,-0.175628662109375
1761478259314428200,7.41542822265625,-0.985748291015625,-0.12615966796875,-0.1846466064453125
1761478259324464000,7.425464111328125,-0.9868621826171875,-0.1272735595703125,-0.1981658935546875
1761478259334500000,7.4355,-0.9854736328125,-0.126434326171875,-0.205230712890625
1761478259344536300,7.445536376953125,-0.9789886474609375,-0.1290435791015625,-0.204681396484375
1761478259354572300,7.455572265625,-0.972381591796875,-0.1303558349609375,-0.19622802734375
1761478259364608300,7.465608154296875,-0.9724578857421875,-0.1260833740234375,-0.184661865234375
1761478259374644200,7.475644287109375,-0.9784088134765625,-0.1236419677734375,-0.185943603515625
1761478259384681200,7.48568115234375,-0.99053955078125,-0.1219024658203125,-0.2038116455078125
1761478259394717200,7.49571728515625,-1.0003662109375,-0.123138427734375,-0.2160491943359375
1761478259404753200,7.505753173828125,-1.005706787109375,-0.1257781982421875,-0.204833984375
1761478259414789000,7.5157890625,-1.006988525390625,-0.128173828125,-0.1833648681640625
1761478259424825000,7.5258251953125,-0.99871826171875,-0.1266632080078125,-0.172393798828125
1761478259434861000,7.535861083984375,-0.9874114990234375,-0.1298828125,-0.176361083984375
1761478259444897300,7.545897216796875,-0.982757568359375,-0.1323699951171875,-0.1854095458984375
1761478259454934000,7.55593408203125,-0.98272705078125,-0.1301727294921875,-0.1919708251953125
1761478259464970000,7.565969970703125,-0.9830169677734375,-0.1298980712890625,-0.1885833740234375
1761478259475006200,7.576006103515625,-0.9847259521484375,-0.12823486328125,-0.186553955078125
1761478259485042200,7.586042236328125,-0.9904937744140625,-0.1247406005859375,-0.1883544921875
1761478259495078100,7.596078125,-1.0012054443359375,-0.124542236328125,-0.193939208984375
1761478259505114000,7.606114013671875,-1.006011962890625,-0.1250457763671875,-0.200286865234375
1761478259515150000,7.616150146484375,-0.9969482421875,-0.1250457763671875,-0.197052001953125
1761478259525186300,7.626186279296875,-0.985748291015625,-0.124908447265625,-0.1861572265625
1761478259535223300,7.636223388671875,-0.9802703857421875,-0.1248626708984375,-0.1777801513671875
1761478259545259300,7.64625927734375,-0.9844818115234375,-0.122039794921875,-0.1779937744140625
1761478259555295200,7.656295166015625,-0.9879608154296875,-0.12103271484375,-0.1897430419921875
1761478259565331200,7.666331298828125,-0.9817352294921875,-0.1254730224609375,-0.2071990966796875
1761478259575367200,7.6763671875,-0.9753875732421875,-0.1302337646484375,-0.215301513671875
1761478259585403100,7.686403076171875,-0.98138427734375,-0.13250732421875,-0.2086334228515625
1761478259595439000,7.696439208984375,-0.989471435546875,-0.1301727294921875,-0.20489501953125
1761478259605476000,7.70647607421875,-0.9986572265625,-0.1268310546875,-0.201019287109375
1761478259615512000,7.716511962890625,-1.0016632080078125,-0.121124267578125,-0.1936492919921875
1761478259625548000,7.726548095703125,-0.993377685546875,-0.118743896484375,-0.1875762939453125
1761478259635584000,7.736583984375,-0.985198974609375,-0.1238555908203125,-0.1840362548828125
1761478259645620200,7.7466201171875,-0.9810943603515625,-0.1293487548828125,-0.1844024658203125
1761478259655656200,7.75665625,-0.984954833984375,-0.1330108642578125,-0.1861572265625
1761478259665692200,7.766692138671875,-0.989166259765625,-0.1332550048828125,-0.18798828125
1761478259675728100,7.77672802734375,-0.99481201171875,-0.131072998046875,-0.1913299560546875
1761478259685765400,7.786765380859375,-0.9931488037109375,-0.130096435546875,-0.1949615478515625
1761478259695801300,7.79680126953125,-0.9851226806640625,-0.1296844482421875,-0.1929779052734375
1761478259705837300,7.80683740234375,-0.9755401611328125,-0.1330108642578125,-0.1841583251953125
1761478259715873300,7.816873291015625,-0.9752044677734375,-0.130889892578125,-0.1815643310546875
1761478259725909200,7.8269091796875,-0.9877471923828125,-0.12890625,-0.1890716552734375
1761478259735945200,7.8369453125,-1.0034942626953125,-0.12603759765625,-0.19122314453125
1761478259745981200,7.846981201171875,-1.0038909912109375,-0.128631591796875,-0.183990478515625
1761478259756017200,7.85701708984375,-0.9982452392578125,-0.13250732421875,-0.1806182861328125
1761478259766054100,7.86705419921875,-1.000885009765625,-0.132598876953125,-0.1824493408203125
1761478259776090000,7.877090087890625,-1.0012054443359375,-0.129547119140625,-0.191436767578125
1761478259786126000,7.8871259765625,-1.000396728515625,-0.12969970703125,-0.2033843994140625
1761478259796161500,7.89716162109375,-0.9947052001953125,-0.1300201416015625,-0.2105865478515625
1761478259806197800,7.90719775390625,-0.9814300537109375,-0.1273345947265625,-0.2069244384765625
1761478259816233700,7.917233642578125,-0.9704437255859375,-0.126434326171875,-0.190155029296875
1761478259826269700,7.927269775390625,-0.9777374267578125,-0.12493896484375,-0.1689453125
1761478259836305700,7.9373056640625,-0.980926513671875,-0.1238861083984375,-0.1690521240234375
1761478259846342700,7.9473427734375,-0.9846954345703125,-0.1309356689453125,-0.18536376953125
1761478259856378600,7.957378662109375,-0.9840087890625,-0.1399383544921875,-0.196624755859375
1761478259866414600,7.96741455078125,-0.982330322265625,-0.1384735107421875,-0.19940185546875
1761478259876450600,7.977450439453125,-0.9873199462890625,-0.131988525390625,-0.1912689208984375
1761478259886486500,7.987486572265625,-0.9846954345703125,-0.1305999755859375,-0.1822357177734375
1761478259896522500,7.9975224609375,-0.98602294921875,-0.1274261474609375,-0.1837005615234375
1761478259906558500,8.007558349609376,-0.9895477294921875,-0.1267547607421875,-0.1903228759765625
1761478259916593700,8.01759375,-0.9926910400390625,-0.1312408447265625,-0.194000244140625
1761478259926629600,8.027629638671876,-0.98779296875,-0.1347503662109375,-0.194549560546875
1761478259936665600,8.03766552734375,-0.9845733642578125,-0.1332550048828125,-0.1927490234375
1761478259946701600,8.04770166015625,-0.999176025390625,-0.129302978515625,-0.18408203125
1761478259956737500,8.057737548828126,-1.008697509765625,-0.123626708984375,-0.1792449951171875
1761478259966774500,8.0677744140625,-0.999786376953125,-0.1253204345703125,-0.1861114501953125
1761478259976810500,8.077810546875,-0.9964752197265625,-0.131927490234375,-0.1925506591796875
1761478259986846500,8.087846435546876,-0.992645263671875,-0.1294708251953125,-0.1927032470703125
1761478259996882700,8.097882568359376,-0.99072265625,-0.12799072265625,-0.1935882568359375
1761478260006918700,8.107918701171876,-0.9798583984375,-0.1304473876953125,-0.1960296630859375
1761478260016954600,8.11795458984375,-0.972137451171875,-0.128631591796875,-0.1986083984375
1761478260026990600,8.127990478515626,-0.9710693359375,-0.1272125244140625,-0.20220947265625
1761478260037026600,8.138026611328126,-0.978790283203125,-0.1302947998046875,-0.200927734375
1761478260047063600,8.1480634765625,-0.9986572265625,-0.131103515625,-0.2007598876953125
1761478260057099500,8.158099609375,-1.00091552734375,-0.1261444091796875,-0.2001190185546875
1761478260067135500,8.168135498046874,-0.9896392822265625,-0.1265106201171875,-0.1873626708984375
1761478260077171500,8.17817138671875,-0.978729248046875,-0.130645751953125,-0.1746063232421875
1761478260087207700,8.188207763671874,-0.970703125,-0.1328277587890625,-0.1752166748046875
1761478260097243600,8.19824365234375,-0.970703125,-0.1335296630859375,-0.1752777099609375
1761478260107279600,8.208279541015624,-0.9893341064453125,-0.1343231201171875,-0.1726226806640625
1761478260117315600,8.218315673828124,-1.008514404296875,-0.1308441162109375,-0.1811981201171875
1761478260127352600,8.2283525390625,-1.0213775634765625,-0.1272735595703125,-0.19415283203125
1761478260137388500,8.238388427734375,-1.0173492431640625,-0.12957763671875,-0.2097930908203125
1761478260147424500,8.248424560546875,-1.0011444091796875,-0.130615234375,-0.2160797119140625
1761478260157460500,8.25846044921875,-0.983184814453125,-0.1322479248046875,-0.2068939208984375
1761478260167496400,8.268496337890625,-0.9742584228515625,-0.1359100341796875,-0.193267822265625
1761478260177532700,8.27853271484375,-0.9689178466796875,-0.1274261474609375,-0.18218994140625
1761478260187568600,8.288568603515625,-0.96087646484375,-0.1237030029296875,-0.1748199462890625
1761478260197604600,8.2986044921875,-0.9950408935546875,-0.12127685546875,-0.1708221435546875
1761478260207641600,8.3086416015625,-0.9967193603515625,-0.0945892333984375,-0.1863555908203125
1761478260217677600,8.318677490234375,-0.9405517578125,-0.1061553955078125,-0.191253662109375
1761478260227713500,8.328713623046875,-0.982330322265625,-0.195404052734375,-0.1473541259765625
1761478260237749500,8.33874951171875,-1.049468994140625,-0.180816650390625,-0.18572998046875
1761478260247785500,8.348785400390625,-1.09283447265625,-0.13037109375,-0.2113494873046875
1761478260257821400,8.358821533203125,-1.0617828369140625,-0.1569061279296875,-0.2003173828125
1761478260267857700,8.368857666015625,-1.0269622802734375,-0.157073974609375,-0.1834869384765625
1761478260277893600,8.3788935546875,-0.9719696044921875,-0.139617919921875,-0.1662445068359375
1761478260287930400,8.388930419921875,-0.9337005615234375,-0.138885498046875,-0.1498260498046875
1761478260297966600,8.398966552734375,-0.9328155517578125,-0.123687744140625,-0.1518096923828125
1761478260308002600,8.40900244140625,-0.9380035400390625,-0.07470703125,-0.1739654541015625
