time,seconds_elapsed,z,y,x
1761479850605754000,0.071754150390625,-1.0142059326171875,-0.02099609375,-0.0149383544921875
1761479850615790000,0.0817900390625,-1.0130615234375,-0.02325439453125,-0.0189056396484375
1761479850625826000,0.091825927734375,-1.013641357421875,-0.0208892822265625,-0.0179443359375
1761479850635862000,0.101862060546875,-1.012847900390625,-0.0245513916015625,-0.016754150390625
1761479850645898000,0.11189794921875,-1.01416015625,-0.020538330078125,-0.015899658203125
1761479850655934200,0.121934326171875,-1.0134429931640625,-0.022430419921875,-0.0187530517578125
1761479850665970200,0.13197021484375,-1.013427734375,-0.020843505859375,-0.0180511474609375
1761479850676006100,0.142006103515625,-1.0139617919921875,-0.0240020751953125,-0.0168609619140625
1761479850686042000,0.1520419921875,-1.0132293701171875,-0.02081298828125,-0.0174407958984375
1761479850696078000,0.162078125,-1.0139007568359375,-0.02203369140625,-0.0193634033203125
1761479850706113000,0.172113037109375,-1.0141143798828125,-0.0212554931640625,-0.0164031982421875
1761479850716149000,0.18214892578125,-1.01318359375,-0.023223876953125,-0.017547607421875
1761479850726185000,0.19218505859375,-1.0138702392578125,-0.0222930908203125,-0.018218994140625
1761479850736221200,0.20222119140625,-1.013702392578125,-0.0216827392578125,-0.016632080078125
1761479850746257200,0.212257080078125,-1.013916015625,-0.0219879150390625,-0.01678466796875
1761479850756293000,0.222293212890625,-1.0125732421875,-0.0211029052734375,-0.0182342529296875
1761479850766329000,0.2323291015625,-1.01263427734375,-0.02215576171875,-0.01788330078125
1761479850776365000,0.242364990234375,-1.0146942138671875,-0.02105712890625,-0.0163116455078125
1761479850786401000,0.252401123046875,-1.013336181640625,-0.022613525390625,-0.01763916015625
1761479850796437000,0.26243701171875,-1.0140380859375,-0.022186279296875,-0.017791748046875
1761479850806473000,0.272472900390625,-1.014404296875,-0.022796630859375,-0.01739501953125
1761479850816509000,0.282509033203125,-1.0146636962890625,-0.021026611328125,-0.0173797607421875
1761479850826544000,0.292544189453125,-1.0125732421875,-0.0225067138671875,-0.01849365234375
1761479850836580000,0.302580078125,-1.013214111328125,-0.02105712890625,-0.0164642333984375
1761479850846616000,0.312615966796875,-1.013580322265625,-0.0233306884765625,-0.0172119140625
1761479850856652000,0.322652099609375,-1.0128326416015625,-0.0218963623046875,-0.0186920166015625
1761479850866688000,0.33268798828125,-1.0127716064453125,-0.022216796875,-0.0183258056640625
1761479850876724000,0.342723876953125,-1.013763427734375,-0.0211334228515625,-0.016204833984375
1761479850886760000,0.352760009765625,-1.0137176513671875,-0.0230712890625,-0.0175018310546875
1761479850896796200,0.362796142578125,-1.0128936767578125,-0.021728515625,-0.017852783203125
1761479850906832100,0.37283203125,-1.0127105712890625,-0.0228424072265625,-0.017486572265625
1761479850916868000,0.3828681640625,-1.0131988525390625,-0.0217742919921875,-0.0166168212890625
1761479850926904300,0.392904296875,-1.013336181640625,-0.021270751953125,-0.0178985595703125
1761479850936940300,0.402940185546875,-1.0142669677734375,-0.021636962890625,-0.017974853515625
1761479850946975200,0.412975341796875,-1.01300048828125,-0.0224151611328125,-0.0171051025390625
1761479850957011200,0.42301123046875,-1.0130615234375,-0.0213623046875,-0.016845703125
1761479850967047200,0.433047119140625,-1.0139007568359375,-0.02227783203125,-0.01788330078125
1761479850977083100,0.443083251953125,-1.0149993896484375,-0.02191162109375,-0.0167694091796875
1761479850987119000,0.453119140625,-1.013214111328125,-0.02197265625,-0.0169219970703125
1761479850997155000,0.463155029296875,-1.0127716064453125,-0.022247314453125,-0.018890380859375
1761479851007191300,0.47319140625,-1.0127105712890625,-0.022430419921875,-0.01751708984375
1761479851017227300,0.483227294921875,-1.0126800537109375,-0.0217437744140625,-0.0178375244140625
1761479851027263200,0.49326318359375,-1.012939453125,-0.0205230712890625,-0.0183563232421875
1761479851037299200,0.50329931640625,-1.0123291015625,-0.022430419921875,-0.0181732177734375
1761479851047335200,0.513335205078125,-1.0131072998046875,-0.02215576171875,-0.016510009765625
1761479851057371100,0.52337109375,-1.0132598876953125,-0.022735595703125,-0.0178070068359375
1761479851067407000,0.533406982421875,-1.0127410888671875,-0.0225677490234375,-0.01849365234375
1761479851077442000,0.543442138671875,-1.01385498046875,-0.02264404296875,-0.0176239013671875
1761479851087478300,0.553478271484375,-1.0137176513671875,-0.0211639404296875,-0.0175628662109375
1761479851097514200,0.56351416015625,-1.0131988525390625,-0.022125244140625,-0.018218994140625
1761479851107550200,0.57355029296875,-1.013214111328125,-0.0217132568359375,-0.017852783203125
1761479851117586200,0.583586181640625,-1.0125732421875,-0.0226593017578125,-0.0174407958984375
1761479851127622100,0.5936220703125,-1.0134735107421875,-0.02197265625,-0.018157958984375
1761479851137658000,0.603658203125,-1.0131378173828125,-0.0224151611328125,-0.018768310546875
1761479851147694000,0.613694091796875,-1.01300048828125,-0.02252197265625,-0.0174407958984375
1761479851157730000,0.62372998046875,-1.012603759765625,-0.022186279296875,-0.017120361328125
1761479851167766000,0.63376611328125,-1.0126953125,-0.02215576171875,-0.017547607421875
1761479851177802000,0.643802001953125,-1.0131683349609375,-0.0222320556640625,-0.018035888671875
1761479851187838000,0.653837890625,-1.0133056640625,-0.022613525390625,-0.0164337158203125
1761479851197873200,0.663873046875,-1.01214599609375,-0.023284912109375,-0.017425537109375
1761479851207909000,0.6739091796875,-1.0127410888671875,-0.022216796875,-0.017364501953125
1761479851217945000,0.683945068359375,-1.013763427734375,-0.02191162109375,-0.0168304443359375
1761479851227981000,0.69398095703125,-1.0121002197265625,-0.022003173828125,-0.017913818359375
1761479851238017000,0.70401708984375,-1.0115966796875,-0.0222930908203125,-0.0187835693359375
1761479851248053000,0.714052978515625,-1.0135040283203125,-0.02203369140625,-0.0167083740234375
1761479851258089000,0.7240888671875,-1.013427734375,-0.0217437744140625,-0.0175323486328125
1761479851268125200,0.734125244140625,-1.0128021240234375,-0.02294921875,-0.017852783203125
1761479851278161200,0.7441611328125,-1.01312255859375,-0.0230255126953125,-0.0174407958984375
1761479851288197000,0.754197021484375,-1.01348876953125,-0.0230712890625,-0.016326904296875
1761479851298233000,0.764233154296875,-1.013580322265625,-0.0216217041015625,-0.0183258056640625
1761479851308269000,0.77426904296875,-1.0126953125,-0.0224151611328125,-0.0184478759765625
1761479851318305000,0.784304931640625,-1.01336669921875,-0.0225830078125,-0.0176849365234375
1761479851328340000,0.794340087890625,-1.013824462890625,-0.0222625732421875,-0.017913818359375
1761479851338376000,0.8043759765625,-1.01318359375,-0.0215911865234375,-0.0173187255859375
1761479851348412200,0.814412109375,-1.0133819580078125,-0.0222015380859375,-0.0177001953125
1761479851358448000,0.8244482421875,-1.0123748779296875,-0.0240631103515625,-0.0170440673828125
1761479851368484000,0.834484130859375,-1.0128021240234375,-0.023162841796875,-0.0178985595703125
1761479851378520000,0.84452001953125,-1.013031005859375,-0.0220794677734375,-0.017913818359375
1761479851388556000,0.85455615234375,-1.01287841796875,-0.0222625732421875,-0.016998291015625
1761479851398592500,0.864592529296875,-1.01361083984375,-0.022705078125,-0.0169677734375
1761479851408628500,0.87462841796875,-1.013580322265625,-0.0215606689453125,-0.01849365234375
1761479851418664400,0.88466455078125,-1.01226806640625,-0.0219268798828125,-0.01806640625
1761479851428700700,0.89470068359375,-1.0123748779296875,-0.0228424072265625,-0.0170440673828125
1761479851438736600,0.904736572265625,-1.0119171142578125,-0.023101806640625,-0.0176544189453125
1761479851448772600,0.914772705078125,-1.0113525390625,-0.0226898193359375,-0.0175628662109375
1761479851458807600,0.9248076171875,-1.013397216796875,-0.0222930908203125,-0.017425537109375
1761479851468843500,0.934843505859375,-1.0132904052734375,-0.0217132568359375,-0.0180816650390625
1761479851478879700,0.944879638671875,-1.0128326416015625,-0.0221099853515625,-0.0177764892578125
1761479851488915700,0.954915771484375,-1.0126800537109375,-0.0217437744140625,-0.0178375244140625
1761479851498951700,0.96495166015625,-1.011993408203125,-0.0220947265625,-0.0177001953125
1761479851508987600,0.974987548828125,-1.0137481689453125,-0.0222625732421875,-0.017242431640625
1761479851519023600,0.985023681640625,-1.0134735107421875,-0.022735595703125,-0.01776123046875
1761479851529059600,0.9950595703125,-1.0118865966796875,-0.0222930908203125,-0.0179443359375
1761479851539095600,1.005095458984375,-1.0138702392578125,-0.0226898193359375,-0.01824951171875
1761479851549131500,1.015131591796875,-1.012420654296875,-0.0213470458984375,-0.0179901123046875
1761479851559167700,1.025167724609375,-1.0132904052734375,-0.021392822265625,-0.017059326171875
1761479851569203700,1.03520361328125,-1.0130767822265625,-0.02178955078125,-0.01727294921875
1761479851579239700,1.04523974609375,-1.01373291015625,-0.02239990234375,-0.017852783203125
1761479851589275600,1.055275634765625,-1.01300048828125,-0.02203369140625,-0.01751708984375
1761479851599310600,1.065310546875,-1.0130157470703125,-0.0227508544921875,-0.0167388916015625
1761479851609346600,1.0753466796875,-1.0135498046875,-0.0219573974609375,-0.0175628662109375
1761479851619382500,1.085382568359375,-1.0136260986328125,-0.0228271484375,-0.01800537109375
1761479851629418500,1.09541845703125,-1.01300048828125,-0.0224609375,-0.01715087890625
1761479851639454700,1.105454833984375,-1.012451171875,-0.0212860107421875,-0.0175628662109375
1761479851649490700,1.11549072265625,-1.013519287109375,-0.0221710205078125,-0.0174102783203125
1761479851659526700,1.125526611328125,-1.0130615234375,-0.0225982666015625,-0.0175323486328125
1761479851669562600,1.135562744140625,-1.01220703125,-0.021270751953125,-0.0170135498046875
1761479851679598600,1.1455986328125,-1.0130615234375,-0.0221710205078125,-0.0178070068359375
1761479851689634600,1.155634521484375,-1.0132598876953125,-0.0218963623046875,-0.0179901123046875
1761479851699670500,1.16567041015625,-1.0128936767578125,-0.022705078125,-0.01751708984375
1761479851709706500,1.17570654296875,-1.0135650634765625,-0.0222930908203125,-0.0177459716796875
1761479851719742500,1.185742431640625,-1.0124969482421875,-0.0230255126953125,-0.0181427001953125
1761479851729778400,1.1957783203125,-1.013885498046875,-0.0220489501953125,-0.0176544189453125
1761479851739814400,1.205814453125,-1.012176513671875,-0.0218353271484375,-0.0178375244140625
1761479851749849600,1.215849609375,-1.0125732421875,-0.021820068359375,-0.017974853515625
1761479851759885600,1.225885498046875,-1.0134429931640625,-0.02215576171875,-0.01727294921875
1761479851769921500,1.235921630859375,-1.012481689453125,-0.0220184326171875,-0.016937255859375
1761479851779957500,1.24595751953125,-1.0140228271484375,-0.0220489501953125,-0.01776123046875
1761479851789993500,1.255993408203125,-1.01312255859375,-0.02178955078125,-0.01739501953125
1761479851800029400,1.266029541015625,-1.0129241943359375,-0.0225372314453125,-0.01690673828125
1761479851810065400,1.2760654296875,-1.0131988525390625,-0.021881103515625,-0.017730712890625
1761479851820101400,1.286101318359375,-1.01373291015625,-0.0227203369140625,-0.0180816650390625
1761479851830137600,1.2961376953125,-1.0135955810546875,-0.0230865478515625,-0.0174713134765625
1761479851840173600,1.306173583984375,-1.0130615234375,-0.0221099853515625,-0.0177459716796875
1761479851850209500,1.31620947265625,-1.0133819580078125,-0.022308349609375,-0.0180511474609375
1761479851860245500,1.32624560546875,-1.01373291015625,-0.022003173828125,-0.0169525146484375
1761479851870281500,1.336281494140625,-1.0138702392578125,-0.021575927734375,-0.01690673828125
1761479851880317700,1.346317626953125,-1.0133819580078125,-0.0216522216796875,-0.0173797607421875
1761479851890353700,1.356353759765625,-1.012908935546875,-0.0225067138671875,-0.0179290771484375
1761479851900388400,1.366388427734375,-1.013580322265625,-0.0220794677734375,-0.0172119140625
1761479851910424600,1.376424560546875,-1.0130615234375,-0.021881103515625,-0.0171356201171875
1761479851920460500,1.38646044921875,-1.0129241943359375,-0.0221099853515625,-0.01806640625
1761479851930496500,1.39649658203125,-1.013580322265625,-0.022430419921875,-0.017730712890625
1761479851940532700,1.40653271484375,-1.0134429931640625,-0.022125244140625,-0.0177154541015625
1761479851950568700,1.416568603515625,-1.012908935546875,-0.0221710205078125,-0.018035888671875
1761479851960604700,1.426604736328125,-1.0135040283203125,-0.022979736328125,-0.017852783203125
1761479851970640600,1.436640625,-1.0133056640625,-0.022552490234375,-0.017822265625
1761479851980676600,1.446676513671875,-1.0125732421875,-0.0221099853515625,-0.018096923828125
1761479851990712600,1.456712646484375,-1.01312255859375,-0.0218353271484375,-0.0183258056640625
1761479852000748500,1.46674853515625,-1.014068603515625,-0.022552490234375,-0.0179595947265625
1761479852010784500,1.476784423828125,-1.013671875,-0.0224151611328125,-0.0174560546875
1761479852020820700,1.48682080078125,-1.013580322265625,-0.0223541259765625,-0.017669677734375
1761479852030856700,1.496856689453125,-1.0144500732421875,-0.0224151611328125,-0.0179595947265625
1761479852040891600,1.5068916015625,-1.01361083984375,-0.0226898193359375,-0.017486572265625
1761479852050927600,1.516927734375,-1.01251220703125,-0.02288818359375,-0.017303466796875
1761479852060963600,1.526963623046875,-1.01287841796875,-0.0218963623046875,-0.017333984375
1761479852070999600,1.53699951171875,-1.01251220703125,-0.021270751953125,-0.0176849365234375
1761479852081035500,1.547035400390625,-1.013153076171875,-0.021453857421875,-0.01708984375
1761479852091071500,1.557071533203125,-1.01318359375,-0.023193359375,-0.0170440673828125
1761479852101107700,1.567107666015625,-1.0127410888671875,-0.022216796875,-0.0181884765625
1761479852111143700,1.577143798828125,-1.013916015625,-0.0226593017578125,-0.017730712890625
1761479852121179600,1.5871796875,-1.0135498046875,-0.022369384765625,-0.0171661376953125
1761479852131215600,1.597215576171875,-1.0128173828125,-0.0216827392578125,-0.01751708984375
1761479852141251600,1.60725146484375,-1.0127410888671875,-0.021881103515625,-0.0175323486328125
1761479852151287600,1.61728759765625,-1.0126953125,-0.02178955078125,-0.01837158203125
1761479852161323500,1.627323486328125,-1.0132598876953125,-0.02154541015625,-0.0179290771484375
1761479852171359500,1.637359375,-1.0136871337890625,-0.0222320556640625,-0.0181884765625
1761479852181395500,1.6473955078125,-1.012481689453125,-0.0224609375,-0.0185394287109375
1761479852191430700,1.6574306640625,-1.0125274658203125,-0.0219879150390625,-0.017364501953125
1761479852201466600,1.667466552734375,-1.01336669921875,-0.0218353271484375,-0.01751708984375
1761479852211502600,1.677502685546875,-1.012939453125,-0.022430419921875,-0.017730712890625
1761479852221538600,1.68753857421875,-1.0132293701171875,-0.0227203369140625,-0.01702880859375
1761479852231574500,1.697574462890625,-1.0130767822265625,-0.022979736328125,-0.0172119140625
1761479852241610500,1.707610595703125,-1.0142669677734375,-0.022186279296875,-0.01776123046875
1761479852251646500,1.717646484375,-1.014495849609375,-0.0212554931640625,-0.01727294921875
1761479852261682400,1.727682373046875,-1.0132598876953125,-0.022979736328125,-0.016693115234375
1761479852271718400,1.737718505859375,-1.013580322265625,-0.0219879150390625,-0.017822265625
1761479852281754400,1.74775439453125,-1.01385498046875,-0.0222625732421875,-0.0181732177734375
1761479852291790600,1.75779052734375,-1.0133209228515625,-0.0218505859375,-0.01739501953125
1761479852301826600,1.76782666015625,-1.01361083984375,-0.0218505859375,-0.0179443359375
1761479852311862500,1.777862548828125,-1.013916015625,-0.0225982666015625,-0.0180816650390625
1761479852321898500,1.7878984375,-1.013275146484375,-0.0220184326171875,-0.0178680419921875
1761479852331934700,1.797934814453125,-1.013427734375,-0.02178955078125,-0.016998291015625
1761479852341969400,1.807969482421875,-1.0133514404296875,-0.022613525390625,-0.017730712890625
1761479852352005400,1.81800537109375,-1.01324462890625,-0.0213470458984375,-0.0177001953125
1761479852362041600,1.82804150390625,-1.01361083984375,-0.0220184326171875,-0.017608642578125
1761479852372077600,1.83807763671875,-1.013214111328125,-0.021759033203125,-0.017913818359375
1761479852382113500,1.848113525390625,-1.013153076171875,-0.0227813720703125,-0.0174560546875
1761479852392149800,1.858149658203125,-1.0134735107421875,-0.0222015380859375,-0.01739501953125
1761479852402185500,1.868185546875,-1.013580322265625,-0.02288818359375,-0.017578125
1761479852412221400,1.878221435546875,-1.0134124755859375,-0.022369384765625,-0.0180206298828125
1761479852422257400,1.88825732421875,-1.0130462646484375,-0.0219573974609375,-0.0174102783203125
1761479852432293400,1.89829345703125,-1.0130767822265625,-0.022003173828125,-0.0168914794921875
1761479852442329300,1.908329345703125,-1.012847900390625,-0.022705078125,-0.01806640625
1761479852452365300,1.918365234375,-1.01312255859375,-0.0215606689453125,-0.0179290771484375
1761479852462401300,1.9284013671875,-1.01385498046875,-0.0219573974609375,-0.0184173583984375
1761479852472437500,1.9384375,-1.0137786865234375,-0.0213775634765625,-0.017120361328125
1761479852482473500,1.948473388671875,-1.0123291015625,-0.0223236083984375,-0.0170440673828125
1761479852492508400,1.95850830078125,-1.0136871337890625,-0.021820068359375,-0.017303466796875
1761479852502544400,1.96854443359375,-1.0136566162109375,-0.0226287841796875,-0.0177154541015625
1761479852512580400,1.978580322265625,-1.01397705078125,-0.0220184326171875,-0.017852783203125
1761479852522616300,1.9886162109375,-1.01300048828125,-0.0216522216796875,-0.01800537109375
1761479852532652300,1.99865234375,-1.0136260986328125,-0.0222930908203125,-0.0179595947265625
1761479852542688300,2.008688232421875,-1.013519287109375,-0.0215606689453125,-0.018035888671875
1761479852552724500,2.018724365234375,-1.01312255859375,-0.0226898193359375,-0.016876220703125
1761479852562760400,2.028760498046875,-1.0137176513671875,-0.0222625732421875,-0.0169830322265625
1761479852572796400,2.03879638671875,-1.0126190185546875,-0.0218963623046875,-0.0174713134765625
1761479852582832400,2.048832275390625,-1.013946533203125,-0.02166748046875,-0.0181121826171875
1761479852592868400,2.058868408203125,-1.0137176513671875,-0.0224151611328125,-0.01751708984375
1761479852602904300,2.068904296875,-1.0148468017578125,-0.0224151611328125,-0.0174560546875
1761479852612940300,2.078940185546875,-1.0133514404296875,-0.022918701171875,-0.017333984375
1761479852622975200,2.088975341796875,-1.01287841796875,-0.0225067138671875,-0.017730712890625
1761479852633011500,2.099011474609375,-1.013916015625,-0.02239990234375,-0.017242431640625
1761479852643047400,2.10904736328125,-1.0140228271484375,-0.0228271484375,-0.01788330078125
1761479852653083400,2.11908349609375,-1.0135650634765625,-0.021209716796875,-0.0177154541015625
1761479852663119400,2.129119384765625,-1.01422119140625,-0.0226898193359375,-0.0179290771484375
1761479852673155300,2.1391552734375,-1.012908935546875,-0.022369384765625,-0.0175628662109375
1761479852683191300,2.14919140625,-1.012969970703125,-0.0210418701171875,-0.0176849365234375
1761479852693227300,2.159227294921875,-1.013916015625,-0.02203369140625,-0.017608642578125
1761479852703263200,2.16926318359375,-1.01361083984375,-0.0219268798828125,-0.018280029296875
1761479852713299200,2.17929931640625,-1.0144805908203125,-0.021881103515625,-0.0175933837890625
1761479852723335200,2.189335205078125,-1.0135955810546875,-0.022369384765625,-0.0172271728515625
1761479852733371100,2.19937109375,-1.011993408203125,-0.022369384765625,-0.0180816650390625
1761479852743407400,2.209407470703125,-1.01336669921875,-0.022491455078125,-0.0181121826171875
1761479852753443600,2.219443603515625,-1.0142822265625,-0.0229949951171875,-0.018035888671875
1761479852763478300,2.229478271484375,-1.0145721435546875,-0.0222015380859375,-0.017669677734375
1761479852773514200,2.23951416015625,-1.0138092041015625,-0.022216796875,-0.01763916015625
1761479852783550200,2.24955029296875,-1.014129638671875,-0.0221405029296875,-0.0180206298828125
1761479852793586200,2.259586181640625,-1.013336181640625,-0.021820068359375,-0.0178070068359375
1761479852803622100,2.2696220703125,-1.014190673828125,-0.02197265625,-0.018402099609375
1761479852813658400,2.279658447265625,-1.01434326171875,-0.0215911865234375,-0.0179901123046875
1761479852823694600,2.289694580078125,-1.0140533447265625,-0.02227783203125,-0.017486572265625
1761479852833730600,2.29973046875,-1.0131683349609375,-0.0223236083984375,-0.018310546875
1761479852843766500,2.3097666015625,-1.0130615234375,-0.0217742919921875,-0.0172119140625
1761479852853802500,2.319802490234375,-1.013885498046875,-0.0225067138671875,-0.0173187255859375
1761479852863838500,2.32983837890625,-1.014617919921875,-0.021728515625,-0.0175323486328125
1761479852873874400,2.33987451171875,-1.0139312744140625,-0.0213165283203125,-0.0177001953125
1761479852883910400,2.349910400390625,-1.014190673828125,-0.0221710205078125,-0.017608642578125
1761479852893946400,2.3599462890625,-1.014373779296875,-0.022064208984375,-0.0179901123046875
1761479852903981600,2.369981689453125,-1.014312744140625,-0.02215576171875,-0.0182952880859375
1761479852914017500,2.380017578125,-1.0134429931640625,-0.0223846435546875,-0.017486572265625
1761479852924053500,2.390053466796875,-1.0146026611328125,-0.0230255126953125,-0.018035888671875
1761479852934089500,2.40008935546875,-1.01373291015625,-0.02197265625,-0.017547607421875
1761479852944125400,2.41012548828125,-1.01336669921875,-0.021453857421875,-0.0172271728515625
1761479852954161400,2.420161376953125,-1.013519287109375,-0.02239990234375,-0.0175018310546875
1761479852964197400,2.430197265625,-1.0132293701171875,-0.02142333984375,-0.017486572265625
1761479852974233300,2.4402333984375,-1.0146331787109375,-0.02203369140625,-0.017486572265625
1761479852984269300,2.450269287109375,-1.0146484375,-0.0222320556640625,-0.0178070068359375
1761479852994305300,2.46030517578125,-1.0141143798828125,-0.0220489501953125,-0.01690673828125
1761479853004341200,2.47034130859375,-1.013397216796875,-0.0221405029296875,-0.0180816650390625
1761479853014377500,2.48037744140625,-1.013641357421875,-0.0225830078125,-0.0171661376953125
1761479853024413400,2.490413330078125,-1.01385498046875,-0.0216827392578125,-0.0171051025390625
1761479853034448400,2.500448486328125,-1.013153076171875,-0.0220184326171875,-0.0178375244140625
1761479853044484400,2.510484375,-1.0131072998046875,-0.02191162109375,-0.0171966552734375
1761479853054520300,2.520520263671875,-1.0135345458984375,-0.0216064453125,-0.016815185546875
1761479853064556300,2.530556396484375,-1.014251708984375,-0.0228118896484375,-0.0180816650390625
1761479853074592300,2.54059228515625,-1.01397705078125,-0.022125244140625,-0.0176239013671875
1761479853084628200,2.550628173828125,-1.0135498046875,-0.0219573974609375,-0.0167083740234375
1761479853094664400,2.56066455078125,-1.0133514404296875,-0.0227813720703125,-0.01812744140625
1761479853104700400,2.570700439453125,-1.0140380859375,-0.0213623046875,-0.017822265625
1761479853114736400,2.580736328125,-1.01422119140625,-0.0225982666015625,-0.0172271728515625
1761479853124772400,2.5907724609375,-1.014190673828125,-0.0222930908203125,-0.016448974609375
1761479853134808300,2.600808349609375,-1.0134735107421875,-0.0227813720703125,-0.01678466796875
1761479853144844300,2.61084423828125,-1.0131378173828125,-0.0223541259765625,-0.01715087890625
1761479853154880300,2.62088037109375,-1.0135955810546875,-0.0213623046875,-0.01727294921875
1761479853164915200,2.630915283203125,-1.0132904052734375,-0.0225830078125,-0.0179290771484375
1761479853174951400,2.640951416015625,-1.012725830078125,-0.0224761962890625,-0.0177764892578125
1761479853184987400,2.6509873046875,-1.0134429931640625,-0.0213470458984375,-0.0174713134765625
1761479853195023400,2.6610234375,-1.0136871337890625,-0.02252197265625,-0.0169830322265625
1761479853205059300,2.671059326171875,-1.0137939453125,-0.0213623046875,-0.017913818359375
1761479853215095300,2.68109521484375,-1.0141754150390625,-0.02166748046875,-0.016754150390625
1761479853225131300,2.69113134765625,-1.0139007568359375,-0.0216217041015625,-0.0170440673828125
1761479853235167200,2.701167236328125,-1.0133819580078125,-0.0216064453125,-0.017822265625
1761479853245203200,2.711203125,-1.0138092041015625,-0.0221405029296875,-0.0177001953125
1761479853255239200,2.7212392578125,-1.0134429931640625,-0.0215301513671875,-0.0175628662109375
1761479853265275400,2.731275390625,-1.0145111083984375,-0.022735595703125,-0.01788330078125
1761479853275311400,2.741311279296875,-1.01312255859375,-0.0226287841796875,-0.0176544189453125
1761479853285346300,2.75134619140625,-1.01446533203125,-0.0222015380859375,-0.0173797607421875
1761479853295382300,2.76138232421875,-1.013641357421875,-0.0216064453125,-0.0171661376953125
1761479853305418200,2.771418212890625,-1.0133514404296875,-0.02191162109375,-0.0177459716796875
1761479853315454200,2.7814541015625,-1.012725830078125,-0.0217132568359375,-0.0173187255859375
1761479853325490400,2.791490478515625,-1.013916015625,-0.0222930908203125,-0.0178070068359375
1761479853335526400,2.8015263671875,-1.0141754150390625,-0.02264404296875,-0.0169677734375
1761479853345562400,2.811562255859375,-1.01348876953125,-0.022369384765625,-0.01837158203125
1761479853355598300,2.821598388671875,-1.013824462890625,-0.022857666015625,-0.016754150390625
1761479853365634600,2.831634521484375,-1.0144195556640625,-0.02215576171875,-0.0182647705078125
1761479853375670500,2.84167041015625,-1.013885498046875,-0.0225830078125,-0.0184173583984375
1761479853385706500,2.85170654296875,-1.013885498046875,-0.0228271484375,-0.0180816650390625
1761479853395742500,2.861742431640625,-1.0139007568359375,-0.022613525390625,-0.01702880859375
1761479853405777000,2.87177685546875,-1.0142669677734375,-0.0223846435546875,-0.0180816650390625
1761479853415812900,2.881812744140625,-1.014068603515625,-0.0218658447265625,-0.01727294921875
1761479853425849000,2.89184912109375,-1.01348876953125,-0.0213470458984375,-0.017822265625
1761479853435885300,2.90188525390625,-1.0142059326171875,-0.0228118896484375,-0.0179901123046875
1761479853445921300,2.91192138671875,-1.0148468017578125,-0.0217742919921875,-0.01788330078125
1761479853455957200,2.921957275390625,-1.013702392578125,-0.021942138671875,-0.017303466796875
1761479853465993200,2.9319931640625,-1.01361083984375,-0.02203369140625,-0.0175018310546875
1761479853476029200,2.942029296875,-1.0140228271484375,-0.022003173828125,-0.0176544189453125
1761479853486065200,2.952065185546875,-1.013580322265625,-0.022613525390625,-0.0173797607421875
1761479853496101000,2.96210107421875,-1.0126190185546875,-0.022430419921875,-0.017730712890625
1761479853506137000,2.97213720703125,-1.01300048828125,-0.0224609375,-0.0165863037109375
1761479853516173000,2.982173095703125,-1.0140838623046875,-0.0217437744140625,-0.0164337158203125
1761479853526208300,2.992208251953125,-1.013885498046875,-0.02117919921875,-0.0171661376953125
1761479853536244200,3.002244140625,-1.01336669921875,-0.0221099853515625,-0.0171966552734375
1761479853546280200,3.0122802734375,-1.0135345458984375,-0.022064208984375,-0.018585205078125
1761479853556316200,3.022316162109375,-1.012908935546875,-0.02191162109375,-0.017486572265625
1761479853566352100,3.03235205078125,-1.01422119140625,-0.0220489501953125,-0.01763916015625
1761479853576388000,3.04238818359375,-1.0137481689453125,-0.02215576171875,-0.0182647705078125
1761479853586424000,3.052424072265625,-1.0136566162109375,-0.021697998046875,-0.0170440673828125
1761479853596460000,3.0624599609375,-1.013824462890625,-0.0218353271484375,-0.017913818359375
1761479853606496000,3.07249609375,-1.0142974853515625,-0.0218048095703125,-0.01788330078125
1761479853616532000,3.082531982421875,-1.014404296875,-0.0214385986328125,-0.01751708984375
1761479853626568200,3.092568115234375,-1.013397216796875,-0.021636962890625,-0.017822265625
1761479853636604200,3.102604248046875,-1.0141143798828125,-0.0214996337890625,-0.017242431640625
1761479853646639000,3.11263916015625,-1.014404296875,-0.022308349609375,-0.017547607421875
1761479853656675000,3.122675048828125,-1.01361083984375,-0.0223541259765625,-0.017364501953125
1761479853666711000,3.1327109375,-1.014373779296875,-0.0221405029296875,-0.017242431640625
1761479853676747000,3.1427470703125,-1.013946533203125,-0.0217437744140625,-0.017578125
1761479853686783000,3.152782958984375,-1.0141448974609375,-0.0219268798828125,-0.01763916015625
1761479853696819000,3.16281884765625,-1.0142974853515625,-0.0220184326171875,-0.0176239013671875
1761479853706855200,3.172855224609375,-1.0131683349609375,-0.0218048095703125,-0.0168609619140625
1761479853716891100,3.18289111328125,-1.013580322265625,-0.022064208984375,-0.0169677734375
1761479853726927000,3.192927001953125,-1.0145416259765625,-0.0215301513671875,-0.0174560546875
1761479853736963000,3.202963134765625,-1.0149688720703125,-0.0223846435546875,-0.018035888671875
1761479853746999000,3.2129990234375,-1.013702392578125,-0.0227203369140625,-0.0178985595703125
1761479853757035000,3.223034912109375,-1.013641357421875,-0.0223846435546875,-0.01727294921875
1761479853767070000,3.233070068359375,-1.0127410888671875,-0.0220489501953125,-0.0179595947265625
1761479853777106000,3.24310595703125,-1.01416015625,-0.0223388671875,-0.01873779296875
1761479853787142100,3.25314208984375,-1.0140838623046875,-0.02197265625,-0.017303466796875
1761479853797178000,3.26317822265625,-1.0140380859375,-0.0221710205078125,-0.017608642578125
1761479853807214000,3.273214111328125,-1.0140228271484375,-0.022064208984375,-0.017120361328125
1761479853817250000,3.28325,-1.0132598876953125,-0.0224456787109375,-0.0174713134765625
1761479853827286000,3.2932861328125,-1.013946533203125,-0.02252197265625,-0.017059326171875
1761479853837322000,3.303322021484375,-1.0126190185546875,-0.02239990234375,-0.017181396484375
1761479853847358000,3.31335791015625,-1.014068603515625,-0.0218505859375,-0.018157958984375
1761479853857394000,3.323393798828125,-1.0147705078125,-0.02099609375,-0.0171661376953125
1761479853867430000,3.333429931640625,-1.0137176513671875,-0.0225677490234375,-0.0171966552734375
1761479853877465000,3.343465087890625,-1.0134124755859375,-0.02215576171875,-0.018096923828125
1761479853887501000,3.3535009765625,-1.013885498046875,-0.022064208984375,-0.0181121826171875
1761479853897537000,3.363537109375,-1.0136871337890625,-0.0218658447265625,-0.017333984375
1761479853907573000,3.373572998046875,-1.014068603515625,-0.02239990234375,-0.0177764892578125
1761479853917609000,3.38360888671875,-1.0144500732421875,-0.02276611328125,-0.0180206298828125
1761479853927645000,3.39364501953125,-1.013885498046875,-0.02227783203125,-0.017333984375
1761479853937681000,3.403680908203125,-1.01409912109375,-0.0227508544921875,-0.017303466796875
1761479853947717000,3.413717041015625,-1.0139312744140625,-0.02252197265625,-0.017181396484375
1761479853957753000,3.423753173828125,-1.0149993896484375,-0.0219573974609375,-0.017669677734375
1761479853967789000,3.4337890625,-1.0140533447265625,-0.021270751953125,-0.017364501953125
1761479853977825300,3.4438251953125,-1.014739990234375,-0.021759033203125,-0.017425537109375
1761479853987860000,3.45385986328125,-1.014251708984375,-0.0217132568359375,-0.0176239013671875
1761479853997896000,3.46389599609375,-1.0147247314453125,-0.0219268798828125,-0.0177459716796875
1761479854007932200,3.47393212890625,-1.01373291015625,-0.022369384765625,-0.0175933837890625
1761479854017968000,3.483968017578125,-1.014129638671875,-0.0221405029296875,-0.017822265625
1761479854028004000,3.494004150390625,-1.0140838623046875,-0.0219879150390625,-0.017181396484375
1761479854038040000,3.5040400390625,-1.0141143798828125,-0.0221099853515625,-0.017059326171875
1761479854048076000,3.514075927734375,-1.0141754150390625,-0.0221099853515625,-0.0173797607421875
1761479854058112300,3.5241123046875,-1.0141448974609375,-0.02191162109375,-0.017913818359375
1761479854068148200,3.534148193359375,-1.0136260986328125,-0.0219573974609375,-0.0186767578125
1761479854078184200,3.54418408203125,-1.0141448974609375,-0.0222625732421875,-0.0179443359375
1761479854088219100,3.55421923828125,-1.01416015625,-0.022705078125,-0.0184173583984375
1761479854098255000,3.564255126953125,-1.0137176513671875,-0.0225830078125,-0.0182647705078125
1761479854108291000,3.574291015625,-1.014129638671875,-0.0222015380859375,-0.0173797607421875
1761479854118327000,3.5843271484375,-1.0143280029296875,-0.0221099853515625,-0.017608642578125
1761479854128363000,3.594363037109375,-1.01361083984375,-0.02215576171875,-0.0176544189453125
1761479854138399200,3.604399169921875,-1.014007568359375,-0.0221099853515625,-0.0170745849609375
1761479854148435200,3.614435302734375,-1.0140380859375,-0.022674560546875,-0.016693115234375
1761479854158471200,3.62447119140625,-1.01373291015625,-0.02252197265625,-0.01806640625
1761479854168507100,3.634507080078125,-1.0146026611328125,-0.0216217041015625,-0.01824951171875
1761479854178543000,3.644543212890625,-1.0146636962890625,-0.0230712890625,-0.0175628662109375
1761479854188579000,3.6545791015625,-1.013916015625,-0.022705078125,-0.0179443359375
1761479854198614000,3.664614013671875,-1.01318359375,-0.0229949951171875,-0.0181121826171875
1761479854208650200,3.674650146484375,-1.01361083984375,-0.0222625732421875,-0.0173797607421875
1761479854218686200,3.684686279296875,-1.0134124755859375,-0.022674560546875,-0.0177764892578125
1761479854228722200,3.69472216796875,-1.0142669677734375,-0.022613525390625,-0.018524169921875
1761479854238758100,3.704758056640625,-1.013397216796875,-0.0223388671875,-0.0181121826171875
1761479854248794000,3.714794189453125,-1.013916015625,-0.022216796875,-0.0174407958984375
1761479854258830000,3.724830078125,-1.0132293701171875,-0.02166748046875,-0.0177459716796875
1761479854268866000,3.734865966796875,-1.0140838623046875,-0.022369384765625,-0.017547607421875
1761479854278902000,3.744902099609375,-1.01422119140625,-0.0221099853515625,-0.01751708984375
1761479854288938000,3.75493798828125,-1.0147247314453125,-0.0212249755859375,-0.0178070068359375
1761479854298973200,3.76497314453125,-1.015106201171875,-0.0218353271484375,-0.01776123046875
1761479854309009200,3.775009033203125,-1.01422119140625,-0.0227508544921875,-0.0172271728515625
1761479854319045000,3.785045166015625,-1.014007568359375,-0.0227508544921875,-0.0176849365234375
1761479854329081000,3.7950810546875,-1.01287841796875,-0.02197265625,-0.01788330078125
1761479854339117000,3.805116943359375,-1.013641357421875,-0.0216217041015625,-0.01715087890625
1761479854349153000,3.815153076171875,-1.01373291015625,-0.022247314453125,-0.0178375244140625
1761479854359189000,3.82518896484375,-1.013336181640625,-0.0226287841796875,-0.01751708984375
1761479854369225000,3.835224853515625,-1.0141143798828125,-0.022857666015625,-0.017333984375
1761479854379261000,3.845260986328125,-1.0144195556640625,-0.0228729248046875,-0.0171356201171875
1761479854389297000,3.855296875,-1.013763427734375,-0.0221405029296875,-0.0164947509765625
1761479854399332600,3.86533251953125,-1.0142822265625,-0.0223236083984375,-0.0177459716796875
1761479854409368600,3.87536865234375,-1.0150909423828125,-0.0223541259765625,-0.0179901123046875
1761479854419404500,3.885404541015625,-1.013946533203125,-0.0227813720703125,-0.01708984375
1761479854429440500,3.8954404296875,-1.013824462890625,-0.0219879150390625,-0.017181396484375
1761479854439476500,3.9054765625,-1.0131988525390625,-0.021942138671875,-0.0178985595703125
1761479854449512400,3.915512451171875,-1.0144195556640625,-0.021942138671875,-0.0170745849609375
1761479854459548400,3.92554833984375,-1.0135650634765625,-0.022125244140625,-0.0177001953125
1761479854469584400,3.93558447265625,-1.014495849609375,-0.0225067138671875,-0.018035888671875
1761479854479620400,3.945620361328125,-1.0135040283203125,-0.0223541259765625,-0.01678466796875
1761479854489656600,3.955656494140625,-1.013336181640625,-0.0219879150390625,-0.016937255859375
1761479854499691500,3.96569140625,-1.013671875,-0.0220184326171875,-0.017242431640625
1761479854509727500,3.9757275390625,-1.0147705078125,-0.0220184326171875,-0.017242431640625
1761479854519763500,3.985763427734375,-1.0138397216796875,-0.0230255126953125,-0.017852783203125
1761479854529799400,3.99579931640625,-1.014404296875,-0.0216827392578125,-0.0177001953125
1761479854539834600,4.005834716796875,-1.014862060546875,-0.0219879150390625,-0.017913818359375
1761479854549870600,4.01587060546875,-1.013946533203125,-0.0219879150390625,-0.0167083740234375
1761479854559905500,4.025905517578125,-1.013946533203125,-0.0222320556640625,-0.01763916015625
1761479854569941500,4.03594140625,-1.01470947265625,-0.022796630859375,-0.017791748046875
1761479854579977500,4.0459775390625,-1.0131072998046875,-0.02215576171875,-0.018341064453125
1761479854590013400,4.056013427734375,-1.01312255859375,-0.0219573974609375,-0.01776123046875
1761479854600049400,4.06604931640625,-1.0140838623046875,-0.0211639404296875,-0.0176239013671875
1761479854610085400,4.07608544921875,-1.0138397216796875,-0.02264404296875,-0.01751708984375
1761479854620121600,4.08612158203125,-1.0137786865234375,-0.021881103515625,-0.017608642578125
1761479854630157600,4.096157470703125,-1.0145111083984375,-0.0215301513671875,-0.0182342529296875
1761479854640193500,4.106193603515625,-1.0142974853515625,-0.0226287841796875,-0.0175628662109375
1761479854650228500,4.116228515625,-1.0140228271484375,-0.021759033203125,-0.0169219970703125
1761479854660264400,4.126264404296875,-1.014862060546875,-0.02191162109375,-0.0177001953125
1761479854670300400,4.136300537109375,-1.0140838623046875,-0.022003173828125,-0.0174102783203125
1761479854680336400,4.14633642578125,-1.0131988525390625,-0.0218658447265625,-0.0179901123046875
1761479854690372400,4.156372314453125,-1.01422119140625,-0.022369384765625,-0.0182342529296875
1761479854700408600,4.16640869140625,-1.0137481689453125,-0.0228424072265625,-0.017547607421875
1761479854710444800,4.17644482421875,-1.01397705078125,-0.0229644775390625,-0.01739501953125
1761479854720480800,4.186480712890625,-1.0135040283203125,-0.02264404296875,-0.017181396484375
1761479854730516700,4.196516845703125,-1.014251708984375,-0.022552490234375,-0.0171966552734375
1761479854740552700,4.206552734375,-1.01336669921875,-0.0217437744140625,-0.0171051025390625
1761479854750587400,4.21658740234375,-1.0139923095703125,-0.0219573974609375,-0.017333984375
1761479854760623400,4.226623291015625,-1.014862060546875,-0.0225982666015625,-0.0176849365234375
1761479854770659600,4.23665966796875,-1.013519287109375,-0.0222930908203125,-0.0174713134765625
1761479854780695600,4.246695556640625,-1.013671875,-0.0228118896484375,-0.017242431640625
1761479854790731800,4.256731689453125,-1.014251708984375,-0.0224456787109375,-0.0176849365234375
1761479854800767700,4.266767822265625,-1.01483154296875,-0.022857666015625,-0.01763916015625
1761479854810803700,4.2768037109375,-1.0131988525390625,-0.02069091796875,-0.0171966552734375
1761479854820839700,4.286839599609375,-1.0138092041015625,-0.0230560302734375,-0.0171356201171875
1761479854830875600,4.296875732421875,-1.013763427734375,-0.0230255126953125,-0.0179901123046875
1761479854840911600,4.30691162109375,-1.0133819580078125,-0.0218658447265625,-0.017791748046875
1761479854850946600,4.316946533203125,-1.013427734375,-0.02117919921875,-0.017730712890625
1761479854860982800,4.326982666015625,-1.01361083984375,-0.0218048095703125,-0.018157958984375
1761479854871018800,4.337018798828125,-1.0143585205078125,-0.021484375,-0.0179443359375
1761479854881054700,4.3470546875,-1.0139923095703125,-0.02252197265625,-0.018218994140625
1761479854891090700,4.357090576171875,-1.0147857666015625,-0.022491455078125,-0.0164947509765625
1761479854901126700,4.367126708984375,-1.0138702392578125,-0.0220184326171875,-0.017730712890625
1761479854911162600,4.37716259765625,-1.0140533447265625,-0.0219268798828125,-0.017669677734375
1761479854921198600,4.387198486328125,-1.0135345458984375,-0.021514892578125,-0.01702880859375
1761479854931234600,4.397234619140625,-1.0135040283203125,-0.0223236083984375,-0.01788330078125
1761479854941269800,4.407269775390625,-1.01397705078125,-0.02215576171875,-0.0178985595703125
1761479854951305700,4.4173056640625,-1.0142974853515625,-0.0230712890625,-0.0168304443359375
1761479854961341700,4.427341796875,-1.0146331787109375,-0.02252197265625,-0.01715087890625
1761479854971377700,4.437377685546875,-1.01361083984375,-0.021881103515625,-0.01708984375
1761479854981413600,4.44741357421875,-1.0139923095703125,-0.022857666015625,-0.017364501953125
1761479854991449600,4.45744970703125,-1.0145111083984375,-0.022674560546875,-0.017608642578125
1761479855001485600,4.467485595703125,-1.013336181640625,-0.0219268798828125,-0.017425537109375
1761479855011521500,4.477521484375,-1.014404296875,-0.02239990234375,-0.017730712890625
1761479855021557500,4.4875576171875,-1.0136871337890625,-0.022674560546875,-0.0177764892578125
1761479855031592700,4.4975927734375,-1.0136871337890625,-0.022979736328125,-0.0172882080078125
1761479855041628700,4.507628662109375,-1.01416015625,-0.0219573974609375,-0.0179901123046875
1761479855051664600,4.51766455078125,-1.0141448974609375,-0.022216796875,-0.0175323486328125
1761479855061700600,4.52770068359375,-1.01416015625,-0.0229644775390625,-0.01727294921875
1761479855071736600,4.537736572265625,-1.0130615234375,-0.0230560302734375,-0.017669677734375
1761479855081772500,4.5477724609375,-1.0141143798828125,-0.0222625732421875,-0.01776123046875
1761479855091808500,4.55780859375,-1.0133514404296875,-0.0220794677734375,-0.017425537109375
1761479855101844500,4.567844482421875,-1.01312255859375,-0.02117919921875,-0.0168304443359375
1761479855111880400,4.57788037109375,-1.012939453125,-0.0219268798828125,-0.0178070068359375
1761479855121917400,4.58791748046875,-1.0136260986328125,-0.0226898193359375,-0.017486572265625
1761479855131952600,4.59795263671875,-1.013763427734375,-0.0223236083984375,-0.01788330078125
1761479855141988600,4.607988525390625,-1.013671875,-0.0222625732421875,-0.0178680419921875
1761479855152024600,4.618024658203125,-1.0127716064453125,-0.0220794677734375,-0.0179595947265625
1761479855162060500,4.628060546875,-1.013214111328125,-0.0217437744140625,-0.0181427001953125
1761479855172096500,4.638096435546875,-1.0137481689453125,-0.0226898193359375,-0.0167388916015625
1761479855182132500,4.648132568359375,-1.0139923095703125,-0.0221710205078125,-0.017791748046875
1761479855192168400,4.65816845703125,-1.013275146484375,-0.02215576171875,-0.01776123046875
1761479855202204400,4.668204345703125,-1.012542724609375,-0.0215911865234375,-0.0173187255859375
1761479855212240400,4.678240478515625,-1.012908935546875,-0.0218505859375,-0.0185089111328125
1761479855222275600,4.688275634765625,-1.013824462890625,-0.02227783203125,-0.01800537109375
1761479855232311600,4.6983115234375,-1.01446533203125,-0.0228424072265625,-0.0177764892578125
1761479855242347500,4.708347412109375,-1.0125579833984375,-0.0224609375,-0.0179901123046875
1761479855252383500,4.718383544921875,-1.01275634765625,-0.0218048095703125,-0.017730712890625
1761479855262419500,4.72841943359375,-1.0133514404296875,-0.021942138671875,-0.01763916015625
1761479855272455400,4.738455322265625,-1.01397705078125,-0.0218353271484375,-0.016815185546875
1761479855282491600,4.74849169921875,-1.0135650634765625,-0.0222015380859375,-0.0176239013671875
1761479855292527600,4.758527587890625,-1.013946533203125,-0.0223388671875,-0.0181427001953125
1761479855302563600,4.7685634765625,-1.013702392578125,-0.0216064453125,-0.017547607421875
1761479855312599600,4.778599609375,-1.0139007568359375,-0.02203369140625,-0.0174407958984375
1761479855322634500,4.788634521484375,-1.0142059326171875,-0.0220489501953125,-0.017425537109375
1761479855332670700,4.798670654296875,-1.0144805908203125,-0.022125244140625,-0.01824951171875
1761479855342706700,4.808706787109375,-1.0137481689453125,-0.0218505859375,-0.01824951171875
1761479855352742700,4.81874267578125,-1.01409912109375,-0.0223541259765625,-0.0174102783203125
1761479855362778600,4.828778564453125,-1.013336181640625,-0.021942138671875,-0.0170135498046875
1761479855372814600,4.838814697265625,-1.014007568359375,-0.02154541015625,-0.01727294921875
1761479855382850600,4.8488505859375,-1.013702392578125,-0.0214996337890625,-0.01763916015625
1761479855392886500,4.858886474609375,-1.0133514404296875,-0.0216217041015625,-0.017333984375
1761479855402922500,4.868922607421875,-1.0135955810546875,-0.0225677490234375,-0.01678466796875
1761479855412957400,4.87895751953125,-1.014251708984375,-0.0228729248046875,-0.018310546875
1761479855422993400,4.888993408203125,-1.013519287109375,-0.02203369140625,-0.0180206298828125
1761479855433029400,4.899029296875,-1.01251220703125,-0.0219268798828125,-0.017913818359375
1761479855443065300,4.9090654296875,-1.013336181640625,-0.021728515625,-0.017425537109375
1761479855453101300,4.919101318359375,-1.0135650634765625,-0.022186279296875,-0.0169677734375
1761479855463137300,4.92913720703125,-1.0137481689453125,-0.0212860107421875,-0.0177459716796875
1761479855473173500,4.939173583984375,-1.0143890380859375,-0.0229339599609375,-0.0172576904296875
1761479855483209500,4.94920947265625,-1.014007568359375,-0.0228424072265625,-0.0172119140625
1761479855493245700,4.95924560546875,-1.013427734375,-0.0225982666015625,-0.017333984375
1761479855503281700,4.96928173828125,-1.013336181640625,-0.02154541015625,-0.017120361328125
1761479855513316400,4.97931640625,-1.0132293701171875,-0.0219268798828125,-0.0172882080078125
1761479855523352300,4.989352294921875,-1.0132904052734375,-0.0222625732421875,-0.017333984375
1761479855533388300,4.99938818359375,-1.0134735107421875,-0.021148681640625,-0.017578125
1761479855543424500,5.009424560546875,-1.0130615234375,-0.021331787109375,-0.016754150390625
1761479855553460500,5.01946044921875,-1.014251708984375,-0.0221099853515625,-0.0175018310546875
1761479855563496700,5.02949658203125,-1.01336669921875,-0.0216522216796875,-0.017578125
1761479855573532700,5.03953271484375,-1.0142364501953125,-0.0229644775390625,-0.0176849365234375
1761479855583568600,5.049568603515625,-1.013671875,-0.0218658447265625,-0.01715087890625
1761479855593604600,5.0596044921875,-1.0127105712890625,-0.0208282470703125,-0.0175018310546875
1761479855603640600,5.069640625,-1.013519287109375,-0.0217132568359375,-0.0178070068359375
1761479855613675500,5.079675537109375,-1.0142364501953125,-0.0217132568359375,-0.01788330078125
1761479855623711500,5.08971142578125,-1.0128326416015625,-0.0224456787109375,-0.017425537109375
1761479855633747500,5.09974755859375,-1.0136566162109375,-0.0223846435546875,-0.0165557861328125
1761479855643783700,5.10978369140625,-1.0140380859375,-0.022857666015625,-0.0166473388671875
1761479855653819600,5.119819580078125,-1.0139007568359375,-0.021728515625,-0.017059326171875
1761479855663855600,5.129855712890625,-1.013824462890625,-0.0226287841796875,-0.0175933837890625
1761479855673891600,5.1398916015625,-1.013580322265625,-0.021270751953125,-0.017822265625
1761479855683927600,5.149927490234375,-1.014556884765625,-0.0215301513671875,-0.0167999267578125
1761479855693963500,5.159963623046875,-1.0136871337890625,-0.022003173828125,-0.0174713134765625
1761479855703998500,5.16999853515625,-1.01336669921875,-0.02239990234375,-0.0177764892578125
1761479855714034400,5.180034423828125,-1.01422119140625,-0.022308349609375,-0.0179901123046875
1761479855724070700,5.190070556640625,-1.0145416259765625,-0.0211181640625,-0.017608642578125
1761479855734106600,5.200106689453125,-1.01348876953125,-0.0218505859375,-0.017303466796875
1761479855744142600,5.210142578125,-1.0135650634765625,-0.022125244140625,-0.0177459716796875
1761479855754178600,5.220178466796875,-1.0141754150390625,-0.0223541259765625,-0.0174560546875
1761479855764214500,5.230214599609375,-1.01434326171875,-0.0217437744140625,-0.0173492431640625
1761479855774250500,5.24025048828125,-1.0142059326171875,-0.0219879150390625,-0.0172882080078125
1761479855784286500,5.250286376953125,-1.0137786865234375,-0.0228118896484375,-0.01763916015625
1761479855794322400,5.260322509765625,-1.01318359375,-0.0224456787109375,-0.0171661376953125
1761479855804357600,5.270357666015625,-1.013336181640625,-0.022247314453125,-0.0179290771484375
1761479855814393600,5.2803935546875,-1.013916015625,-0.0222015380859375,-0.017364501953125
1761479855824429600,5.2904296875,-1.013885498046875,-0.0227203369140625,-0.0174560546875
1761479855834465500,5.300465576171875,-1.014892578125,-0.0219573974609375,-0.01751708984375
1761479855844501500,5.31050146484375,-1.01470947265625,-0.0222015380859375,-0.01739501953125
1761479855854537500,5.320537353515625,-1.013641357421875,-0.02191162109375,-0.0171356201171875
1761479855864573400,5.330573486328125,-1.0130615234375,-0.0221710205078125,-0.0168609619140625
1761479855874609400,5.340609375,-1.01287841796875,-0.0215606689453125,-0.0178985595703125
1761479855884645400,5.350645263671875,-1.0126495361328125,-0.02276611328125,-0.017730712890625
1761479855894680600,5.3606806640625,-1.013214111328125,-0.022308349609375,-0.01763916015625
1761479855904716500,5.370716552734375,-1.0139617919921875,-0.022003173828125,-0.018157958984375
1761479855914752500,5.38075244140625,-1.0140533447265625,-0.0222930908203125,-0.0176849365234375
1761479855924788500,5.39078857421875,-1.012451171875,-0.0222625732421875,-0.0174102783203125
1761479855934824400,5.400824462890625,-1.013702392578125,-0.02197265625,-0.0178070068359375
1761479855944860400,5.4108603515625,-1.013946533203125,-0.02166748046875,-0.017364501953125
1761479855954896400,5.420896484375,-1.0138397216796875,-0.0224761962890625,-0.01788330078125
1761479855964932400,5.430932373046875,-1.01483154296875,-0.0220184326171875,-0.0177764892578125
1761479855974968300,5.44096826171875,-1.0138397216796875,-0.0220489501953125,-0.0182037353515625
1761479855985003500,5.45100341796875,-1.0130767822265625,-0.02142333984375,-0.0180511474609375
1761479855995039500,5.46103955078125,-1.0142669677734375,-0.022003173828125,-0.018035888671875
1761479856005075500,5.471075439453125,-1.014892578125,-0.0220489501953125,-0.017425537109375
1761479856015111400,5.481111328125,-1.0138702392578125,-0.021728515625,-0.01824951171875
1761479856025147400,5.4911474609375,-1.013458251953125,-0.0220489501953125,-0.017303466796875
1761479856035183400,5.501183349609375,-1.0128326416015625,-0.021575927734375,-0.017059326171875
1761479856045219300,5.51121923828125,-1.0135345458984375,-0.0214385986328125,-0.0179901123046875
1761479856055255300,5.52125537109375,-1.01300048828125,-0.022064208984375,-0.01763916015625
1761479856065291500,5.53129150390625,-1.0143280029296875,-0.0211639404296875,-0.017547607421875
1761479856075327500,5.541327392578125,-1.0136260986328125,-0.021820068359375,-0.0173492431640625
1761479856085362400,5.551362548828125,-1.0132598876953125,-0.0218353271484375,-0.01776123046875
1761479856095398400,5.5613984375,-1.013092041015625,-0.0220947265625,-0.0178375244140625
1761479856105434400,5.571434326171875,-1.012939453125,-0.0229034423828125,-0.0175628662109375
1761479856115470300,5.58147021484375,-1.0147247314453125,-0.023590087890625,-0.01763916015625
1761479856125506300,5.59150634765625,-1.0140533447265625,-0.02294921875,-0.0172119140625
1761479856135542300,5.601542236328125,-1.0141754150390625,-0.0218353271484375,-0.01708984375
1761479856145578500,5.61157861328125,-1.0138092041015625,-0.0220947265625,-0.017425537109375
1761479856155614500,5.621614501953125,-1.013824462890625,-0.02203369140625,-0.0176239013671875
1761479856165649400,5.6316494140625,-1.0142059326171875,-0.021392822265625,-0.0177459716796875
1761479856175685400,5.641685302734375,-1.0147552490234375,-0.0222625732421875,-0.01708984375
1761479856185721300,5.651721435546875,-1.01348876953125,-0.0219268798828125,-0.0172119140625
1761479856195757300,5.66175732421875,-1.012359619140625,-0.0216064453125,-0.0177154541015625
1761479856205793300,5.671793212890625,-1.013092041015625,-0.0212554931640625,-0.018341064453125
1761479856215829200,5.681829345703125,-1.014129638671875,-0.02227783203125,-0.0179901123046875
1761479856225865700,5.69186572265625,-1.0138397216796875,-0.0229034423828125,-0.017730712890625
1761479856235901700,5.701901611328125,-1.014617919921875,-0.021484375,-0.01763916015625
1761479856245937700,5.711937744140625,-1.01483154296875,-0.02178955078125,-0.0167694091796875
1761479856255972400,5.721972412109375,-1.012481689453125,-0.02215576171875,-0.0175933837890625
1761479856266008300,5.73200830078125,-1.012420654296875,-0.0222015380859375,-0.0177154541015625
1761479856276044500,5.74204443359375,-1.0140380859375,-0.02239990234375,-0.0169525146484375
1761479856286080500,5.75208056640625,-1.0136260986328125,-0.022216796875,-0.0177001953125
1761479856296116500,5.762116455078125,-1.014007568359375,-0.022369384765625,-0.0173492431640625
1761479856306152700,5.772152587890625,-1.0139617919921875,-0.0219268798828125,-0.0177459716796875
1761479856316188700,5.782188720703125,-1.014617919921875,-0.0219879150390625,-0.01788330078125
1761479856326224600,5.792224609375,-1.014190673828125,-0.022247314453125,-0.0175628662109375
1761479856336260600,5.802260498046875,-1.013916015625,-0.021270751953125,-0.017120361328125
1761479856346295600,5.812295654296875,-1.0129852294921875,-0.022216796875,-0.017578125
1761479856356331500,5.82233154296875,-1.0135498046875,-0.022247314453125,-0.017791748046875
1761479856366367500,5.832367431640625,-1.0136566162109375,-0.0218505859375,-0.01727294921875
1761479856376403500,5.842403564453125,-1.0132598876953125,-0.0226898193359375,-0.017578125
1761479856386439700,5.852439697265625,-1.013702392578125,-0.0227508544921875,-0.01715087890625
1761479856396475600,5.8624755859375,-1.013336181640625,-0.021942138671875,-0.0171966552734375
1761479856406511600,5.87251171875,-1.013336181640625,-0.02166748046875,-0.01751708984375
1761479856416547600,5.882547607421875,-1.014190673828125,-0.0213165283203125,-0.01763916015625
1761479856426583600,5.89258349609375,-1.014404296875,-0.021636962890625,-0.017852783203125
1761479856436618200,5.9026181640625,-1.013153076171875,-0.02203369140625,-0.0178680419921875
1761479856446654500,5.912654541015625,-1.0143280029296875,-0.0213470458984375,-0.0180511474609375
1761479856456690400,5.9226904296875,-1.01336669921875,-0.022613525390625,-0.01806640625
1761479856466726700,5.9327265625,-1.013641357421875,-0.0212860107421875,-0.017120361328125
1761479856476762600,5.9427626953125,-1.0148773193359375,-0.0214385986328125,-0.0174560546875
1761479856486798600,5.952798583984375,-1.01422119140625,-0.0225067138671875,-0.0172882080078125
1761479856496834600,5.96283447265625,-1.0134735107421875,-0.0223541259765625,-0.0172119140625
1761479856506870500,5.97287060546875,-1.0136871337890625,-0.0214996337890625,-0.0174102783203125
1761479856516906500,5.982906494140625,-1.014312744140625,-0.02178955078125,-0.0169525146484375
1761479856526941400,5.99294140625,-1.0135650634765625,-0.0224761962890625,-0.0185089111328125
1761479856536977400,6.002977294921875,-1.01318359375,-0.0224151611328125,-0.01739501953125
1761479856547013600,6.013013671875,-1.013153076171875,-0.022369384765625,-0.0176849365234375
1761479856557049600,6.023049560546875,-1.014312744140625,-0.0218658447265625,-0.0170745849609375
1761479856567085600,6.03308544921875,-1.014495849609375,-0.022064208984375,-0.0174102783203125
1761479856577121500,6.04312158203125,-1.0129241943359375,-0.0217742919921875,-0.017303466796875
1761479856587157500,6.053157470703125,-1.013580322265625,-0.02178955078125,-0.01788330078125
1761479856597193500,6.063193359375,-1.01434326171875,-0.0216827392578125,-0.0187225341796875
1761479856607228400,6.073228515625,-1.0133819580078125,-0.0227813720703125,-0.017822265625
1761479856617264400,6.083264404296875,-1.013641357421875,-0.0218505859375,-0.017242431640625
1761479856627300600,6.093300537109375,-1.0144500732421875,-0.021942138671875,-0.0178070068359375
1761479856637336600,6.103336669921875,-1.0138397216796875,-0.02203369140625,-0.0180816650390625
1761479856647372500,6.11337255859375,-1.0145416259765625,-0.022216796875,-0.017730712890625
1761479856657408500,6.123408447265625,-1.0143890380859375,-0.0220184326171875,-0.0177001953125
1761479856667444500,6.133444580078125,-1.014007568359375,-0.02203369140625,-0.0182037353515625
1761479856677480400,6.14348046875,-1.0135345458984375,-0.0218505859375,-0.0175933837890625
1761479856687516400,6.153516357421875,-1.013427734375,-0.0219879150390625,-0.0173187255859375
1761479856697551600,6.163551513671875,-1.013275146484375,-0.021270751953125,-0.017425537109375
1761479856707587600,6.173587646484375,-1.014312744140625,-0.0222320556640625,-0.0177459716796875
1761479856717623600,6.18362353515625,-1.0133056640625,-0.0224151611328125,-0.0174407958984375
1761479856727659500,6.193659423828125,-1.0135955810546875,-0.021270751953125,-0.0180816650390625
1761479856737695500,6.203695556640625,-1.01385498046875,-0.02142333984375,-0.0170745849609375
1761479856747731500,6.2137314453125,-1.0146942138671875,-0.0211944580078125,-0.0177001953125
1761479856757767400,6.223767333984375,-1.0135345458984375,-0.0219573974609375,-0.018096923828125
1761479856767803400,6.233803466796875,-1.0145416259765625,-0.0224151611328125,-0.0177154541015625
1761479856777838600,6.243838623046875,-1.0139007568359375,-0.0216522216796875,-0.0181732177734375
1761479856787874600,6.25387451171875,-1.0128326416015625,-0.0220947265625,-0.017730712890625
1761479856797910500,6.26391064453125,-1.0147552490234375,-0.0220794677734375,-0.0174560546875
1761479856807946500,6.273946533203125,-1.0142822265625,-0.022125244140625,-0.017913818359375
1761479856817982500,6.283982421875,-1.01385498046875,-0.021881103515625,-0.018341064453125
1761479856828018400,6.294018310546875,-1.014068603515625,-0.0218353271484375,-0.0183563232421875
1761479856838054400,6.304054443359375,-1.0135498046875,-0.0216827392578125,-0.0175933837890625
1761479856848090400,6.31409033203125,-1.01416015625,-0.0213165283203125,-0.0176849365234375
1761479856858125600,6.32412548828125,-1.013458251953125,-0.0222625732421875,-0.0173797607421875
1761479856868161500,6.33416162109375,-1.0141143798828125,-0.021881103515625,-0.01708984375
1761479856878197500,6.344197509765625,-1.013580322265625,-0.021759033203125,-0.0175628662109375
1761479856888233500,6.3542333984375,-1.0129852294921875,-0.021728515625,-0.017791748046875
1761479856898269400,6.36426953125,-1.01318359375,-0.0219879150390625,-0.0176239013671875
1761479856908305400,6.374305419921875,-1.01397705078125,-0.0217132568359375,-0.017608642578125
1761479856918341400,6.38434130859375,-1.0140533447265625,-0.02191162109375,-0.01800537109375
1761479856928377300,6.39437744140625,-1.0137176513671875,-0.021697998046875,-0.0177764892578125
1761479856938413300,6.404413330078125,-1.0133514404296875,-0.0213623046875,-0.01812744140625
1761479856948448500,6.414448486328125,-1.0134429931640625,-0.021575927734375,-0.01776123046875
1761479856958484500,6.424484375,-1.0133209228515625,-0.022186279296875,-0.017181396484375
1761479856968520400,6.4345205078125,-1.0136566162109375,-0.0217132568359375,-0.0174102783203125
1761479856978556400,6.444556396484375,-1.013519287109375,-0.02252197265625,-0.017730712890625
1761479856988592400,6.45459228515625,-1.0139617919921875,-0.0219268798828125,-0.0177764892578125
1761479856998628400,6.46462841796875,-1.0136566162109375,-0.02301025390625,-0.017303466796875
1761479857008664300,6.474664306640625,-1.0139312744140625,-0.021636962890625,-0.0174560546875
1761479857018700300,6.4847001953125,-1.013916015625,-0.022430419921875,-0.017059326171875
1761479857028735500,6.494735595703125,-1.0140380859375,-0.0220184326171875,-0.0179595947265625
1761479857038771500,6.504771484375,-1.0140838623046875,-0.0223846435546875,-0.0174407958984375
1761479857048807400,6.514807373046875,-1.01416015625,-0.0224151611328125,-0.0167694091796875
1761479857058843400,6.524843505859375,-1.0139923095703125,-0.0218963623046875,-0.0179443359375
1761479857068879400,6.53487939453125,-1.013519287109375,-0.0215606689453125,-0.017181396484375
1761479857078915300,6.544915283203125,-1.0137939453125,-0.02264404296875,-0.018157958984375
1761479857088951300,6.554951416015625,-1.0146484375,-0.0224456787109375,-0.017913818359375
1761479857098987300,6.5649873046875,-1.013671875,-0.02203369140625,-0.0171661376953125
1761479857109022500,6.5750224609375,-1.0140228271484375,-0.02239990234375,-0.0179443359375
1761479857119058400,6.585058349609375,-1.013824462890625,-0.021728515625,-0.0166778564453125
1761479857129094400,6.595094482421875,-1.0141754150390625,-0.0226593017578125,-0.0174560546875
1761479857139130400,6.60513037109375,-1.0133514404296875,-0.0226593017578125,-0.0178375244140625
1761479857149166300,6.615166259765625,-1.0133819580078125,-0.0218963623046875,-0.0182342529296875
1761479857159202300,6.625202392578125,-1.0142669677734375,-0.0220794677734375,-0.0177764892578125
1761479857169238300,6.63523828125,-1.013153076171875,-0.0220947265625,-0.016876220703125
1761479857179273500,6.6452734375,-1.0145111083984375,-0.0222015380859375,-0.01800537109375
1761479857189309400,6.655309326171875,-1.014739990234375,-0.021697998046875,-0.0177764892578125
1761479857199345400,6.665345458984375,-1.015045166015625,-0.022491455078125,-0.0178375244140625
1761479857209381400,6.67538134765625,-1.0129241943359375,-0.022491455078125,-0.017303466796875
1761479857219417300,6.685417236328125,-1.0135650634765625,-0.0223388671875,-0.017730712890625
1761479857229453600,6.69545361328125,-1.0138092041015625,-0.022430419921875,-0.01812744140625
1761479857239489500,6.705489501953125,-1.01409912109375,-0.022918701171875,-0.018035888671875
1761479857249525500,6.715525390625,-1.0139923095703125,-0.0222320556640625,-0.0183868408203125
1761479857259560400,6.725560546875,-1.0129852294921875,-0.022247314453125,-0.0179595947265625
1761479857269596400,6.735596435546875,-1.0124053955078125,-0.02215576171875,-0.01763916015625
1761479857279632400,6.74563232421875,-1.014495849609375,-0.021636962890625,-0.018280029296875
1761479857289668600,6.755668701171875,-1.013916015625,-0.02301025390625,-0.0181427001953125
1761479857299704600,6.76570458984375,-1.01324462890625,-0.0222930908203125,-0.017852783203125
1761479857309740500,6.775740478515625,-1.0125579833984375,-0.0221405029296875,-0.017669677734375
1761479857319776500,6.785776611328125,-1.0131378173828125,-0.0220184326171875,-0.0178985595703125
1761479857329812500,6.7958125,-1.0139923095703125,-0.0232391357421875,-0.0175018310546875
1761479857339847700,6.80584765625,-1.0130767822265625,-0.023040771484375,-0.017913818359375
1761479857349883600,6.815883544921875,-1.0129852294921875,-0.0222015380859375,-0.0178375244140625
1761479857359919600,6.825919677734375,-1.01336669921875,-0.0223236083984375,-0.017333984375
1761479857369955600,6.83595556640625,-1.013214111328125,-0.022003173828125,-0.0167083740234375
1761479857379991600,6.845991455078125,-1.01287841796875,-0.021240234375,-0.0177459716796875
1761479857390027500,6.856027587890625,-1.0130767822265625,-0.02215576171875,-0.017822265625
1761479857400063500,6.8660634765625,-1.0146942138671875,-0.0218353271484375,-0.0174102783203125
1761479857410099500,6.876099365234375,-1.0133514404296875,-0.0224761962890625,-0.0169525146484375
1761479857420134700,6.886134765625,-1.0135955810546875,-0.0225830078125,-0.017059326171875
1761479857430170600,6.896170654296875,-1.014495849609375,-0.0211944580078125,-0.0175018310546875
1761479857440206600,6.90620654296875,-1.0142974853515625,-0.022613525390625,-0.016937255859375
1761479857450242600,6.91624267578125,-1.0147247314453125,-0.0221710205078125,-0.017974853515625
1761479857460278500,6.926278564453125,-1.0135650634765625,-0.021270751953125,-0.017303466796875
1761479857470314500,6.936314453125,-1.0124664306640625,-0.023956298828125,-0.0177459716796875
1761479857480350500,6.9463505859375,-1.014801025390625,-0.0228118896484375,-0.0181884765625
1761479857490386400,6.956386474609375,-1.0146484375,-0.0213165283203125,-0.01806640625
1761479857500421600,6.966421630859375,-1.013946533203125,-0.0217132568359375,-0.0176544189453125
1761479857510457600,6.97645751953125,-1.0138397216796875,-0.0218963623046875,-0.0173187255859375
1761479857520493600,6.98649365234375,-1.0136260986328125,-0.0223541259765625,-0.017242431640625
1761479857530529500,6.996529541015625,-1.01361083984375,-0.022430419921875,-0.0176544189453125
1761479857540565500,7.0065654296875,-1.0133056640625,-0.022735595703125,-0.0179443359375
1761479857550601500,7.0166015625,-1.0137481689453125,-0.021881103515625,-0.0175933837890625
1761479857560637400,7.026637451171875,-1.01312255859375,-0.0217437744140625,-0.0177001953125
1761479857570673400,7.03667333984375,-1.0137786865234375,-0.0221405029296875,-0.0182342529296875
1761479857580708600,7.04670849609375,-1.013885498046875,-0.0214385986328125,-0.01708984375
1761479857590744600,7.05674462890625,-1.0136260986328125,-0.0219879150390625,-0.01763916015625
1761479857600780500,7.066780517578125,-1.0146484375,-0.0218505859375,-0.0173797607421875
1761479857610816500,7.07681640625,-1.0134735107421875,-0.0229034423828125,-0.0175018310546875
1761479857620852500,7.0868525390625,-1.0138092041015625,-0.022979736328125,-0.017913818359375
1761479857630888400,7.096888427734375,-1.0137481689453125,-0.0219573974609375,-0.017913818359375
1761479857640924400,7.10692431640625,-1.014068603515625,-0.021636962890625,-0.018585205078125
1761479857650959600,7.116959716796875,-1.013427734375,-0.0220947265625,-0.0181427001953125
1761479857660995600,7.12699560546875,-1.012969970703125,-0.02154541015625,-0.0179901123046875
1761479857671031600,7.137031494140625,-1.014190673828125,-0.022369384765625,-0.0174407958984375
1761479857681067500,7.147067626953125,-1.0130157470703125,-0.023162841796875,-0.0171051025390625
1761479857691103500,7.157103515625,-1.0137939453125,-0.021942138671875,-0.017913818359375
1761479857701139500,7.167139404296875,-1.0139617919921875,-0.0230712890625,-0.0179901123046875
1761479857711175400,7.177175537109375,-1.0137176513671875,-0.0226898193359375,-0.017333984375
1761479857721211400,7.18721142578125,-1.0131988525390625,-0.021514892578125,-0.0175628662109375
1761479857731246600,7.19724658203125,-1.0138702392578125,-0.022247314453125,-0.0175323486328125
1761479857741282600,7.207282470703125,-1.01458740234375,-0.0221710205078125,-0.0174713134765625
1761479857751318500,7.217318603515625,-1.0142059326171875,-0.0225677490234375,-0.0180816650390625
1761479857761354500,7.2273544921875,-1.014129638671875,-0.023101806640625,-0.0176239013671875
1761479857771390500,7.237390380859375,-1.014678955078125,-0.0213623046875,-0.01806640625
1761479857781426400,7.247426513671875,-1.0129547119140625,-0.0211944580078125,-0.0175323486328125
1761479857791462400,7.25746240234375,-1.01397705078125,-0.0215606689453125,-0.0179595947265625
1761479857801497300,7.267497314453125,-1.013214111328125,-0.0218658447265625,-0.017181396484375
1761479857811533600,7.277533447265625,-1.0130462646484375,-0.022369384765625,-0.017913818359375
1761479857821569500,7.287569580078125,-1.0135498046875,-0.0211181640625,-0.0175933837890625
1761479857831605500,7.29760546875,-1.014312744140625,-0.0222320556640625,-0.0175933837890625
1761479857841641500,7.307641357421875,-1.0139923095703125,-0.0216217041015625,-0.017852783203125
1761479857851677400,7.317677490234375,-1.0146484375,-0.021392822265625,-0.0174713134765625
1761479857861713400,7.32771337890625,-1.013458251953125,-0.0218353271484375,-0.0173187255859375
1761479857871748400,7.337748291015625,-1.0130157470703125,-0.021575927734375,-0.017730712890625
1761479857881784300,7.347784423828125,-1.0145263671875,-0.02178955078125,-0.0183258056640625
1761479857891820500,7.357820556640625,-1.01397705078125,-0.02142333984375,-0.0171966552734375
1761479857901856500,7.3678564453125,-1.013275146484375,-0.02197265625,-0.0178985595703125
1761479857911892500,7.377892578125,-1.0138092041015625,-0.0218658447265625,-0.0173797607421875
1761479857921928400,7.387928466796875,-1.0144805908203125,-0.0214385986328125,-0.0175323486328125
1761479857931964400,7.39796435546875,-1.01361083984375,-0.0222625732421875,-0.0174407958984375
1761479857942000400,7.40800048828125,-1.01409912109375,-0.021881103515625,-0.0167236328125
1761479857952035300,7.418035400390625,-1.0142974853515625,-0.0220947265625,-0.01763916015625
1761479857962071300,7.4280712890625,-1.013427734375,-0.02239990234375,-0.0181121826171875
1761479857972107500,7.438107421875,-1.014190673828125,-0.02166748046875,-0.01776123046875
1761479857982143500,7.4481435546875,-1.014007568359375,-0.02099609375,-0.01715087890625
1761479857992179500,7.458179443359375,-1.01373291015625,-0.0226593017578125,-0.017547607421875
1761479858002215400,7.46821533203125,-1.0138092041015625,-0.02197265625,-0.0172271728515625
1761479858012251400,7.47825146484375,-1.0134429931640625,-0.022125244140625,-0.01776123046875
1761479858022286300,7.488286376953125,-1.0137786865234375,-0.0215606689453125,-0.017730712890625
1761479858032322300,7.498322265625,-1.014312744140625,-0.02154541015625,-0.01812744140625
1761479858042358300,7.508358154296875,-1.0133056640625,-0.0226287841796875,-0.0173492431640625
1761479858052394500,7.51839453125,-1.0137939453125,-0.0222930908203125,-0.0182037353515625
1761479858062430500,7.528430419921875,-1.013885498046875,-0.0228118896484375,-0.0177764892578125
1761479858072466400,7.538466552734375,-1.0135498046875,-0.0226898193359375,-0.0165252685546875
1761479858082502400,7.54850244140625,-1.0146026611328125,-0.022216796875,-0.0178985595703125
1761479858092538400,7.558538330078125,-1.014068603515625,-0.02227783203125,-0.017364501953125
1761479858102573300,7.5685732421875,-1.0139617919921875,-0.0230865478515625,-0.0173492431640625
1761479858112609300,7.578609375,-1.0138702392578125,-0.0223388671875,-0.018035888671875
1761479858122645500,7.5886455078125,-1.01458740234375,-0.021270751953125,-0.0172271728515625
1761479858132681500,7.598681396484375,-1.0138397216796875,-0.021820068359375,-0.0169677734375
1761479858142717400,7.608717529296875,-1.013946533203125,-0.0224609375,-0.0182647705078125
1761479858152753400,7.61875341796875,-1.01202392578125,-0.022552490234375,-0.0171966552734375
1761479858162789400,7.628789306640625,-1.0125885009765625,-0.0214385986328125,-0.01763916015625
1761479858172824300,7.63882421875,-1.0136566162109375,-0.0224761962890625,-0.01763916015625
1761479858182860300,7.6488603515625,-1.013519287109375,-0.0226593017578125,-0.0169830322265625
1761479858192896300,7.658896240234375,-1.014556884765625,-0.0223236083984375,-0.0180816650390625
1761479858202932500,7.668932373046875,-1.013031005859375,-0.0225067138671875,-0.0171966552734375
1761479858212968400,7.678968505859375,-1.0138092041015625,-0.021026611328125,-0.01715087890625
1761479858223004400,7.68900439453125,-1.0149078369140625,-0.0212249755859375,-0.0170745849609375
1761479858233040400,7.699040283203125,-1.0151214599609375,-0.0218505859375,-0.0175933837890625
1761479858243075300,7.709075439453125,-1.01385498046875,-0.0221710205078125,-0.0169677734375
1761479858253111300,7.719111328125,-1.013824462890625,-0.023040771484375,-0.0174102783203125
1761479858263147300,7.729147216796875,-1.0133514404296875,-0.0218505859375,-0.0178985595703125
1761479858273183200,7.739183349609375,-1.01446533203125,-0.0220184326171875,-0.0180816650390625
1761479858283219500,7.749219482421875,-1.014129638671875,-0.0222625732421875,-0.01739501953125
1761479858293255400,7.75925537109375,-1.0136566162109375,-0.0221099853515625,-0.0178680419921875
1761479858303291600,7.769291748046875,-1.0131378173828125,-0.0219879150390625,-0.0179595947265625
1761479858313326300,7.779326416015625,-1.013671875,-0.02288818359375,-0.017303466796875
1761479858323362300,7.7893623046875,-1.0130767822265625,-0.0225372314453125,-0.0183563232421875
1761479858333398300,7.799398193359375,-1.0134735107421875,-0.022186279296875,-0.017913818359375
1761479858343434200,7.809434326171875,-1.0138092041015625,-0.02252197265625,-0.01708984375
1761479858353470500,7.819470458984375,-1.0139923095703125,-0.02203369140625,-0.01849365234375
1761479858363506400,7.82950634765625,-1.0130462646484375,-0.0222015380859375,-0.0184783935546875
1761479858373542700,7.839542724609375,-1.0136871337890625,-0.0220947265625,-0.017486572265625
1761479858383577300,7.849577392578125,-1.0140533447265625,-0.0220947265625,-0.0176544189453125
1761479858393613300,7.85961328125,-1.014434814453125,-0.0222625732421875,-0.017791748046875
1761479858403649000,7.86964892578125,-1.0140533447265625,-0.0220184326171875,-0.0182952880859375
1761479858413685000,7.87968505859375,-1.0131683349609375,-0.0229034423828125,-0.0179290771484375
1761479858423721000,7.889720947265625,-1.01275634765625,-0.0223236083984375,-0.017852783203125
1761479858433757200,7.899757080078125,-1.012939453125,-0.022186279296875,-0.017120361328125
1761479858443793200,7.909793212890625,-1.0145416259765625,-0.022186279296875,-0.016937255859375
1761479858453828000,7.919828125,-1.0128326416015625,-0.0217437744140625,-0.0178070068359375
1761479858463864000,7.929864013671875,-1.0146636962890625,-0.0225830078125,-0.017303466796875
1761479858473900000,7.939900146484375,-1.0144500732421875,-0.0224609375,-0.0175018310546875
1761479858483936000,7.94993603515625,-1.01348876953125,-0.021514892578125,-0.0177764892578125
1761479858493972000,7.959971923828125,-1.01373291015625,-0.0222015380859375,-0.0173492431640625
1761479858504008000,7.970008056640625,-1.0142974853515625,-0.021728515625,-0.0176239013671875
1761479858514044200,7.980044189453125,-1.01385498046875,-0.02301025390625,-0.017852783203125
1761479858524079000,7.9900791015625,-1.013336181640625,-0.0223236083984375,-0.017974853515625
1761479858534115000,8.000114990234374,-1.01361083984375,-0.02130126953125,-0.0174407958984375
1761479858544149800,8.010149658203124,-1.0136260986328125,-0.0226898193359375,-0.0176544189453125
1761479858554186000,8.02018603515625,-1.013916015625,-0.0225372314453125,-0.0183258056640625
1761479858564222200,8.03022216796875,-1.01336669921875,-0.023101806640625,-0.0181884765625
1761479858574258200,8.040258056640624,-1.01385498046875,-0.0221099853515625,-0.01715087890625
1761479858584294100,8.050294189453124,-1.0143280029296875,-0.0225067138671875,-0.0176544189453125
1761479858594328800,8.060328857421876,-1.013641357421875,-0.02252197265625,-0.0169219970703125
1761479858604364800,8.07036474609375,-1.0139617919921875,-0.021881103515625,-0.016998291015625
1761479858614401000,8.080401123046874,-1.014129638671875,-0.021759033203125,-0.0177764892578125
1761479858624437000,8.09043701171875,-1.0143280029296875,-0.02252197265625,-0.018096923828125
1761479858634473000,8.100472900390624,-1.0150909423828125,-0.0207672119140625,-0.0174407958984375
1761479858644509200,8.11050927734375,-1.0135498046875,-0.022552490234375,-0.018280029296875
1761479858654545200,8.120545166015624,-1.01318359375,-0.0221405029296875,-0.017822265625
1761479858664580000,8.130580078125,-1.012603759765625,-0.0219268798828125,-0.017822265625
1761479858674616000,8.140615966796876,-1.013519287109375,-0.021728515625,-0.017486572265625
1761479858684652000,8.150652099609376,-1.0137939453125,-0.0225982666015625,-0.0179901123046875
1761479858694688000,8.16068798828125,-1.01373291015625,-0.0218048095703125,-0.0178680419921875
1761479858704724000,8.170723876953126,-1.012939453125,-0.0216827392578125,-0.0172882080078125
1761479858714760200,8.18076025390625,-1.013763427734375,-0.02197265625,-0.017181396484375
1761479858724796200,8.190796142578124,-1.0131378173828125,-0.0221099853515625,-0.0171661376953125
1761479858734831000,8.2008310546875,-1.01336669921875,-0.021484375,-0.0186767578125
1761479858744867000,8.2108671875,-1.01416015625,-0.02227783203125,-0.0182037353515625
1761479858754903000,8.220903076171876,-1.0127716064453125,-0.022430419921875,-0.0176239013671875
1761479858764939000,8.23093896484375,-1.0135498046875,-0.0228271484375,-0.0172882080078125
1761479858774975000,8.24097509765625,-1.0137481689453125,-0.0226287841796875,-0.0178070068359375
1761479858785011000,8.251010986328126,-1.013336181640625,-0.0218658447265625,-0.0171966552734375
1761479858795047200,8.261047119140626,-1.0133209228515625,-0.022308349609375,-0.0173797607421875
1761479858805082000,8.27108203125,-1.012786865234375,-0.0228271484375,-0.017974853515625
1761479858815118000,8.2811181640625,-1.0130767822265625,-0.0220489501953125,-0.017608642578125
1761479858825154000,8.291154052734376,-1.0140838623046875,-0.0224761962890625,-0.018280029296875
1761479858835190000,8.30118994140625,-1.013214111328125,-0.0226593017578125,-0.018157958984375
1761479858845226000,8.31122607421875,-1.014892578125,-0.02178955078125,-0.0171356201171875
1761479858855262000,8.321261962890626,-1.0139617919921875,-0.021942138671875,-0.0177764892578125
1761479858865298000,8.3312978515625,-1.014007568359375,-0.0223541259765625,-0.0180206298828125
1761479858875333000,8.3413330078125,-1.014190673828125,-0.022735595703125,-0.017578125
1761479858885369000,8.351369140625,-1.0131072998046875,-0.02239990234375,-0.0179595947265625
1761479858895405000,8.361405029296876,-1.0140228271484375,-0.02276611328125,-0.0182647705078125
1761479858905441000,8.37144091796875,-1.013641357421875,-0.022979736328125,-0.01739501953125
1761479858915477000,8.38147705078125,-1.013519287109375,-0.0222320556640625,-0.0178985595703125
1761479858925513000,8.391512939453126,-1.0120086669921875,-0.0218963623046875,-0.0172271728515625
1761479858935548200,8.401548095703125,-1.0120086669921875,-0.022430419921875,-0.01776123046875
1761479858945584000,8.411584228515625,-1.01300048828125,-0.022186279296875,-0.01776123046875
1761479858955620000,8.4216201171875,-1.01287841796875,-0.0227508544921875,-0.0171661376953125
1761479858965656000,8.431656005859375,-1.013427734375,-0.0216064453125,-0.016632080078125
1761479858975692000,8.441692138671876,-1.014007568359375,-0.0219573974609375,-0.016937255859375
1761479858985728000,8.45172802734375,-1.0142364501953125,-0.022247314453125,-0.01751708984375
1761479858995764000,8.461763916015625,-1.013824462890625,-0.0215606689453125,-0.017486572265625
1761479859005799200,8.471799072265625,-1.0133819580078125,-0.0221405029296875,-0.0167999267578125
1761479859015835100,8.481835205078125,-1.0130462646484375,-0.0228118896484375,-0.0170135498046875
1761479859025871000,8.49187109375,-1.0139007568359375,-0.0218353271484375,-0.017333984375
1761479859035907000,8.501906982421875,-1.013763427734375,-0.0215301513671875,-0.0171966552734375
1761479859045943000,8.511943115234375,-1.0132598876953125,-0.0220947265625,-0.0178985595703125
1761479859055979000,8.52197900390625,-1.013824462890625,-0.0223388671875,-0.017974853515625
1761479859066015000,8.532014892578125,-1.0130767822265625,-0.0220184326171875,-0.01806640625
1761479859076050000,8.5420498046875,-1.012969970703125,-0.022308349609375,-0.0171356201171875
1761479859086086100,8.552086181640625,-1.0138397216796875,-0.0227203369140625,-0.0176544189453125
1761479859096122000,8.5621220703125,-1.0137786865234375,-0.022186279296875,-0.017059326171875
1761479859106158000,8.572157958984375,-1.0137939453125,-0.0225830078125,-0.0180511474609375
1761479859116195000,8.582195068359376,-1.01434326171875,-0.021820068359375,-0.0174407958984375
1761479859126231000,8.59223095703125,-1.014434814453125,-0.0224761962890625,-0.01800537109375
1761479859136267000,8.60226708984375,-1.01263427734375,-0.0218048095703125,-0.017547607421875
1761479859146302000,8.612302001953125,-1.013580322265625,-0.0210723876953125,-0.017578125
1761479859156338000,8.622337890625,-1.0159759521484375,-0.02008056640625,-0.0178680419921875
1761479859166374000,8.632373779296875,-1.017303466796875,-0.0220947265625,-0.0174407958984375
1761479859176409900,8.642409912109375,-1.0003814697265625,-0.024627685546875,-0.0153350830078125
1761479859186445800,8.65244580078125,-1.0161285400390625,-0.02093505859375,-0.0207672119140625
1761479859196482000,8.66248193359375,-1.01507568359375,-0.022064208984375,-0.01580810546875
1761479859206518000,8.67251806640625,-1.01593017578125,-0.02154541015625,-0.0148162841796875
