time,seconds_elapsed,z,y,x
1761479850620808200,0.08680810546875,-0.13301321669518948,-0.007872395609226077,-0.01598652755245566
1761479850630844200,0.09684423828125,-0.13540741835534573,0.0027350692533887923,0.0015663908001966773
1761479850640880000,0.106880126953125,-0.13226619772017,-0.021484047256503252,0.012681385059840976
1761479850650916000,0.116916015625,-0.1446837807446718,0.014088858971279114,0.013625881102029233
1761479850660952000,0.1269521484375,-0.13211188394129275,-0.005309924710076302,-0.014808021824993193
1761479850670988000,0.136988037109375,-0.1380956345260143,0.009515121314954012,0.0026352986733429134
1761479850681024000,0.14702392578125,-0.13959376412928104,-0.02284351730775088,0.006814173526875674
1761479850691060000,0.15706005859375,-0.13240706749558448,0.015155319159012286,-0.004008705918397754
1761479850701095200,0.16709521484375,-0.14182839131355285,-0.006394559875316917,-0.014937548222485929
1761479850711131100,0.177131103515625,-0.14182897583544254,0.009063249361608176,0.01573353917207569
1761479850721167000,0.1871669921875,-0.13075637767910955,-0.021377244147472083,-0.0073561714490875596
1761479850731203000,0.197203125,-0.14571429283618925,0.004067578232474625,0.0008814955422654748
1761479850741239000,0.207239013671875,-0.13508885392546652,-0.0055195488727651535,0.009810359668172895
1761479850751275000,0.21727490234375,-0.13957447490692138,0.004503193170763552,0.006333258142136037
1761479850761311000,0.22731103515625,-0.12072189039885997,-0.00048389279311522837,-0.010732041090354322
1761479850771347000,0.237346923828125,-0.1338876614421606,0.0032234555585309863,0.005323679240792989
1761479850781383000,0.2473828125,-0.1463052444666624,0.0005075841959565878,0.009747468766104429
1761479850791419100,0.257419189453125,-0.13478314897716046,-0.0043956411430612205,-0.0010605053709819912
1761479850801455000,0.267455078125,-0.14256605793833732,-0.010845949793606997,-0.003368526585027575
1761479850811491000,0.277490966796875,-0.14586217687427996,-0.0007269808339886367,0.0025858152421191333
1761479850821527000,0.287527099609375,-0.143916888025403,0.005218173039704561,-0.00008029869459569454
1761479850831562000,0.29756201171875,-0.12341361370086669,-0.0018995500110089779,-0.008352909135166555
1761479850841598000,0.307597900390625,-0.13912614661753178,0.003032755292020738,0.014428338325023651
1761479850851634000,0.317634033203125,-0.13314064246714113,-0.014770722021907568,-0.00023872239300981162
1761479850861670100,0.327670166015625,-0.12969663949310778,0.0027823607275262474,-0.010310272014327347
1761479850871706000,0.3377060546875,-0.1298445235311985,-0.0035579299435950815,-0.0037581834897398945
1761479850881742000,0.3477421875,-0.14136544997692108,0.00525273289643228,0.01357685432853177
1761479850891778300,0.3577783203125,-0.13432955999076365,-0.011560783532075583,-0.0028541107894852757
1761479850901814300,0.367814208984375,-0.12834347131848334,0.0017089776086620986,-0.0013503916956484317
1761479850911850200,0.377850341796875,-0.13313012107312677,-0.012713058839738368,0.002197473511658609
1761479850921886200,0.38788623046875,-0.1325327397018671,0.004385594673082232,0.006698200730700045
1761479850931922200,0.397922119140625,-0.13881810358166694,0.003730546564143151,-0.004889068949501961
1761479850941957000,0.40795703125,-0.14151742566823958,0.0020211853629909455,-0.0034767727324739096
1761479850951993300,0.417993408203125,-0.12820552415251732,-0.004713639317359775,0.009233710557688027
1761479850962029300,0.428029296875,-0.13270049748420715,0.004940598207339644,0.0042164303849451246
1761479850972065300,0.438065185546875,-0.14272855502367018,-0.00548752803299576,-0.002162858856003731
1761479850982101200,0.448101318359375,-0.15140636699795723,0.003703421095199883,0.009995068585313856
1761479850992137200,0.45813720703125,-0.12626783408820627,-0.006366740286629646,0.0015691124802455305
1761479851002173200,0.468173095703125,-0.13375205236375332,-0.0035161366284824904,-0.010872253278642892
1761479851012209200,0.478209228515625,-0.126122872659564,-0.004910659726802259,0.0038198322827927766
1761479851022245000,0.4882451171875,-0.1288163495272398,0.0062652526735328135,-0.00434190166182816
1761479851032281000,0.498281005859375,-0.1309118605017662,0.006671440587937831,-0.00877520793415606
1761479851042317000,0.508317138671875,-0.12253040112555026,-0.003447144779190421,0.00017221476174890995
1761479851052353000,0.51835302734375,-0.13375497497320174,-0.007000928270630538,0.009666238489747047
1761479851062389200,0.52838916015625,-0.1327075117468834,-0.007780972732417285,-0.004959558636136353
1761479851072424200,0.538424072265625,-0.13181143968999384,-0.007258373630419373,-0.008095756036322564
1761479851082460200,0.548460205078125,-0.13959317960739134,-0.0008151705740951002,0.0019439736746251581
1761479851092496100,0.55849609375,-0.13585457760095596,0.004867076313402503,-0.0005995915946550667
1761479851102532000,0.568531982421875,-0.13540566478967667,0.0000012238427065312861,-0.007385909000225364
1761479851112568000,0.578568115234375,-0.13061843051314354,-0.003426467317342758,-0.0006155015498399734
1761479851122604000,0.58860400390625,-0.13016893317997455,-0.006213011029642075,0.0018081819331273435
1761479851132640000,0.598639892578125,-0.13615677541792393,-0.003736574446130544,-0.008573438284359872
1761479851142676200,0.60867626953125,-0.13510931219160555,-0.005446374038700014,-0.007447064602933823
1761479851152712200,0.618712158203125,-0.12867781783938406,-0.007983984491229057,0.0030361162928864358
1761479851162748200,0.628748046875,-0.12987433414757252,-0.0016862543202005326,0.0053736010634340345
1761479851172784000,0.6387841796875,-0.12628536974489687,-0.0042320663454942405,-0.00023099574428051708
1761479851182820000,0.648820068359375,-0.13631284276247024,-0.004485200856346637,-0.00048694326672703026
1761479851192856000,0.65885595703125,-0.13003040149211884,-0.010467508402653038,0.013861352092027664
1761479851202891000,0.66889111328125,-0.12180267137289047,-0.010306052496936172,0.000059822162147611375
1761479851212927000,0.678927001953125,-0.12853636354207992,-0.001912135497946292,0.007549903922900557
1761479851222963200,0.688963134765625,-0.1364671565413475,-0.0013166172902099788,0.006775028826575726
1761479851232999200,0.698999267578125,-0.12090426122844218,-0.00042184214126318693,-0.003580123509094119
1761479851243035100,0.70903515625,-0.11805880866944789,-0.005293759026564657,-0.007475888838618994
1761479851253071000,0.719071044921875,-0.13960779265463352,-0.0004097863772884011,0.014297515019588172
1761479851263107000,0.729107177734375,-0.13138240062296389,0.000016750205401331185,-0.000997450072132051
1761479851273143000,0.73914306640625,-0.128842068490386,-0.012265497735328972,-0.00006391381537541746
1761479851283179000,0.749178955078125,-0.131238608238101,-0.009767178113572299,0.00710186789445579
1761479851293215000,0.759215087890625,-0.13976619808673857,-0.01099544126689434,0.009152498547639698
1761479851303251000,0.7692509765625,-0.13392507084310054,0.001344290748424828,-0.008852657084539532
1761479851313287000,0.779286865234375,-0.13197627486288546,-0.004394709561299532,-0.005399539222288877
1761479851323322000,0.789322021484375,-0.137812725931406,-0.007950155286863447,0.0016315101919695733
1761479851333358000,0.799358154296875,-0.1379664551883936,0.001174121813289821,-0.00028031477872282265
1761479851343394000,0.80939404296875,-0.13407646201252937,0.0005611227477900683,0.002331255959160626
1761479851353430000,0.819429931640625,-0.13542378496825694,-0.005685717486217617,0.0010015051927417516
1761479851363466000,0.829466064453125,-0.12599778497517108,-0.022492822440247983,0.006778609023150056
1761479851373502000,0.839501953125,-0.12928513608276843,-0.009565317132230848,-0.004144515926204621
1761479851383538000,0.849537841796875,-0.13347557350993156,-0.0022059490790590644,-0.0008681611366569995
1761479851393574000,0.859573974609375,-0.13243161741495132,-0.004484652867075055,0.008618008078448473
1761479851403610400,0.8696103515625,-0.14200842405557632,-0.005086198956798762,0.003698690121155232
1761479851413646300,0.879646240234375,-0.1316781686991453,0.0018129494397900999,-0.009768840347696095
1761479851423682800,0.889682861328125,-0.12808219003379345,-0.001205850392114371,0.0026297091827727852
1761479851433718800,0.89971875,-0.12389175260663032,-0.012896616979409008,0.002152593190316111
1761479851443754800,0.909754638671875,-0.12044891867637633,-0.010008695251867174,0.004146707883290946
1761479851453790700,0.919790771484375,-0.11790683297812939,-0.006426690312940627,-0.0026424042675644156
1761479851463825400,0.929825439453125,-0.13900222797691822,-0.0014135931249707936,0.0034007483541965483
1761479851473861400,0.939861328125,-0.13077449785768985,-0.00030886501977220174,-0.0049047962415963405
1761479851483897600,0.949897705078125,-0.1324234341084957,-0.001616075160820037,0.0013148271919228135
1761479851493933600,0.95993359375,-0.12464344775676726,-0.000035381840635091064,-0.0004914002461358904
1761479851503969800,0.9699697265625,-0.1256926645487547,-0.004074482897296548,0.0006754881087690591
1761479851514005800,0.980005859375,-0.14080781609416007,-0.0030298509488813578,0.004209617051668465
1761479851524041700,0.990041748046875,-0.12898702991902827,-0.007284896311163902,-0.0006373115228489041
1761479851534077700,1.00007763671875,-0.12704174107015132,-0.0048765565278008575,-0.0024336934203281996
1761479851544113700,1.01011376953125,-0.1364665720194578,-0.0049880175456404685,-0.004354560214001685
1761479851554149600,1.020149658203125,-0.12629355305135248,0.008179762791655958,0.003103646837454289
1761479851564185600,1.030185546875,-0.13437515269815922,0.0021547120821662244,0.006799998871050775
1761479851574221600,1.0402216796875,-0.1315302846610546,-0.001583360201306641,0.0023502711868844924
1761479851584257500,1.050257568359375,-0.13631518085002897,-0.0031915260503068564,0.0001819324381649494
1761479851594293500,1.06029345703125,-0.13242109602093696,-0.0023906397298909723,0.005624379220418632
1761479851604328700,1.07032861328125,-0.13167232348024843,-0.007548807944357395,0.008822828201856463
1761479851614364700,1.08036474609375,-0.1393038412719965,-0.002898096061684191,-0.00030318419765681026
1761479851624400600,1.090400634765625,-0.13646014227867126,-0.01177057209154591,0.000425933794490993
1761479851634436600,1.1004365234375,-0.12733166392743586,-0.0013530037778429686,0.003301123904623091
1761479851644472600,1.11047265625,-0.12957681250572203,0.006205247848294675,0.0022223887572064994
1761479851654508500,1.120508544921875,-0.13556173213422298,-0.0065328358348459,0.002949004265014082
1761479851664544500,1.13054443359375,-0.1300228027075529,-0.005383172609377652,0.0038003421310335394
1761479851674580500,1.14058056640625,-0.12298983533084391,0.0064527563359588385,0.006303557123616337
1761479851684616400,1.150616455078125,-0.1348117905497551,-0.004038845328334719,-0.0036563122841529547
1761479851694652700,1.160652587890625,-0.13077099072635173,-0.0006095467330887914,-0.0023414485596120354
1761479851704688600,1.170688720703125,-0.13316460786461828,-0.008820563179533928,0.0003134498633444309
1761479851714724600,1.180724609375,-0.1316688163489103,-0.0056783926962874825,-0.00010050123240798711
1761479851724760600,1.190760498046875,-0.12702654350101947,-0.01138018453447148,-0.00429767892761156
1761479851734796500,1.200796630859375,-0.14003800076544284,0.00016717326045036316,0.00011584493201225996
1761479851744831500,1.21083154296875,-0.1192348667114973,-0.000647120530810207,-0.0021062332979403433
1761479851754867500,1.220867431640625,-0.130005851572752,0.000016275281365960837,-0.00023000936359167097
1761479851764903400,1.2309033203125,-0.1332949562460184,-0.005627173965703696,0.0028875198687426744
1761479851774939600,1.240939697265625,-0.12880349004566669,-0.0004133483075536787,0.006531374530121684
1761479851784975600,1.2509755859375,-0.14197159917652605,-0.00576356849540025,-0.00446017601294443
1761479851795011600,1.261011474609375,-0.13269465226531027,0.0009944178648293017,0.006320033334381878
1761479851805047600,1.271047607421875,-0.13059855676889418,-0.006061784256994724,0.003911145561747252
1761479851815083500,1.28108349609375,-0.1344891344666481,-0.0005197860904037952,-0.00240001034643501
1761479851825119500,1.291119384765625,-0.1412239956796169,-0.011297109360899775,-0.0017311346415430306
1761479851835155500,1.301155517578125,-0.13508885392546652,-0.010158131926227361,0.0025129326689988375
1761479851845191400,1.31119140625,-0.13090017006397248,-0.0027331330246292054,-0.003524045940302312
1761479851855227400,1.321227294921875,-0.13598960215747355,-0.004053019984159618,-0.0003359539560973644
1761479851865263400,1.331263427734375,-0.1422714589059353,-0.001347834412381053,0.0068618851261213415
1761479851875299300,1.34129931640625,-0.13733224893808363,0.0016729747135192155,0.004684321891330182
1761479851885335800,1.351335693359375,-0.1347889941960573,-0.0018646248281002043,0.0005815627476200462
1761479851895370500,1.36137060546875,-0.13074585628509522,-0.006746076726727187,-0.0012406477108597754
1761479851905406500,1.371406494140625,-0.13882628688812254,-0.003255805191863328,0.005899378503207117
1761479851915442400,1.3814423828125,-0.12999942183196544,-0.0008079919146373868,0.0036798575565218923
1761479851925478400,1.391478515625,-0.13074760985076428,-0.003307407514937222,-0.006077639413252472
1761479851935514600,1.4015146484375,-0.1361357326298952,-0.005603519095480442,0.0018239092252217233
1761479851945550600,1.411550537109375,-0.13314414959847926,-0.0020306655773892996,-0.0024274828752502797
1761479851955586600,1.421586669921875,-0.1304506727308035,-0.005924056286737323,-0.0007893237467855214
1761479851965622800,1.431622802734375,-0.138232412648201,-0.011379179887473582,-0.001543630979117006
1761479851975658800,1.44165869140625,-0.13179858020842075,-0.006618157764431089,-0.0014855989152565599
1761479851985694700,1.45169482421875,-0.12626315791308879,-0.0008124854266643523,-0.0047031727222725745
1761479851995730700,1.461730712890625,-0.13539280530810355,-0.0029865963290445505,-0.0060365219515748315
1761479852005766700,1.4717666015625,-0.14063187500536442,-0.008084777984581888,-0.004584660909138619
1761479852015802600,1.481802734375,-0.136589321616292,-0.005999532675743103,0.00472852635923773
1761479852025838600,1.491838623046875,-0.13763678484261035,-0.0036282734997570513,-0.001975099465250969
1761479852035874600,1.50187451171875,-0.1458697756588459,-0.006963372739218175,-0.0019622765162959693
1761479852045909800,1.51190966796875,-0.1346457863330841,-0.008434851797576992,0.0030541634062305092
1761479852055945700,1.52194580078125,-0.1259668053150177,-0.010385492675006389,0.006029416357353329
1761479852065981700,1.531981689453125,-0.1301537356108427,-0.0007770122544839978,0.0031748306438326834
1761479852076017700,1.542017578125,-0.12581599866747856,0.00750334310112521,0.0015767477974295615
1761479852086053600,1.5520537109375,-0.13225275371670722,0.0004549954921938479,0.008292904309928417
1761479852096089600,1.562089599609375,-0.1307587157666683,-0.013327172150090336,0.0037976021846756335
1761479852106125600,1.57212548828125,-0.13015958082973955,-0.0031796529494225977,-0.004735540621913969
1761479852116161500,1.58216162109375,-0.14138473919928074,-0.007645254056155681,0.002991035042144358
1761479852126197500,1.592197509765625,-0.13599603189826012,-0.0048157845175825055,0.00502144489120692
1761479852136233500,1.6022333984375,-0.12956161493659019,0.002074778713751584,0.000821326320245862
1761479852146269400,1.61226953125,-0.12971242158412932,-0.00023475860394537448,0.0009588533611036837
1761479852156305700,1.6223056640625,-0.12836509862840176,0.0008103482685051858,-0.007467997793108225
1761479852166341600,1.632341552734375,-0.13555004169642926,0.001840129707660526,-0.0010534545756876468
1761479852176377600,1.642377685546875,-0.13645254349410532,-0.005492880061548203,-0.005165237276069819
1761479852186413600,1.65241357421875,-0.12403028429448604,-0.005053922388702631,-0.0070693721306510264
1761479852196448500,1.662448486328125,-0.12986673536300658,-0.0027554727206006643,0.007401709357555956
1761479852206484500,1.672484375,-0.1319581546843052,-0.0026350246787071228,-0.0024971505779772993
1761479852216520400,1.6825205078125,-0.13285598030686377,-0.007430734522640705,0.0024393559761345385
1761479852226556400,1.692556396484375,-0.13210662324428557,-0.00864781869482249,0.005243599741905927
1761479852236592600,1.702592529296875,-0.13569675669074058,-0.010841346683725715,0.001993913763575256
1761479852246628600,1.712628662109375,-0.14617080443203448,-0.00006393208168447018,-0.0014868044916540384
1761479852256664600,1.72266455078125,-0.14497545716762542,0.0016559870461001992,0.0068937050364911556
1761479852266700500,1.732700439453125,-0.13300503338873385,-0.008073452872969209,0.007373652306850999
1761479852276736500,1.742736572265625,-0.137939567181468,-0.0005072736687026918,-0.004410820445884019
1761479852286772500,1.7527724609375,-0.13823884238898754,-0.004826726036705076,-0.00202735937545076
1761479852296808400,1.762808349609375,-0.1324018067985773,-0.001762278698477894,0.0005407740795053542
1761479852306844400,1.772844482421875,-0.13943652774095536,-0.0017803258118219672,-0.004121792637743055
1761479852316880400,1.78288037109375,-0.14138707728683947,-0.005048606892768293,-0.0020688056306913494
1761479852326916400,1.792916259765625,-0.12941665350794793,-0.0014518245098181068,-0.001884882164839655
1761479852336952600,1.80295263671875,-0.1377963593184948,-0.0016016447766683995,0.0044062538686208425
1761479852346987500,1.812987548828125,-0.13435703251957892,-0.003682104312535375,-0.0010531988473609089
1761479852357023500,1.8230234375,-0.13390870423018933,0.0043787996061146256,-0.00010163374356925487
1761479852367059500,1.8330595703125,-0.1395949331730604,-0.0012195135912857948,-0.0020117416812106964
1761479852377095400,1.843095458984375,-0.13181670038700102,-0.0022422625014558435,-0.0012713351100683212
1761479852387131600,1.853131591796875,-0.1331681149959564,-0.008751553063932806,0.0032221769168972966
1761479852397167400,1.86316748046875,-0.138105571398139,-0.006081475338153541,0.0000697225016541779
1761479852407203300,1.873203369140625,-0.13496493528485298,-0.009692030518129467,-0.0008688004574738443
1761479852417239600,1.883239501953125,-0.13466449103355407,-0.003101107820495963,-0.0019869542998261747
1761479852427275500,1.893275634765625,-0.132715695053339,-0.0016560783776454627,0.002511087771784514
1761479852437311500,1.9033115234375,-0.13316285429894922,-0.001129369356110692,0.007281772772315889
1761479852447347500,1.913347412109375,-0.130915952154994,-0.008984923428390175,-0.003686159433145076
1761479852457383400,1.923383544921875,-0.1343582015633583,0.0037750980919227,-0.005487016576342285
1761479852467419400,1.93341943359375,-0.14049509688317774,0.0029801300556398925,-0.003289250803738832
1761479852477455400,1.943455322265625,-0.14079203400313853,0.0033580417236313224,0.006389774102345109
1761479852487490300,1.953490234375,-0.12223872470259665,-0.0051802156494930385,0.003955971084162593
1761479852497526500,1.963526611328125,-0.14139350702762604,-0.0009896138255484402,0.002973316722363233
1761479852507562500,1.9735625,-0.13900047441124916,-0.00684756433982402,0.0002449877370148897
1761479852517598500,1.983598388671875,-0.13975100051760672,-0.0006132730601355434,-0.0024178747966885567
1761479852527634400,1.993634521484375,-0.12987491866946219,-0.0007325337919406593,-0.0037969080649316307
1761479852537670400,2.00367041015625,-0.13675591035485266,-0.0020755641650408506,-0.0013996924637816846
1761479852547706400,2.013706298828125,-0.13525894979536532,0.0013545016151852904,-0.0022974632874131202
1761479852557742300,2.023742431640625,-0.13510697410404682,-0.007510211233329027,0.010761395049002021
1761479852567778300,2.0337783203125,-0.1349549984127283,-0.0016677688154391943,0.004209452654886991
1761479852577814300,2.043814208984375,-0.12822598241865635,0.001405501150060445,0.0016770663667470215
1761479852587850200,2.053850341796875,-0.13990414525270461,0.002221420642826706,-0.004620937798917293
1761479852597886200,2.06388623046875,-0.14169804293215274,-0.006261416748631745,0.005257427337858825
1761479852607922400,2.07392236328125,-0.14813245989382265,-0.0055963952349498865,0.0007123677867464721
1761479852617958400,2.08395849609375,-0.12912263899743556,-0.009594451895169913,0.00408975353166461
1761479852627993300,2.093993408203125,-0.13451134629845618,-0.004823675563093275,-0.0004735357958823442
1761479852638029300,2.104029296875,-0.14229250169396399,-0.005579243170749396,0.005695544760487973
1761479852648065300,2.114065185546875,-0.139151865580678,-0.0037151845982298253,-0.0013265541623346507
1761479852658101200,2.124101318359375,-0.1393032567501068,0.0026797406032681463,0.000571698940731585
1761479852668137200,2.13413720703125,-0.14154898985028266,-0.009281166428606956,-0.0023643545111641288
1761479852678173200,2.144173095703125,-0.129125561606884,-0.00031509383115917443,0.0005971621755510568
1761479852688209400,2.15420947265625,-0.13301263217329978,0.005609126852359622,0.002572919227927923
1761479852698245400,2.164245361328125,-0.14348551087081432,-0.0022490941010415554,-0.0013150281213223933
1761479852708281300,2.17428125,-0.13285773387253283,0.0003279898453503847,-0.006067812138982117
1761479852718317300,2.1843173828125,-0.14946926145553588,0.0007529189928434789,0.003349493090994656
1761479852728353300,2.194353271484375,-0.13001929557621478,-0.010423376999981701,0.001370612499769777
1761479852738389200,2.20438916015625,-0.12508359273970127,-0.0002028473620302975,-0.0073875529680401085
1761479852748425200,2.21442529296875,-0.1360094759017229,-0.011994608372077345,-0.004763689004164189
1761479852758461400,2.22446142578125,-0.14603753344118595,-0.007253679188992827,-0.0011659019742161034
1761479852768496400,2.234496337890625,-0.14304478136599064,-0.004302903092000633,0.0017327786093577742
1761479852778532400,2.244532470703125,-0.13975392312705515,-0.0024866474502719936,-0.0012032565762288869
1761479852788568300,2.254568359375,-0.1426011292517185,-0.002430697745643556,-0.0016275829355232416
1761479852798604300,2.264604248046875,-0.1354173552274704,-0.00046822029994800685,-0.0017195538016036153
1761479852808640500,2.274640625,-0.14304887301921843,0.0009495010108686982,-0.0070466305758804075
1761479852818676500,2.284676513671875,-0.14618717104494572,0.0016123671000823378,-0.00044065643958747383
1761479852828712400,2.29471240234375,-0.139006319630146,-0.006081968528497963,0.001928721306566149
1761479852838748400,2.30474853515625,-0.13092413546144963,-0.0011529511610977351,-0.005619045458175241
1761479852848784400,2.314784423828125,-0.13571487686932085,-0.00019174144612625242,0.004604461588151753
1761479852858820400,2.3248203125,-0.14334814822673797,-0.005827317913994193,0.003000862316414714
1761479852868856300,2.334856201171875,-0.14379823008179662,0.004920852327253669,0.001441577110439539
1761479852878892500,2.344892578125,-0.1427495978116989,0.0021224355140700936,-0.0019302922091446815
1761479852888928500,2.354928466796875,-0.14275135137736797,-0.0022869966923259196,0.0007637874467298388
1761479852898963500,2.36496337890625,-0.14529635968506335,0.0003480097200721502,-0.004364223091490566
1761479852908999400,2.37499951171875,-0.14334931727051733,-0.0032198205630294976,-0.005250595738273114
1761479852919035400,2.385035400390625,-0.13571838400065897,-0.008271441396791488,-0.0013808598991483449
1761479852929071400,2.3950712890625,-0.1481400586783886,-0.006392806309647858,-0.0006395034799352287
1761479852939107300,2.405107421875,-0.13587211325764656,0.0014160042777657507,0.0026038075565360487
1761479852949143300,2.415143310546875,-0.13557225352823735,0.0016803360360674558,0.002753573024459183
1761479852959179500,2.425179443359375,-0.1363227796345949,-0.004468925574980676,0.0018537746405228972
1761479852969215500,2.435215576171875,-0.13557634518146514,0.009160371326841414,0.0011972286942414938
1761479852979251500,2.44525146484375,-0.14650456643104554,-0.0026748086998239157,-0.00035520664583891626
1761479852989287400,2.455287353515625,-0.1475467689603567,-0.0020616452375426886,0.002232837085984647
1761479852999323400,2.465323486328125,-0.13931494718790052,-0.0010722323413938284,0.005328629410546273
1761479853009359400,2.475359375,-0.13692308361530303,-0.004279394352249801,-0.004054463022574782
1761479853019395300,2.485395263671875,-0.1390162565022707,-0.005766819898411631,0.006751045162789523
1761479853029431300,2.495431396484375,-0.13766717998087405,0.0054453328590840094,0.003187580527551472
1761479853039466500,2.505466552734375,-0.13392448632121084,-0.003356306424271315,-0.0023058840558864177
1761479853049502500,2.51550244140625,-0.13317571378052234,0.003357347603887319,0.006528999909944832
1761479853059538400,2.525538330078125,-0.13871347416341304,-0.0004395787273533642,0.005586641025915742
1761479853069574400,2.535574462890625,-0.14634849908649922,-0.006711443804763257,-0.005656929783150554
1761479853079610400,2.5456103515625,-0.1396177295267582,-0.0011351232434622942,0.002368226968683302
1761479853089646300,2.555646240234375,-0.13422902222573757,-0.003831175660714507,0.007339220314286648
1761479853099682300,2.565682373046875,-0.13632161059081555,-0.0058164677264168855,-0.006050696607399732
1761479853109718300,2.57571826171875,-0.14440379475951193,0.004841448681801557,-0.0003210121152922511
1761479853119754200,2.585754150390625,-0.14126082055866718,-0.006763740247581153,0.005420600276626646
1761479853129790200,2.595790283203125,-0.1418611245393753,-0.002307710686791688,0.010444602451100946
1761479853139826200,2.605826171875,-0.13378010941445825,-0.00631910175262019,0.007384940885845571
1761479853149862400,2.6158623046875,-0.13318097447752952,0.0006650763126090168,0.007670991285610943
1761479853159897300,2.6258974609375,-0.13856909725666045,0.0018819778217002748,0.0005346548659726977
1761479853169933300,2.635933349609375,-0.1328852064013481,-0.005173767642397433,-0.0027263562239706516
1761479853179969300,2.64596923828125,-0.12765022835731504,-0.002403079086355865,-0.000762654935568571
1761479853190005200,2.656005126953125,-0.13932313049435616,0.005446374038700014,0.0029554340058006346
1761479853200041200,2.666041259765625,-0.13767711685299872,-0.006736907039582729,0.004490443287044763
1761479853210077200,2.6760771484375,-0.13917115480303763,0.009675298579037189,-0.000666866410896182
1761479853220113200,2.686113037109375,-0.1442576642870903,-0.0015263327844440937,0.007042137063853442
1761479853230149400,2.6961494140625,-0.13707096765339374,0.008384381985664368,0.003188018918968737
1761479853240185300,2.706185302734375,-0.13467033625245092,-0.003446907317172736,-0.0032393472474068403
1761479853250221300,2.71622119140625,-0.13975859930217266,0.0017787549092434345,-0.0012583294980227947
1761479853260257500,2.726257568359375,-0.13661562510132788,0.0025442776553332804,0.0018260098507627844
1761479853270293500,2.73629345703125,-0.1446925485730171,-0.00929145036060363,-0.0008819704663008451
1761479853280329500,2.74632958984375,-0.13302023095786572,-0.0022950886672362682,0.00016266148211434482
1761479853290364200,2.7563642578125,-0.14349135608971117,-0.0013597257795743643,0.0013104980766773223
1761479853300400400,2.766400390625,-0.1388508368074894,0.00420810094801709,0.001156549623981118
1761479853310436400,2.776436279296875,-0.1307680681169033,0.0000402406788431108,-0.0027365853570401667
1761479853320472600,2.78647265625,-0.1342097330033779,0.0006970423534512519,0.002714775384031236
1761479853330508500,2.796508544921875,-0.14064356544315815,-0.004235043753869831,-0.00269826264064759
1761479853340544500,2.80654443359375,-0.14258651620447635,-0.0033706820094957946,0.004075432745367288
1761479853350580500,2.81658056640625,-0.13720423864424228,-0.004534081499371677,-0.00830514273699373
1761479853360616400,2.826616455078125,-0.1413940915495157,-0.009408537401631474,0.00660723451161757
1761479853370652400,2.83665234375,-0.14469079500734805,0.0004151566721498966,-0.011520305391214788
1761479853380688400,2.8466884765625,-0.1429027425467968,-0.005468823332525789,-0.0073506550237536425
1761479853390724400,2.856724365234375,-0.13691490030884743,-0.008001922006718815,-0.0007885748281143605
1761479853400760000,2.866760009765625,-0.13916355601847172,-0.0034690826163627205,0.0022584464512765408
1761479853410795000,2.876794921875,-0.1461994460046291,-0.002946812307927757,-0.005756517700105906
1761479853420831000,2.8868310546875,-0.13826982204914093,0.0071176865180954335,0.005769815573096275
1761479853430867000,2.896866943359375,-0.13497837928831577,0.0008952318066731095,-0.005474485888332129
1761479853440903200,2.906903076171875,-0.1473994694441557,-0.005476677845418453,-0.0023574133137241006
1761479853450939100,2.916939208984375,-0.14784838225543498,0.0031095103226602074,-0.003788633426930755
1761479853460975000,2.92697509765625,-0.1352776544958353,0.002942008268646896,0.0023289178716018794
1761479853471011000,2.937010986328125,-0.1397697052180767,-0.0010227489101700485,0.000592741728760302
1761479853481047000,2.947047119140625,-0.1414168879032135,0.00025244039110839365,-0.0018451346763409674
1761479853491083300,2.957083251953125,-0.13453414265215397,-0.00438409683573991,-0.0009082008861005306
1761479853501119200,2.967119140625,-0.12780220404863357,-0.0031398871946148573,-0.00011895020455121993
1761479853511155200,2.9771552734375,-0.1340887369722128,-0.0007659063385799527,0.014084127997234464
1761479853521191200,2.987191162109375,-0.1423141290038824,0.0032645912865176797,0.008184877358190715
1761479853531226000,2.99722607421875,-0.13901976363360882,0.007849818451236933,0.004210165040940046
1761479853541262000,3.007261962890625,-0.1327338152319193,-0.0001955408384092152,0.0024561061815358697
1761479853551298000,3.017298095703125,-0.1391682321935892,0.0008027677502483129,-0.010935746968910098
1761479853561334000,3.027333984375,-0.12899345965981482,-0.0018532631838694214,0.0027997137211263176
1761479853571370200,3.037370361328125,-0.14620236861407757,0.001668462935183197,-0.007859846654906869
1761479853581406200,3.04740625,-0.13602934964597224,-0.003167524120211601,-0.004251556497253477
1761479853591442200,3.057442138671875,-0.13902210172116755,0.0077362568078562614,0.0026580767607316375
1761479853601478100,3.06747802734375,-0.1403665020674467,-0.0014752419180236755,-0.0033711934661492704
1761479853611514000,3.07751416015625,-0.14590543149411678,0.00624450214644894,-0.0013620821334421635
1761479853621550000,3.087550048828125,-0.14021978707313537,0.003403926691971719,-0.0007248071432113647
1761479853631586000,3.0975859375,-0.1364806005448103,0.005278031734470278,-0.0010061813678592442
1761479853641622000,3.1076220703125,-0.145608494374156,0.0022280147803947327,0.0038307007366791363
1761479853651657200,3.1176572265625,-0.14276537990272045,-0.0008146956500597297,0.0000155263626947999
1761479853661693200,3.127693115234375,-0.14052023132443428,-0.002917714077606797,0.003286967515107244
1761479853671729200,3.137729248046875,-0.14201719188392162,0.0022561631626449525,0.0032225605093874035
1761479853681765000,3.14776513671875,-0.1394733526200056,0.003236022779159248,-0.0022470117418095467
1761479853691801000,3.157801025390625,-0.14411211833655832,0.0030545652650296688,-0.0011416260494850575
1761479853701837000,3.167837158203125,-0.1421703366190195,0.0024417671289294956,-0.0015762363407760857
1761479853711873000,3.177873046875,-0.13274433662593363,0.0003395889515988529,0.007626805084012448
1761479853721909000,3.187908935546875,-0.1372334647387266,0.0034472178444266317,0.005276515630818903
1761479853731945000,3.197945068359375,-0.14980185441076754,0.0027953846058808266,-0.0011706877471879124
1761479853741981000,3.20798095703125,-0.14590776958167553,-0.004072930261027068,-0.005985832943953573
1761479853752017000,3.218016845703125,-0.13977730400264263,-0.005910027761384844,-0.0016484978593885897
1761479853762052000,3.228052001953125,-0.1357341660916805,-0.004919829413946718,0.004527231633476913
1761479853772088000,3.238088134765625,-0.1336392396390438,0.0012518084256909786,-0.01032258350662887
1761479853782124000,3.2481240234375,-0.14246493565142154,-0.002724200799502432,-0.007685001544654369
1761479853792160000,3.258159912109375,-0.14036884015500545,-0.0004028086472302675,0.0013273578799329697
1761479853802196000,3.268196044921875,-0.1430640705883503,-0.0005290105764754116,0.0021390030563808978
1761479853812232000,3.27823193359375,-0.14141981051266192,0.0008223309672437608,0.0034097536445595322
1761479853822268000,3.288267822265625,-0.13259236093461513,-0.006752944858931005,0.004038260806445032
1761479853832304000,3.29830419921875,-0.13902677789628504,-0.003027531127631664,0.006160056999698281
1761479853842340000,3.308340087890625,-0.12914952700436114,-0.0025774858051910996,0.0019271869366057216
1761479853852376000,3.3183759765625,-0.1457552093684673,0.005177274773735553,-0.0032419775959104296
1761479853862412000,3.328412109375,-0.14560557176470756,0.01004236005945131,0.008057944776583462
1761479853872447000,3.338447021484375,-0.13423311387896536,-0.00887512464467436,0.0021055574445053935
1761479853882483000,3.34848291015625,-0.1394686764448881,-0.00024259485052898524,-0.0067481042870320375
1761479853892519000,3.358518798828125,-0.13901684102416037,0.0012513700342737138,-0.0018501213787123559
1761479853902555000,3.368554931640625,-0.1390150874584913,0.0018751279558055101,0.0019407405379228294
1761479853912591000,3.378591064453125,-0.1417079798042774,-0.006680592008773237,-0.005658573750965297
1761479853922627000,3.388626953125,-0.14619535435140132,-0.006353661609347909,-0.002665255420189351
1761479853932663000,3.3986630859375,-0.13811200113892555,-0.004175678249448538,0.0038351029171608386
1761479853942699000,3.408698974609375,-0.13900573510825634,-0.00786505255298689,0.002527673580404371
1761479853952735200,3.4187353515625,-0.1443926888436079,-0.002476326985657215,0.0005947692890651523
1761479853962771200,3.428771240234375,-0.14828209749758242,0.002075600697658956,0.000014722645096480846
1761479853972807200,3.43880712890625,-0.14244739999473094,0.007214278760366142,0.0013693886570632456
1761479853982841900,3.448841796875,-0.1493336523771286,-0.0015591025428846478,0.0022043233775533733
1761479853992878000,3.458878173828125,-0.1439478676855564,0.004300893798004836,-0.0019430603591725228
1761479854002914300,3.468914306640625,-0.14948679711222648,-0.0006230090028606354,-0.001382028942927718
1761479854012950300,3.4789501953125,-0.13826514587402344,-0.0034149412763305005,-0.0007757336128503084
1761479854022986200,3.488986328125,-0.14424948098063467,0.002090432940609753,-0.002587696671951562
1761479854033022200,3.499022216796875,-0.14095686917603015,-0.0024508454845286903,0.0027992387970909474
1761479854043058200,3.50905810546875,-0.14394962125122546,0.00029388664634898305,0.0054179333955049515
1761479854053094100,3.51909423828125,-0.1436509305655956,-0.001778736642934382,-0.0046039501314982766
1761479854063130000,3.529130126953125,-0.142605805426836,0.002062814281322062,-0.0038444370010867713
1761479854073166000,3.539166015625,-0.1364671565413475,-0.0021596257193014024,-0.011645575738698243
1761479854083202000,3.5492021484375,-0.1446978092700243,-0.002877984855417162,-0.003549655305594206
1761479854093237200,3.5592373046875,-0.13945815505087375,-0.006886106251925229,-0.010731036443356424
1761479854103273200,3.569273193359375,-0.13856500560343266,-0.0020789982311427593,-0.004103672459162771
1761479854113309200,3.57930908203125,-0.1453039584696293,-0.001909103290643543,0.00002005640733987093
1761479854123345200,3.58934521484375,-0.1423100373506546,-0.0023032719736918806,-0.0006482347756624221
1761479854133381000,3.599381103515625,-0.13842004417479037,-0.0006232099322602152,0.0005197678240947425
1761479854143417000,3.6094169921875,-0.14231471352577207,-0.004284728114493191,0.006958568699937313
1761479854153453000,3.619453125,-0.1360311032116413,-0.005984627367556095,0.007218735739775001
1761479854163489000,3.629489013671875,-0.14066811536252496,-0.0037038777529262005,-0.009036781479790807
1761479854173525000,3.63952490234375,-0.1488975990474224,0.004629248969536274,-0.004224193566292524
1761479854183561000,3.64956103515625,-0.1466501123815775,-0.011846030214242636,-0.0003422740990296006
1761479854193596200,3.65959619140625,-0.13737374999225138,-0.005248257650714367,-0.0038797640427947044
1761479854203632000,3.669632080078125,-0.13258593119382858,-0.008310787026491016,-0.0039484453648328775
1761479854213668000,3.679668212890625,-0.13812486062049864,-0.001756196017563343,0.0011303922694176434
1761479854223704000,3.6897041015625,-0.13812193801105022,-0.005675287423748523,-0.003026416882779449
1761479854233740000,3.699739990234375,-0.14111527460813522,-0.005246577150281519,-0.010778912439383566
1761479854243776000,3.70977587890625,-0.13737374999225138,-0.00022584464512765407,-0.003692954500112682
1761479854253812000,3.71981201171875,-0.1384229667842388,-0.0035815848138183353,0.001395436413772404
1761479854263848200,3.72984814453125,-0.13632628676593303,0.004787782265804708,-0.001540397842414677
1761479854273884200,3.73988427734375,-0.14350655365884304,-0.004255502020008862,0.00005048807822167873
1761479854283920100,3.749920166015625,-0.14335808509886264,0.001753510870132595,0.0003979498090222478
1761479854293955000,3.759955078125,-0.15083879624307156,0.007533646907843649,-0.001547412105090916
1761479854303991000,3.769990966796875,-0.14919336712360382,-0.0017264036674983798,-0.00034187224023044107
1761479854314027000,3.780027099609375,-0.14216039974689482,-0.009076894294470549,0.005368650893680751
1761479854324063000,3.79006298828125,-0.13841419895589352,-0.004808149200398475,-0.003679930621758103
1761479854334099000,3.800098876953125,-0.13063187451660632,-0.0007658880722708999,-0.002072331028338522
1761479854344135200,3.81013525390625,-0.13841302991211413,0.005079422156140208,0.0004345554923638701
1761479854354171100,3.820171142578125,-0.1370633688688278,-0.004617960390541702,-0.002280146826431155
1761479854364207000,3.83020703125,-0.13481646672487257,-0.006662106504011899,0.0002607698280364275
1761479854374243000,3.8402431640625,-0.14439035075604914,-0.008269614765886217,0.0026500395847484466
1761479854384279000,3.850279052734375,-0.14378829320967196,-0.009219225374609232,0.006552252921368926
1761479854394315000,3.86031494140625,-0.13929741153120995,-0.0004570778514258563,0.005590842276997864
1761479854404350500,3.8703505859375,-0.14752572617232798,-0.0008619140589609742,-0.0027886808704584835
1761479854414386400,3.880386474609375,-0.1476736102104187,-0.005827701506484299,-0.004516417978517711
1761479854424422400,3.89042236328125,-0.14064005831182003,-0.005983129530213773,0.003538531123381108
1761479854434458400,3.900458251953125,-0.13600246163904667,0.002284421142749488,-0.00047945408001542086
1761479854444494600,3.91049462890625,-0.13794599692225457,-0.0006895531667396426,-0.004460924931615591
1761479854454530600,3.920530517578125,-0.14213760339319706,0.00004179331511259079,0.004947758600488305
1761479854464566500,3.93056640625,-0.13899346014857292,-0.0016503975555300712,-0.005275584049057215
1761479854474602500,3.9406025390625,-0.14571896901130676,-0.006406761769764125,-0.0007507087694481015
1761479854484638700,3.950638671875,-0.13674538896083832,-0.0023913155833259225,0.009684249070473015
1761479854494674700,3.9606748046875,-0.13495207580327986,0.0025752025165595113,0.0038012189138680696
1761479854504709400,3.97070947265625,-0.14378420155644417,-0.0010694923950359224,0.003569492517225444
1761479854514745600,3.98074560546875,-0.14617606512904166,-0.004969824301823973,0.000902026873640716
1761479854524781600,3.990781494140625,-0.14079144948124886,-0.005132759778574109,-0.004035721789486706
1761479854534817500,4.000817626953125,-0.1478255859017372,0.0025705994066782295,-0.002509224608261138
1761479854544852500,4.0108525390625,-0.14737433500289915,-0.0003356434288434684,0.0014638985401019453
1761479854554887400,4.020887451171875,-0.14019056097865104,-0.000768061763048172,0.006165938751213252
1761479854564923600,4.030923583984375,-0.142135849827528,-0.0027541027474217114,-0.0038210195928812026
1761479854574959600,4.040959716796875,-0.14617898773849008,-0.006605097353458404,-0.003701302203349769
1761479854584995600,4.05099560546875,-0.1309194592863321,-0.0013890066729858516,-0.008272555641643703
1761479854595031600,4.061031494140625,-0.13645721966922283,0.002066284880042076,-0.0014892887096852063
1761479854605067500,4.071067626953125,-0.14229308621585368,0.005233589804545045,-0.000298544555157423
1761479854615103500,4.081103515625,-0.14064765709638594,-0.006512578498106449,-0.0015416764840483666
1761479854625139500,4.091139404296875,-0.14020166689455507,0.007375643334537744,-0.002555675832182169
1761479854635175400,4.101175537109375,-0.14723638783693313,-0.0007679521651938557,-0.00675095383124426
1761479854645211400,4.11121142578125,-0.14514321494996546,-0.003133822780009359,0.002584280872158706
1761479854655246600,4.12124658203125,-0.14409925885498523,0.0010960881410166622,0.005710048209875822
1761479854665282600,4.131282470703125,-0.1487368555277586,-0.0016495207726955413,0.00109614293994382
1761479854675318500,4.141318603515625,-0.13871639677286146,0.005028386088646948,0.0018494272589683531
1761479854685354500,4.1513544921875,-0.13572481374144554,0.0004995104873552919,-0.007302687696181237
1761479854695390500,4.161390380859375,-0.1414075355529785,-0.004374726219195872,-0.00603327054856345
1761479854705426400,4.171426513671875,-0.14260638994872568,-0.010528737070597708,0.0024575126873329282
1761479854715462700,4.181462646484375,-0.13497370311319828,-0.005937737752217799,0.002896050235070288
1761479854725498600,4.19149853515625,-0.13975918382406233,-0.006924830827116966,0.0035919235447421666
1761479854735534600,4.20153466796875,-0.13976035286784172,-0.0012176869603805244,0.004374287827778607
1761479854745569500,4.211569580078125,-0.13766717998087405,0.0014419789692386984,0.006337495925836265
1761479854755605500,4.22160546875,-0.14051204801797865,-0.0028122078765183685,0.00035918870121240615
1761479854765641700,4.231641845703125,-0.14919161355793475,-0.005210172396339476,-0.001542516734264791
1761479854775677700,4.241677734375,-0.13258359310626983,-0.004689783517736941,0.004323306559212505
1761479854785713700,4.251713623046875,-0.14036942467689514,-0.005982910334505141,0.0007595131304115057
1761479854795749600,4.26174951171875,-0.14740180753171442,-0.007565594682376831,-0.00009553279634565114
1761479854805785600,4.27178564453125,-0.14560206463336944,-0.0021978205715306102,0.00120064449403435
1761479854815821600,4.281821533203125,-0.13198621173501013,0.011014145967364311,0.005707472660299391
1761479854825857500,4.291857421875,-0.14006839590370654,-0.015225772313028574,0.0015096373779699206
1761479854835893500,4.3018935546875,-0.13857728056311608,-0.004623714277893305,-0.0017770561425015329
1761479854845928700,4.3119287109375,-0.1310954003751278,0.003951641968917102,-0.0020065175168216226
1761479854855964700,4.321964599609375,-0.1369289288341999,0.005893807278946042,-0.00032937808483839034
1761479854866000600,4.332000732421875,-0.13843115009069443,0.004197488222457468,-0.0025255181559361516
1761479854876036600,4.34203662109375,-0.14187515306472778,0.0020489318864420057,-0.005047017723880708
1761479854886072600,4.352072509765625,-0.14247253443598745,-0.006744067432731389,-0.0007611753645353019
1761479854896108500,4.362108642578125,-0.14681260946691035,-0.0042885457730852065,0.008936170649528502
1761479854906144500,4.37214453125,-0.14082476722896098,0.0017677403248846529,-0.002612484053336084
1761479854916180700,4.3821806640625,-0.13738310234248638,0.0016032156792469322,0.004899225017335265
1761479854926216700,4.392216796875,-0.1390285314619541,0.0030614699298515914,0.003403415235318243
1761479854936252700,4.402252685546875,-0.13723054212927818,-0.0022919833946973083,-0.004974829270504415
1761479854946287600,4.41228759765625,-0.1442617559403181,-0.003506218022666871,0.0019852920657023785
1761479854956323600,4.422323486328125,-0.14455810853838919,-0.011632624925579874,0.006824019067455083
1761479854966359600,4.432359619140625,-0.143808751475811,-0.003256499311607331,0.0028614903783425686
1761479854976395500,4.4423955078125,-0.13707564382851123,-0.0015158479230478405,0.004430255798716098
1761479854986431500,4.452431396484375,-0.14485621470212937,-0.008807703697960823,0.0029869616552256045
1761479854996467700,4.4624677734375,-0.1424625975638628,-0.0030817637992091476,0.000588083819951862
1761479855006503700,4.472503662109375,-0.13617840272784232,0.0005794803883880376,0.0026246128825470802
1761479855016539600,4.48253955078125,-0.14485738374590873,-0.005207194987963884,-0.0020556538881734013
1761479855026575600,4.49257568359375,-0.1372246969103813,-0.00851772604174912,0.0011971921616233884
1761479855036610600,4.502610595703125,-0.13707096765339374,-0.006671659783646464,0.001807524346001446
1761479855046646500,4.512646484375,-0.14395838907957076,-0.0025304317930713296,-0.004193104308284819
1761479855056682500,4.5226826171875,-0.14291209489703177,-0.0016486987887881694,0.0028812545247375965
1761479855066718500,4.532718505859375,-0.14471300683915614,-0.010237973963096737,0.000975347838178277
1761479855076754700,4.542754638671875,-0.13109773846268652,-0.008058894624654204,0.0008167232103645801
1761479855086790700,4.552790771484375,-0.14336977553665636,-0.0020231763906776905,-0.0008057086260057986
1761479855096826600,4.56282666015625,-0.13140110532343388,0.0002095145648345351,0.003249832108803093
1761479855106862600,4.572862548828125,-0.13379939863681792,0.010435633693356067,0.006840623142383992
1761479855116899600,4.582899658203125,-0.1308060620397329,-0.0031211824941448866,-0.001326846423279494
1761479855126934500,4.5929345703125,-0.14023498464226722,-0.002472710256464779,0.0017000453835353255
1761479855136970500,4.602970458984375,-0.1408370421886444,-0.0035835575751960273,-0.0021228008402511475
1761479855147006500,4.61300634765625,-0.1354518420189619,-0.001586154946591705,-0.0010252879271283744
1761479855157042400,4.62304248046875,-0.1293137776553631,0.00034769919281825424,-0.0035728900507092476
1761479855167078400,4.633078369140625,-0.13634966764152048,0.002785776527319103,-0.001674746545497328
1761479855177114400,4.6431142578125,-0.13948971923291684,-0.005091021262388676,0.006562463788129389
1761479855187150600,4.653150634765625,-0.13604513173699379,-0.0006496960803866386,-0.0019201726739294827
1761479855197186600,4.6631865234375,-0.134545248568058,-0.0011340089986100793,-0.0010356997232884167
1761479855207222500,4.673222412109375,-0.12511924857497214,0.004951064802426844,-0.0006558518265374004
1761479855217258500,4.683258544921875,-0.13439502644240856,0.0018988376249559223,-0.008291424738895147
1761479855227293400,4.69329345703125,-0.14412439329624174,-0.004105426024831832,-0.0024792861277237533
1761479855237329400,4.703329345703125,-0.1403834532022476,-0.008072868351079523,-0.0022721461830660697
1761479855247365400,4.713365478515625,-0.12736264358758925,-0.0012021788639947771,-0.0005872983686625957
1761479855257401300,4.7234013671875,-0.1324497375935316,0.002282119587808847,-0.00260725988894701
1761479855267437600,4.7334375,-0.13559037370681762,-0.00014298866726458073,0.0020962416268885133
1761479855277473800,4.743473876953125,-0.14322306054234504,0.0032643538244999945,0.006713416566140949
1761479855287509800,4.753509765625,-0.13469196356236934,-0.0028394794759340584,-0.0032632395796477792
1761479855297545700,4.763545654296875,-0.14022504777014255,-0.0004383183520287275,-0.0033224589535966512
1761479855307581700,4.773581787109375,-0.13842647391557691,0.00426865376252681,0.0001502403919585049
1761479855317616400,4.783616455078125,-0.14097089770138263,0.00010053776502609253,0.002716382819227874
1761479855327652400,4.79365234375,-0.1432154617577791,-0.00009396189376711845,-0.0011336254061199724
1761479855337688600,4.8036884765625,-0.14545885677039622,0.0005244257329031825,-0.007636595825664698
1761479855347724800,4.813724853515625,-0.137822078281641,0.0017878697974607347,-0.005441643064655363
1761479855357760800,4.8237607421875,-0.14170739528238774,-0.004211151421628892,0.0035903161095455285
1761479855367796700,4.833796630859375,-0.13377777132689952,0.003692899701185524,0.00724350485485047
1761479855377832700,4.843832763671875,-0.14081424583494662,0.005207542047835886,0.0009271978475153445
1761479855387868700,4.85386865234375,-0.13796996231973171,0.00458696246407926,-0.003144618168659508
1761479855397904600,4.863904541015625,-0.13512567880451679,0.004348276603687555,0.0046608314178884025
1761479855407940400,4.8739404296875,-0.1396206521362066,-0.007647847872041165,0.0036211861718446012
1761479855417975600,4.8839755859375,-0.14276421085894106,-0.0055940206147730345,-0.007620028283353894
1761479855428011500,4.894011474609375,-0.13138883036375046,-0.0006670673402957618,-0.003426028925925493
1761479855438047500,4.904047607421875,-0.12614859162271022,0.00342243046304211,-0.0029151933269575235
1761479855448083500,4.91408349609375,-0.13677052340209483,0.0021717545485123993,0.0024087051095440983
1761479855458119400,4.924119384765625,-0.1381178463578224,0.0014408099254593252,0.0019754830577410755
1761479855468155400,4.9341552734375,-0.13781681758463382,0.00752683357456699,-0.000009388882853090763
1761479855478191400,4.94419140625,-0.1467974118977785,-0.011779668713454157,0.00041314737815409896
1761479855488227600,4.9542275390625,-0.13826748396158217,-0.006720631758216768,0.003115026747994125
1761479855498263600,4.964263671875,-0.13692133004963397,-0.005560556736588478,-0.0001042640920728445
1761479855508298500,4.974298583984375,-0.13482289646565912,0.007694518291670829,0.005183594916667789
1761479855518334500,4.98433447265625,-0.13332359781861305,-0.0016566994321532546,0.0031638343257829544
1761479855528370400,4.994370361328125,-0.13766601093709468,0.0026379290218465027,-0.0014632409529760479
1761479855538406400,5.004406494140625,-0.13317629830241204,0.011928100740816443,0.001480319951940328
1761479855548442600,5.014442626953125,-0.1349672733724117,0.0003688698450103402,0.007413911252003163
1761479855558478600,5.024478515625,-0.14244739999473094,0.0023065599093213675,-0.0015054726595059036
1761479855568514600,5.0345146484375,-0.13376900349855422,0.002139861572906375,-0.0007074541496112942
1761479855578550500,5.044550537109375,-0.14379180034101008,-0.010285557698179036,-0.0034052053336054086
1761479855588586500,5.05458642578125,-0.13496142815351486,0.006452537140250206,0.0015941373236477373
1761479855598622500,5.06462255859375,-0.12927636825442312,0.008724044002499431,-0.004057568295113742
1761479855608657700,5.07465771484375,-0.14124562298953533,0.006378430724423378,-0.0022692601062357424
1761479855618693600,5.084693603515625,-0.13944938722252845,-0.0006179675015620887,-0.006404021823406219
1761479855628729600,5.0947294921875,-0.1298708270162344,0.0005380889320746063,0.003275295343622565
1761479855638765600,5.104765625,-0.1389975518018007,-0.003939367009233683,0.008726583019457756
1761479855648801500,5.114801513671875,-0.14558102184534072,-0.005236220153048634,0.005368230768572539
1761479855658837500,5.12483740234375,-0.13749416150152682,-0.0005127900940366089,0.0011866890339180826
1761479855668873500,5.13487353515625,-0.13928747465908525,-0.0026384039458818734,-0.003964008260145783
1761479855678909400,5.144909423828125,-0.1395861653447151,0.009110230308491736,-0.001200827157124877
1761479855688945400,5.1549453125,-0.1463181039482355,0.0023540157802402974,0.003401953930594027
1761479855698981600,5.164981689453125,-0.1331523329049349,-0.0004057312566787004,-0.0007675137737765908
1761479855709016600,5.1750166015625,-0.13644611375331878,-0.0014175021151080728,-0.00521451977789402
1761479855719052500,5.185052490234375,-0.14422785367071628,-0.0017586254366673529,-0.004682860586605966
1761479855729088500,5.195088623046875,-0.1428846223682165,0.007962704241182655,0.0015320318728685378
1761479855739124500,5.20512451171875,-0.13645312801599502,-0.0010673187042586506,-0.0012735270671546458
1761479855749160400,5.215160400390625,-0.13959727126061916,-0.0027406952765770256,-0.004020268492028117
1761479855759196400,5.225196533203125,-0.14333879587650297,-0.0008298566865734755,-0.0006778992615640163
1761479855769232400,5.235232421875,-0.14379004677534102,0.002543254742026329,0.0006798172240145504
1761479855779268600,5.2452685546875,-0.14319324992597102,0.00033882176661863923,0.0002991290770471096
1761479855789304600,5.2553046875,-0.13885785107016563,-0.008573109490796923,-0.0019602672223001717
1761479855799339500,5.265339599609375,-0.13362345754802227,-0.0018715842918492853,0.004491868059150875
1761479855809375500,5.27537548828125,-0.1361661277681589,-0.0013494601138867438,-0.006988726376183331
1761479855819411500,5.285411376953125,-0.13975450764894484,-0.0007001658922992646,0.0034237273709848523
1761479855829447400,5.295447509765625,-0.14379413842856884,-0.007137761191744357,-0.0001857318304479122
1761479855839483400,5.3054833984375,-0.14888064791262148,0.0005186718455515802,0.0008078640504740178
1761479855849519600,5.31551953125,-0.1467845524162054,-0.0010123371140100062,0.0022705022152513265
1761479855859555600,5.3255556640625,-0.1328676707446575,0.002427921266667545,0.0031556875519454476
1761479855869591600,5.335591552734375,-0.1328717623978853,-0.002134016354009509,0.004480689078010618
1761479855879627500,5.34562744140625,-0.13107552663087843,0.004321753922943025,-0.005146550841908902
1761479855889663500,5.35566357421875,-0.13017887005209922,-0.008660458980686962,-0.00036114319628104564
1761479855899698400,5.365698486328125,-0.13212415890097617,-0.0026607436418533323,-0.0024773498989641663
1761479855909734400,5.375734375,-0.14454232644736767,0.0025342677179723975,-0.006093494569510221
1761479855919770400,5.385770263671875,-0.13766308832764626,-0.002055599089246243,-0.0016378851338289678
1761479855929806600,5.395806640625,-0.1261444999694824,0.0002843333667144179,-0.0010980609023943542
1761479855939842600,5.405842529296875,-0.1430541337162256,0.002716565482318401,-0.0026175255546346306
1761479855949878500,5.41587841796875,-0.13602116633951664,0.003397149891313165,-0.00017073519071564077
1761479855959914500,5.42591455078125,-0.1456026491552591,-0.0012320990782231092,-0.0035572540901601312
1761479855969950500,5.435950439453125,-0.14964754063189029,0.002131276407651603,-0.006074278412386775
1761479855979986400,5.445986328125,-0.13797931466996669,0.003353383814822882,-0.0065343702048063276
1761479855990021400,5.456021484375,-0.13259119189083576,0.009013619799911976,-0.006724339818954468
1761479856000057300,5.466057373046875,-0.14889993713498115,0.0007669475181959569,-0.0025913864663802085
1761479856010093600,5.476093505859375,-0.14725158540606498,0.0017676307270303368,-0.0007507270357571542
1761479856020129500,5.486129638671875,-0.14051613967120646,0.002906644694320857,-0.006435659070685506
1761479856030165500,5.49616552734375,-0.13198913434445858,0.0024921821419149636,0.002325027147773653
1761479856040201500,5.506201416015625,-0.13169278174638746,0.0076232979526743285,0.0021388934585265815
1761479856050237400,5.516237548828125,-0.13439151931107043,0.0034060090512037277,-0.004462002643849701
1761479856060273400,5.5262734375,-0.13768179302811623,0.0036514899785630404,0.00011412789896130561
1761479856070309400,5.536309326171875,-0.14067103797197342,0.01086677338592708,-0.001429082955047488
1761479856080344300,5.54634423828125,-0.13483575594723224,0.0025907654118724165,0.002390731061436236
1761479856090380500,5.556380615234375,-0.13513152402341366,0.001821132746245712,-0.003758366152830422
1761479856100416500,5.56641650390625,-0.13213818742632866,0.0004633797280490398,-0.0025703071457333863
1761479856110452500,5.576452392578125,-0.13228782503008843,-0.00892831613663584,-0.0005262888964265585
1761479856120488400,5.586488525390625,-0.14860416905879972,-0.013380911631323397,-0.0023746201768517494
1761479856130524400,5.5965244140625,-0.14321896888911723,-0.0035769817039370535,0.003019165158085525
1761479856140560400,5.606560302734375,-0.14067279153764248,0.004000741807650775,0.0020334055237472056
1761479856150596400,5.616596435546875,-0.1396253283113241,-0.0011175327878445386,-0.0022530578901059925
1761479856160632300,5.62663232421875,-0.1415694481164217,0.005577763599716127,-0.0012130838504992424
1761479856170667500,5.63666748046875,-0.1436649590909481,0.0057917534102685745,-0.00018719313517212867
1761479856180703500,5.646703369140625,-0.1457604700654745,0.0006990516474470495,0.0028335063928738233
1761479856190739500,5.656739501953125,-0.1339396838903427,0.003736428315658122,0.001611672980338335
1761479856200775400,5.666775390625,-0.12241700387895106,0.004322977765649557,-0.004695793133415282
1761479856210811400,5.676811279296875,-0.13633096294105052,0.008294639609288423,-0.007136245088092982
1761479856220847600,5.68684765625,-0.1415694481164217,-0.0037491234004497524,-0.0028108561696484685
1761479856230883600,5.696883544921875,-0.14067103797197342,-0.004994958743080496,-0.0068328416947275395
1761479856240919600,5.70691943359375,-0.14994681583940983,0.006914090237393975,0.002728000191785395
1761479856250955500,5.71695556640625,-0.1454553496390581,0.0033618593822233376,0.007199848376214504
1761479856260990500,5.726990478515625,-0.12331073784828185,-0.0009726078918203711,-0.0021552600714378057
1761479856271026400,5.7370263671875,-0.12914485082924365,0.0009347053005360066,-0.0011645137347280979
1761479856281062700,5.747062744140625,-0.14081366131305695,-0.002592537243850529,0.004327051152568311
1761479856291098600,5.7570986328125,-0.1382709910929203,-0.0018018983228132127,-0.003745871997438371
1761479856301134600,5.767134521484375,-0.14216390687823294,-0.002238883234281093,0.0007241860887035727
1761479856311170600,5.777170654296875,-0.14321253914833068,0.0027710904148407277,-0.004846270987391471
1761479856321206500,5.78720654296875,-0.14515782799720764,-0.0000649915276095271,-0.00604096066467464
1761479856331242500,5.797242431640625,-0.14306114797890185,0.002029843593481928,0.0005726122561842203
1761479856341278500,5.807278564453125,-0.13602876512408255,0.009885635127779097,0.0011103723946958779
1761479856351313700,5.817313720703125,-0.13228607146441937,-0.0043018801786936815,-0.003041066462639719
1761479856361349600,5.827349609375,-0.1361760646402836,0.0024961641972884533,-0.0016625446510501205
1761479856371385600,5.837385498046875,-0.13752338759601115,0.0017730558208189904,0.0034075068885460495
1761479856381421600,5.847421630859375,-0.13168810557126998,-0.0045749432327225805,-0.002955598402582109
1761479856391457500,5.85745751953125,-0.13872048842608928,-0.003936499198712408,0.0032451559336856006
1761479856401493500,5.867493408203125,-0.13363339442014693,0.004958754918538034,0.0024691483261995014
1761479856411529500,5.877529541015625,-0.134828741684556,0.005279931430611759,-0.005426317631360143
1761479856421565400,5.8875654296875,-0.14709844067096708,0.007722739739157259,-0.0016168606121093035
1761479856431601400,5.897601318359375,-0.1412643276900053,0.00220713638914749,-0.005622095931787043
1761479856441636600,5.90763671875,-0.13468085764646529,0.0035738216324709355,-0.0042873584629967805
1761479856451672600,5.917672607421875,-0.14231529804766177,0.0026649448929354546,-0.007431392109766602
1761479856461708500,5.92770849609375,-0.1345318045645952,0.00011794555755332112,-0.0051653103413060305
1761479856471744500,5.93774462890625,-0.13781974019408225,0.010119663079362361,-0.00043594373185187576
1761479856481780500,5.947780517578125,-0.15098668028116224,0.005039711200259625,-0.0020004531022161246
1761479856491816400,5.95781640625,-0.14201017762124538,-0.0045282545467838645,0.0012406477108597754
1761479856501852400,5.967852294921875,-0.13347966516315937,0.0020839484008960425,0.000711253541894257
1761479856511888400,5.977888427734375,-0.14125906699299812,0.007521463279705494,0.0019462934958748518
1761479856521923600,5.987923583984375,-0.1391641405403614,0.0031511027083732184,-0.0014478241881355643
1761479856531959600,5.99795947265625,-0.13676526270508765,-0.006057272478658705,-0.00981262469049543
1761479856541995500,6.00799560546875,-0.1343704765230417,0.00017731106197461485,0.0014225618827156722
1761479856552031500,6.018031494140625,-0.13392097918987272,-0.005450209963601082,-0.0036111945007927713
1761479856562067500,6.0280673828125,-0.14918576833903788,0.002768898457754403,0.0019097974103875457
1761479856572103400,6.038103515625,-0.14215455452799797,0.0006201594586484134,0.0002618110076524317
1761479856582139400,6.048139404296875,-0.13138298514485358,0.005015964998491108,0.0010839593118056655
1761479856592175400,6.05817529296875,-0.13946283122599124,0.004545625806692988,-0.00820772851081565
1761479856602210600,6.06821044921875,-0.14275544303059576,0.0033517581133171914,-0.00996693846937269
1761479856612246500,6.07824658203125,-0.13257716336548328,-0.005740626011230051,-0.0023655418212525543
1761479856622282500,6.088282470703125,-0.14305062658488749,0.0029311032821424305,0.0008696041750721633
1761479856632318500,6.098318359375,-0.14245382973551748,0.0018917320307344197,-0.007279562548920512
1761479856642354400,6.1083544921875,-0.13975859930217266,0.0015126330526545643,-0.007573138668015599
1761479856652390400,6.118390380859375,-0.14738777900636196,-0.0015135281017981468,-0.004226823914796114
1761479856662426400,6.12842626953125,-0.14544073659181594,0.000503912667836994,-0.0021190379805862904
1761479856672462300,6.13846240234375,-0.1373597214668989,0.002533975457027554,-0.007447758722677826
1761479856682498600,6.14849853515625,-0.13765607406497002,-0.0004636354563757777,-0.00028568507358431815
1761479856692533500,6.158533447265625,-0.13466098390221595,0.0037341815596446393,-0.0008431728258728981
1761479856702569500,6.168569580078125,-0.13884791419804096,0.007523088981211185,-0.00026889833556488155
1761479856712605400,6.17860546875,-0.14289046758711338,-0.005536956665292382,-0.0026955044279806314
1761479856722641400,6.188641357421875,-0.13645721966922283,-0.0008728373117744922,-0.0003896934373304248
1761479856732677400,6.198677490234375,-0.13750585193932055,0.007758011981938034,-0.006607380642089993
1761479856742713300,6.20871337890625,-0.1387017837256193,0.009409596847556531,0.001998663003928959
1761479856752749600,6.21874951171875,-0.15187281546592712,0.010608286846522241,-0.0071478441943414505
1761479856762785500,6.22878564453125,-0.13317103760540486,-0.0024893325977027414,-0.005584485601447522
1761479856772821500,6.238821533203125,-0.14903379264771938,0.0021884134223684668,-0.002274630401097238
1761479856782856400,6.2488564453125,-0.13362287302613257,0.005010923497192561,-0.010062014607992022
1761479856792892400,6.258892333984375,-0.1361672968119383,0.002464947075117379,-0.00044292146191000936
1761479856802928400,6.268928466796875,-0.149482120937109,-0.0014137027228251099,-0.0006042677697725594
1761479856812964400,6.27896435546875,-0.14110533773601056,-0.0008709376156330108,-0.006242054461035877
1761479856823000300,6.289000244140625,-0.14110533773601056,0.0025134075930342077,-0.010960369953513144
1761479856833036500,6.29903662109375,-0.13915829532146454,0.0030230010829865933,-0.006904080300033092
1761479856843072500,6.309072509765625,-0.13691314674317837,0.006224153478164226,-0.0019075871869921684
1761479856853108500,6.3191083984375,-0.14305238015055655,0.006640095601603388,-0.002891775918751955
1761479856863143400,6.329143310546875,-0.1375163733333349,-0.0016251535164192319,0.002005640733987093
1761479856873179400,6.339179443359375,-0.14529577516317366,0.002402275368757546,0.0028044629614800212
1761479856883215400,6.34921533203125,-0.13451894508302212,0.004766849075630307,-0.00481324550062418
1761479856893251300,6.359251220703125,-0.13122808684408663,0.0037486667427234347,-0.0033341128587722774
1761479856903287300,6.369287353515625,-0.13347148185670374,0.002096844415087253,-0.003995663773734122
1761479856913323500,6.379323486328125,-0.13960487004518507,0.004205762860458344,-0.0032095183647237718
1761479856923359500,6.389359375,-0.14334873274862767,0.003261266818270087,-0.005721117593161761
1761479856933395500,6.3993955078125,-0.1351198335856199,0.0036229214712046086,-0.003932005686685443
1761479856943430400,6.409430419921875,-0.1355693309187889,0.006553367166221141,-0.0067061465751379725
1761479856953466400,6.41946630859375,-0.1343704765230417,0.005157601958885789,-0.004802395313046872
1761479856963502300,6.42950244140625,-0.1375128662019968,-0.002360555118881166,0.0027358547046780583
1761479856973538300,6.439538330078125,-0.1388636962890625,0.0059274903528392315,-0.004142725827917457
1761479856983574300,6.44957421875,-0.13751403524577616,-0.006066971888765692,-0.0038132746778428554
1761479856993610500,6.459610595703125,-0.14185703288614748,0.0017896233631297944,-0.00134092974755913
1761479857003646500,6.469646484375,-0.13811726183593273,-0.004933383015263825,-0.0006868132203817367
1761479857013682400,6.479682373046875,-0.1417079798042774,0.004655388057790697,-0.0007206058921292424
1761479857023717400,6.48971728515625,-0.14171148693561553,-0.0030300701445899903,0.0014480068512260913
1761479857033753300,6.49975341796875,-0.14021569541990755,0.0017125212726183234,-0.006231076409295201
1761479857043789300,6.509789306640625,-0.1411105984330177,-0.0022946868084371087,0.0025741430706344545
1761479857053825300,6.5198251953125,-0.14275135137736797,-0.0014838453495875,0.0032918994185514748
1761479857063861200,6.529861328125,-0.14080138635337353,0.007984824741445481,-0.007465294379368424
1761479857073897500,6.5398974609375,-0.13421265561282633,0.00024763635182753203,0.0009306319136172533
1761479857083933400,6.549933349609375,-0.14288988306522368,-0.0024376572093926367,-0.007269260350614786
1761479857093969400,6.559969482421875,-0.14498597856163978,-0.0011305749325081706,-0.004650383089110255
1761479857104004400,6.57000439453125,-0.1370546010404825,-0.002145925987511873,0.00006265344005078077
1761479857114040300,6.580040283203125,-0.14214227956831454,0.0026055793885141607,-0.003948956821486354
1761479857124076300,6.590076171875,-0.13780278905928134,0.0023870230006985366,0.006637355655245482
1761479857134112300,6.6001123046875,-0.1427402454614639,-0.006955445161089301,-0.0042540224489755925
1761479857144148200,6.610148193359375,-0.13421207109093666,-0.001593790263775736,-0.005796009460277855
1761479857154184400,6.620184326171875,-0.13690496343672276,0.0025453188349492846,-0.008444240680430084
1761479857164220400,6.630220458984375,-0.14304010519087315,-0.00044003538507968187,-0.00039407735150307415
1761479857174256600,6.640256591796875,-0.13300912504196166,-0.0004917473060078918,0.0037274047589860855
1761479857184291300,6.650291259765625,-0.14886837295293806,0.0038491497088223693,-0.007760039542242884
1761479857194327300,6.660327392578125,-0.1511105989217758,0.00016300854198634623,-0.0031347543617710467
1761479857204363300,6.67036328125,-0.14571838448941707,-0.004937876527290791,-0.003506601615156978
1761479857214399200,6.680399169921875,-0.13075579315721989,-0.00309305237820372,0.0015841273862868546
1761479857224435500,6.690435546875,-0.13584230264127253,-0.0028314605662599205,-0.008471731475554406
1761479857234471700,6.7004716796875,-0.13988134889900683,-0.005599372643325477,-0.005929134320653975
1761479857244507600,6.710507568359375,-0.14077742095589638,-0.006196790547203272,-0.009773900115303694
1761479857254543600,6.720543701171875,-0.137635615798831,-0.0006408917194232344,-0.011561788179073482
1761479857264578300,6.730578369140625,-0.12761223443448544,-0.002081939106900245,-0.003879471781849861
1761479857274614300,6.7406142578125,-0.13060790911912917,-0.0000611921353265643,-0.0064845031810924405
1761479857284650500,6.750650390625,-0.14392331776618958,0.003679072105232626,-0.00813029762674123
1761479857294686500,6.7606865234375,-0.13613923976123332,-0.012237038825824857,-0.008509213941730558
1761479857304722400,6.770722412109375,-0.1344932261198759,-0.00034629268702119584,-0.002924472611956298
1761479857314758700,6.780758544921875,-0.12791267868578432,-0.0014469474053010343,-0.007039324052259326
1761479857324794600,6.790794677734375,-0.13584171811938284,-0.0004456066093407571,-0.006925506680551916
1761479857334830600,6.80083056640625,-0.14122574924528597,-0.012990177014376967,-0.0003552431784570217
1761479857344865500,6.810865478515625,-0.12715922996997833,-0.004056764577515423,-0.00810465172883123
1761479857354901500,6.820901611328125,-0.13613748619556426,-0.00213766961582005,-0.0031583726993761954
1761479857364937500,6.8309375,-0.1332990478992462,-0.002089300429448485,-0.0008298018876463175
1761479857374973400,6.840973388671875,-0.13330138598680497,0.003476553536765277,0.0039037659728899596
1761479857385009400,6.851009521484375,-0.12896189547777176,0.004045622128993272,-0.00624294951017946
1761479857395045600,6.861045654296875,-0.13509762175381182,0.0010672273727133869,-0.003081124478392303
1761479857405081600,6.87108154296875,-0.14676935484707354,0.003111720546055585,-0.000009644611179828643
1761479857415117600,6.88111767578125,-0.13239946871101854,-0.008724226665589958,0.0019975670253857968
1761479857425152500,6.891152587890625,-0.14316986905038356,0.0010960698747076094,0.0023597696675918996
1761479857435188500,6.9011884765625,-0.14496201316416263,0.006787888308148831,0.0006973711470142006
1761479857445224400,6.911224365234375,-0.14585866974294184,-0.008530329794995486,0.0011471972737461327
1761479857455260400,6.921260498046875,-0.14615852947235106,0.0045572979781776666,-0.006214874193165451
1761479857465296400,6.93129638671875,-0.13478724063038824,0.0036244010422378774,0.0011843144137412308
1761479857475332600,6.94133251953125,-0.12820260154306887,-0.019705493276659398,-0.0060475365359336135
1761479857485368600,6.95136865234375,-0.1536421632260084,-0.0022180413756519553,-0.007469075505342334
1761479857495403500,6.961403564453125,-0.14406827919483184,0.006657338997349143,-0.007366784174647182
1761479857505439500,6.971439453125,-0.14287234740853308,0.003615377485565841,-0.002875993827730417
1761479857515475500,6.981475341796875,-0.13793372196257114,0.000778053434100002,0.0011008373813703655
1761479857525511400,6.991511474609375,-0.14062661430835724,-0.0033720702489838,-0.0006313749724067748
1761479857535547400,7.00154736328125,-0.13374094644784926,-0.002182860464416444,-0.0021046806616708633
1761479857545583400,7.011583251953125,-0.1365846454411745,-0.005483290249295532,-0.008790990025177598
1761479857555619600,7.02161962890625,-0.13957973560392856,0.006199841020815074,0.0009171879101544619
1761479857565655600,7.031655517578125,-0.12970306923389435,0.00007185965981334447,-0.00840228296853602
1761479857575690500,7.0416904296875,-0.14226795177459717,0.0030889789912849665,-0.005561031660623848
1761479857585726500,7.0517265625,-0.13912790018320081,0.0037486667427234347,0.0009269969181157648
1761479857595762400,7.061762451171875,-0.13867781832814216,0.004204356354661286,-0.0031843656571581957
1761479857605798400,7.07179833984375,-0.15005086073577403,-0.0001841061289422214,-0.001596950335241854
1761479857615834400,7.08183447265625,-0.13478782515227794,-0.011405702568218112,-0.0026512816937640307
1761479857625870600,7.09187060546875,-0.13927519969940186,-0.007073025392461568,-0.006034019467234611
1761479857635906600,7.101906494140625,-0.13822773647308348,0.0028096688595600425,-0.009182016903068869
1761479857645942500,7.111942626953125,-0.1428682557553053,0.003154061850439757,-0.012740312172845006
1761479857655977500,7.1219775390625,-0.13418518308401106,0.0014184336968697607,-0.0074448361132293936
1761479857666013400,7.132013427734375,-0.13493220205903053,0.005093943871837109,-0.004914002461358905
1761479857676049400,7.14204931640625,-0.14196458491384983,-0.007209164193831384,-0.00041185047021135684
1761479857686085400,7.15208544921875,-0.1299929920911789,-0.006648936495184898,-0.0005531221044249833
1761479857696121300,7.162121337890625,-0.1406190155237913,-0.0006657704323530197,-0.0044878312048502265
1761479857706157600,7.172157470703125,-0.14121815046072006,-0.012702975837141275,-0.007333904818352312
1761479857716193500,7.182193603515625,-0.138976509013772,-0.0024469547607004643,0.0010867540570907294
1761479857726228500,7.192228515625,-0.13374153096973895,0.005558255181647837,-0.0036488413637503977
1761479857736264400,7.202264404296875,-0.14376900398731232,-0.002365267826616764,-0.0007146876079961657
1761479857746300400,7.212300537109375,-0.1464578046798706,-0.002603898888081312,-0.004762355563603341
1761479857756336400,7.22233642578125,-0.14137187971770762,-0.008143650298658758,-0.0060181095120497045
1761479857766372400,7.232372314453125,-0.14167173944711683,-0.0046870983703061935,-0.0053998497495427724
1761479857776408300,7.242408203125,-0.14511340433359146,0.0068073601935990154,-0.005943436840642243
1761479857786444500,7.252444580078125,-0.13269699035286903,0.0082175192524679,-0.002985957008227706
1761479857796480500,7.26248046875,-0.13868307902514934,0.0048385260723531245,-0.0042312808942049735
1761479857806515500,7.272515380859375,-0.133743284535408,-0.0008312083934433758,-0.0007524258024990558
1761479857816551400,7.282551513671875,-0.1307511169821024,-0.001454290461540222,-0.005797470765002071
1761479857826587400,7.29258740234375,-0.14332184474170206,0.009316712666023522,-0.0033116818312555548
1761479857836623400,7.302623291015625,-0.14212065225839615,-0.0020458083475939927,-0.0026170323642902074
1761479857846659300,7.312659423828125,-0.1427145264983177,0.0038683475996367633,-0.004714936225302517
1761479857856695300,7.3226953125,-0.14675006562471388,0.0065457318490371105,0.00015551935527473686
1761479857866731500,7.3327314453125,-0.13178104455173015,-0.001050276237912476,-0.001944539930205792
1761479857876766500,7.342766357421875,-0.13372341079115868,0.006150412388518452,-0.0047726577619090675
1761479857886802400,7.352802490234375,-0.1485363645195961,0.0022143150486052033,-0.006583597907703369
1761479857896838400,7.36283837890625,-0.13746318184137343,0.006510989329218864,-0.002102927096001804
1761479857906874400,7.372874267578125,-0.13431845407485962,-0.0008951039425097406,-0.005580868872255087
1761479857916910300,7.382910400390625,-0.14119593862891197,0.0036478732493706047,0.00200649925051257
1761479857926946300,7.3929462890625,-0.14239537754654882,0.003652311962470412,-0.006419730849191546
1761479857936982300,7.402982177734375,-0.13730536093115805,-0.0003255238936282694,0.0029881489653140305
1761479857947017500,7.413017578125,-0.14089549437761306,0.0010258907153271137,0.0024662439830601215
1761479857957053400,7.423053466796875,-0.1429851601332426,0.0005022869663313031,-0.006855820711515843
1761479857967089400,7.43308935546875,-0.13595394632220267,-0.0046804311675019555,-0.004709529397822917
1761479857977125400,7.44312548828125,-0.1441840145289898,0.005800612570159137,-0.005435048927087336
1761479857987161300,7.453161376953125,-0.1407417651206255,0.00783588125742972,0.0031310645673424003
1761479857997197300,7.463197265625,-0.13894669839739798,-0.008440276891365646,-0.002736439226567745
1761479858007233300,7.4732333984375,-0.1380482882529497,0.002434351007454097,0.0005856544008478522
1761479858017269200,7.483269287109375,-0.13610241488218305,-0.0026505693077109754,-0.004389540195837617
1761479858027304400,7.493304443359375,-0.1411906779319048,0.004508435601461678,-0.006394377212226391
1761479858037340400,7.50334033203125,-0.1438835702776909,0.003601476824376732,-0.0034338103735819456
1761479858047376400,7.51337646484375,-0.13325754684507846,-0.008396236820239574,-0.002920380958728492
1761479858057412400,7.523412353515625,-0.1392418819516897,-0.003591960077360272,-0.01106929195439443
1761479858067448300,7.5334482421875,-0.14103402606546878,-0.008970036386512219,-0.0007907667852006852
1761479858077484300,7.543484375,-0.13759119213521478,-0.006251370278652757,0.0035985724812373516
1761479858087520300,7.553520263671875,-0.1464180571913719,-0.0026540947053581474,-0.006482402555551379
1761479858097555500,7.563555419921875,-0.138340549197793,-0.005519749802164733,-0.002241787577420473
1761479858107591400,7.57359130859375,-0.14013853853046893,-0.01001939930897206,-0.0028884514505043623
1761479858117627400,7.58362744140625,-0.14448095164895056,0.00009646437810733914,-0.0074839990798383944
1761479858127663400,7.593663330078125,-0.14418109191954134,0.006327431189548224,0.0019444120660424232
1761479858137699300,7.60369921875,-0.1410381177186966,-0.0016600604330189526,-0.0006011076983064412
1761479858147735300,7.6137353515625,-0.13654665151834486,-0.007254245444573462,-0.007984569013118743
1761479858157771300,7.623771240234375,-0.12248130128681659,-0.0016861264560371636,-0.00019683774635195731
1761479858167806500,7.633806396484375,-0.12921966963112352,0.0019185469724237918,-0.0058098187899217005
1761479858177842400,7.643842529296875,-0.1372989311903715,-0.0060424402357079085,-0.001333805887028575
1761479858187878400,7.65387841796875,-0.14253507827818393,-0.005209076417796313,0.0006087978144176303
1761479858197914400,7.663914306640625,-0.1428325999200344,-0.0037112025428563352,-0.005468713734671473
1761479858207950300,7.673950439453125,-0.13145605038106442,-0.003446468925755471,0.00018591449353843925
1761479858217986300,7.683986328125,-0.14162848482728005,0.010434555981121956,-0.0002411152794957161
1761479858228022300,7.694022216796875,-0.1520996099591255,0.005020988233480603,0.0006460062859579921
1761479858238057500,7.704057373046875,-0.1497071618646383,0.0002069572815671563,-0.006134319770243019
1761479858248093400,7.714093505859375,-0.13803601329326629,-0.00453545147255063,0.0029960765434429047
1761479858258129400,7.72412939453125,-0.14088088133037088,-0.007421911895368248,-0.005872527028899639
1761479858268165400,7.734165283203125,-0.1347463240981102,0.00173484270228073,-0.006166687669884413
1761479858278201300,7.744201416015625,-0.1483656841278076,-0.0004986337045207619,-0.008461794603429735
1761479858288237300,7.7542373046875,-0.14028174639344215,-0.0022258776222355663,-0.0006336765273474156
1761479858298273500,7.7642734375,-0.13684066602885722,-0.0019700944965705272,-0.00937556671379134
1761479858308308500,7.77430859375,-0.13100363043844698,0.00007777794394642115,-0.004122157963924109
1761479858318344400,7.784344482421875,-0.137734399998188,-0.009518098723329604,-0.001133461009338498
1761479858328380400,7.79438037109375,-0.13099778521955013,-0.0025026852696202694,-0.015346622213721274
1761479858338416400,7.80441650390625,-0.14177110816836355,-0.0021971812507137656,-0.002972092879656702
1761479858348452400,7.814452392578125,-0.1353343531191349,-0.005820486314408481,-0.0038025706207379696
1761479858358488600,7.824488525390625,-0.14266542665958404,-0.0007120207268744707,-0.01299262469979003
1761479858368524500,7.834524658203125,-0.13114566925764082,-0.0018605879737995563,-0.008886760283540934
1761479858378559200,7.844559326171875,-0.14012334096133708,-0.0005283529893495143,-0.002025697141326964
1761479858388595500,7.854595458984375,-0.14551087921857833,-0.005391922171413898,-0.008495769938267768
1761479858398631400,7.86463134765625,-0.14521101948916912,0.0008280483219772576,-0.004405395352095365
1761479858408667100,7.874667236328125,-0.1392249308168888,-0.003975150708667934,-0.012377707671839744
1761479858418703000,7.884703125,-0.13144494446516036,-0.010823719695489852,-0.006799195153452456
1761479858428739000,7.894739013671875,-0.1274088208168745,-0.0017152794852852821,-0.006394030152354389
1761479858438775000,7.904775146484375,-0.13698621197938918,-0.0022810601418837904,0.003675400577113032
1761479858448810000,7.91481005859375,-0.14356792845726013,0.0013263349666260181,-0.0003809986742213368
1761479858458846200,7.92484619140625,-0.13189502632021904,-0.00016120017739012837,-0.008674578837584703
1761479858468882200,7.934882080078125,-0.15090309365093707,-0.00744447078704834,0.0015211816852912306
1761479858478918100,7.944918212890625,-0.14446867668926716,-0.000709390378370881,-0.005978124561533332
1761479858488954000,7.9549541015625,-0.13085223926901818,0.0031127799919806417,-0.002133778891991824
1761479858498990000,7.964989990234375,-0.14357202011048792,-0.0003555537057109177,-0.0031151728784665463
1761479858509026000,7.975026123046875,-0.13998422475159167,-0.0002228307041339576,-0.005054561709519475
1761479858519062000,7.98506201171875,-0.1396867031097412,-0.013097820373624563,-0.006883293240331113
1761479858529097000,7.995096923828125,-0.13385200560688973,0.0002479834116995335,-0.0065355209822766476
1761479858539133200,8.00513330078125,-0.13849369393289088,0.004455189310573041,-0.0032489370596595108
1761479858549167900,8.01516796875,-0.13819617229104042,-0.008895400247722864,-0.004767506662756204
1761479858559204000,8.0252041015625,-0.13774550591409204,-0.0074255834234878415,-0.01364482326451689
1761479858569240000,8.035239990234375,-0.13430676363706587,-0.010560849241912364,-0.007243979778885841
1761479858579276000,8.045276123046875,-0.14073884251117705,-0.0022265534756705165,-0.002700746858678758
1761479858589311000,8.05531103515625,-0.14148703052997588,-0.006101020288839936,-0.002857088197860867
1761479858599347000,8.065346923828125,-0.140737088945508,-0.0054241804732009765,0.0016327523009851575
1761479858609383200,8.075383056640625,-0.14178572121560573,0.004185140197537839,0.00269340380243957
1761479858619419100,8.085419189453125,-0.1443278069138527,-0.001979392047878355,-0.007243084729742258
1761479858629455000,8.095455078125,-0.14522563253641127,-0.001428279237449169,-0.004355016871728003
1761479858639491000,8.105490966796875,-0.15210720874369144,0.00919343334622681,-0.005190663978271186
1761479858649527000,8.115527099609375,-0.13429974937438965,-0.006854870863445103,-0.011150229969806968
1761479858659562000,8.12556201171875,-0.13130641277730465,0.0015483071542344987,-0.004955576580762863
1761479858669598200,8.13559814453125,-0.12726853556334972,-0.0012543474426493049,-0.004865286215115339
1761479858679634200,8.14563427734375,-0.14043547565042971,0.004060235176235437,-0.004073240788280964
1761479858689670100,8.155670166015625,-0.13833996467590332,-0.007794234072789549,-0.009306720994971693
1761479858699706000,8.1657060546875,-0.13879180009663103,0.0026135617655701935,-0.002224909507855773
1761479858709742000,8.1757421875,-0.13161036415994168,0.004439443752169609,-0.0003872457519173622
1761479858719778000,8.185778076171875,-0.13834171824157238,-0.002849854739475995,0.0009422127535566687
1761479858729814000,8.19581396484375,-0.1331026485443115,-0.0003454889694228768,-0.004479063376504927
1761479858739849200,8.20584912109375,-0.1345972710162401,0.0034875681211240586,-0.01470087165609002
1761479858749885200,8.21588525390625,-0.14268120875060558,-0.003468625958636403,-0.006643675798177718
1761479858759921200,8.225921142578125,-0.12801263192892073,-0.00625557152973488,-0.0031861192228272556
1761479858769957000,8.23595703125,-0.13983283358216284,-0.010295476303994655,-0.0017388795565813778
1761479858779993000,8.2459931640625,-0.1354910049855709,-0.0020547588390298186,-0.004834726680070162
1761479858790029000,8.256029052734375,-0.133547469702363,-0.0006988689843565226,0.001509418182261288
1761479858800064000,8.26606396484375,-0.13399462894797323,-0.006393409097846597,-0.0038039953928440807
1761479858810100000,8.276099853515625,-0.12666530897319317,-0.009224157278053462,-0.010089414071571082
1761479858820136200,8.28613623046875,-0.1387882929652929,-0.0015609657064080238,-0.003411306280829012
1761479858830172200,8.296172119140625,-0.1380447811216116,-0.0064954994991421695,-0.011993877719715237
1761479858840208100,8.3062080078125,-0.13789806612730027,-0.0051135436214506625,-0.005284516274183988
1761479858850244000,8.316244140625,-0.14897300237119196,0.0007325885908678174,0.002433163697365671
1761479858860280000,8.326280029296875,-0.13939678025245666,-0.000014119856897741555,-0.00863263939199969
1761479858870315000,8.33631494140625,-0.14253858540952205,-0.004297331867739558,-0.0031596696073189377
1761479858880351000,8.34635107421875,-0.14103987128436565,-0.007911174983344971,-0.0050631651410833
1761479858890387000,8.356386962890625,-0.13400690390765665,-0.0035552995950914918,-0.005682740077842027
1761479858900423200,8.366423095703125,-0.14208616546690464,-0.009519139902945607,-0.009207224409561603
1761479858910459100,8.376459228515625,-0.13624737631082534,-0.008596198105439544,-0.0018800050603225826
1761479858920495000,8.3864951171875,-0.13625146796405316,-0.0019389139070175587,-0.003689940559118986
1761479858930531000,8.396531005859375,-0.12024258244931697,-0.0005413038024678826,-0.002112224647309631
1761479858940566000,8.40656591796875,-0.1268301441460848,-0.0026181648754514753,-0.004948489252850413
1761479858950602000,8.41660205078125,-0.13341478323340414,-0.005377984977606684,-0.0029183716647326946
1761479858960638000,8.426637939453125,-0.1281792206674814,-0.004797828735783696,0.001515628727339208
1761479858970674000,8.436673828125,-0.13835691581070422,0.004283193744532764,0.006749949184246361
1761479858980710100,8.446710205078125,-0.14104747006893156,-0.001674618681333959,0.00360821709241718
1761479858990746000,8.45674609375,-0.1429898363083601,-0.0011819945924915372,-0.003204458597116172
1761479859000782000,8.466781982421875,-0.13775193565487862,0.0045344833581708365,-0.0017813669914379716
1761479859010817000,8.476817138671874,-0.13311433898210526,-0.004359729579463601,0.004599347021616995
1761479859020853000,8.48685302734375,-0.13491349735856056,-0.00724721291558817,-0.0019134689385071396
1761479859030889000,8.496888916015624,-0.13940262547135351,0.002387753653060645,0.0021960852721706033
1761479859040925000,8.506925048828125,-0.1385059688925743,0.0045321270043030375,-0.002575038119778037
1761479859050961000,8.5169609375,-0.13641338052749633,-0.0033679603294469412,-0.005033646785654127
1761479859060997000,8.5269970703125,-0.1355167239487171,0.00016249708533287046,-0.008216624203324318
1761479859071033000,8.537033203125,-0.1338695412635803,-0.0017659867592155932,-0.004408354494161904
1761479859081068000,8.547068115234374,-0.1343137778997421,-0.0037677002367563542,-0.002355696280673146
1761479859091104000,8.55710400390625,-0.13760171352922915,-0.0035826807923614976,-0.0035088118385523557
1761479859101140000,8.567139892578124,-0.13999299257993697,-0.0029449308780953288,-0.0006793970989063382
1761479859111176000,8.577176025390624,-0.13939794929623603,-0.004692852257657796,-0.00727941641844809
1761479859121213000,8.587212890625,-0.14672610022723673,0.0015624087448231874,-0.003138590286672115
1761479859131249000,8.597248779296875,-0.14134031553566456,-0.00659346171459183,-0.009445654541626571
1761479859141284000,8.6072841796875,-0.12593056495785712,0.006330792190413922,-0.0030518983839079735
1761479859151320000,8.617320068359374,-0.1392477271705866,0.008197791638690978,-0.003932937268447131
1761479859161356000,8.62735595703125,-0.1849047319740057,0.02430975393541157,-0.010153017359692602
1761479859171392000,8.63739208984375,-0.10334989983737468,-0.017785119673330334,0.005497775432374328
1761479859181428000,8.647427978515625,-0.06997545350193977,-0.006095540396124124,0.005231817972566932
1761479859191464000,8.6574638671875,-0.14314765721857547,0.0014555691031739116,-0.034084055909514424
1761479859201500000,8.6675,-0.15796177999079228,0.005540829122811556,0.027248437735810874
1761479859211535000,8.67753515625,-0.1525754107773304,-0.004424593242909759,0.005287457149941474
