time,seconds_elapsed,z,y,x
1761479850620808200,0.08680810546875,-0.000021202489733695984,-0.0030080401338636875,0.00002219283487647772
1761479850630844200,0.09684423828125,-0.0007433285936713219,-0.0005772109143435955,-0.00004066701512783766
1761479850640880000,0.106880126953125,0.0018074470572173595,0.0011961880372837186,-0.001127769355662167
1761479850650916000,0.116916015625,-0.0018477151170372963,0.0009283055551350117,-0.0005796694895252585
1761479850660952000,0.1269521484375,-0.00189938023686409,-0.0003822359722107649,-0.0020859534852206707
1761479850670988000,0.136988037109375,-0.0019017779268324375,-0.0018204334191977978,-0.0002464213175699115
1761479850681024000,0.14702392578125,-0.00021360069513320923,-0.0008097635582089424,-0.003030490130186081
1761479850691060000,0.15706005859375,-0.002360669896006584,0.004881422035396099,-0.001208317931741476
1761479850701095200,0.16709521484375,-0.0002613002434372902,0.0020731184631586075,-0.0008463943377137184
1761479850711131100,0.177131103515625,0.0012852335348725319,-0.0014616786502301693,0.0003957434091717005
1761479850721167000,0.1871669921875,-0.0007970919832587242,0.00017270329408347607,-0.0009281138190999627
1761479850731203000,0.197203125,0.0011014314368367195,0.00023684813641011715,-0.0006444118916988373
1761479850741239000,0.207239013671875,0.0001757168211042881,0.0017037172801792622,-0.002059615682810545
1761479850751275000,0.21727490234375,0.0018700393848121166,0.0003613377921283245,-0.0009779597166925669
1761479850761311000,0.22731103515625,0.0028652625624090433,-0.000848536379635334,0.00172541500069201
1761479850771347000,0.237346923828125,0.0006895572878420353,0.0007954898755997419,-0.001600438728928566
1761479850781383000,0.2473828125,-0.0016755959950387478,-0.0019973672460764647,0.00003554124850779772
1761479850791419100,0.257419189453125,-0.0001150001771748066,0.0015174595173448324,0.0016403112094849348
1761479850801455000,0.267455078125,0.000989146064966917,-0.0007339769508689642,0.0008075407822616398
1761479850811491000,0.277490966796875,-0.00005732802674174309,0.0004930093418806791,0.00019350554794073105
1761479850821527000,0.287527099609375,0.00011737551540136337,-0.0009104765485972166,-0.0012206330429762602
1761479850831562000,0.29756201171875,-0.00008998531848192215,-0.0000799405388534069,-0.0008045663125813007
1761479850841598000,0.307597900390625,0.0004003024660050869,-0.0002466542646288872,0.0019536695908755064
1761479850851634000,0.317634033203125,-0.00026934314519166946,0.0011226293863728642,-0.0002927531022578478
1761479850861670100,0.327670166015625,0.001222559716552496,0.0026462238747626543,-0.0008168632630258799
1761479850871706000,0.3377060546875,0.0013956204056739807,-0.001724829664453864,-0.0018560141324996948
1761479850881742000,0.3477421875,0.00023927586153149605,-0.0001170795876532793,0.0009850459173321724
1761479850891778300,0.3577783203125,0.0003470238298177719,0.0028657398652285337,0.000949157343711704
1761479850901814300,0.367814208984375,-0.0006127795204520226,-0.000004881527274847031,-0.0004498010966926813
1761479850911850200,0.377850341796875,-0.00015256507322192192,-0.0014114780351519585,-0.00004075630567967892
1761479850921886200,0.38788623046875,-0.00016801105812191963,0.0014743233332410455,-0.000008265720680356026
1761479850931922200,0.397922119140625,0.0023340939078480005,-0.0003091106191277504,0.0001083160750567913
1761479850941957000,0.40795703125,-0.00039085233584046364,-0.0016630615573376417,0.0002372130984440446
1761479850951993300,0.417993408203125,-0.0008024363778531551,-0.0022311906795948744,0.004173422232270241
1761479850962029300,0.428029296875,0.002916934434324503,-0.0012961544562131166,0.0021773832850158215
1761479850972065300,0.438065185546875,-0.0007534315809607506,-0.0024928434286266565,-0.0003490098752081394
1761479850982101200,0.448101318359375,0.0020599314011633396,0.0013343854807317257,-0.0010177295189350843
1761479850992137200,0.45813720703125,-0.0008634286932647228,-0.0020612466614693403,-0.0004391492111608386
1761479851002173200,0.468173095703125,0.00108014652505517,-0.0005701426416635513,0.0006985531072132289
1761479851012209200,0.478209228515625,-0.00044682901352643967,-0.0005526409950107336,-0.00010704214219003916
1761479851022245000,0.4882451171875,0.0008685062639415264,0.0009983839699998498,0.000049285474233329296
1761479851032281000,0.498281005859375,0.0005362732335925102,0.00042264116927981377,0.0014670310774818063
1761479851042317000,0.508317138671875,-0.0027849548496305943,-0.00027484074234962463,0.0010268106125295162
1761479851052353000,0.51835302734375,0.0013286806643009186,-0.0007976854685693979,-0.00034365151077508926
1761479851062389200,0.52838916015625,0.001950528472661972,0.00026624719612300396,0.001182872336357832
1761479851072424200,0.538424072265625,0.0019327695481479168,0.0025434885174036026,0.00022647553123533726
1761479851082460200,0.548460205078125,-0.000517604872584343,-0.00023152539506554604,0.0007063772063702345
1761479851092496100,0.55849609375,0.0016351458616554737,-0.0009578079916536808,-0.0013827215880155563
1761479851102532000,0.568531982421875,0.0006937184371054173,-0.001440106425434351,-0.0007970926817506552
1761479851112568000,0.578568115234375,-0.0011330652050673962,0.0018172558629885316,0.0017139599658548832
1761479851122604000,0.58860400390625,0.0026419656351208687,-0.0029149148613214493,-0.0008362832013517618
1761479851132640000,0.598639892578125,-0.0003336002118885517,-0.001856422983109951,-0.0018434337107464671
1761479851142676200,0.60867626953125,-0.0005927258171141148,0.0004964799154549837,0.0014351839199662209
1761479851152712200,0.618712158203125,0.0007276004180312157,-0.001477343961596489,0.0008161174482665956
1761479851162748200,0.628748046875,0.0005691424012184143,0.0016662513371556997,0.001748756505548954
1761479851172784000,0.6387841796875,-0.001139471773058176,-0.003117472631856799,0.0005101594142615795
1761479851182820000,0.648820068359375,0.0012057074345648289,-0.0005613705143332481,-0.0005894597852602601
1761479851192856000,0.65885595703125,0.0022979252971708775,-0.004225902259349823,0.0008943239809013903
1761479851202891000,0.66889111328125,0.001293380744755268,-0.001408011419698596,0.001038933638483286
1761479851212927000,0.678927001953125,0.0023148125037550926,0.0010460487101227045,-0.0018977101426571608
1761479851222963200,0.688963134765625,-0.001274862326681614,0.0004774639382958412,-0.0001280396245419979
1761479851232999200,0.698999267578125,-0.0005304422229528427,0.00019833003170788288,0.0020662660244852304
1761479851243035100,0.70903515625,0.0014914297498762608,0.0003248301800340414,0.00042043242137879133
1761479851253071000,0.719071044921875,0.00013325316831469536,0.0008174481336027384,0.0004093295428901911
1761479851263107000,0.729107177734375,-0.0005112318322062492,-0.0006398335099220276,0.0015305203851312399
1761479851273143000,0.73914306640625,-0.0009366222657263279,-0.00047817756421864033,0.0021828501485288143
1761479851283179000,0.749178955078125,0.0003656633198261261,-0.0005980196874588728,-0.0015386512968689203
1761479851293215000,0.759215087890625,-0.0006318334490060806,0.0000792213249951601,-0.003009916516020894
1761479851303251000,0.7692509765625,0.001036370638757944,-0.0008957618847489357,-0.0008397067431360483
1761479851313287000,0.779286865234375,-0.0005306224338710308,0.000036896439269185066,-0.0006882986053824425
1761479851323322000,0.789322021484375,-0.004000987391918898,-0.0007711066864430904,0.00216953968629241
1761479851333358000,0.799358154296875,-0.001153899822384119,-0.0007814455311745405,0.0015732443425804377
1761479851343394000,0.80939404296875,0.0014472096227109432,-0.0019210122991353273,-0.001932807150296867
1761479851353430000,0.819429931640625,-0.0006186068058013916,-0.0014562516007572412,-0.0003865568432956934
1761479851363466000,0.829466064453125,-0.0005837194621562958,0.0021544622723013163,-0.0013066788669675589
1761479851373502000,0.839501953125,0.001880610827356577,0.0010634183418005705,-0.0011204347247257829
1761479851383538000,0.849537841796875,0.002387410495430231,0.0002458279486745596,0.0020026543643325567
1761479851393574000,0.859573974609375,-0.000047425273805856705,-0.0020205213222652674,0.0008518561371602118
1761479851403610400,0.8696103515625,-0.0015491815283894539,0.0034991465508937836,-0.0014416581252589822
1761479851413646300,0.879646240234375,0.000002045184373855591,0.001749256276525557,-0.0024106218479573727
1761479851423682800,0.889682861328125,0.0004784846678376198,-0.0011392084416002035,-0.0017680011224001646
1761479851433718800,0.89971875,-0.00003911927342414856,0.001648115343414247,-0.0013126250123605132
1761479851443754800,0.909754638671875,0.0009531741961836815,-0.000295193400233984,0.0004549149889498949
1761479851453790700,0.919790771484375,0.0007390165701508522,0.0011993917869403958,-0.0004775973502546549
1761479851463825400,0.929825439453125,-0.0014130841009318829,0.000816429266706109,-0.0013630983885377645
1761479851473861400,0.939861328125,0.0011206204071640968,-0.0001904612872749567,-0.000924406573176384
1761479851483897600,0.949897705078125,-0.00013852212578058243,0.001027934835292399,0.0014945425791665912
1761479851493933600,0.95993359375,-0.0004660533741116524,-0.00001676310785114765,0.00007459160406142473
1761479851503969800,0.9699697265625,0.00001997360959649086,-0.000476424815133214,-0.001886027748696506
1761479851514005800,0.980005859375,-0.0009146747179329395,-0.0010254087392240763,0.0017242345493286848
1761479851524041700,0.990041748046875,-0.000781782902777195,0.0019661199767142534,-0.0008853969629853964
1761479851534077700,1.00007763671875,0.0029988805763423443,-0.0027648266404867172,-0.00045450113248080015
1761479851544113700,1.01011376953125,-0.00009384844452142715,-0.00002177082933485508,-0.0005333306035026908
1761479851554149600,1.020149658203125,0.0016322392039000988,-0.003402562579140067,0.0003009136999025941
1761479851564185600,1.030185546875,0.0009510023519396782,0.00167635187972337,-0.0019521204521879554
1761479851574221600,1.0402216796875,0.0010633338242769241,0.005481066182255745,-0.00022990652360022068
1761479851584257500,1.050257568359375,0.0006342986598610878,0.0017521082190796733,0.00021883612498641014
1761479851594293500,1.06029345703125,0.002441808581352234,0.00033236807212233543,-0.0008924431167542934
1761479851604328700,1.07032861328125,0.0008279331959784031,-0.0013163951225578785,0.0005065153818577528
1761479851614364700,1.08036474609375,-0.0004297727718949318,0.0018647350370883942,-0.00042939349077641964
1761479851624400600,1.090400634765625,0.00016357982531189919,0.0010700477287173271,0.001586619415320456
1761479851634436600,1.1004365234375,-0.0009311363101005554,-0.0028900769539177418,0.000004120287485420704
1761479851644472600,1.11047265625,0.0015791594050824642,0.000616240780800581,0.0007567296270281076
1761479851654508500,1.120508544921875,-0.0010582231916487217,0.0021951862145215273,-0.0004789199447259307
1761479851664544500,1.13054443359375,-0.0006425036117434502,0.002090523950755596,0.0005679687019437551
1761479851674580500,1.14058056640625,-0.000023019500076770782,-0.0010513970628380775,-0.0003858743002638221
1761479851684616400,1.150616455078125,-0.0003356747329235077,0.0012772711925208569,-0.0008332853903993964
1761479851694652700,1.160652587890625,-0.0009696716442704201,0.0009532999247312546,0.0007571351598016918
1761479851704688600,1.170688720703125,0.0005118446424603462,0.0011988433543592691,0.0009845690801739693
1761479851714724600,1.180724609375,0.001100956927984953,-0.0012574815191328526,-0.0006968858651816845
1761479851724760600,1.190760498046875,-0.0010748454369604588,0.0017207316122949123,-0.002708105370402336
1761479851734796500,1.200796630859375,-0.00040809623897075653,0.001989773940294981,0.0006037956336513162
1761479851744831500,1.21083154296875,0.000841459259390831,0.002096832962706685,0.00031857111025601625
1761479851754867500,1.220867431640625,0.0030928270425647497,0.0005118462722748518,-0.0017133468063548207
1761479851764903400,1.2309033203125,-0.00047421082854270935,0.0016588696744292974,-0.0008795111207291484
1761479851774939600,1.240939697265625,0.0007953876629471779,-0.0003747690934687853,0.0007640247349627316
1761479851784975600,1.2509755859375,0.0005461159162223339,-0.00043176067993044853,0.00048439286183565855
1761479851795011600,1.261011474609375,-0.0002594785764813423,0.0005218673031777143,0.002058296697214246
1761479851805047600,1.271047607421875,0.000696329865604639,0.00018071639351546764,-0.0010253776563331485
1761479851815083500,1.28108349609375,-0.0004937434569001198,-0.0001532621681690216,0.0012902552261948586
1761479851825119500,1.291119384765625,-0.0016988241113722324,-0.00033142766915261745,0.0006617491599172354
1761479851835155500,1.301155517578125,0.0004138825461268425,0.00015323888510465622,-0.000786664430052042
1761479851845191400,1.31119140625,-0.0003784080035984516,0.0013583193067461252,0.0002548979828134179
1761479851855227400,1.321227294921875,0.0007333159446716309,-0.0027633942663669586,-0.0036635887809097767
1761479851865263400,1.331263427734375,0.00014156196266412735,-0.0005931842606514692,-0.000521058333106339
1761479851875299300,1.34129931640625,0.0012312871403992176,0.0019452774431556463,-0.00012194563169032335
1761479851885335800,1.351335693359375,-0.0014806101098656654,0.00046589155681431293,-0.000935541233047843
1761479851895370500,1.36137060546875,0.0030501121655106544,-0.0014983764849603176,-0.0009548263624310493
1761479851905406500,1.371406494140625,0.00023568375036120415,-0.0002837087959051132,-0.0015644240193068981
1761479851915442400,1.3814423828125,-0.0020225215703248978,0.0013095258036628366,0.0003869994543492794
1761479851925478400,1.391478515625,-0.00046936655417084694,-0.0001410979311913252,-0.00015362224075943232
1761479851935514600,1.4015146484375,-0.0003738808445632458,-0.004020881839096546,0.0002884315326809883
1761479851945550600,1.411550537109375,-0.0006796116940677166,-0.0005174935795366764,-0.000021027750335633755
1761479851955586600,1.421586669921875,0.0006263921968638897,-0.0028275311924517155,-0.0028076625894755125
1761479851965622800,1.431622802734375,0.0008887136355042458,-0.0008671781979501247,0.00007148087024688721
1761479851975658800,1.44165869140625,-0.00034499960020184517,-0.0022384680341929197,-0.0003972705453634262
1761479851985694700,1.45169482421875,0.002035067416727543,0.001313389977440238,0.001477861194871366
1761479851995730700,1.461730712890625,-0.0006930502131581306,-0.0015796280931681395,0.00179839669726789
1761479852005766700,1.4717666015625,0.0022643902339041233,0.002401797566562891,-0.000381666817702353
1761479852015802600,1.481802734375,0.0008619865402579308,0.003072915133088827,0.00002787797711789608
1761479852025838600,1.491838623046875,-0.002933816984295845,-0.0012981314212083817,0.0013184458948671818
1761479852035874600,1.50187451171875,0.00003028055652976036,-0.0010637356899678707,0.002161181066185236
1761479852045909800,1.51190966796875,0.0006127138622105122,0.0009432223159819841,-0.00047188636381179094
1761479852055945700,1.52194580078125,0.0009390851482748985,-0.0016170800663530827,-0.00132425082847476
1761479852065981700,1.531981689453125,0.0006408109329640865,-0.00013929186388850212,-0.0027628904208540916
1761479852076017700,1.542017578125,-0.0011945944279432297,-0.0005385822150856256,-0.0005259914323687553
1761479852086053600,1.5520537109375,0.00024005072191357613,-0.001967101590707898,0.00033847056329250336
1761479852096089600,1.562089599609375,-0.0011852025054395199,0.0003580076154321432,-0.0003612465225160122
1761479852106125600,1.57212548828125,0.000459832139313221,0.00021073478274047375,0.0016736749093979597
1761479852116161500,1.58216162109375,-0.0009419647976756096,-0.0017319482285529375,-0.0013931570574641228
1761479852126197500,1.592197509765625,0.0000711013562977314,0.000810838071629405,-0.0018714608158916235
1761479852136233500,1.6022333984375,-0.0005486304871737957,-0.001256471499800682,0.001998066669330001
1761479852146269400,1.61226953125,0.0019811061210930347,-0.002821078523993492,-0.0012190319830551744
1761479852156305700,1.6223056640625,0.000875761266797781,0.0009759403765201569,0.0001886463724076748
1761479852166341600,1.632341552734375,0.0010699057020246983,-0.0012872139923274517,0.0018363441340625286
1761479852176377600,1.642377685546875,-0.0022656465880572796,-0.00026317453011870384,-0.00166779151186347
1761479852186413600,1.65241357421875,0.00043826084583997726,0.0011059566168114543,0.0004763193428516388
1761479852196448500,1.662448486328125,-0.000981840305030346,0.0009143329225480556,0.0015799844404682517
1761479852206484500,1.672484375,0.0007619974203407764,0.0009215234313160181,0.00016318284906446934
1761479852216520400,1.6825205078125,0.0015522642061114311,-0.0014137341640889645,0.0007859606994315982
1761479852226556400,1.692556396484375,0.0008723591454327106,0.00016685179434716702,-0.00015360256657004356
1761479852236592600,1.702592529296875,0.0004243082366883755,0.0018274508183822036,-0.00003705837298184633
1761479852246628600,1.712628662109375,-0.00015839142724871635,0.001263126963749528,0.0009174185688607395
1761479852256664600,1.72266455078125,-0.0014346376992762089,-0.0006839362904429436,0.0006719922530464828
1761479852266700500,1.732700439453125,-0.000324898399412632,0.00207536481320858,0.0009207315160892904
1761479852276736500,1.742736572265625,0.00036252522841095924,0.0002160568255931139,-0.0010670933406800032
1761479852286772500,1.7527724609375,-0.0007706498727202415,-0.0025690768379718065,-0.00029743975028395653
1761479852296808400,1.762808349609375,-0.000517865177243948,-0.0007117288187146187,0.000679957855027169
1761479852306844400,1.772844482421875,0.0009106546640396118,-0.0035911384038627148,-0.0005573468515649438
1761479852316880400,1.78288037109375,-0.0008813836611807346,-0.0013968765269964933,0.0008704705978743732
1761479852326916400,1.792916259765625,0.0002603135071694851,-0.0003454603720456362,-0.0013426162768155336
1761479852336952600,1.80295263671875,0.0011581340804696083,-0.0012234169989824295,0.0010094193276017904
1761479852346987500,1.812987548828125,-0.0004110005684196949,0.002224577823653817,0.0015359262470155954
1761479852357023500,1.8230234375,0.00023753568530082703,-0.0007506073452532291,0.0006658099591732025
1761479852367059500,1.8330595703125,0.00041783181950449944,0.00005792849697172642,-0.000814907718449831
1761479852377095400,1.843095458984375,0.000741039402782917,-0.0012243904639035463,0.0007672917563468218
1761479852387131600,1.853131591796875,-0.00004619080573320389,0.0007495447061955929,0.0010948606068268418
1761479852397167400,1.86316748046875,0.0005698506720364094,0.0009673114400357008,0.0006152489222586155
1761479852407203300,1.873203369140625,-0.00031911255791783333,-0.0015696159098297358,-0.00028729636687785387
1761479852417239600,1.883239501953125,0.00024292198941111565,0.0012592999264597893,-0.00024042569566518068
1761479852427275500,1.893275634765625,-0.0013501811772584915,0.0006776654627174139,-0.0020010415464639664
1761479852437311500,1.9033115234375,-0.0002606688067317009,0.002306578680872917,0.0014702115440741181
1761479852447347500,1.913347412109375,0.00023654336109757423,0.0004442299250513315,0.0001759151928126812
1761479852457383400,1.923383544921875,0.0023428178392350674,0.002109820256009698,-0.001528625376522541
1761479852467419400,1.93341943359375,0.000595784280449152,0.00277587678283453,-0.0008878686930984259
1761479852477455400,1.943455322265625,0.000883039552718401,-0.0018989646341651678,-0.00029279140289872885
1761479852487490300,1.953490234375,0.0019672121852636337,0.0014150731731206179,0.00027872296050190926
1761479852497526500,1.963526611328125,0.0009286981076002121,0.000811821548268199,0.0010420683538541198
1761479852507562500,1.9735625,-0.0020021102391183376,-0.0027509552892297506,-0.0018471950897946954
1761479852517598500,1.983598388671875,-0.0005076965317130089,-0.0001497867051512003,0.001505062566138804
1761479852527634400,1.993634521484375,0.0020105885341763496,0.0009586210362613201,0.0001820041798055172
1761479852537670400,2.00367041015625,0.000010542571544647217,0.0027524735778570175,0.0013218889944255352
1761479852547706400,2.013706298828125,-0.00012128381058573723,0.000036049168556928635,0.0006238745409063995
1761479852557742300,2.023742431640625,0.0010460694320499897,0.0024095457047224045,-0.0005434132181107998
1761479852567778300,2.0337783203125,-0.0004261257126927376,-0.0018456534016877413,0.002159961499273777
1761479852577814300,2.043814208984375,-0.0001436886377632618,-0.0021226168610155582,-0.0007413119310513139
1761479852587850200,2.053850341796875,0.0006363512948155403,-0.003756466321647167,-0.0007857867749407887
1761479852597886200,2.06388623046875,-0.0010461392812430859,0.002079796977341175,0.000676637573633343
1761479852607922400,2.07392236328125,-0.0001361370086669922,0.0013199970126152039,0.000977308489382267
1761479852617958400,2.08395849609375,0.0005132574588060379,0.0014942435082048178,0.0009533562115393579
1761479852627993300,2.093993408203125,0.0016466989181935787,-0.000701000215485692,0.002146718557924032
1761479852638029300,2.104029296875,0.00015900889411568642,0.0007825263310223818,0.0008267034427262843
1761479852648065300,2.114065185546875,0.0017774119041860104,-0.000456908717751503,-0.0007389688398689032
1761479852658101200,2.124101318359375,-0.0018861498683691025,-0.0005084478762000799,0.0013710235944017768
1761479852668137200,2.13413720703125,0.000616688746958971,0.0010503001976758242,-0.00018159928731620312
1761479852678173200,2.144173095703125,0.0003732391633093357,0.0022167994175106287,-0.0018652895232662559
1761479852688209400,2.15420947265625,-0.0014044204726815224,0.00002954527735710144,0.0004889449337497354
1761479852698245400,2.164245361328125,0.00048776669427752495,0.000504274619743228,-9.674113243818283e-8
1761479852708281300,2.17428125,-0.001397484913468361,0.004612466786056757,-0.00010076421312987804
1761479852718317300,2.1843173828125,0.0010006185621023178,-0.0030425377190113068,0.00044186890590935946
1761479852728353300,2.194353271484375,-0.0007714489474892616,0.0016211899928748608,0.0020344392396509647
1761479852738389200,2.20438916015625,0.00010388391092419624,-0.0014402491506189108,0.00013203732669353485
1761479852748425200,2.21442529296875,-0.0008428697474300861,-0.0007888397667557001,-0.000018963939510285854
1761479852758461400,2.22446142578125,-0.0016198297962546349,-0.0015924612525850534,-0.0017272765981033444
1761479852768496400,2.234496337890625,0.000317353755235672,-0.0010939172934740782,-0.0008969028713181615
1761479852778532400,2.244532470703125,0.0008430769667029381,-0.003450457938015461,-0.00008235534187406301
1761479852788568300,2.254568359375,0.00020844582468271255,0.0019496339373290539,0.0003711809404194355
1761479852798604300,2.264604248046875,0.0010035145096480846,0.00010370789095759392,0.0024828282184898853
1761479852808640500,2.274640625,-0.0008473824709653854,0.003279793541878462,0.0009139601606875658
1761479852818676500,2.284676513671875,-0.00008169421926140785,0.0011501354165375233,-0.0011732180137187243
1761479852828712400,2.29471240234375,0.0017481637187302113,-0.0008658773731440306,0.0009365382138639688
1761479852838748400,2.30474853515625,-0.0017298408783972263,0.0003548364620655775,0.0020746798254549503
1761479852848784400,2.314784423828125,0.000008137896656990051,-0.0016017882153391838,0.0009276564233005047
1761479852858820400,2.3248203125,0.0014598211273550987,0.0013603444676846266,0.00005037279333919287
1761479852868856300,2.334856201171875,-0.001884310506284237,0.0007720522116869688,-0.00045243208296597004
1761479852878892500,2.344892578125,0.0021704435348510742,-0.0008390445727854967,0.0011306428350508213
1761479852888928500,2.354928466796875,-0.00014384323731064796,0.003867027349770069,0.000169241800904274
1761479852898963500,2.36496337890625,0.0013444293290376663,0.002265671733766794,-0.0009763847338035703
1761479852908999400,2.37499951171875,0.0010341713204979897,0.0032715476118028164,0.0015152688138186932
1761479852919035400,2.385035400390625,0.0005637295544147491,-0.002282245084643364,0.000022496911697089672
1761479852929071400,2.3950712890625,0.0010662679560482502,-0.0002574436366558075,0.0009466138435527682
1761479852939107300,2.405107421875,-0.00042156316339969635,-0.0017947193700820208,0.0013218310195952654
1761479852949143300,2.415143310546875,0.0021190927363932133,0.00118775456212461,0.00022673921193927526
1761479852959179500,2.425179443359375,0.0002468060702085495,-0.0004910044372081757,0.0008436409989371896
1761479852969215500,2.435215576171875,0.000622577965259552,-0.0025408396031707525,-0.00023254239931702614
1761479852979251500,2.44525146484375,-0.0015831952914595604,0.00028554280288517475,0.00018676102627068758
1761479852989287400,2.455287353515625,0.0006147115491330624,0.0012496071867644787,-0.002317675855010748
1761479852999323400,2.465323486328125,-0.001572608482092619,0.0006833397783339024,0.0009113893611356616
1761479853009359400,2.475359375,-0.0011233333498239517,-0.0015401334967464209,-0.001205557375214994
1761479853019395300,2.485395263671875,-0.0009229006245732307,0.003228497691452503,0.0005394961917772889
1761479853029431300,2.495431396484375,0.0011077597737312317,-0.0009044618345797062,-0.0002192383399233222
1761479853039466500,2.505466552734375,0.001212317030876875,0.0012953166151419282,-0.0009799390099942684
1761479853049502500,2.51550244140625,0.00024745380505919456,-0.000716701615601778,0.0011236920254305005
1761479853059538400,2.525538330078125,-0.0002322332002222538,0.0033417735248804092,0.001225868589244783
1761479853069574400,2.535574462890625,-0.0011952323839068413,-0.0012415267992764711,0.0010303925955668092
1761479853079610400,2.5456103515625,0.0006946087814867496,0.0013951794244349003,0.00017754326108843088
1761479853089646300,2.555646240234375,0.00021816929802298546,-0.00034173415042459965,0.0000672884052619338
1761479853099682300,2.565682373046875,-0.002244456671178341,-0.0023507417645305395,-0.0006977319717407227
1761479853109718300,2.57571826171875,0.0017580077983438969,0.0011909963795915246,-0.0002631039824336767
1761479853119754200,2.585754150390625,-0.00065635796636343,0.00035954476334154606,0.0010975489858537912
1761479853129790200,2.595790283203125,-0.0008560949936509132,-0.0003603077493607998,0.0009209814597852528
1761479853139826200,2.605826171875,-0.0003154454752802849,0.001320465817116201,-0.000009417068213224411
1761479853149862400,2.6158623046875,0.0009330445900559425,0.0005356322508305311,0.0014510604087263346
1761479853159897300,2.6258974609375,0.00003339443355798721,-0.0031296121887862682,-0.0001943239476531744
1761479853169933300,2.635933349609375,0.0012248926796019077,-0.0025881915353238583,-0.00008486805018037558
1761479853179969300,2.64596923828125,-0.0006548562087118626,0.0001656562089920044,-0.000734111643396318
1761479853190005200,2.656005126953125,-0.0001541818492114544,0.0012668734416365623,0.0028616883791983128
1761479853200041200,2.666041259765625,0.0015758620575070381,0.0022670936305075884,-0.000569872441701591
1761479853210077200,2.6760771484375,-0.00034001609310507774,0.0010271258652210236,0.0015974080888554454
1761479853220113200,2.686113037109375,0.00011841999366879463,-0.00005713454447686672,0.0013507530093193054
1761479853230149400,2.6961494140625,0.0009900722652673721,0.0019538183696568012,-0.0005230470560491085
1761479853240185300,2.706185302734375,0.0007216697558760643,0.0004132334142923355,-0.0017757598543539643
1761479853250221300,2.71622119140625,-0.0013132519088685513,-0.0002267241943627596,0.00017367396503686905
1761479853260257500,2.726257568359375,0.0006071836687624454,0.0010067182593047619,-0.00047528825234621763
1761479853270293500,2.73629345703125,0.00007535051554441452,0.0009364108555018902,-0.00013040879275649786
1761479853280329500,2.74632958984375,0.0013495516031980515,0.002015609759837389,-0.0016171694733202457
1761479853290364200,2.7563642578125,0.0010850997641682625,-0.002456103917211294,-0.0006975799333304167
1761479853300400400,2.766400390625,0.000654890201985836,0.0012308381265029311,-0.00025995762553066015
1761479853310436400,2.776436279296875,-0.00011343182995915413,0.00013974099420011044,0.0000460395822301507
1761479853320472600,2.78647265625,0.0005259593017399311,0.0010058479383587837,-0.00029175844974815845
1761479853330508500,2.796508544921875,0.002124122343957424,0.0013563198735937476,0.00011810194700956345
1761479853340544500,2.80654443359375,-0.0004366557113826275,0.0016555450856685638,-0.0007202822016552091
1761479853350580500,2.81658056640625,0.0005361968651413918,0.00030612130649387836,0.001861918717622757
1761479853360616400,2.826616455078125,-0.0018044314347207546,-0.00016516400501132011,0.0007461449131369591
1761479853370652400,2.83665234375,-0.004036426078528166,0.0010388509836047888,-0.0006115345750004053
1761479853380688400,2.8466884765625,0.000650706235319376,-0.0003888246137648821,0.002085745567455888
1761479853390724400,2.856724365234375,0.00006001722067594528,0.00012143701314926147,0.001214891904965043
1761479853400760000,2.866760009765625,0.0031160979997366667,-0.0033389476593583822,0.00019874190911650658
1761479853410795000,2.876794921875,-0.0006634602323174477,0.0017751205014064908,0.0018102206522598863
1761479853420831000,2.8868310546875,-0.00027264421805739403,-0.0021554334089159966,0.0014464864507317543
1761479853430867000,2.896866943359375,-0.0012646717950701714,0.0006406193133443594,-0.0007695299573242664
1761479853440903200,2.906903076171875,-0.0016296468675136566,-0.000580501276999712,0.0011205481132492423
1761479853450939100,2.916939208984375,0.000045214779675006866,0.0005896915681660175,-0.0011383449891582131
1761479853460975000,2.92697509765625,0.0009520044550299644,-0.00035160453990101814,0.0006255209445953369
1761479853471011000,2.937010986328125,0.001623653806746006,0.00023349188268184662,0.0019573678728193045
1761479853481047000,2.947047119140625,-0.002345265354961157,0.00024177785962820053,-0.0008157084230333567
1761479853491083300,2.957083251953125,0.000945603009313345,0.00005216081626713276,0.0009267978020943701
1761479853501119200,2.967119140625,-0.0006871256045997143,-0.0024070346262305975,-0.0009511635871604085
1761479853511155200,2.9771552734375,0.0005302052013576031,-0.00035986281000077724,0.00032369152177125216
1761479853521191200,2.987191162109375,0.0007753833197057247,0.0006484913174062967,-0.0011232744436711073
1761479853531226000,2.99722607421875,-0.0010126628912985325,0.000724391546100378,0.0006013885140419006
1761479853541262000,3.007261962890625,0.0009303409606218338,-0.0005205348134040833,0.0019082583021372557
1761479853551298000,3.017298095703125,0.00001634424552321434,-0.0007500993087887764,0.00013885402586311102
1761479853561334000,3.027333984375,-0.0007955045439302921,0.0026172720827162266,-0.0009883923921734095
1761479853571370200,3.037370361328125,-0.001704441849142313,-0.0024973289109766483,-0.0005391172599047422
1761479853581406200,3.04740625,-0.0015484238974750042,-0.0005005910061299801,0.00017001060768961906
1761479853591442200,3.057442138671875,0.0017424440011382103,-0.0005898070521652699,0.0004152876790612936
1761479853601478100,3.06747802734375,0.0005492693744599819,0.00028282892890274525,-0.0005481727421283722
1761479853611514000,3.07751416015625,-0.0005024131387472153,-0.0027712841983884573,-0.00018252083100378513
1761479853621550000,3.087550048828125,0.0006983526982367039,-0.0004913150332868099,0.0004226918099448085
1761479853631586000,3.0975859375,-0.0005458761006593704,-0.0011903946287930012,-0.00021779839880764484
1761479853641622000,3.1076220703125,0.0007034712471067905,-0.0005798537749797106,-0.0015140498289838433
1761479853651657200,3.1176572265625,0.00039481092244386673,0.0007101814262568951,-0.0025950269773602486
1761479853661693200,3.127693115234375,-0.00008950196206569672,0.0012762006372213364,0.002858584513887763
1761479853671729200,3.137729248046875,0.0008063851855695248,0.0010154771152883768,-0.000994476955384016
1761479853681765000,3.14776513671875,-0.0007680929265916348,0.0018861065618693829,-0.0008196020498871803
1761479853691801000,3.157801025390625,-0.00024078693240880966,-0.0016106236726045609,0.0009362201672047377
1761479853701837000,3.167837158203125,0.0007563061080873013,-0.000947452848777175,0.0014792706351727247
1761479853711873000,3.177873046875,0.0012327455915510654,-0.0003237405326217413,-0.000867773313075304
1761479853721909000,3.187908935546875,0.0011731483973562717,-0.0002446554135531187,-0.0008423140970990062
1761479853731945000,3.197945068359375,-0.0006812107749283314,0.002748737810179591,-0.0014950550394132733
1761479853741981000,3.20798095703125,0.0019157370552420616,-0.0016723433509469032,0.0006029115756973624
1761479853752017000,3.218016845703125,-0.0005729999393224716,-0.0017436405178159475,0.0006666543777100742
1761479853762052000,3.228052001953125,-0.001587516162544489,0.0013157199136912823,0.0010566726559773088
1761479853772088000,3.238088134765625,0.00041198497638106346,0.000860319472849369,-0.001067198347300291
1761479853782124000,3.2481240234375,0.000058778561651706696,-0.001561910379678011,-0.0007448303513228893
1761479853792160000,3.258159912109375,-0.0006754552014172077,-0.00016215303912758827,0.0010123231913894415
1761479853802196000,3.268196044921875,0.001004849560558796,-0.0013713424559682608,-0.0004780815215781331
1761479853812232000,3.27823193359375,-0.000613020732998848,-0.00045335106551647186,0.00021167716477066278
1761479853822268000,3.288267822265625,0.0008223564364016056,-0.0013670562766492367,-0.00044136878568679094
1761479853832304000,3.29830419921875,-0.0005518347024917603,-0.0007057932671159506,0.000661712430883199
1761479853842340000,3.308340087890625,-0.0006819125264883041,0.001124205649830401,0.0002682446502149105
1761479853852376000,3.3183759765625,-0.0019413218833506107,-0.0003530497197061777,0.000025364337489008904
1761479853862412000,3.328412109375,0.00018564565107226372,0.0020927139557898045,0.0016686846502125263
1761479853872447000,3.338447021484375,-0.0004923949018120766,-0.0007992126047611237,-0.0005670391255989671
1761479853882483000,3.34848291015625,0.000005912035703659058,0.0007993618492037058,-0.0002992012305185199
1761479853892519000,3.358518798828125,0.00012681959196925163,-0.0002603100147098303,-0.0007668521720916033
1761479853902555000,3.368554931640625,0.0029263703618198633,-0.0013683622237294912,-0.0004311476368457079
1761479853912591000,3.378591064453125,0.0011356608010828495,0.0011778859188780189,-0.000548326876014471
1761479853922627000,3.388626953125,0.0017802263610064983,0.00325726717710495,0.00028653780464082956
1761479853932663000,3.3986630859375,0.0002486426383256912,0.0011592288501560688,-0.0007787265349179506
1761479853942699000,3.408698974609375,0.001090360339730978,0.001772908610291779,0.0015639547491446137
1761479853952735200,3.4187353515625,0.0004352228716015816,0.0009627749677747488,-0.0008384828688576818
1761479853962771200,3.428771240234375,0.0008468371815979481,-0.0006237749475985765,0.000822444970253855
1761479853972807200,3.43880712890625,0.001923819538205862,-0.0018251270521432161,-0.000549349351786077
1761479853982841900,3.448841796875,-0.0017703953199088573,-0.00019918777979910374,0.0012815255904570222
1761479853992878000,3.458878173828125,-0.0006215078756213188,-0.0023670007940381765,-0.000515841762535274
1761479854002914300,3.468914306640625,-0.0008475319482386112,-0.0008033446501940489,0.0005235871067270637
1761479854012950300,3.4789501953125,0.00027312664315104485,0.00029680714942514896,0.0006708598812110722
1761479854022986200,3.488986328125,-0.001498756930232048,-0.001376887084916234,0.0003370894119143486
1761479854033022200,3.499022216796875,-0.0007235109806060791,0.0013975939946249127,0.0016220646211877465
1761479854043058200,3.50905810546875,-0.0007827207446098328,-0.0014751027338206768,-0.0011011873139068484
1761479854053094100,3.51909423828125,-0.0008751326240599155,-0.00039066351018846035,0.0010535763576626778
1761479854063130000,3.529130126953125,-0.0005294578149914742,0.0022139453794807196,-0.0006963333580642939
1761479854073166000,3.539166015625,-0.0003078831359744072,-0.0002912902273237705,0.0008578873821534216
1761479854083202000,3.5492021484375,0.0008639730513095856,0.0003785497974604368,-0.0013311663642525673
1761479854093237200,3.5592373046875,0.0019819680601358414,-0.0012041667941957712,0.0004403684288263321
1761479854103273200,3.569273193359375,0.0022412247490137815,0.0007182883564382792,0.001918892259709537
1761479854113309200,3.57930908203125,-0.00001766858622431755,-0.0011379348579794168,0.0009337890078313649
1761479854123345200,3.58934521484375,0.00045996764674782753,0.00022316398099064827,-0.001715983496978879
1761479854133381000,3.599381103515625,0.0001960485242307186,-0.00023303553462028503,0.00166649732273072
1761479854143417000,3.6094169921875,-0.001791589893400669,0.0009914420079439878,-0.000519762746989727
1761479854153453000,3.619453125,0.0029887838754802942,-0.0006791588384658098,-0.0016574650071561337
1761479854163489000,3.629489013671875,-0.00009117554873228073,-0.00043688714504241943,-0.0009706247365102172
1761479854173525000,3.63952490234375,0.0014444030821323395,0.000028100796043872833,0.0002264662180095911
1761479854183561000,3.64956103515625,-0.00042985985055565834,-0.0020724714267998934,-0.000969205517321825
1761479854193596200,3.65959619140625,0.0006785481236875057,-0.0010559430811554193,0.0003386730095371604
1761479854203632000,3.669632080078125,-0.0007028724066913128,0.00028473976999521255,0.0017030331073328853
1761479854213668000,3.679668212890625,-0.0007374933920800686,-0.0003307168371975422,-0.00046264962293207645
1761479854223704000,3.6897041015625,0.00049257418140769,-0.0007010691333562136,-0.000986750004813075
1761479854233740000,3.699739990234375,-0.0003122333437204361,-0.0015610039699822664,-0.0015143221244215965
1761479854243776000,3.70977587890625,-0.0001396453008055687,0.0009336716029793024,-0.0010328766657039523
1761479854253812000,3.71981201171875,0.0005138944834470749,0.00011794525198638439,0.00132428715005517
1761479854263848200,3.72984814453125,-0.0006298655644059181,0.0007801831234246492,-0.0008559285197407007
1761479854273884200,3.73988427734375,0.000025538261979818344,-0.00010531791485846043,-0.001713732723146677
1761479854283920100,3.749920166015625,0.001290538813918829,0.000998303759843111,0.0011227374197915196
1761479854293955000,3.759955078125,0.000983742531388998,-0.0027066858019679785,0.00019755528774112463
1761479854303991000,3.769990966796875,-0.00036865612491965294,-0.0009373619686812162,0.0003811510978266597
1761479854314027000,3.780027099609375,-0.0004173917695879936,0.0020930487662553787,-0.0013925142120569944
1761479854324063000,3.79006298828125,-0.001328249927610159,0.001423638197593391,0.0007846396183595061
1761479854334099000,3.800098876953125,-0.0006515407003462315,0.0007868765387684107,0.0008014175691641867
1761479854344135200,3.81013525390625,0.0008682357147336006,-0.0002160966396331787,-0.00071060995105654
1761479854354171100,3.820171142578125,0.002172651933506131,-0.0003657662309706211,-0.0023191594518721104
1761479854364207000,3.83020703125,0.00008023809641599655,0.00007934472523629665,-0.0007641726406291127
1761479854374243000,3.8402431640625,0.00009302143007516861,-0.0005808528512716293,-0.0016581957461312413
1761479854384279000,3.850279052734375,0.0003644428215920925,0.0036333692260086536,0.0014270261162891984
1761479854394315000,3.86031494140625,0.0012009418569505215,0.0007683406583964825,0.00010450033005326986
1761479854404350500,3.8703505859375,0.003332844004034996,-0.0008257788140326738,-0.0009752281475812197
1761479854414386400,3.880386474609375,-0.0008528460748493671,0.0032621733844280243,0.00008391099981963634
1761479854424422400,3.89042236328125,0.002155168680474162,0.0016497205942869186,0.0010880541522055864
1761479854434458400,3.900458251953125,0.0022569014690816402,0.0009602282661944628,-0.0018275745678693056
1761479854444494600,3.91049462890625,-0.0015278956852853298,-0.0016188621520996094,-0.0016489219851791859
1761479854454530600,3.920530517578125,-0.0002162884920835495,0.0005627993959933519,-0.0019868770614266396
1761479854464566500,3.93056640625,0.000505826435983181,0.0016206122236326337,-0.00008282472845166922
1761479854474602500,3.9406025390625,0.0006499034352600574,-0.001599682029336691,-0.0007046728860586882
1761479854484638700,3.950638671875,-0.0012930063530802727,0.0002701894845813513,0.0003964073257520795
1761479854494674700,3.9606748046875,0.0008503058925271034,0.00007870816625654697,0.00025286292657256126
1761479854504709400,3.97070947265625,-0.0005925134755671024,0.002527600387111306,0.0003636168548837304
1761479854514745600,3.98074560546875,0.0025156617630273104,-0.001670606667175889,0.0006637551123276353
1761479854524781600,3.990781494140625,0.0005851686000823975,-0.0022179277148097754,-0.0008904875721782446
1761479854534817500,4.000817626953125,-0.001643630675971508,-0.00008926307782530785,-0.0005312273278832436
1761479854544852500,4.0108525390625,0.0018979134038090706,0.0013442144263535738,-0.000216973596252501
1761479854554887400,4.020887451171875,0.0006973603740334511,0.0015247768023982644,-0.0003053905675187707
1761479854564923600,4.030923583984375,-0.00036574574187397957,-0.0014977999962866306,-0.0009390603518113494
1761479854574959600,4.040959716796875,-0.000016605481505393982,-0.0021987436339259148,0.000701180542819202
1761479854584995600,4.05099560546875,-0.0013153646141290665,-0.0023795340675860643,-0.0010884413495659828
1761479854595031600,4.061031494140625,-0.00047913193702697754,-0.0009102679323405027,-0.0004889639094471931
1761479854605067500,4.071067626953125,-0.0023582507856190205,-0.0004918361082673073,-0.0019063951913267374
1761479854615103500,4.081103515625,0.00031662778928875923,-0.00033897068351507187,0.0006329288007691503
1761479854625139500,4.091139404296875,-0.0017955703660845757,-0.00014795339666306973,0.0008990119677037001
1761479854635175400,4.101175537109375,0.0006492109969258308,0.0006278255023062229,0.0016862424090504646
1761479854645211400,4.11121142578125,-0.0005871336907148361,-0.0005670462269335985,0.001124534523114562
1761479854655246600,4.12124658203125,-0.0036476384848356247,-0.0004594544880092144,-0.0006177055183798075
1761479854665282600,4.131282470703125,0.00021127285435795784,0.0009060136508196592,-0.0008529814658686519
1761479854675318500,4.141318603515625,0.0030118529684841633,-0.0029648910276591778,-0.0005935895023867488
1761479854685354500,4.1513544921875,0.00019133370369672775,-0.0004604209680110216,-0.0005476865917444229
1761479854695390500,4.161390380859375,-0.0006582150235772133,-0.0028628588188439608,0.0008195801638066769
1761479854705426400,4.171426513671875,0.00043391622602939606,0.00038970052264630795,-0.0005458585219457746
1761479854715462700,4.181462646484375,-0.0014209756627678871,0.001546577550470829,-0.002414332702755928
1761479854725498600,4.19149853515625,0.0026319848839193583,-0.0015259170904755592,-0.0000880617881193757
1761479854735534600,4.20153466796875,0.0019664610736072063,-0.00018661352805793285,0.0016608360456302762
1761479854745569500,4.211569580078125,0.0019441130571067333,-0.00337449973449111,0.0011262607295066118
1761479854755605500,4.22160546875,0.00002397364005446434,-0.0016141501255333424,-0.00014380074571818113
1761479854765641700,4.231641845703125,0.0003491523675620556,0.0015827994793653488,0.0007868839311413467
1761479854775677700,4.241677734375,0.000020784325897693634,-0.0002875386271625757,0.0017498829402029514
1761479854785713700,4.251713623046875,0.0010710353963077068,-0.0003832371439784765,0.001797836972400546
1761479854795749600,4.26174951171875,0.002152012661099434,0.0004114501643925905,-0.001996102277189493
1761479854805785600,4.27178564453125,-0.0018262360244989395,0.0011201167944818735,0.000736614631023258
1761479854815821600,4.281821533203125,0.00017752591520547867,-0.0019206807482987642,0.0009086548234336078
1761479854825857500,4.291857421875,-0.00040335673838853836,-0.0018671497236937284,0.0002154677640646696
1761479854835893500,4.3018935546875,0.00020464276894927025,-0.0007153325714170933,0.0028013973496854305
1761479854845928700,4.3119287109375,-0.001716790720820427,0.002204356249421835,-0.0006949192611500621
1761479854855964700,4.321964599609375,-0.0005098460242152214,-0.0016628201119601727,0.0016976646147668362
1761479854866000600,4.332000732421875,0.0016925469972193241,-0.0005187687929719687,0.00003512564580887556
1761479854876036600,4.34203662109375,-0.00018338346853852272,-0.0005331498105078936,-0.0007766059134155512
1761479854886072600,4.352072509765625,-0.0024047312326729298,-0.000040576793253421783,-0.00018341140821576118
1761479854896108500,4.362108642578125,-0.004034053068608046,-0.0006176838651299477,-0.0015014096861705184
1761479854906144500,4.37214453125,-0.0003036158159375191,-0.0005599267315119505,-0.000627611530944705
1761479854916180700,4.3821806640625,0.001026633195579052,0.000758604146540165,0.002171370666474104
1761479854926216700,4.392216796875,0.000703803263604641,-0.0015531859826296568,-0.004014349542558193
1761479854936252700,4.402252685546875,0.000962928868830204,0.0015059870202094316,0.0010949253337457776
1761479854946287600,4.41228759765625,0.0007894337177276611,0.0014182385057210922,0.00026406103279441595
1761479854956323600,4.422323486328125,0.0003572027198970318,0.0005473848432302475,-0.0007852243725210428
1761479854966359600,4.432359619140625,0.0003768368624150753,0.0021757809445261955,0.00022216152865439653
1761479854976395500,4.4423955078125,0.0013275854289531708,-0.00024157040752470493,0.0015872978838160634
1761479854986431500,4.452431396484375,-0.0015870966017246246,0.0006035631522536278,-0.0006064174231141806
1761479854996467700,4.4624677734375,0.0006249253638088703,-0.0006369370967149734,-0.0005076143424957991
1761479855006503700,4.472503662109375,-0.001574336551129818,0.0019059363985434175,0.0013535527978092432
1761479855016539600,4.48253955078125,-0.000257137231528759,0.00029285973869264126,0.002141315955668688
1761479855026575600,4.49257568359375,0.0007560201920568943,0.002064288593828678,-0.0028318450786173344
1761479855036610600,4.502610595703125,-0.002473861910402775,0.0005659940652549267,0.0008369257557205856
1761479855046646500,4.512646484375,0.00002946518361568451,-0.0008690753020346165,0.0009906033519655466
1761479855056682500,4.5226826171875,-0.00028478819876909256,0.0016582644311711192,0.00019298656843602657
1761479855066718500,4.532718505859375,0.0011015231721103191,-0.0020089452154934406,0.0011436598142609
1761479855076754700,4.542754638671875,-0.0009043696336448193,0.0017825971590355039,-0.0001439786283299327
1761479855086790700,4.552790771484375,0.0011371606960892677,0.0004925145767629147,-0.0004190864274278283
1761479855096826600,4.56282666015625,0.0008993404917418957,-0.001600996358320117,0.0007175506907515228
1761479855106862600,4.572862548828125,0.001637845765799284,-0.0021641270723193884,0.00019457831513136625
1761479855116899600,4.582899658203125,0.00041652005165815353,-0.002493560081347823,0.0010955256875604391
1761479855126934500,4.5929345703125,0.00015450362116098404,0.0008864044211804867,-0.00018965569324791431
1761479855136970500,4.602970458984375,0.0010578478686511517,-0.0003261328674852848,0.0006569632678292692
1761479855147006500,4.61300634765625,-0.0016127163544297218,0.001935369218699634,-0.001397941610775888
1761479855157042400,4.62304248046875,0.001114360522478819,-0.0000241848174482584,0.00030568253714591265
1761479855167078400,4.633078369140625,-0.0011047101579606533,0.00021120836026966572,0.0008113725925795734
1761479855177114400,4.6431142578125,0.0008109016343951225,0.0004679369740188122,-0.0024408800527453423
1761479855187150600,4.653150634765625,-0.0017312313430011272,0.00038165529258549213,0.0015773582272231579
1761479855197186600,4.6631865234375,0.0020605772733688354,0.0022778259590268135,-0.0005214789416640997
1761479855207222500,4.673222412109375,0.0010836999863386154,0.00019901921041309834,-0.0018537617288529873
1761479855217258500,4.683258544921875,0.0005340236239135265,0.0011851877206936479,0.000997418537735939
1761479855227293400,4.69329345703125,0.0010605575516819954,-0.00125996139831841,0.0025957594625651836
1761479855237329400,4.703329345703125,0.000931927002966404,0.0020918932277709246,-0.0000815163366496563
1761479855247365400,4.713365478515625,0.0007141963578760624,-0.0004767265636473894,-0.00028862827457487583
1761479855257401300,4.7234013671875,-0.0005201785825192928,0.0024298473726958036,0.0003225671825930476
1761479855267437600,4.7334375,0.001032156404107809,-0.0006715529598295689,0.0018241644138470292
1761479855277473800,4.743473876953125,-0.0004000919871032238,-0.0024228477850556374,-0.00192849594168365
1761479855287509800,4.753509765625,-0.0006463644094765186,0.0007172194309532642,-0.0005354052409529686
1761479855297545700,4.763545654296875,0.00007615098729729652,0.004024066496640444,-0.0010091816075146198
1761479855307581700,4.773581787109375,0.0009145978838205338,0.001981828361749649,-0.00020661961752921343
1761479855317616400,4.783616455078125,-0.00020046764984726906,-0.0020286256913095713,-0.0001640090486034751
1761479855327652400,4.79365234375,-0.00035458290949463844,0.0006786987651139498,-0.000626290449872613
1761479855337688600,4.8036884765625,0.001453171018511057,0.0035746200010180473,0.0007883806829340756
1761479855347724800,4.813724853515625,0.0005571087822318077,0.0017445593839511275,-0.001996578648686409
1761479855357760800,4.8237607421875,-0.0001659393310546875,0.0010310986544936895,-0.00047591375187039375
1761479855367796700,4.833796630859375,0.0010979869402945042,0.0023830272257328033,0.000023899134248495102
1761479855377832700,4.843832763671875,0.0014862758107483387,-0.0014987962786108255,-0.001422197325155139
1761479855387868700,4.85386865234375,-0.00019562989473342896,0.0008952813223004341,0.002276007551699877
1761479855397904600,4.863904541015625,0.002190562430769205,-0.000709007028490305,0.0010916999308392406
1761479855407940400,4.8739404296875,0.0008903001435101032,-0.0014780571218580008,0.0019227142911404371
1761479855417975600,4.8839755859375,0.0007291785441339016,-0.0026740829925984144,-0.0009353901259601116
1761479855428011500,4.894011474609375,0.0020645707845687866,0.004673253744840622,-0.00005362031515687704
1761479855438047500,4.904047607421875,0.0003843824379146099,0.000023374566808342934,-0.0020387405529618263
1761479855448083500,4.91408349609375,0.0003709029406309128,0.0009031544905155897,-0.00009855045937001705
1761479855458119400,4.924119384765625,0.0016598724760115147,-0.0008651847019791603,0.0005754956509917974
1761479855468155400,4.9341552734375,0.0005932403728365898,-0.00023451750166714191,-0.0005504542496055365
1761479855478191400,4.94419140625,-0.0002563078887760639,0.0009686986450105906,0.0007893821457400918
1761479855488227600,4.9542275390625,0.0011022486723959446,-0.0015921080484986305,0.0011002672836184502
1761479855498263600,4.964263671875,0.0006087645888328552,-0.0005111310165375471,-0.0000688603613525629
1761479855508298500,4.974298583984375,0.000979505479335785,0.0023368874099105597,-0.0014585196040570736
1761479855518334500,4.98433447265625,0.00025166338309645653,0.0006010390352457762,0.00045735854655504227
1761479855528370400,4.994370361328125,0.002992626978084445,0.00013181031681597233,-0.0018692226149141788
1761479855538406400,5.004406494140625,-0.0019011972472071648,0.0017038744408637285,0.0010115187615156174
1761479855548442600,5.014442626953125,-0.0013271933421492577,0.0022969902493059635,-0.0009989292593672872
1761479855558478600,5.024478515625,-0.0018382538110017776,0.0020535774528980255,0.00017392693553119898
1761479855568514600,5.0345146484375,0.0012033842504024506,-0.0006575887091457844,-0.0007053192239254713
1761479855578550500,5.044550537109375,0.0003711460158228874,0.0009549553506076336,0.00021160696633160114
1761479855588586500,5.05458642578125,-0.0007151844911277294,-0.000027281232178211212,0.0005807369016110897
1761479855598622500,5.06462255859375,0.0008310466073453426,0.00032505509443581104,0.0013152367901057005
1761479855608657700,5.07465771484375,0.0009865732863545418,0.002178427530452609,0.00039812165778130293
1761479855618693600,5.084693603515625,-0.0000395430251955986,0.0006604257505387068,-0.00030415388755500317
1761479855628729600,5.0947294921875,-0.0010930472053587437,0.00225088931620121,-0.00020666210912168026
1761479855638765600,5.104765625,0.0016974126920104027,0.0011304973158985376,0.0005709809483960271
1761479855648801500,5.114801513671875,-0.0004712785594165325,0.001931911101564765,0.000017629354260861874
1761479855658837500,5.12483740234375,0.0006605647504329681,0.0010520026553422213,-0.0002798456698656082
1761479855668873500,5.13487353515625,-0.0010916697792708874,-0.0007029792759567499,0.000004646251909434795
1761479855678909400,5.144909423828125,0.0005610878579318523,-0.002560001565143466,-0.0012403816217556596
1761479855688945400,5.1549453125,0.0007881289348006248,-0.0017427739221602678,0.000582909444347024
1761479855698981600,5.164981689453125,-0.0028462870977818966,-0.000338222598657012,0.001909429905936122
1761479855709016600,5.1750166015625,0.0021240413188934326,0.0009436022955924273,-0.001620267634280026
1761479855719052500,5.185052490234375,-0.0023404820822179317,-0.0012353963684290648,0.0006426202598959208
1761479855729088500,5.195088623046875,-0.000043773092329502106,-0.0036954267416149378,-0.0020460747182369232
1761479855739124500,5.20512451171875,0.0004614284262061119,-0.000623736996203661,0.003339902264997363
1761479855749160400,5.215160400390625,-0.0012518218718469143,0.0016160252271220088,0.0014743100618943572
1761479855759196400,5.225196533203125,-0.001097092404961586,0.0015142924385145307,0.001547813299112022
1761479855769232400,5.235232421875,-0.0012210821732878685,-0.004516785964369774,-0.00003868131898343563
1761479855779268600,5.2452685546875,-0.0009129540994763374,0.0013070149580016732,-0.0005199146689847112
1761479855789304600,5.2553046875,0.0016548302955925465,-0.000594528391957283,0.0010630753822624683
1761479855799339500,5.265339599609375,-0.0004812912084162235,-0.001421972643584013,-0.0006253686733543873
1761479855809375500,5.27537548828125,-0.00040895864367485046,-0.0005920350085943937,-0.0018812159541994333
1761479855819411500,5.285411376953125,-0.00048539135605096817,0.000960587989538908,-0.0014860029332339764
1761479855829447400,5.295447509765625,-0.0004605306312441826,0.0011467797448858619,-0.0004328008508309722
1761479855839483400,5.3054833984375,0.00018155761063098907,-0.001795747084543109,-0.0009830099297687411
1761479855849519600,5.31551953125,0.0009571700356900692,0.0012590299593284726,-0.0019873587880283594
1761479855859555600,5.3255556640625,0.0011041765101253986,-0.0016464786604046822,0.001024143653921783
1761479855869591600,5.335591552734375,-0.0008979653939604759,-0.0016764868050813675,0.0004829334793612361
1761479855879627500,5.34562744140625,-0.0024154349230229855,0.0006649643182754517,0.0015724326949566603
1761479855889663500,5.35566357421875,0.0023178679402917624,-0.0005335232708603144,-0.0009963121265172958
1761479855899698400,5.365698486328125,-0.00014449097216129303,-0.0010155555792152882,-0.0011774071026593447
1761479855909734400,5.375734375,0.0004745563492178917,0.000611601397395134,0.0006232735468074679
1761479855919770400,5.385770263671875,0.0013166479766368866,-0.0030827356968075037,0.0031833702232688665
1761479855929806600,5.395806640625,0.0008335895836353302,0.00200609490275383,0.0007633586064912379
1761479855939842600,5.405842529296875,-0.00014991546049714088,0.0008846379350870848,-0.0005762113723903894
1761479855949878500,5.41587841796875,0.000994914211332798,-0.0011641299352049828,0.0014277346199378371
1761479855959914500,5.42591455078125,-0.000876222737133503,-0.0016368408687412739,0.0015515716513618827
1761479855969950500,5.435950439453125,0.0002726833336055279,-0.0003035368863493204,0.0007595843635499477
1761479855979986400,5.445986328125,-0.0002578180283308029,-0.000016714446246623993,0.00005943933501839638
1761479855990021400,5.456021484375,-0.0007412396371364594,0.0020450474694371223,0.0010280902497470379
1761479856000057300,5.466057373046875,0.002066264394670725,-0.001281506847590208,-0.001134396530687809
1761479856010093600,5.476093505859375,-0.0008764201775193214,0.0023246165364980698,-0.0006893961690366268
1761479856020129500,5.486129638671875,0.002954004565253854,-0.002153754932805896,-0.00009790819603949785
1761479856030165500,5.49616552734375,0.00033594854176044464,-0.0037993891164660454,0.0001830289838835597
1761479856040201500,5.506201416015625,0.00027096737176179886,-0.0020347782410681248,0.0020216754637658596
1761479856050237400,5.516237548828125,-0.0027701053768396378,0.000026140594854950905,0.0021199649199843407
1761479856060273400,5.5262734375,-0.00064809899777174,0.003189443377777934,0.0007622855482622981
1761479856070309400,5.536309326171875,0.0017045610584318638,-0.0019425293430685997,-0.0006739174714311957
1761479856080344300,5.54634423828125,-0.00027842866256833076,0.0000055730342864990234,-0.00004834088031202555
1761479856090380500,5.556380615234375,-0.0012789410538971424,0.0011508266907185316,-0.001551264082081616
1761479856100416500,5.56641650390625,-0.0008144858293235302,0.000661071389913559,0.0010325347539037466
1761479856110452500,5.576452392578125,0.000865899957716465,-0.0005112485960125923,0.000625909713562578
1761479856120488400,5.586488525390625,-0.0010561035014688969,-0.0006486678030341864,-0.0003248387947678566
1761479856130524400,5.5965244140625,0.0011499850079417229,0.0005038767121732235,0.0020134844817221165
1761479856140560400,5.606560302734375,0.0007486469112336636,-0.00005112611688673496,-0.0018566210055723786
1761479856150596400,5.616596435546875,0.0009008953347802162,-0.00023840670473873615,0.0013206822331994772
1761479856160632300,5.62663232421875,0.00018264073878526688,-0.0007851538248360157,0.000981129240244627
1761479856170667500,5.63666748046875,0.0009845728054642677,-0.0007666975725442171,-0.000624443287961185
1761479856180703500,5.646703369140625,0.0007195882499217987,0.0012138952733948827,-0.0006462811725214124
1761479856190739500,5.656739501953125,0.000174584798514843,0.001454307115636766,-0.0008161694277077913
1761479856200775400,5.666775390625,-0.0005410066805779934,-0.0009491958189755678,-0.0017884895205497742
1761479856210811400,5.676811279296875,0.0004751882515847683,0.0006103380583226681,0.001834395108744502
1761479856220847600,5.68684765625,0.00016279984265565872,0.00009102164767682552,-0.00045006442815065384
1761479856230883600,5.696883544921875,0.0013941256329417229,-0.000923501793295145,-0.0003018792485818267
1761479856240919600,5.70691943359375,-0.0008405325934290886,0.003199337748810649,-0.0019160211086273193
1761479856250955500,5.71695556640625,-0.0012697204947471619,-0.0008819308131933212,0.00013758777640759945
1761479856260990500,5.726990478515625,0.0009138048626482487,-0.0024531958624720573,-0.0006994437426328659
1761479856271026400,5.7370263671875,-0.0011193323880434036,-0.00006665335968136787,-0.001588525832630694
1761479856281062700,5.747062744140625,0.00018668174743652344,0.0007030002307146788,0.00009139615576714277
1761479856291098600,5.7570986328125,-0.0014456184580922127,-0.00024028238840401173,0.000773768057115376
1761479856301134600,5.767134521484375,0.0009200675413012505,-0.0006884923204779625,0.002864882117137313
1761479856311170600,5.777170654296875,-0.0022969492711126804,0.0009411622304469347,-0.0004640044644474983
1761479856321206500,5.78720654296875,0.0007821759209036827,-0.0011144056916236877,-0.0015679259086027741
1761479856331242500,5.797242431640625,-0.00006939936429262161,0.0035671459045261145,0.0007722016307525337
1761479856341278500,5.807278564453125,-0.0004491661675274372,-0.0015298782382160425,-0.0007125107804313302
1761479856351313700,5.817313720703125,-0.0009702779352664948,0.0033750361762940884,0.00035701331216841936
1761479856361349600,5.827349609375,0.001820981502532959,-0.0016948236152529716,0.0016904580406844616
1761479856371385600,5.837385498046875,0.0009592175483703613,-0.00023690215311944485,0.0005286554805934429
1761479856381421600,5.847421630859375,-0.00028474489226937294,0.001101336209103465,0.0009558264864608645
1761479856391457500,5.85745751953125,0.0013505988754332066,0.000941163394600153,-0.0002825447591021657
1761479856401493500,5.867493408203125,0.0011175726540386677,-0.0017257262952625751,0.0016706176102161407
1761479856411529500,5.877529541015625,-0.0005563320592045784,-0.0006437543779611588,-0.00039158191066235304
1761479856421565400,5.8875654296875,0.0010303794406354427,0.0005852945614606142,0.00110538094304502
1761479856431601400,5.897601318359375,-0.0022897636517882347,-0.0000027725473046302795,0.003148815128952265
1761479856441636600,5.90763671875,-0.0008276882581412792,0.000723737757652998,-0.00017933733761310577
1761479856451672600,5.917672607421875,0.00004806835204362869,0.0004608435556292534,-0.0003402250586077571
1761479856461708500,5.92770849609375,0.00042517203837633133,0.0021362381521612406,0.00010026188101619482
1761479856471744500,5.93774462890625,-0.002200433984398842,0.0023876670747995377,-0.0018176436424255371
1761479856481780500,5.947780517578125,0.002986870938912034,-0.0017660651355981827,0.0012109031667932868
1761479856491816400,5.95781640625,-0.0015986883081495762,-0.0014057012740522623,0.00009955884888768196
1761479856501852400,5.967852294921875,0.0002809707075357437,-0.0018360682297497988,-0.0012890134239569306
1761479856511888400,5.977888427734375,-0.0007939720526337624,-0.0008196034468710423,0.000686580897308886
1761479856521923600,5.987923583984375,-0.00004722177982330322,-0.001840126933529973,-0.001524375518783927
1761479856531959600,5.99795947265625,0.0000618593767285347,0.0006009798962622881,-0.0016936594620347023
1761479856541995500,6.00799560546875,-0.00002708984538912773,0.0001932498998939991,0.0002842702670022845
1761479856552031500,6.018031494140625,0.00004416191950440407,0.0016767272027209401,-0.0011957299429923296
1761479856562067500,6.0280673828125,0.0010534999892115593,-0.0013467594981193542,0.0009742135880514979
1761479856572103400,6.038103515625,0.0017775963060557842,-0.002263454021885991,-0.0014491716865450144
1761479856582139400,6.048139404296875,0.0003509409725666046,0.0019568572752177715,0.001098674489185214
1761479856592175400,6.05817529296875,0.0016015330329537392,0.0010451753623783588,0.002219702582806349
1761479856602210600,6.06821044921875,0.0007541151717305183,0.001461693667806685,-0.0024938262067735195
1761479856612246500,6.07824658203125,-0.0007376028224825859,0.0012455222895368934,0.0013962789671495557
1761479856622282500,6.088282470703125,0.0007918504998087883,-0.00045863445848226547,-0.0004178662784397602
1761479856632318500,6.098318359375,0.00023570097982883453,0.00008299923501908779,-0.0009971505496650934
1761479856642354400,6.1083544921875,0.00035314634442329407,0.0002577025443315506,-0.00031511508859694004
1761479856652390400,6.118390380859375,-0.001837130170315504,0.0011058201780542731,-0.002333610085770488
1761479856662426400,6.12842626953125,-0.0007108789868652821,-0.000975174130871892,-0.0007205333095043898
1761479856672462300,6.13846240234375,-0.0009046369232237339,0.00023910915479063988,-0.0006817430257797241
1761479856682498600,6.14849853515625,-0.00025668973103165627,0.001771492068655789,-0.0008402010425925255
1761479856692533500,6.158533447265625,0.0005038585513830185,-0.000998984556645155,-0.0018731477903202176
1761479856702569500,6.168569580078125,-0.00014089280739426613,0.000040980055928230286,0.001547682681120932
1761479856712605400,6.17860546875,-0.0014241989701986313,-0.0019394501578062773,-0.0004962949315086007
1761479856722641400,6.188641357421875,-0.0013413745909929276,-0.0011660682503134012,0.0008507320308126509
1761479856732677400,6.198677490234375,0.00023994268849492073,0.0007823167834430933,0.0015651637222617865
1761479856742713300,6.20871337890625,-0.0013933740556240082,0.0020233499817550182,0.00033664749935269356
1761479856752749600,6.21874951171875,0.0006836443208158016,-0.001092748949304223,0.0004928694106638432
1761479856762785500,6.22878564453125,-0.0019664671272039413,-0.000717775896191597,0.0005674379644915462
1761479856772821500,6.238821533203125,-0.002712591551244259,0.0013966200640425086,0.0004028165712952614
1761479856782856400,6.2488564453125,-0.00040815863758325577,-0.005030386615544558,-0.0008406133856624365
1761479856792892400,6.258892333984375,-0.001358067151159048,0.0029573803767561913,-0.001010890700854361
1761479856802928400,6.268928466796875,0.0010576862841844559,-0.0016418988816440105,-0.0006524292984977365
1761479856812964400,6.27896435546875,-0.0008475109934806824,0.0013262719148769975,0.000733191380277276
1761479856823000300,6.289000244140625,-0.00027999142184853554,-0.000754722161218524,-0.0007805494824424386
1761479856833036500,6.29903662109375,-0.0007883524522185326,0.0012822182616218925,0.0018052004743367434
1761479856843072500,6.309072509765625,-0.0009223092347383499,0.0004374636337161064,-0.0005631487583741546
1761479856853108500,6.3191083984375,0.00007821852341294289,-0.00012908782809972763,0.0013489951379597187
1761479856863143400,6.329143310546875,0.0013160556554794312,0.0003739832900464535,-0.0017463968833908439
1761479856873179400,6.339179443359375,-0.0005410700105130672,0.00008573941886425018,0.0009669633582234383
1761479856883215400,6.34921533203125,0.0001577436923980713,0.0006074525881558657,-0.00041361921466886997
1761479856893251300,6.359251220703125,0.001558931078761816,-0.00031349691562354565,0.0017895889468491077
1761479856903287300,6.369287353515625,0.0017714514397084713,0.0016646990552544594,0.00003962579648941755
1761479856913323500,6.379323486328125,-0.002976794261485338,-0.00039809616282582283,0.0007111778832040727
1761479856923359500,6.389359375,0.0006307237781584263,0.0001443896908313036,0.0023857736960053444
1761479856933395500,6.3993955078125,0.0010329373180866241,-0.000424353638663888,0.002259243279695511
1761479856943430400,6.409430419921875,0.001620963215827942,0.001908841892145574,0.001213153707794845
1761479856953466400,6.41946630859375,0.0003406931646168232,-0.00003477046266198158,-0.0008952555945143104
1761479856963502300,6.42950244140625,0.0009223278611898422,-0.0014694153796881437,0.0017665738705545664
1761479856973538300,6.439538330078125,0.0012499047443270683,-0.0013471173588186502,0.0005112349754199386
1761479856983574300,6.44957421875,0.0009431084617972374,0.00206838664598763,0.0006140329642221332
1761479856993610500,6.459610595703125,0.00028396816924214363,-0.0019088785629719496,0.00017613079398870468
1761479857003646500,6.469646484375,0.00007917080074548721,-0.000996745890006423,-0.00015463388990610838
1761479857013682400,6.479682373046875,0.0011072419583797455,0.0011458811350166798,0.000615522381849587
1761479857023717400,6.48971728515625,-0.0004043686203658581,-0.00038916501216590405,-0.00005772477015852928
1761479857033753300,6.49975341796875,-0.0007922849617898464,-0.00006082328036427498,-0.0015276751946657896
1761479857043789300,6.509789306640625,-0.000011445954442024231,0.00043532345443964005,-0.0003585474332794547
1761479857053825300,6.5198251953125,0.0028443308547139168,0.0022961124777793884,-0.0007803832413628697
1761479857063861200,6.529861328125,0.00011059595271945,-0.00007463362999260426,-0.00207281531766057
1761479857073897500,6.5398974609375,0.0014056460931897163,0.004416396841406822,0.001034480519592762
1761479857083933400,6.549933349609375,-0.0005610985681414604,-0.0004252297803759575,0.0010451332200318575
1761479857093969400,6.559969482421875,0.0000719139352440834,0.001095499494113028,0.0020898892544209957
1761479857104004400,6.57000439453125,0.0011054868809878826,0.0017517023952677846,0.0007069098064675927
1761479857114040300,6.580040283203125,0.0006603831425309181,0.00006418139673769474,-0.0016248662723228335
1761479857124076300,6.590076171875,0.0007599852979183197,0.0009376981761306524,-0.001358816516585648
1761479857134112300,6.6001123046875,-0.0017791804857552052,-0.0015603906940668821,0.0005068553145974874
1761479857144148200,6.610148193359375,0.0003635990433394909,-0.0016903530340641737,-0.0014292626874521375
1761479857154184400,6.620184326171875,-0.0017742505297064781,-0.00007268274202942848,-0.0014983722940087318
1761479857164220400,6.630220458984375,0.00011819181963801384,0.0027928785420954227,0.00010937789920717478
1761479857174256600,6.640256591796875,-0.0011312025599181652,0.0014934493228793144,-0.0019517799373716116
1761479857184291300,6.650291259765625,0.0018366239964962006,0.000010068528354167938,-0.00005853874608874321
1761479857194327300,6.660327392578125,0.002053260337561369,0.0018707746639847755,-0.0014224547194316983
1761479857204363300,6.67036328125,0.001168025191873312,0.0013043202925473452,-0.003144188318401575
1761479857214399200,6.680399169921875,-0.0004039537161588669,-0.001246526138857007,0.001879311166703701
1761479857224435500,6.690435546875,0.000963845755904913,-0.00016155419871211052,-0.00047305901534855366
1761479857234471700,6.7004716796875,0.0005076909437775612,0.0012717517092823982,0.00045604328624904156
1761479857244507600,6.710507568359375,-0.0011682366020977497,-0.0007442613132297993,-0.0006315916543826461
1761479857254543600,6.720543701171875,-0.0011265203356742859,-0.0013175616040825844,0.00018928211648017168
1761479857264578300,6.730578369140625,0.00018828222528100014,-0.0009934548288583755,0.0005661193863488734
1761479857274614300,6.7406142578125,-0.0004809661768376827,0.0011789754498749971,0.001306704943999648
1761479857284650500,6.750650390625,0.0001544645056128502,-0.00024048937484622002,0.0006022988818585873
1761479857294686500,6.7606865234375,0.0011912607587873936,0.0021855023223906755,-0.0012332204496487975
1761479857304722400,6.770722412109375,0.0008096299134194851,-0.00008963607251644135,0.0028643193654716015
1761479857314758700,6.780758544921875,-0.0008807904087007046,0.0008335455786436796,-0.00044162676203995943
1761479857324794600,6.790794677734375,-0.0003926325589418411,0.000004237284883856773,-0.001665881834924221
1761479857334830600,6.80083056640625,-0.0017187236808240414,0.0012411907082423568,-0.001605586032383144
1761479857344865500,6.810865478515625,0.00016279984265565872,-0.0013431408442556858,-0.0001954421168193221
1761479857354901500,6.820901611328125,-0.001536829862743616,0.0006957806181162596,-0.00024251884315162897
1761479857364937500,6.8309375,0.0018983813934028149,-0.004063554108142853,0.0004171461332589388
1761479857374973400,6.840973388671875,0.0012188474647700787,-0.0002738051116466522,0.0003823440056294203
1761479857385009400,6.851009521484375,0.0025437702424824238,0.0006878625135868788,-0.0009114197455346584
1761479857395045600,6.861045654296875,0.0012489133514463902,-0.00021056854166090488,-0.00038108706939965487
1761479857405081600,6.87108154296875,0.0008505042642354965,0.00036387541331350803,-0.0016258484683930874
1761479857415117600,6.88111767578125,0.00438269879668951,-0.0003045974299311638,-0.0012534402776509523
1761479857425152500,6.891152587890625,0.00039035407826304436,-0.00044574495404958725,-0.003678248729556799
1761479857435188500,6.9011884765625,0.0012350557371973991,0.0007714764215052128,-0.002122825011610985
1761479857445224400,6.911224365234375,-0.0003447313793003559,0.00007213023491203785,-0.00019096804317086935
1761479857455260400,6.921260498046875,0.000284495297819376,0.0009765774011611938,0.0018972951220348477
1761479857465296400,6.93129638671875,0.000275174155831337,0.0011707217199727893,0.0001358803128823638
1761479857475332600,6.94133251953125,-0.0015422403812408447,0.00017851870507001877,0.0005892986664548516
1761479857485368600,6.95136865234375,0.0010676574893295765,-0.000553051708266139,-0.0006466744234785438
1761479857495403500,6.961403564453125,0.0014553391374647617,0.0001131205353885889,0.0003011705121025443
1761479857505439500,6.971439453125,-0.0007111425511538982,-0.0015042172744870186,-0.0007182876579463482
1761479857515475500,6.981475341796875,0.00028043705970048904,0.00007960852235555649,-0.00008822977542877197
1761479857525511400,6.991511474609375,-0.00021357927471399307,0.0016599283553659916,0.0005075193475931883
1761479857535547400,7.00154736328125,0.0006543062627315521,0.0013676875969395041,0.0005633475375361741
1761479857545583400,7.011583251953125,-0.001993408892303705,-0.0016424832865595818,-0.0036748067941516638
1761479857555619600,7.02161962890625,0.0005496502853929996,-0.002281045541167259,-0.000279574072919786
1761479857565655600,7.031655517578125,-0.001986211631447077,0.002621301217004657,0.0015452238731086254
1761479857575690500,7.0416904296875,-0.0008691828697919846,0.0004738986026495695,0.0018994375132024288
1761479857585726500,7.0517265625,-0.0007080617360770702,-0.00010906741954386234,0.0007042108336463571
1761479857595762400,7.061762451171875,-0.001203649677336216,0.0020406520925462246,-0.0016407541697844863
1761479857605798400,7.07179833984375,0.0012856069952249527,-0.0001489988062530756,-0.00020770716946572065
1761479857615834400,7.08183447265625,-0.002658871002495289,0.0020684832707047462,0.0009086510399356484
1761479857625870600,7.09187060546875,0.0004889857955276966,0.0016658131498843431,-0.0008184089092537761
1761479857635906600,7.101906494140625,-0.0008016978390514851,0.00006716721691191196,-0.0018010460771620274
1761479857645942500,7.111942626953125,0.0025837125722318888,-0.0009682700037956238,-0.0001773168332874775
1761479857655977500,7.1219775390625,-0.0009368914179503918,0.0004899466875940561,0.00022978615015745163
1761479857666013400,7.132013427734375,-0.0002205008640885353,0.0003631801810115576,-0.0001896616304293275
1761479857676049400,7.14204931640625,0.0007900497876107693,-0.00012770108878612518,-0.0004955286858603358
1761479857686085400,7.15208544921875,0.0010004397481679916,0.0011695247376337647,-0.000249186297878623
1761479857696121300,7.162121337890625,0.0010856487788259983,-0.0024717841297388077,-0.0017165493918582797
1761479857706157600,7.172157470703125,-0.0010520704090595245,0.00216291518881917,0.00008880742825567722
1761479857716193500,7.182193603515625,0.00019606715068221092,-0.0019092145375907421,0.000007869093678891659
1761479857726228500,7.192228515625,-0.0000667870044708252,-0.0018231943249702454,0.001874212408438325
1761479857736264400,7.202264404296875,0.002029883209615946,0.0020392457954585552,0.000287943403236568
1761479857746300400,7.212300537109375,0.0010293335653841496,-0.00014667678624391556,0.000400861375965178
1761479857756336400,7.22233642578125,-0.0009564771316945553,-0.0015911730006337166,0.0005707843811251223
1761479857766372400,7.232372314453125,-0.0009618033654987812,-0.00024840724654495716,-0.0012132670963183045
1761479857776408300,7.242408203125,-0.0004128888249397278,-0.0018710794392973185,0.0008642144384793937
1761479857786444500,7.252444580078125,0.0011687623336911201,0.00025944923982024193,0.00018271151930093765
1761479857796480500,7.26248046875,0.0007781274616718292,0.0033287438564002514,0.0006606407114304602
1761479857806515500,7.272515380859375,0.0018457886762917042,0.0012999477330595255,-0.0019684319850057364
1761479857816551400,7.282551513671875,-0.0020921332761645317,-0.0017191350925713778,0.0009196079918183386
1761479857826587400,7.29258740234375,-0.0005030250176787376,0.0006968844681978226,-0.001402402063831687
1761479857836623400,7.302623291015625,0.0004631727933883667,0.0005797087214887142,-0.0010273664956912398
1761479857846659300,7.312659423828125,-0.00015255017206072807,0.0014476330252364278,-0.004330218769609928
1761479857856695300,7.3226953125,0.00188453309237957,-0.0002739410847425461,-0.002634057542309165
1761479857866731500,7.3327314453125,-0.00044386880472302437,0.00002486538141965866,-0.0010811681859195232
1761479857876766500,7.342766357421875,0.0019478914327919483,0.0012023559538647532,-0.003108144272118807
1761479857886802400,7.352802490234375,0.0007452075369656086,-0.0006067294161766768,0.0006493096589110792
1761479857896838400,7.36283837890625,-0.0019768811762332916,0.001600078889168799,0.0016856431029736996
1761479857906874400,7.372874267578125,0.0007720338180661201,0.0016576030757278204,0.00001664017327129841
1761479857916910300,7.382910400390625,-0.0012796656228601933,0.004365408793091774,0.0008336366154253483
1761479857926946300,7.3929462890625,0.001047138124704361,-0.002792901825159788,-0.0019533615559339523
1761479857936982300,7.402982177734375,-0.0008599162101745605,0.0015315409982576966,0.00034980697091668844
1761479857947017500,7.413017578125,0.0008234679698944092,-0.0003004474565386772,-0.0020291947294026613
1761479857957053400,7.423053466796875,-0.0015020184218883514,-0.00034258654341101646,0.0016885201912373304
1761479857967089400,7.43308935546875,-0.0012828405015170574,-0.0019231727346777916,-0.002186112804338336
1761479857977125400,7.44312548828125,-0.0007598209194839001,0.0008764797821640968,0.0014411810552701354
1761479857987161300,7.453161376953125,0.0008836155757308006,0.0006437196861952543,-0.0011396883055567741
1761479857997197300,7.463197265625,0.0011607818305492401,-0.0013868536334484816,-0.0007220272673293948
1761479858007233300,7.4732333984375,0.0008734269067645073,0.0018182608764618635,0.000703030324075371
1761479858017269200,7.483269287109375,-0.00048029469326138496,-0.001296888804063201,0.0020726360380649567
1761479858027304400,7.493304443359375,0.0005346359685063362,-0.002190646016970277,0.0006752752815373242
1761479858037340400,7.50334033203125,0.0009517171420156956,0.0015176739543676376,-0.001232868293300271
1761479858047376400,7.51337646484375,-0.0019902773201465607,-0.0013438926544040442,-0.0001873113214969635
1761479858057412400,7.523412353515625,0.002221527975052595,0.000001166248694062233,-0.00030287273693829775
1761479858067448300,7.5334482421875,0.0007794261910021305,-0.0022241713013499975,-0.0003952843835577369
1761479858077484300,7.543484375,-0.0010629943571984768,0.0018929674988612533,0.0006133539136499166
1761479858087520300,7.553520263671875,-0.0018017557449638844,-0.0011129423510283232,-0.0012676366604864597
1761479858097555500,7.563555419921875,0.002079158090054989,-0.0016656836960464716,0.0013817672152072191
1761479858107591400,7.57359130859375,0.0008453154005110264,-0.00023689772933721542,0.0017261139582842588
1761479858117627400,7.58362744140625,-0.000006302725523710251,0.001625738455913961,0.0016142568783834577
1761479858127663400,7.593663330078125,0.0014166245236992836,0.0024393340572714806,0.0012845575110986829
1761479858137699300,7.60369921875,0.00006647221744060516,0.000717144226655364,-0.0003840054851025343
1761479858147735300,7.6137353515625,0.0010276073589920998,-0.0008554523810744286,-0.0007975944317877293
1761479858157771300,7.623771240234375,0.0001234239898622036,-0.0013003197964280844,0.000818639702629298
1761479858167806500,7.633806396484375,0.00016390392556786537,-0.0048652272671461105,0.00018480734433978796
1761479858177842400,7.643842529296875,-0.00029990170150995255,0.0030668650288134813,-0.00032164936419576406
1761479858187878400,7.65387841796875,-0.0008706171065568924,0.00005642790347337723,-0.00111314095556736
1761479858197914400,7.663914306640625,-0.0008538607507944107,0.00021422747522592545,-0.000356537289917469
1761479858207950300,7.673950439453125,-0.0008189734071493149,0.0017980093834921718,-0.00099036970641464
1761479858217986300,7.683986328125,-0.0012044687755405903,0.002720980206504464,-0.0009327818406745791
1761479858228022300,7.694022216796875,-0.0019136685878038406,0.0004189438186585903,-0.0003687242278829217
1761479858238057500,7.704057373046875,0.00026720156893134117,-0.0008268400561064482,0.00012467429041862488
1761479858248093400,7.714093505859375,-0.0018710503354668617,-0.0006619903724640608,-0.000039909034967422485
1761479858258129400,7.72412939453125,0.0006270590238273144,0.0022562644444406033,-0.0009862902807071805
1761479858268165400,7.734165283203125,-0.0007492625154554844,-0.002332628471776843,-0.0018989554373547435
1761479858278201300,7.744201416015625,-0.0005094734951853752,0.0008901767432689667,-0.0006603376241400838
1761479858288237300,7.7542373046875,0.00008201459422707558,-0.0004818837624043226,-0.0003785752924159169
1761479858298273500,7.7642734375,0.0004456695169210434,-0.001853447174653411,-0.0005342263029888272
1761479858308308500,7.77430859375,-0.0015892521478235722,0.0011737680761143565,0.00046685594134032726
1761479858318344400,7.784344482421875,-0.0021931705996394157,0.003768120426684618,0.00038816314190626144
1761479858328380400,7.79438037109375,0.0014039608649909496,0.0011867184657603502,0.0006952256080694497
1761479858338416400,7.80441650390625,0.00031573977321386337,0.002008770825341344,0.0005209335358813405
1761479858348452400,7.814452392578125,-0.0018328987061977386,-0.00020271819084882736,-0.0005001225508749485
1761479858358488600,7.824488525390625,0.0019372603856027126,0.0005661705508828163,-0.0007692938670516014
1761479858368524500,7.834524658203125,0.003271504072472453,0.0011776323663070798,0.000880001753102988
1761479858378559200,7.844559326171875,-0.00013425759971141815,0.0013875550357624888,0.00040467490907758474
1761479858388595500,7.854595458984375,-0.00004104664549231529,-0.0007933075539767742,-0.000563916633836925
1761479858398631400,7.86463134765625,0.002599183237180114,0.00003393925726413727,0.0008360506617464125
1761479858408667100,7.874667236328125,0.0003046034835278988,-0.00021533272229135036,-0.00032961496617645025
1761479858418703000,7.884703125,0.002045163419097662,-0.0011741037014871836,-0.0008774182060733438
1761479858428739000,7.894739013671875,-0.000063261017203331,-0.0038007793482393026,0.0008347281254827976
1761479858438775000,7.904775146484375,0.0002765054814517498,0.0007436955347657204,-0.002117014955729246
1761479858448810000,7.91481005859375,0.0008765156380832195,0.0019549010321497917,0.0015738599468022585
1761479858458846200,7.92484619140625,-0.0027539487928152084,-0.0021420700941234827,-0.0009705193806439638
1761479858468882200,7.934882080078125,0.00006873579695820808,-0.0011455148924142122,0.0011775863822549582
1761479858478918100,7.944918212890625,0.0021743662655353546,0.0007389774546027184,0.0009559704922139645
1761479858488954000,7.9549541015625,-0.0007047769613564014,-0.00045837974175810814,0.001686475588940084
1761479858498990000,7.964989990234375,-0.0018889917992055416,-0.0005909865722060204,0.0009758880478329957
1761479858509026000,7.975026123046875,0.0005161087028682232,-0.0030738518107682467,0.0009018521523103118
1761479858519062000,7.98506201171875,0.00047841155901551247,-0.0017569232732057571,-0.0015026107430458069
1761479858529097000,7.995096923828125,0.002873126184567809,-0.0019513340666890144,0.0007565487176179886
1761479858539133200,8.00513330078125,-0.0008799862116575241,-0.00290316273458302,-0.0020455378107726574
1761479858549167900,8.01516796875,0.001163457054644823,0.00004522292874753475,0.001623232732526958
1761479858559204000,8.0252041015625,0.00001203129068017006,0.0006537346635013819,0.0006028150673955679
1761479858569240000,8.035239990234375,-0.0003019552677869797,0.0018782560946419835,0.0021005768794566393
1761479858579276000,8.045276123046875,0.0011520772241055965,0.0008636999409645796,0.00024418905377388
1761479858589311000,8.05531103515625,-0.0013861819170415401,-0.001265231054276228,-0.0007065593963488936
1761479858599347000,8.065346923828125,-0.002524013165384531,0.0005037563387304544,-0.0008846084820106626
1761479858609383200,8.075383056640625,0.00038362666964530945,-0.00261453865095973,-0.0002174866385757923
1761479858619419100,8.085419189453125,-0.0016384320333600044,0.0012266854755580425,-0.00012313493061810732
1761479858629455000,8.095455078125,0.00048037897795438766,-0.00005935505032539368,0.00006062316242605448
1761479858639491000,8.105490966796875,0.0005025807768106461,0.0004969455767422915,-0.0017999802948907018
1761479858649527000,8.115527099609375,-0.000830864068120718,0.00040400121361017227,0.0008195049595087767
1761479858659562000,8.12556201171875,-0.0008544884622097015,0.0018377373926341534,0.0009696769411675632
1761479858669598200,8.13559814453125,0.0013484787195920944,-0.0020166554022580385,-0.0007334146648645401
1761479858679634200,8.14563427734375,-0.0006533991545438766,0.0018168145325034857,-0.000650172121822834
1761479858689670100,8.155670166015625,-0.000808661337941885,-0.0009001423604786396,-0.0005108888726681471
1761479858699706000,8.1657060546875,0.0021304176189005375,0.00048469053581357,0.0003332933411002159
1761479858709742000,8.1757421875,-0.0003378004767000675,-0.001067665871232748,-0.002088052686303854
1761479858719778000,8.185778076171875,0.0017059901729226112,0.0025938821490854025,-0.0006900324951857328
1761479858729814000,8.19581396484375,-0.0005531692877411842,0.0007009073160588741,-0.00019415200222283602
1761479858739849200,8.20584912109375,-0.0015676370821893215,-0.0009515669662505388,0.0005812484887428582
1761479858749885200,8.21588525390625,0.0006331992335617542,0.0006551179103553295,0.00026619655545800924
1761479858759921200,8.225921142578125,0.0006450898945331573,-0.00009525846689939499,0.0004062376683577895
1761479858769957000,8.23595703125,0.00041392771527171135,-0.0007985993288457394,-0.0009053691755980253
1761479858779993000,8.2459931640625,-0.0031103375367820263,-0.0010255561210215092,0.000010938150808215141
1761479858790029000,8.256029052734375,0.0006572362035512924,0.0020112465135753155,-0.00009452295489609241
1761479858800064000,8.26606396484375,-0.0022841105237603188,-0.0010279847774654627,-0.00016622315160930157
1761479858810100000,8.276099853515625,0.0010259323753416538,-0.0012415703386068344,-0.0003425243776291609
1761479858820136200,8.28613623046875,-0.00038433540612459183,-0.0012943560723215342,0.0008954351651482284
1761479858830172200,8.296172119140625,-0.001921778079122305,-0.001323384465649724,0.000040027895011007786
1761479858840208100,8.3062080078125,-0.00038428883999586105,-0.0006874802056699991,0.0005571558140218258
1761479858850244000,8.316244140625,0.0016242675483226776,-0.0006619137711822987,0.0007366528734564781
1761479858860280000,8.326280029296875,0.0003232560120522976,0.001438202802091837,-0.0006804707227274776
1761479858870315000,8.33631494140625,0.0015887902118265629,-0.0020478751976042986,-0.000961167854256928
1761479858880351000,8.34635107421875,0.000845818780362606,0.0004495230969041586,-0.0009694201871752739
1761479858890387000,8.356386962890625,-0.00021278765052556992,0.0017821687506511807,-0.0026224444154649973
1761479858900423200,8.366423095703125,0.0029982789419591427,0.00009354110807180405,0.00032365915831178427
1761479858910459100,8.376459228515625,-0.0017964765429496765,-0.0002108581829816103,0.0002879728563129902
1761479858920495000,8.3864951171875,0.0010048751719295979,-0.0010858671739697456,-0.0012106625363230705
1761479858930531000,8.396531005859375,-0.0008196565322577953,-0.0003745369613170624,0.0020735475700348616
1761479858940566000,8.40656591796875,0.0009444155730307102,-0.0003339052200317383,-0.0012482911115512252
1761479858950602000,8.41660205078125,-0.0009339116513729095,-0.0003030125517398119,0.00251022819429636
1761479858960638000,8.426637939453125,0.001081544440239668,0.00002463790588080883,0.0005647627403959632
1761479858970674000,8.436673828125,-0.0006226124241948128,0.0013098794734105468,0.0011906055733561516
1761479858980710100,8.446710205078125,0.00019224267452955246,0.0014634208055213094,-0.0010238506365567446
1761479858990746000,8.45674609375,0.0022002658806741238,0.0005563481245189905,0.0015713998582214117
1761479859000782000,8.466781982421875,0.0005552284419536591,0.000980560202151537,0.00025737436953932047
1761479859010817000,8.476817138671874,-0.0025686598382890224,0.00113821926061064,-0.0010174807393923402
1761479859020853000,8.48685302734375,-0.0006654686294496059,-0.0035485520493239164,0.002817321103066206
1761479859030889000,8.496888916015624,-0.0006183306686580181,0.0010030565317720175,-0.0005071026971563697
1761479859040925000,8.506925048828125,0.0011381651274859905,-0.0007574958726763725,0.0023419747594743967
1761479859050961000,8.5169609375,-0.0007292432710528374,-0.0016240882687270641,0.0004082535160705447
1761479859060997000,8.5269970703125,0.0006411774083971977,0.0011309715919196606,-0.000672372872941196
1761479859071033000,8.537033203125,-0.0024361051619052887,0.0020713338162750006,-0.001466793823055923
1761479859081068000,8.547068115234374,0.000996170099824667,0.0013411104446277022,0.00014460936654359102
1761479859091104000,8.55710400390625,-0.00011916179209947586,-0.0002368125133216381,-0.002684999257326126
1761479859101140000,8.567139892578124,0.0002885404974222183,-0.0030929192434996367,-0.0007928360719233751
1761479859111176000,8.577176025390624,0.0004390091635286808,-0.0000015220139175653458,-0.0015313306357711554
1761479859121213000,8.587212890625,-0.0020134137012064457,0.001971680438145995,0.001760867889970541
1761479859131249000,8.597248779296875,0.0020324611105024815,-0.0008139859419316053,-0.001654902589507401
1761479859141284000,8.6072841796875,-0.001677746418863535,-0.003052439307793975,0.0005061280680820346
1761479859151320000,8.617320068359374,-0.0014492473565042019,0.007855069823563099,0.008714789524674416
1761479859161356000,8.62735595703125,-0.0022507300600409508,0.014248980209231377,0.017925817519426346
1761479859171392000,8.63739208984375,0.0007000523619353771,-0.007146323099732399,-0.008939619176089764
1761479859181428000,8.647427978515625,-0.0005147196352481842,-0.00575200654566288,-0.00865293201059103
1761479859191464000,8.6574638671875,-0.000057188794016838074,-0.0026627397164702415,-0.0010038006585091352
1761479859201500000,8.6675,0.002206352772191167,-0.0026630093343555927,0.0012946219649165869
1761479859211535000,8.67753515625,-0.001480261329561472,-0.003884068690240383,-0.0020614934619516134
