time,seconds_elapsed,z,y,x
1761505987792673300,0.08367333984375,-1.01446533203125,-0.020050048828125,-0.0329437255859375
1761505987802709200,0.093709228515625,-1.0141448974609375,-0.02069091796875,-0.033294677734375
1761505987812745500,0.103745361328125,-1.01312255859375,-0.0206146240234375,-0.03277587890625
1761505987822781400,0.113781494140625,-1.01373291015625,-0.019744873046875,-0.0326995849609375
1761505987832817700,0.123817626953125,-1.0144500732421875,-0.0206146240234375,-0.033111572265625
1761505987842853600,0.133853515625,-1.0129547119140625,-0.0204620361328125,-0.032562255859375
1761505987852889600,0.1438896484375,-1.0133514404296875,-0.02044677734375,-0.0329742431640625
1761505987862924300,0.15392431640625,-1.0130157470703125,-0.02056884765625,-0.033233642578125
1761505987872960500,0.16396044921875,-1.0119781494140625,-0.020538330078125,-0.0332183837890625
1761505987882996500,0.17399658203125,-1.012451171875,-0.0201568603515625,-0.033294677734375
1761505987893032400,0.184032470703125,-1.0134429931640625,-0.0194244384765625,-0.0331878662109375
1761505987903068400,0.194068359375,-1.0142059326171875,-0.0194549560546875,-0.033111572265625
1761505987913104600,0.204104736328125,-1.012603759765625,-0.0196380615234375,-0.0330047607421875
1761505987923140600,0.214140625,-1.0128631591796875,-0.020477294921875,-0.0328826904296875
1761505987933176600,0.224176513671875,-1.014312744140625,-0.0201416015625,-0.0329742431640625
1761505987943212500,0.234212646484375,-1.0121917724609375,-0.0202789306640625,-0.033233642578125
1761505987953248500,0.24424853515625,-1.0125732421875,-0.0201568603515625,-0.0330657958984375
1761505987963284500,0.254284423828125,-1.014190673828125,-0.0203399658203125,-0.0328369140625
1761505987973320400,0.264320556640625,-1.0135040283203125,-0.0199432373046875,-0.03375244140625
1761505987983356400,0.2743564453125,-1.013519287109375,-0.0202484130859375,-0.033111572265625
1761505987993392400,0.284392333984375,-1.01348876953125,-0.0206756591796875,-0.033233642578125
1761505988003428400,0.294428466796875,-1.0130157470703125,-0.020477294921875,-0.032958984375
1761505988013464600,0.304464599609375,-1.012786865234375,-0.02093505859375,-0.0333709716796875
1761505988023500500,0.31450048828125,-1.012969970703125,-0.020782470703125,-0.0334930419921875
1761505988033536500,0.32453662109375,-1.0128936767578125,-0.020477294921875,-0.0329437255859375
1761505988043572500,0.334572509765625,-1.013214111328125,-0.0200042724609375,-0.0325775146484375
1761505988053608400,0.3446083984375,-1.0134735107421875,-0.0206298828125,-0.03271484375
1761505988063644400,0.35464453125,-1.0126953125,-0.0194854736328125,-0.0328521728515625
1761505988073680400,0.364680419921875,-1.0125885009765625,-0.0201263427734375,-0.0334320068359375
1761505988083716400,0.37471630859375,-1.0126190185546875,-0.0199127197265625,-0.0320587158203125
1761505988093753300,0.38475341796875,-1.012298583984375,-0.01983642578125,-0.0325469970703125
1761505988103789600,0.39478955078125,-1.012176513671875,-0.0201416015625,-0.0332183837890625
1761505988113825500,0.404825439453125,-1.0130462646484375,-0.021148681640625,-0.0321197509765625
1761505988123861500,0.414861572265625,-1.012939453125,-0.020416259765625,-0.032470703125
1761505988133897500,0.4248974609375,-1.013580322265625,-0.01995849609375,-0.033233642578125
1761505988143933400,0.434933349609375,-1.012298583984375,-0.0202178955078125,-0.033477783203125
1761505988153969400,0.444969482421875,-1.0126190185546875,-0.02001953125,-0.0331268310546875
1761505988164005600,0.455005615234375,-1.01373291015625,-0.0197601318359375,-0.0328826904296875
1761505988174041600,0.46504150390625,-1.0128326416015625,-0.0208892822265625,-0.0330047607421875
1761505988184077600,0.47507763671875,-1.0127716064453125,-0.0204620361328125,-0.0331573486328125
1761505988194113500,0.485113525390625,-1.0125579833984375,-0.02044677734375,-0.032257080078125
1761505988204149500,0.4951494140625,-1.0123138427734375,-0.02056884765625,-0.0325927734375
1761505988214185500,0.505185546875,-1.0128021240234375,-0.019561767578125,-0.0325775146484375
1761505988224221400,0.515221435546875,-1.0122528076171875,-0.0192108154296875,-0.0325164794921875
1761505988234257400,0.52525732421875,-1.012298583984375,-0.0203704833984375,-0.0328826904296875
1761505988244293400,0.53529345703125,-1.0122528076171875,-0.0204925537109375,-0.0329437255859375
1761505988254329300,0.545329345703125,-1.0123291015625,-0.0205535888671875,-0.032562255859375
1761505988264365300,0.555365234375,-1.013031005859375,-0.0205078125,-0.03375244140625
1761505988274401500,0.565401611328125,-1.0122528076171875,-0.020111083984375,-0.0327606201171875
1761505988284437500,0.5754375,-1.01141357421875,-0.020263671875,-0.0327606201171875
1761505988294473500,0.585473388671875,-1.0125579833984375,-0.020294189453125,-0.0324859619140625
1761505988304509400,0.595509521484375,-1.0120086669921875,-0.020233154296875,-0.0325927734375
1761505988314545400,0.60554541015625,-1.0122833251953125,-0.0201416015625,-0.0326385498046875
1761505988324581400,0.615581298828125,-1.0120697021484375,-0.0201873779296875,-0.033477783203125
1761505988334617300,0.625617431640625,-1.0126495361328125,-0.0198974609375,-0.0333251953125
1761505988344653300,0.6356533203125,-1.012420654296875,-0.019195556640625,-0.0334014892578125
1761505988354689300,0.645689208984375,-1.0121917724609375,-0.02001953125,-0.0327911376953125
1761505988364725200,0.655725341796875,-1.013336181640625,-0.0197906494140625,-0.0325775146484375
1761505988374761200,0.66576123046875,-1.0117340087890625,-0.0198822021484375,-0.0328369140625
1761505988384796400,0.67579638671875,-1.0126190185546875,-0.0201873779296875,-0.032928466796875
1761505988394832400,0.685832275390625,-1.0128173828125,-0.019927978515625,-0.033233642578125
1761505988404868400,0.695868408203125,-1.012237548828125,-0.0193023681640625,-0.033935546875
1761505988414904300,0.705904296875,-1.0124664306640625,-0.020751953125,-0.0325775146484375
1761505988424940300,0.715940185546875,-1.0121612548828125,-0.019744873046875,-0.0326385498046875
1761505988434976300,0.725976318359375,-1.0133819580078125,-0.019989013671875,-0.032867431640625
1761505988445012500,0.736012451171875,-1.0127105712890625,-0.019775390625,-0.0334320068359375
1761505988455048400,0.74604833984375,-1.012451171875,-0.0190582275390625,-0.0324859619140625
1761505988465084700,0.756084716796875,-1.0122528076171875,-0.019256591796875,-0.033447265625
1761505988475120600,0.76612060546875,-1.012786865234375,-0.0196990966796875,-0.0328826904296875
1761505988485156600,0.776156494140625,-1.0121917724609375,-0.0202789306640625,-0.03289794921875
1761505988495192600,0.786192626953125,-1.0123443603515625,-0.0209808349609375,-0.0326995849609375
1761505988505228500,0.796228515625,-1.0133209228515625,-0.01983642578125,-0.033294677734375
1761505988515264500,0.806264404296875,-1.0139007568359375,-0.02020263671875,-0.03289794921875
1761505988525300500,0.816300537109375,-1.0116424560546875,-0.0198516845703125,-0.0322113037109375
1761505988535336400,0.82633642578125,-1.012542724609375,-0.019439697265625,-0.03302001953125
1761505988545372400,0.836372314453125,-1.0124053955078125,-0.019989013671875,-0.0337371826171875
1761505988555408400,0.846408447265625,-1.012847900390625,-0.02008056640625,-0.032867431640625
1761505988565444400,0.8564443359375,-1.0126800537109375,-0.0196990966796875,-0.0331573486328125
1761505988575480600,0.86648046875,-1.011962890625,-0.019775390625,-0.0325927734375
1761505988585516500,0.8765166015625,-1.01214599609375,-0.020233154296875,-0.0331268310546875
1761505988595552500,0.886552490234375,-1.0123443603515625,-0.0207366943359375,-0.0333251953125
1761505988605588500,0.89658837890625,-1.0123748779296875,-0.0192108154296875,-0.0335235595703125
1761505988615624400,0.90662451171875,-1.012237548828125,-0.0201416015625,-0.0327911376953125
1761505988625660400,0.916660400390625,-1.0121002197265625,-0.019927978515625,-0.033203125
1761505988635696400,0.9266962890625,-1.0123443603515625,-0.0193939208984375,-0.0332489013671875
1761505988645732400,0.936732421875,-1.0130157470703125,-0.0196533203125,-0.03265380859375
1761505988655768300,0.946768310546875,-1.0120849609375,-0.0195159912109375,-0.0330047607421875
1761505988665804300,0.95680419921875,-1.012725830078125,-0.019775390625,-0.032989501953125
1761505988675840300,0.96684033203125,-1.0126800537109375,-0.0196380615234375,-0.0329437255859375
1761505988685876500,0.97687646484375,-1.012664794921875,-0.0202789306640625,-0.0331573486328125
1761505988695912400,0.986912353515625,-1.0132293701171875,-0.020782470703125,-0.0329132080078125
1761505988705948400,0.996948486328125,-1.0125732421875,-0.019775390625,-0.0323486328125
1761505988715984400,1.006984375,-1.0116119384765625,-0.019805908203125,-0.032684326171875
1761505988726020400,1.017020263671875,-1.0130157470703125,-0.0207366943359375,-0.033111572265625
1761505988736056600,1.027056640625,-1.012908935546875,-0.0205230712890625,-0.0331573486328125
1761505988746092500,1.037092529296875,-1.0126190185546875,-0.0199737548828125,-0.03326416015625
1761505988756128500,1.04712841796875,-1.0130615234375,-0.0198974609375,-0.032501220703125
1761505988766164500,1.05716455078125,-1.0128631591796875,-0.020050048828125,-0.032806396484375
1761505988776200400,1.067200439453125,-1.0135650634765625,-0.02044677734375,-0.033233642578125
1761505988786236400,1.077236328125,-1.0125579833984375,-0.02142333984375,-0.0332489013671875
1761505988796272600,1.087272705078125,-1.0127410888671875,-0.020660400390625,-0.0330963134765625
1761505988806308600,1.09730859375,-1.012908935546875,-0.0205230712890625,-0.03338623046875
1761505988816344600,1.107344482421875,-1.01177978515625,-0.0205230712890625,-0.0327911376953125
1761505988826380500,1.117380615234375,-1.01220703125,-0.020477294921875,-0.033935546875
1761505988836416500,1.12741650390625,-1.012725830078125,-0.0194091796875,-0.0333709716796875
1761505988846452500,1.137452392578125,-1.0125885009765625,-0.020111083984375,-0.033294677734375
1761505988856488400,1.147488525390625,-1.0123291015625,-0.019775390625,-0.0324249267578125
1761505988866524400,1.1575244140625,-1.0122528076171875,-0.020660400390625,-0.032470703125
1761505988876560400,1.167560302734375,-1.0118255615234375,-0.02056884765625,-0.033599853515625
1761505988886596400,1.177596435546875,-1.0134124755859375,-0.0202789306640625,-0.032928466796875
1761505988896632300,1.18763232421875,-1.0135650634765625,-0.019622802734375,-0.0326385498046875
1761505988906668500,1.19766845703125,-1.01226806640625,-0.0192413330078125,-0.0323333740234375
1761505988916704500,1.20770458984375,-1.0136566162109375,-0.0202484130859375,-0.032440185546875
1761505988926740500,1.217740478515625,-1.01275634765625,-0.01983642578125,-0.0327606201171875
1761505988936776400,1.2277763671875,-1.012664794921875,-0.0194854736328125,-0.0323486328125
1761505988946812400,1.2378125,-1.013092041015625,-0.020233154296875,-0.03271484375
1761505988956848400,1.247848388671875,-1.0129852294921875,-0.020263671875,-0.0328369140625
1761505988966884400,1.25788427734375,-1.0124053955078125,-0.020263671875,-0.03192138671875
1761505988976920300,1.26792041015625,-1.0126953125,-0.0192413330078125,-0.0333404541015625
1761505988986956300,1.277956298828125,-1.0131072998046875,-0.0206298828125,-0.0332489013671875
1761505988996992300,1.2879921875,-1.011932373046875,-0.020233154296875,-0.0329132080078125
1761505989007028200,1.2980283203125,-1.0120697021484375,-0.019378662109375,-0.0335540771484375
1761505989017064400,1.308064453125,-1.0124053955078125,-0.019622802734375,-0.032958984375
1761505989027100700,1.3181005859375,-1.0133514404296875,-0.019989013671875,-0.0329132080078125
1761505989037136600,1.32813671875,-1.01251220703125,-0.0195465087890625,-0.0329742431640625
1761505989047172600,1.338172607421875,-1.01226806640625,-0.01953125,-0.03326416015625
1761505989057208600,1.34820849609375,-1.013671875,-0.0194549560546875,-0.0327606201171875
1761505989067244500,1.35824462890625,-1.0130462646484375,-0.0205841064453125,-0.03338623046875
1761505989077280500,1.368280517578125,-1.012969970703125,-0.0206451416015625,-0.0329437255859375
1761505989087316500,1.37831640625,-1.01373291015625,-0.0201416015625,-0.0326690673828125
1761505989097352000,1.38835205078125,-1.013519287109375,-0.0203704833984375,-0.0332489013671875
1761505989107388000,1.398387939453125,-1.0126495361328125,-0.0200653076171875,-0.0329132080078125
1761505989117423000,1.408423095703125,-1.0130462646484375,-0.021026611328125,-0.03326416015625
1761505989127459000,1.418458984375,-1.0137786865234375,-0.0201416015625,-0.03253173828125
1761505989137495000,1.4284951171875,-1.012664794921875,-0.0200347900390625,-0.0324554443359375
1761505989147531000,1.438531005859375,-1.0120697021484375,-0.020355224609375,-0.0327606201171875
1761505989157567000,1.44856689453125,-1.01239013671875,-0.019744873046875,-0.03326416015625
1761505989167603000,1.45860302734375,-1.012481689453125,-0.019927978515625,-0.032928466796875
1761505989177639000,1.468638916015625,-1.0128631591796875,-0.0204010009765625,-0.03363037109375
1761505989187675000,1.4786748046875,-1.013916015625,-0.0197906494140625,-0.0333709716796875
1761505989197711000,1.488711181640625,-1.01318359375,-0.0198974609375,-0.032745361328125
1761505989207747000,1.4987470703125,-1.0123443603515625,-0.0200347900390625,-0.03253173828125
1761505989217783000,1.508782958984375,-1.0128173828125,-0.019989013671875,-0.0324859619140625
1761505989227819000,1.518819091796875,-1.01312255859375,-0.0198211669921875,-0.0334625244140625
1761505989237855000,1.52885498046875,-1.013031005859375,-0.0201568603515625,-0.032257080078125
1761505989247891000,1.538890869140625,-1.0128173828125,-0.0203704833984375,-0.0326385498046875
1761505989257927000,1.548927001953125,-1.0138397216796875,-0.0195465087890625,-0.0326995849609375
1761505989267963000,1.558962890625,-1.0133819580078125,-0.0201416015625,-0.031890869140625
1761505989277998800,1.568998779296875,-1.01348876953125,-0.0197906494140625,-0.0324859619140625
1761505989288034800,1.579034912109375,-1.0135040283203125,-0.019744873046875,-0.0325775146484375
1761505989298070800,1.58907080078125,-1.0131988525390625,-0.0202178955078125,-0.0333099365234375
1761505989308107000,1.59910693359375,-1.0137481689453125,-0.020050048828125,-0.0328216552734375
1761505989318143000,1.60914306640625,-1.01275634765625,-0.0203704833984375,-0.033111572265625
1761505989328179000,1.619178955078125,-1.0131072998046875,-0.0196685791015625,-0.0327301025390625
1761505989338215000,1.62921484375,-1.0122833251953125,-0.0194091796875,-0.032806396484375
1761505989348251000,1.6392509765625,-1.0134735107421875,-0.0201416015625,-0.0321807861328125
1761505989358286800,1.649286865234375,-1.0125885009765625,-0.019744873046875,-0.0328521728515625
1761505989368322800,1.65932275390625,-1.0130615234375,-0.0201416015625,-0.0331878662109375
1761505989378358800,1.66935888671875,-1.0128326416015625,-0.021026611328125,-0.033355712890625
1761505989388395000,1.67939501953125,-1.013397216796875,-0.020233154296875,-0.033233642578125
1761505989398431000,1.689430908203125,-1.0135498046875,-0.0207672119140625,-0.0324859619140625
1761505989408467000,1.699467041015625,-1.01275634765625,-0.0195465087890625,-0.0322265625
1761505989418503200,1.709503173828125,-1.012451171875,-0.0202178955078125,-0.0333404541015625
1761505989428539100,1.7195390625,-1.0133209228515625,-0.0208740234375,-0.0341796875
1761505989438575000,1.7295751953125,-1.012298583984375,-0.0206146240234375,-0.0327911376953125
1761505989448611000,1.739611083984375,-1.0126953125,-0.019561767578125,-0.0329132080078125
1761505989458647000,1.74964697265625,-1.0128326416015625,-0.019134521484375,-0.033294677734375
1761505989468683000,1.75968310546875,-1.0139007568359375,-0.019989013671875,-0.032928466796875
1761505989478719000,1.769718994140625,-1.0131988525390625,-0.0201416015625,-0.032958984375
1761505989488755000,1.7797548828125,-1.0125885009765625,-0.0207672119140625,-0.03271484375
1761505989498791000,1.789791015625,-1.0125579833984375,-0.0205230712890625,-0.0336456298828125
1761505989508827000,1.799826904296875,-1.0134735107421875,-0.0195159912109375,-0.0328369140625
1761505989518862800,1.80986279296875,-1.0126190185546875,-0.019317626953125,-0.0336456298828125
1761505989528899000,1.819899169921875,-1.013458251953125,-0.0210723876953125,-0.032745361328125
1761505989538935000,1.82993505859375,-1.0133514404296875,-0.02001953125,-0.0323486328125
1761505989548971000,1.839970947265625,-1.0125579833984375,-0.0206756591796875,-0.0324249267578125
1761505989559007000,1.850007080078125,-1.0128173828125,-0.0201568603515625,-0.0328369140625
1761505989569043000,1.86004296875,-1.013214111328125,-0.0201568603515625,-0.0324249267578125
1761505989579079000,1.870078857421875,-1.0142974853515625,-0.0202178955078125,-0.0327301025390625
1761505989589115000,1.880114990234375,-1.0137176513671875,-0.0200042724609375,-0.0330810546875
1761505989599150800,1.89015087890625,-1.012237548828125,-0.0202484130859375,-0.0328826904296875
1761505989609186800,1.900186767578125,-1.0125579833984375,-0.0211181640625,-0.0323944091796875
1761505989619222800,1.910222900390625,-1.012298583984375,-0.019073486328125,-0.03265380859375
1761505989629258800,1.9202587890625,-1.0133056640625,-0.01947021484375,-0.032470703125
1761505989639295000,1.930294921875,-1.013916015625,-0.0202178955078125,-0.0330657958984375
1761505989649331000,1.9403310546875,-1.01336669921875,-0.0204315185546875,-0.0330352783203125
1761505989659367000,1.950366943359375,-1.0132293701171875,-0.0203704833984375,-0.0327911376953125
1761505989669403000,1.96040283203125,-1.01300048828125,-0.02008056640625,-0.0325775146484375
1761505989679439000,1.970439208984375,-1.0134124755859375,-0.0198516845703125,-0.0326080322265625
1761505989689475000,1.98047509765625,-1.013641357421875,-0.0199127197265625,-0.032318115234375
1761505989699511000,1.990510986328125,-1.0133514404296875,-0.0202178955078125,-0.0323638916015625
1761505989709547000,2.000547119140625,-1.0137176513671875,-0.0196990966796875,-0.0334014892578125
1761505989719583000,2.0105830078125,-1.0126495361328125,-0.0200347900390625,-0.0333251953125
1761505989729619000,2.020618896484375,-1.0139007568359375,-0.0198974609375,-0.0325164794921875
1761505989739655000,2.030655029296875,-1.013427734375,-0.0205078125,-0.0330810546875
1761505989749691100,2.040691162109375,-1.0129852294921875,-0.02032470703125,-0.0325164794921875
1761505989759727000,2.05072705078125,-1.0131072998046875,-0.0204620361328125,-0.0328521728515625
1761505989769763000,2.06076318359375,-1.0134429931640625,-0.019775390625,-0.0331878662109375
1761505989779799000,2.070799072265625,-1.01300048828125,-0.01971435546875,-0.0335693359375
1761505989789835000,2.0808349609375,-1.0126800537109375,-0.019989013671875,-0.03314208984375
1761505989799871000,2.09087109375,-1.0129547119140625,-0.0202789306640625,-0.0325164794921875
1761505989809907000,2.100906982421875,-1.01263427734375,-0.02044677734375,-0.0321197509765625
1761505989819943000,2.11094287109375,-1.0133056640625,-0.0198822021484375,-0.032684326171875
1761505989829978000,2.12097802734375,-1.01275634765625,-0.0196533203125,-0.0330963134765625
1761505989840014000,2.13101416015625,-1.014007568359375,-0.0202484130859375,-0.033843994140625
1761505989850050000,2.141050048828125,-1.0142364501953125,-0.0196380615234375,-0.0330657958984375
1761505989860086000,2.1510859375,-1.01446533203125,-0.02001953125,-0.0326385498046875
1761505989870122000,2.1611220703125,-1.012969970703125,-0.0197601318359375,-0.032684326171875
1761505989880158000,2.171157958984375,-1.0131683349609375,-0.020416259765625,-0.0326995849609375
1761505989890194000,2.18119384765625,-1.012481689453125,-0.0201416015625,-0.03314208984375
1761505989900230000,2.19122998046875,-1.013214111328125,-0.019073486328125,-0.0335693359375
1761505989910265900,2.201265869140625,-1.01318359375,-0.0198516845703125,-0.0333709716796875
1761505989920301800,2.2113017578125,-1.0128021240234375,-0.0197296142578125,-0.0329437255859375
1761505989930337800,2.221337890625,-1.0143585205078125,-0.0198974609375,-0.0327606201171875
1761505989940374000,2.2313740234375,-1.013275146484375,-0.0205230712890625,-0.0327606201171875
1761505989950410000,2.241409912109375,-1.014251708984375,-0.0202178955078125,-0.0331878662109375
1761505989960446000,2.251446044921875,-1.0134429931640625,-0.0202789306640625,-0.032684326171875
1761505989970482000,2.26148193359375,-1.0127410888671875,-0.020294189453125,-0.0325469970703125
1761505989980518000,2.271517822265625,-1.012908935546875,-0.0198974609375,-0.03289794921875
1761505989990553900,2.281553955078125,-1.0128631591796875,-0.01995849609375,-0.0333251953125
1761505990000589800,2.29158984375,-1.0130615234375,-0.0196533203125,-0.0337371826171875
1761505990010625800,2.301625732421875,-1.013702392578125,-0.0202484130859375,-0.033050537109375
1761505990020662000,2.311662109375,-1.01348876953125,-0.0201416015625,-0.0328826904296875
1761505990030698000,2.321697998046875,-1.013519287109375,-0.019561767578125,-0.0330657958984375
1761505990040734000,2.33173388671875,-1.013275146484375,-0.020263671875,-0.0332183837890625
1761505990050770000,2.34177001953125,-1.012603759765625,-0.019317626953125,-0.03277587890625
1761505990060806100,2.35180615234375,-1.0135040283203125,-0.01953125,-0.0330657958984375
1761505990070842000,2.361842041015625,-1.0126190185546875,-0.0193023681640625,-0.032958984375
1761505990080878000,2.371878173828125,-1.0124664306640625,-0.0203094482421875,-0.032989501953125
1761505990090914000,2.3819140625,-1.0130615234375,-0.0202789306640625,-0.032623291015625
1761505990100950800,2.39195068359375,-1.0128173828125,-0.0196075439453125,-0.032989501953125
1761505990110986800,2.40198681640625,-1.0131378173828125,-0.0203857421875,-0.0332183837890625
1761505990121022700,2.412022705078125,-1.01324462890625,-0.02020263671875,-0.033233642578125
1761505990131058700,2.42205859375,-1.0137481689453125,-0.0199432373046875,-0.03387451171875
1761505990141094700,2.4320947265625,-1.0133514404296875,-0.0196075439453125,-0.0328826904296875
1761505990151130600,2.442130615234375,-1.013427734375,-0.020111083984375,-0.0325469970703125
1761505990161166600,2.45216650390625,-1.0134735107421875,-0.019683837890625,-0.032928466796875
1761505990171202600,2.46220263671875,-1.0129852294921875,-0.019866943359375,-0.032623291015625
1761505990181238500,2.472238525390625,-1.0123748779296875,-0.0207366943359375,-0.0330657958984375
1761505990191274800,2.482274658203125,-1.012481689453125,-0.0196075439453125,-0.0328216552734375
1761505990201310700,2.492310791015625,-1.0134429931640625,-0.0197601318359375,-0.033477783203125
1761505990211346700,2.5023466796875,-1.012420654296875,-0.0198516845703125,-0.0333404541015625
1761505990221382700,2.512382568359375,-1.0130615234375,-0.0191192626953125,-0.0330047607421875
1761505990231418600,2.522418701171875,-1.0127716064453125,-0.0191192626953125,-0.032928466796875
1761505990241454600,2.53245458984375,-1.01287841796875,-0.0200653076171875,-0.03302001953125
1761505990251490600,2.542490478515625,-1.013580322265625,-0.0205535888671875,-0.0325927734375
1761505990261526500,2.552526611328125,-1.01336669921875,-0.0202484130859375,-0.0335693359375
1761505990271562800,2.562562744140625,-1.0137786865234375,-0.0207977294921875,-0.033294677734375
1761505990281598700,2.5725986328125,-1.0128021240234375,-0.01995849609375,-0.0328826904296875
1761505990291633700,2.582633544921875,-1.0138702392578125,-0.0198974609375,-0.032379150390625
1761505990301669600,2.592669677734375,-1.014068603515625,-0.0201568603515625,-0.0323486328125
1761505990311705600,2.60270556640625,-1.012908935546875,-0.0207061767578125,-0.0336151123046875
1761505990321741800,2.612741943359375,-1.0133209228515625,-0.0198211669921875,-0.033233642578125
1761505990331777800,2.62277783203125,-1.013671875,-0.019317626953125,-0.0330810546875
1761505990341813800,2.632813720703125,-1.0138397216796875,-0.0203399658203125,-0.0328521728515625
1761505990351849700,2.642849609375,-1.0142822265625,-0.019500732421875,-0.031951904296875
1761505990361885700,2.6528857421875,-1.012786865234375,-0.020660400390625,-0.033111572265625
1761505990371921700,2.662921630859375,-1.013427734375,-0.02099609375,-0.0333404541015625
1761505990381958000,2.6729580078125,-1.0129852294921875,-0.0197601318359375,-0.0328369140625
1761505990391993900,2.682993896484375,-1.0128173828125,-0.01971435546875,-0.0329742431640625
1761505990402029800,2.69302978515625,-1.0139312744140625,-0.0193023681640625,-0.032562255859375
1761505990412065800,2.703065673828125,-1.0142822265625,-0.0195159912109375,-0.0323944091796875
1761505990422101800,2.713101806640625,-1.0136260986328125,-0.02008056640625,-0.033203125
1761505990432137700,2.7231376953125,-1.012451171875,-0.0203399658203125,-0.0332489013671875
1761505990442173700,2.733173583984375,-1.0131072998046875,-0.0190582275390625,-0.0327911376953125
1761505990452209700,2.743209716796875,-1.0139923095703125,-0.0197906494140625,-0.032989501953125
1761505990462245600,2.75324560546875,-1.013397216796875,-0.0200958251953125,-0.032501220703125
1761505990472281600,2.763281494140625,-1.0126800537109375,-0.02081298828125,-0.0322723388671875
1761505990482317600,2.773317626953125,-1.0119171142578125,-0.0199432373046875,-0.0332183837890625
1761505990492353800,2.783353759765625,-1.012725830078125,-0.0196075439453125,-0.0331268310546875
1761505990502389800,2.7933896484375,-1.012725830078125,-0.0204925537109375,-0.0328369140625
1761505990512425700,2.80342578125,-1.0133209228515625,-0.01983642578125,-0.0319671630859375
1761505990522461700,2.813461669921875,-1.013824462890625,-0.0199432373046875,-0.03289794921875
1761505990532497700,2.82349755859375,-1.0127105712890625,-0.020111083984375,-0.03271484375
1761505990542533600,2.83353369140625,-1.01397705078125,-0.0200653076171875,-0.032745361328125
1761505990552569600,2.843569580078125,-1.013702392578125,-0.0198822021484375,-0.03271484375
1761505990562605600,2.85360546875,-1.012542724609375,-0.0196533203125,-0.0330810546875
1761505990572641500,2.8636416015625,-1.01287841796875,-0.0206146240234375,-0.03338623046875
1761505990582677500,2.873677490234375,-1.0137786865234375,-0.020721435546875,-0.0336761474609375
1761505990592713500,2.88371337890625,-1.0141143798828125,-0.01910400390625,-0.03271484375
1761505990602749700,2.893749755859375,-1.0139312744140625,-0.0192413330078125,-0.03363037109375
1761505990612786000,2.903785888671875,-1.01263427734375,-0.0201568603515625,-0.033294677734375
1761505990622822000,2.91382177734375,-1.0134429931640625,-0.020843505859375,-0.032928466796875
1761505990632856600,2.923856689453125,-1.0133819580078125,-0.0205841064453125,-0.031829833984375
1761505990642892500,2.933892578125,-1.0132904052734375,-0.02032470703125,-0.03253173828125
1761505990652928500,2.943928466796875,-1.0140380859375,-0.020111083984375,-0.03326416015625
1761505990662964700,2.95396484375,-1.013671875,-0.02044677734375,-0.032073974609375
1761505990673000700,2.964000732421875,-1.012908935546875,-0.0201416015625,-0.033111572265625
1761505990683037000,2.974036865234375,-1.0135955810546875,-0.019775390625,-0.0327911376953125
1761505990693073000,2.984072998046875,-1.0134124755859375,-0.0199737548828125,-0.03253173828125
1761505990703108900,2.99410888671875,-1.0139617919921875,-0.019500732421875,-0.0336151123046875
1761505990713144800,3.004144775390625,-1.013580322265625,-0.0201416015625,-0.033477783203125
1761505990723180800,3.014180908203125,-1.0121307373046875,-0.020294189453125,-0.0333709716796875
1761505990733216800,3.024216796875,-1.0130462646484375,-0.0197601318359375,-0.032379150390625
1761505990743252700,3.034252685546875,-1.01190185546875,-0.0206298828125,-0.0323333740234375
1761505990753288700,3.044288818359375,-1.013458251953125,-0.020172119140625,-0.0325927734375
1761505990763324700,3.05432470703125,-1.01434326171875,-0.0202178955078125,-0.032989501953125
1761505990773360600,3.064360595703125,-1.0140380859375,-0.0203399658203125,-0.0323486328125
1761505990783396600,3.074396728515625,-1.014007568359375,-0.0205841064453125,-0.03302001953125
1761505990793432800,3.084432861328125,-1.012603759765625,-0.0197906494140625,-0.033355712890625
1761505990803468800,3.09446875,-1.0128936767578125,-0.019927978515625,-0.0334320068359375
1761505990813504800,3.1045048828125,-1.0137786865234375,-0.0199127197265625,-0.033233642578125
1761505990823540700,3.114540771484375,-1.013519287109375,-0.0201416015625,-0.0329132080078125
1761505990833576700,3.12457666015625,-1.0133819580078125,-0.020477294921875,-0.032928466796875
1761505990843612700,3.13461279296875,-1.0136871337890625,-0.0204010009765625,-0.033203125
1761505990853648600,3.144648681640625,-1.014251708984375,-0.0195159912109375,-0.033477783203125
1761505990863684600,3.1546845703125,-1.013458251953125,-0.020843505859375,-0.032806396484375
1761505990873720600,3.164720458984375,-1.0133056640625,-0.020233154296875,-0.0325469970703125
1761505990883756500,3.174756591796875,-1.0139617919921875,-0.0206756591796875,-0.0326995849609375
1761505990893792500,3.18479248046875,-1.0128631591796875,-0.01983642578125,-0.0330047607421875
1761505990903828700,3.194828857421875,-1.0135345458984375,-0.0192108154296875,-0.033447265625
1761505990913864700,3.20486474609375,-1.01385498046875,-0.02032470703125,-0.0326690673828125
1761505990923900700,3.214900634765625,-1.014404296875,-0.0199432373046875,-0.03271484375
1761505990933936600,3.2249365234375,-1.0140533447265625,-0.0198822021484375,-0.0329437255859375
1761505990943971600,3.2349716796875,-1.013092041015625,-0.020355224609375,-0.03326416015625
1761505990954007600,3.245007568359375,-1.013519287109375,-0.020263671875,-0.0332183837890625
1761505990964043500,3.25504345703125,-1.0133514404296875,-0.0207366943359375,-0.0327606201171875
1761505990974079500,3.26507958984375,-1.01239013671875,-0.0193328857421875,-0.032867431640625
1761505990984115700,3.27511572265625,-1.0132904052734375,-0.02008056640625,-0.03350830078125
1761505990994151700,3.285151611328125,-1.014190673828125,-0.0204925537109375,-0.0324859619140625
1761505991004188000,3.29518798828125,-1.013824462890625,-0.0198822021484375,-0.0332183837890625
1761505991014224000,3.305223876953125,-1.012664794921875,-0.0192413330078125,-0.0328521728515625
1761505991024259800,3.315259765625,-1.013214111328125,-0.0197296142578125,-0.03326416015625
1761505991034295800,3.3252958984375,-1.0139923095703125,-0.0197296142578125,-0.0328826904296875
1761505991044331800,3.335331787109375,-1.0136566162109375,-0.019744873046875,-0.033233642578125
1761505991054367700,3.34536767578125,-1.0134429931640625,-0.019989013671875,-0.032440185546875
1761505991064403700,3.35540380859375,-1.0134124755859375,-0.019683837890625,-0.032958984375
1761505991074439700,3.365439697265625,-1.0140838623046875,-0.0202484130859375,-0.0330657958984375
1761505991084475600,3.3754755859375,-1.0135955810546875,-0.0203704833984375,-0.0330963134765625
1761505991094511900,3.385511962890625,-1.0138702392578125,-0.020416259765625,-0.033233642578125
1761505991104546800,3.395546875,-1.0140228271484375,-0.01983642578125,-0.0331573486328125
1761505991114582800,3.405582763671875,-1.0133514404296875,-0.0198516845703125,-0.0327606201171875
1761505991124618800,3.41561865234375,-1.0125274658203125,-0.020355224609375,-0.0321197509765625
1761505991134654700,3.42565478515625,-1.01361083984375,-0.0204620361328125,-0.0329742431640625
1761505991144690700,3.435690673828125,-1.014801025390625,-0.020233154296875,-0.0330963134765625
1761505991154726700,3.4457265625,-1.0135650634765625,-0.0205841064453125,-0.032073974609375
1761505991164762600,3.4557626953125,-1.01336669921875,-0.0196685791015625,-0.03271484375
1761505991174798800,3.465798828125,-1.013763427734375,-0.019927978515625,-0.0330352783203125
1761505991184834800,3.475834716796875,-1.013153076171875,-0.019805908203125,-0.032958984375
1761505991194870800,3.485870849609375,-1.01336669921875,-0.0201416015625,-0.033111572265625
1761505991204905700,3.49590576171875,-1.0135345458984375,-0.0190277099609375,-0.033447265625
1761505991214941700,3.505941650390625,-1.01385498046875,-0.0200347900390625,-0.0330963134765625
1761505991224977700,3.515977783203125,-1.0140380859375,-0.020050048828125,-0.03314208984375
1761505991235013600,3.526013671875,-1.0149688720703125,-0.019683837890625,-0.032470703125
1761505991245049600,3.536049560546875,-1.0138397216796875,-0.0208740234375,-0.0326080322265625
1761505991255085800,3.5460859375,-1.01318359375,-0.0201568603515625,-0.033294677734375
1761505991265122000,3.5561220703125,-1.013153076171875,-0.0200042724609375,-0.0328521728515625
1761505991275158000,3.566157958984375,-1.013824462890625,-0.02056884765625,-0.032562255859375
1761505991285194000,3.576194091796875,-1.0136260986328125,-0.019927978515625,-0.032440185546875
1761505991295230000,3.58622998046875,-1.01446533203125,-0.0194549560546875,-0.03173828125
1761505991305266000,3.596265869140625,-1.013763427734375,-0.0198974609375,-0.0318145751953125
1761505991315302000,3.606302001953125,-1.0138092041015625,-0.0201263427734375,-0.032989501953125
1761505991325337900,3.616337890625,-1.01385498046875,-0.020477294921875,-0.0329132080078125
1761505991335373800,3.626373779296875,-1.013397216796875,-0.020111083984375,-0.0334014892578125
1761505991345409800,3.636409912109375,-1.012969970703125,-0.0201263427734375,-0.0334014892578125
1761505991355445800,3.64644580078125,-1.013092041015625,-0.0196380615234375,-0.03326416015625
1761505991365481700,3.656481689453125,-1.013702392578125,-0.019805908203125,-0.03240966796875
1761505991375518000,3.66651806640625,-1.01287841796875,-0.0204620361328125,-0.0331573486328125
1761505991385554000,3.676553955078125,-1.0140838623046875,-0.0203857421875,-0.033721923828125
1761505991395590000,3.68658984375,-1.0133514404296875,-0.0197296142578125,-0.0327911376953125
1761505991405625900,3.6966259765625,-1.012969970703125,-0.0198822021484375,-0.033355712890625
1761505991415661800,3.706661865234375,-1.0137176513671875,-0.019805908203125,-0.0326690673828125
1761505991425697800,3.71669775390625,-1.0138397216796875,-0.020050048828125,-0.0323028564453125
1761505991435733800,3.726733642578125,-1.014556884765625,-0.0207061767578125,-0.032989501953125
1761505991445769000,3.73676904296875,-1.012969970703125,-0.0199432373046875,-0.032684326171875
1761505991455805000,3.746804931640625,-1.0136260986328125,-0.020721435546875,-0.033111572265625
1761505991465841000,3.7568408203125,-1.013214111328125,-0.0207977294921875,-0.0329437255859375
1761505991475876900,3.766876953125,-1.0131378173828125,-0.020660400390625,-0.0332794189453125
1761505991485912800,3.776912841796875,-1.0137786865234375,-0.0205230712890625,-0.0333099365234375
1761505991495948800,3.78694873046875,-1.0136566162109375,-0.0194549560546875,-0.0326385498046875
1761505991505984800,3.79698486328125,-1.013702392578125,-0.0197296142578125,-0.0335235595703125
1761505991516020700,3.807020751953125,-1.01287841796875,-0.019805908203125,-0.0328521728515625
1761505991526056700,3.817056640625,-1.0135498046875,-0.0207977294921875,-0.03265380859375
1761505991536092700,3.8270927734375,-1.0129547119140625,-0.0204620361328125,-0.0320892333984375
1761505991546128600,3.837128662109375,-1.0126190185546875,-0.0204010009765625,-0.0331878662109375
1761505991556164900,3.847164794921875,-1.0133056640625,-0.0196685791015625,-0.0317840576171875
1761505991566200800,3.857200927734375,-1.01324462890625,-0.020751953125,-0.03302001953125
1761505991576236800,3.86723681640625,-1.013092041015625,-0.0207977294921875,-0.0330047607421875
1761505991586272800,3.877272705078125,-1.0127716064453125,-0.0201873779296875,-0.0326690673828125
1761505991596309000,3.88730908203125,-1.0134124755859375,-0.020233154296875,-0.0333251953125
1761505991606345000,3.897344970703125,-1.013336181640625,-0.02008056640625,-0.032928466796875
1761505991616381000,3.907380859375,-1.0134124755859375,-0.0207366943359375,-0.0335235595703125
1761505991626417000,3.9174169921875,-1.013885498046875,-0.020233154296875,-0.0330047607421875
1761505991636452900,3.927452880859375,-1.0141448974609375,-0.0202178955078125,-0.033050537109375
1761505991646488800,3.93748876953125,-1.014068603515625,-0.020111083984375,-0.0328369140625
1761505991656524000,3.94752392578125,-1.0135345458984375,-0.019989013671875,-0.032562255859375
1761505991666560000,3.95756005859375,-1.013336181640625,-0.01959228515625,-0.0328369140625
1761505991676596000,3.967595947265625,-1.0128021240234375,-0.0200653076171875,-0.032440185546875
1761505991686632000,3.9776318359375,-1.01324462890625,-0.0203399658203125,-0.0325775146484375
1761505991696668000,3.98766796875,-1.01361083984375,-0.0190887451171875,-0.032806396484375
1761505991706704000,3.997703857421875,-1.0132598876953125,-0.0202789306640625,-0.03277587890625
1761505991716739800,4.00773974609375,-1.0129547119140625,-0.0198974609375,-0.0332794189453125
1761505991726775000,4.017775146484375,-1.0127716064453125,-0.0197601318359375,-0.03338623046875
1761505991736811000,4.02781103515625,-1.0123291015625,-0.0204315185546875,-0.033172607421875
1761505991746847000,4.037846923828125,-1.012908935546875,-0.0198822021484375,-0.03302001953125
1761505991756881700,4.047881591796875,-1.0137481689453125,-0.0193939208984375,-0.03277587890625
1761505991766918000,4.05791796875,-1.012786865234375,-0.020538330078125,-0.0335693359375
1761505991776953900,4.067953857421875,-1.0134124755859375,-0.0194549560546875,-0.0335540771484375
1761505991786989800,4.07798974609375,-1.013671875,-0.0196075439453125,-0.03314208984375
1761505991797025800,4.08802587890625,-1.0125732421875,-0.021240234375,-0.0328369140625
1761505991807062000,4.09806201171875,-1.01336669921875,-0.020294189453125,-0.03289794921875
1761505991817098000,4.108097900390625,-1.0130767822265625,-0.0198822021484375,-0.0330657958984375
1761505991827134000,4.118134033203125,-1.0131072998046875,-0.019500732421875,-0.03240966796875
1761505991837170000,4.128169921875,-1.0126800537109375,-0.0207061767578125,-0.0330657958984375
1761505991847206000,4.138205810546875,-1.013885498046875,-0.0205535888671875,-0.0328369140625
1761505991857241900,4.148241943359375,-1.0135345458984375,-0.019989013671875,-0.0323333740234375
1761505991867277800,4.15827783203125,-1.0133819580078125,-0.0205841064453125,-0.0337677001953125
1761505991877313800,4.168313720703125,-1.0128173828125,-0.0198516845703125,-0.0331573486328125
1761505991887349800,4.178349853515625,-1.012664794921875,-0.0206756591796875,-0.033599853515625
1761505991897385700,4.1883857421875,-1.01385498046875,-0.021331787109375,-0.0335235595703125
1761505991907422000,4.198421875,-1.01220703125,-0.020477294921875,-0.03289794921875
1761505991917458000,4.2084580078125,-1.0146026611328125,-0.02008056640625,-0.0328369140625
1761505991927494000,4.218493896484375,-1.013702392578125,-0.01971435546875,-0.03277587890625
1761505991937529900,4.22852978515625,-1.0140380859375,-0.01983642578125,-0.03265380859375
1761505991947564800,4.238564697265625,-1.0141754150390625,-0.0200653076171875,-0.0334320068359375
1761505991957600800,4.248600830078125,-1.014129638671875,-0.0201263427734375,-0.03314208984375
1761505991967636700,4.25863671875,-1.0130462646484375,-0.0205841064453125,-0.0329437255859375
1761505991977672700,4.268672607421875,-1.014129638671875,-0.02008056640625,-0.03302001953125
1761505991987709000,4.278708984375,-1.013916015625,-0.0201568603515625,-0.0332794189453125
1761505991997745000,4.288744873046875,-1.01336669921875,-0.02056884765625,-0.0329132080078125
1761505992007780900,4.29878076171875,-1.013671875,-0.02081298828125,-0.0324859619140625
1761505992017816800,4.30881689453125,-1.0130462646484375,-0.0211334228515625,-0.0328521728515625
1761505992027852800,4.318852783203125,-1.0134429931640625,-0.0205841064453125,-0.03338623046875
1761505992037888800,4.328888671875,-1.013763427734375,-0.020172119140625,-0.032806396484375
1761505992047924700,4.3389248046875,-1.013458251953125,-0.0207366943359375,-0.032867431640625
1761505992057960700,4.348960693359375,-1.013885498046875,-0.02056884765625,-0.0326385498046875
1761505992067996700,4.35899658203125,-1.01348876953125,-0.020050048828125,-0.033111572265625
1761505992078032600,4.36903271484375,-1.0134429931640625,-0.0197906494140625,-0.032470703125
1761505992088068600,4.379068603515625,-1.0132904052734375,-0.0198822021484375,-0.032440185546875
1761505992098104800,4.389104736328125,-1.0131072998046875,-0.0197601318359375,-0.032928466796875
1761505992108141000,4.39914111328125,-1.0133209228515625,-0.0211639404296875,-0.03240966796875
1761505992118177300,4.40917724609375,-1.01336669921875,-0.0211181640625,-0.033172607421875
1761505992128212200,4.419212158203125,-1.0127410888671875,-0.0208587646484375,-0.03314208984375
1761505992138248200,4.429248291015625,-1.012481689453125,-0.0211181640625,-0.0331268310546875
1761505992148284200,4.4392841796875,-1.0136871337890625,-0.0211944580078125,-0.0332183837890625
1761505992158320000,4.449320068359375,-1.0140228271484375,-0.02032470703125,-0.033355712890625
1761505992168356000,4.459356201171875,-1.0130462646484375,-0.020599365234375,-0.03326416015625
1761505992178392000,4.46939208984375,-1.012176513671875,-0.019622802734375,-0.033447265625
1761505992188428300,4.47942822265625,-1.01348876953125,-0.02001953125,-0.0331268310546875
1761505992198464300,4.48946435546875,-1.0123291015625,-0.0200042724609375,-0.033447265625
1761505992208500200,4.499500244140625,-1.0124664306640625,-0.01947021484375,-0.0328826904296875
1761505992218536200,4.5095361328125,-1.0139617919921875,-0.0199432373046875,-0.0329742431640625
1761505992228572200,4.519572265625,-1.013763427734375,-0.0199432373046875,-0.0328369140625
1761505992238608100,4.529608154296875,-1.0135650634765625,-0.0198974609375,-0.0326995849609375
1761505992248644000,4.53964404296875,-1.0130767822265625,-0.020294189453125,-0.0326080322265625
1761505992258680000,4.54968017578125,-1.0134124755859375,-0.019775390625,-0.0324249267578125
1761505992268716000,4.559716064453125,-1.01397705078125,-0.0200347900390625,-0.0326690673828125
1761505992278752000,4.569751953125,-1.011627197265625,-0.0200042724609375,-0.0334930419921875
1761505992288788000,4.5797880859375,-1.012786865234375,-0.020050048828125,-0.0323944091796875
1761505992298824200,4.58982421875,-1.0137481689453125,-0.0201263427734375,-0.0326080322265625
1761505992308860200,4.599860107421875,-1.0130767822265625,-0.0200347900390625,-0.0327606201171875
1761505992318896000,4.609896240234375,-1.0129547119140625,-0.0204010009765625,-0.03363037109375
1761505992328932000,4.61993212890625,-1.01263427734375,-0.0199432373046875,-0.0325927734375
1761505992338968000,4.629968017578125,-1.0121002197265625,-0.0206146240234375,-0.0330047607421875
1761505992349004000,4.640004150390625,-1.01324462890625,-0.020477294921875,-0.033843994140625
1761505992359040000,4.6500400390625,-1.013671875,-0.0195465087890625,-0.0331268310546875
1761505992369076000,4.660075927734375,-1.0136566162109375,-0.0205230712890625,-0.0332489013671875
1761505992379112000,4.67011181640625,-1.0134124755859375,-0.0203704833984375,-0.0337677001953125
1761505992389148200,4.680148193359375,-1.0127105712890625,-0.01910400390625,-0.0331878662109375
1761505992399183000,4.69018310546875,-1.0137176513671875,-0.0208892822265625,-0.0330047607421875
1761505992409219000,4.700218994140625,-1.01275634765625,-0.019683837890625,-0.033172607421875
1761505992419255000,4.710255126953125,-1.012908935546875,-0.0198822021484375,-0.033782958984375
1761505992429291000,4.720291015625,-1.0135650634765625,-0.0199737548828125,-0.0330963134765625
1761505992439327000,4.730326904296875,-1.0137481689453125,-0.01953125,-0.0330963134765625
1761505992449363200,4.74036328125,-1.012420654296875,-0.0196075439453125,-0.03369140625
1761505992459399200,4.750399169921875,-1.0131072998046875,-0.019805908203125,-0.032989501953125
1761505992469435100,4.76043505859375,-1.0126190185546875,-0.0208282470703125,-0.032928466796875
1761505992479471000,4.77047119140625,-1.012664794921875,-0.020111083984375,-0.0334320068359375
1761505992489507000,4.780507080078125,-1.01318359375,-0.020355224609375,-0.03302001953125
1761505992499543300,4.790543212890625,-1.012664794921875,-0.0208740234375,-0.0333404541015625
1761505992509579300,4.800579345703125,-1.013092041015625,-0.0203857421875,-0.0327301025390625
1761505992519615200,4.810615234375,-1.0126800537109375,-0.0191650390625,-0.0324249267578125
1761505992529651200,4.820651123046875,-1.013031005859375,-0.02032470703125,-0.0330810546875
1761505992539687200,4.830687255859375,-1.01190185546875,-0.0202789306640625,-0.0330810546875
1761505992549723100,4.84072314453125,-1.01275634765625,-0.0196533203125,-0.0333099365234375
1761505992559759000,4.850759033203125,-1.01385498046875,-0.0195159912109375,-0.032989501953125
1761505992569795000,4.860795166015625,-1.0127716064453125,-0.0207977294921875,-0.03326416015625
1761505992579830300,4.870830322265625,-1.0126953125,-0.020416259765625,-0.03240966796875
1761505992589866200,4.8808662109375,-1.0138702392578125,-0.020111083984375,-0.032684326171875
1761505992599902200,4.890902099609375,-1.0129241943359375,-0.0194244384765625,-0.03253173828125
1761505992609938200,4.900938232421875,-1.0132293701171875,-0.0200347900390625,-0.03271484375
1761505992619974100,4.91097412109375,-1.013671875,-0.0201568603515625,-0.0325775146484375
1761505992630010000,4.921010009765625,-1.0137786865234375,-0.01983642578125,-0.03350830078125
1761505992640046000,4.931046142578125,-1.012908935546875,-0.0214080810546875,-0.033050537109375
1761505992650082000,4.94108203125,-1.0129241943359375,-0.0208282470703125,-0.032958984375
1761505992660118000,4.951117919921875,-1.012451171875,-0.0202178955078125,-0.0328826904296875
1761505992670154000,4.961154052734375,-1.0127105712890625,-0.020477294921875,-0.0333709716796875
1761505992680190200,4.971190185546875,-1.013519287109375,-0.0202789306640625,-0.0324554443359375
1761505992690226200,4.98122607421875,-1.01287841796875,-0.0209197998046875,-0.0318450927734375
1761505992700262100,4.99126220703125,-1.0125885009765625,-0.0208282470703125,-0.0334014892578125
1761505992710298000,5.001298095703125,-1.011932373046875,-0.020355224609375,-0.0333251953125
1761505992720334000,5.011333984375,-1.0136871337890625,-0.020751953125,-0.0333251953125
1761505992730370000,5.0213701171875,-1.013458251953125,-0.0206756591796875,-0.0327911376953125
1761505992740406000,5.031406005859375,-1.0133209228515625,-0.0207672119140625,-0.0328521728515625
1761505992750441000,5.04144091796875,-1.0124969482421875,-0.020782470703125,-0.0328216552734375
1761505992760477200,5.051477294921875,-1.0127716064453125,-0.0202178955078125,-0.0332794189453125
1761505992770513200,5.06151318359375,-1.013702392578125,-0.01904296875,-0.0333709716796875
1761505992780549000,5.071549072265625,-1.013031005859375,-0.019744873046875,-0.0326385498046875
1761505992790585000,5.081585205078125,-1.0133514404296875,-0.01995849609375,-0.0332489013671875
1761505992800621000,5.09162109375,-1.0139617919921875,-0.0199737548828125,-0.0325775146484375
1761505992810657000,5.101656982421875,-1.01373291015625,-0.0203857421875,-0.03271484375
1761505992820693000,5.11169287109375,-1.01416015625,-0.020294189453125,-0.033111572265625
1761505992830729000,5.12172900390625,-1.014251708984375,-0.020355224609375,-0.0334930419921875
1761505992840765200,5.13176513671875,-1.0129852294921875,-0.02032470703125,-0.032958984375
1761505992850801200,5.14180126953125,-1.013336181640625,-0.01947021484375,-0.032379150390625
1761505992860837000,5.151837158203125,-1.0144195556640625,-0.0203094482421875,-0.0324859619140625
1761505992870873000,5.161873046875,-1.013671875,-0.0200653076171875,-0.03277587890625
1761505992880909300,5.171909423828125,-1.0135345458984375,-0.0198974609375,-0.0324249267578125
1761505992890945300,5.1819453125,-1.0134429931640625,-0.0214691162109375,-0.032928466796875
1761505992900981200,5.191981201171875,-1.0134735107421875,-0.0203094482421875,-0.0326995849609375
1761505992911017200,5.202017333984375,-1.0137176513671875,-0.020660400390625,-0.03326416015625
1761505992921053200,5.21205322265625,-1.013458251953125,-0.0206146240234375,-0.0327301025390625
1761505992931089200,5.222089111328125,-1.0133819580078125,-0.0196685791015625,-0.0330352783203125
1761505992941124000,5.2321240234375,-1.0135650634765625,-0.020416259765625,-0.0326690673828125
1761505992951160300,5.242160400390625,-1.014373779296875,-0.01983642578125,-0.0322723388671875
1761505992961196300,5.2521962890625,-1.0136566162109375,-0.0200958251953125,-0.032135009765625
1761505992971232300,5.262232177734375,-1.0131683349609375,-0.019744873046875,-0.0325927734375
1761505992981268200,5.272268310546875,-1.012664794921875,-0.020355224609375,-0.032135009765625
1761505992991304200,5.28230419921875,-1.0132293701171875,-0.02032470703125,-0.0326080322265625
1761505993001340200,5.292340087890625,-1.014373779296875,-0.0206756591796875,-0.0328216552734375
1761505993011376000,5.302376220703125,-1.01300048828125,-0.0201873779296875,-0.033203125
1761505993021412000,5.312412109375,-1.0131072998046875,-0.019439697265625,-0.0328826904296875
1761505993031448000,5.322447998046875,-1.01336669921875,-0.020263671875,-0.0324554443359375
1761505993041484000,5.332484130859375,-1.012420654296875,-0.0200958251953125,-0.0330810546875
1761505993051520000,5.34252001953125,-1.0130615234375,-0.0203094482421875,-0.0333709716796875
1761505993061556200,5.35255615234375,-1.0134124755859375,-0.0207061767578125,-0.0325775146484375
1761505993071592200,5.36259228515625,-1.0131378173828125,-0.0205078125,-0.033538818359375
1761505993081628200,5.372628173828125,-1.0131378173828125,-0.02008056640625,-0.03326416015625
1761505993091664100,5.3826640625,-1.01348876953125,-0.021453857421875,-0.0339508056640625
1761505993101699300,5.39269921875,-1.013641357421875,-0.019622802734375,-0.032989501953125
1761505993111735300,5.4027353515625,-1.012786865234375,-0.0198516845703125,-0.0321502685546875
1761505993121771300,5.412771240234375,-1.0138092041015625,-0.0202789306640625,-0.033172607421875
1761505993131807500,5.422807373046875,-1.0135955810546875,-0.02056884765625,-0.0330963134765625
1761505993141843500,5.432843505859375,-1.0125885009765625,-0.0198974609375,-0.0324249267578125
1761505993151879400,5.44287939453125,-1.0124053955078125,-0.01971435546875,-0.03228759765625
1761505993161915600,5.45291552734375,-1.012237548828125,-0.02099609375,-0.0326690673828125
1761505993171951600,5.46295166015625,-1.0135955810546875,-0.0206756591796875,-0.03265380859375
1761505993181987600,5.472987548828125,-1.01470947265625,-0.020599365234375,-0.032989501953125
1761505993192023600,5.4830234375,-1.013153076171875,-0.020111083984375,-0.03277587890625
1761505993202059500,5.4930595703125,-1.014068603515625,-0.0202178955078125,-0.0327301025390625
1761505993212095500,5.503095458984375,-1.0132904052734375,-0.020477294921875,-0.03350830078125
1761505993222131500,5.51313134765625,-1.0131988525390625,-0.0208740234375,-0.033050537109375
1761505993232167400,5.52316748046875,-1.0132598876953125,-0.020263671875,-0.032470703125
1761505993242203400,5.533203369140625,-1.01348876953125,-0.01947021484375,-0.032928466796875
1761505993252239400,5.5432392578125,-1.0135040283203125,-0.01971435546875,-0.0322265625
1761505993262274600,5.553274658203125,-1.0131378173828125,-0.0206298828125,-0.03265380859375
1761505993272310500,5.563310546875,-1.01373291015625,-0.020843505859375,-0.0335235595703125
1761505993282346500,5.573346435546875,-1.0134735107421875,-0.0201568603515625,-0.0328216552734375
1761505993292382500,5.583382568359375,-1.01324462890625,-0.0200042724609375,-0.0330352783203125
1761505993302418400,5.59341845703125,-1.013458251953125,-0.01953125,-0.0331268310546875
1761505993312454400,5.603454345703125,-1.0140838623046875,-0.0199127197265625,-0.0324859619140625
1761505993322490400,5.613490478515625,-1.0137786865234375,-0.0207061767578125,-0.0325927734375
1761505993332526300,5.6235263671875,-1.013580322265625,-0.020904541015625,-0.0318450927734375
1761505993342562600,5.6335625,-1.013885498046875,-0.0207977294921875,-0.03302001953125
1761505993352598500,5.6435986328125,-1.0138092041015625,-0.02032470703125,-0.0328369140625
1761505993362634500,5.653634521484375,-1.013092041015625,-0.020050048828125,-0.032928466796875
1761505993372670500,5.66367041015625,-1.0135955810546875,-0.0203094482421875,-0.0330963134765625
1761505993382706400,5.67370654296875,-1.013031005859375,-0.0201416015625,-0.0325164794921875
1761505993392742400,5.683742431640625,-1.0125732421875,-0.02044677734375,-0.0325469970703125
1761505993402778400,5.6937783203125,-1.0130157470703125,-0.020416259765625,-0.032806396484375
1761505993412813300,5.703813232421875,-1.013275146484375,-0.0205841064453125,-0.0325469970703125
1761505993422849500,5.713849609375,-1.013214111328125,-0.0201263427734375,-0.03289794921875
1761505993432885500,5.723885498046875,-1.0123443603515625,-0.020355224609375,-0.032867431640625
1761505993442921500,5.73392138671875,-1.012847900390625,-0.0196380615234375,-0.03289794921875
1761505993452957400,5.74395751953125,-1.0131683349609375,-0.0201416015625,-0.0330047607421875
1761505993462993400,5.753993408203125,-1.0131988525390625,-0.0204315185546875,-0.0325469970703125
1761505993473029400,5.764029296875,-1.0126953125,-0.0204010009765625,-0.032958984375
1761505993483065300,5.7740654296875,-1.0137939453125,-0.0200958251953125,-0.0337677001953125
1761505993493101300,5.784101318359375,-1.01373291015625,-0.0209197998046875,-0.032745361328125
1761505993503137300,5.79413720703125,-1.0123291015625,-0.0206146240234375,-0.0330047607421875
1761505993513173200,5.80417333984375,-1.013031005859375,-0.0204010009765625,-0.0318603515625
1761505993523209500,5.81420947265625,-1.0137481689453125,-0.020660400390625,-0.0330657958984375
1761505993533245400,5.824245361328125,-1.0121307373046875,-0.0208587646484375,-0.0324554443359375
1761505993543281700,5.83428173828125,-1.014007568359375,-0.0209197998046875,-0.0330657958984375
1761505993553317600,5.844317626953125,-1.014007568359375,-0.0207672119140625,-0.0333404541015625
1761505993563352300,5.854352294921875,-1.014129638671875,-0.0196685791015625,-0.0329437255859375
1761505993573388300,5.86438818359375,-1.0135955810546875,-0.0208282470703125,-0.0328369140625
1761505993583424500,5.874424560546875,-1.0140228271484375,-0.0205230712890625,-0.0325927734375
1761505993593460500,5.88446044921875,-1.0128173828125,-0.020050048828125,-0.0327301025390625
1761505993603496400,5.894496337890625,-1.0130767822265625,-0.0203704833984375,-0.03326416015625
1761505993613532400,5.904532470703125,-1.01409912109375,-0.019561767578125,-0.032501220703125
1761505993623568600,5.914568603515625,-1.0128936767578125,-0.02056884765625,-0.0332183837890625
1761505993633604600,5.9246044921875,-1.0131988525390625,-0.0208282470703125,-0.0329437255859375
1761505993643640600,5.934640625,-1.0125579833984375,-0.0200347900390625,-0.0336151123046875
1761505993653676500,5.944676513671875,-1.01324462890625,-0.020538330078125,-0.032379150390625
1761505993663712500,5.95471240234375,-1.01361083984375,-0.0204315185546875,-0.033050537109375
1761505993673748500,5.96474853515625,-1.0132293701171875,-0.0202178955078125,-0.0323028564453125
1761505993683784400,5.974784423828125,-1.014404296875,-0.01922607421875,-0.031951904296875
1761505993693820400,5.9848203125,-1.013763427734375,-0.020172119140625,-0.03228759765625
1761505993703856400,5.9948564453125,-1.0138702392578125,-0.0207061767578125,-0.033172607421875
1761505993713891600,6.0048916015625,-1.0131988525390625,-0.0202789306640625,-0.033233642578125
1761505993723927600,6.014927490234375,-1.0140838623046875,-0.0196075439453125,-0.033355712890625
1761505993733963500,6.024963623046875,-1.013824462890625,-0.0207061767578125,-0.0329132080078125
1761505993743999500,6.03499951171875,-1.012603759765625,-0.0197601318359375,-0.032958984375
1761505993754035500,6.045035400390625,-1.0130767822265625,-0.0201416015625,-0.0328826904296875
1761505993764071400,6.055071533203125,-1.01318359375,-0.0201416015625,-0.0329437255859375
1761505993774107400,6.065107421875,-1.0133209228515625,-0.020751953125,-0.0331573486328125
1761505993784143400,6.075143310546875,-1.0137176513671875,-0.0196990966796875,-0.0328826904296875
1761505993794179300,6.085179443359375,-1.01348876953125,-0.0202789306640625,-0.0330810546875
1761505993804215600,6.095215576171875,-1.013916015625,-0.0194244384765625,-0.03277587890625
1761505993814251500,6.10525146484375,-1.013458251953125,-0.0204925537109375,-0.032989501953125
1761505993824287500,6.11528759765625,-1.012847900390625,-0.0204315185546875,-0.0334625244140625
1761505993834323500,6.125323486328125,-1.01397705078125,-0.0197601318359375,-0.032806396484375
1761505993844358400,6.1353583984375,-1.0142974853515625,-0.020263671875,-0.0332183837890625
1761505993854394400,6.145394287109375,-1.0130462646484375,-0.0199127197265625,-0.03314208984375
1761505993864430300,6.155430419921875,-1.0138092041015625,-0.01947021484375,-0.0322418212890625
1761505993874466300,6.16546630859375,-1.013275146484375,-0.0211639404296875,-0.032684326171875
1761505993884502500,6.17550244140625,-1.0135040283203125,-0.021331787109375,-0.0327606201171875
1761505993894538500,6.18553857421875,-1.0133819580078125,-0.020111083984375,-0.032135009765625
1761505993904574500,6.195574462890625,-1.0135345458984375,-0.0203094482421875,-0.0326995849609375
1761505993914610400,6.2056103515625,-1.0124053955078125,-0.020355224609375,-0.033843994140625
1761505993924646400,6.215646484375,-1.01318359375,-0.0210113525390625,-0.0330657958984375
1761505993934682400,6.225682373046875,-1.012939453125,-0.0210113525390625,-0.0329437255859375
1761505993944718300,6.23571826171875,-1.0129241943359375,-0.0196685791015625,-0.033172607421875
1761505993954754300,6.24575439453125,-1.0134429931640625,-0.019744873046875,-0.0328521728515625
1761505993964790300,6.255790283203125,-1.0149078369140625,-0.020904541015625,-0.033172607421875
1761505993974825500,6.265825439453125,-1.0143280029296875,-0.0205535888671875,-0.0319976806640625
1761505993984861400,6.275861328125,-1.0130615234375,-0.020172119140625,-0.0327301025390625
1761505993994897400,6.2858974609375,-1.0131988525390625,-0.0205078125,-0.0335845947265625
1761505994004933400,6.295933349609375,-1.0137481689453125,-0.02056884765625,-0.0333709716796875
1761505994014969300,6.30596923828125,-1.013885498046875,-0.0204925537109375,-0.03350830078125
1761505994025005300,6.31600537109375,-1.0141754150390625,-0.019622802734375,-0.03326416015625
1761505994035041500,6.32604150390625,-1.0126190185546875,-0.020782470703125,-0.03289794921875
1761505994045077500,6.336077392578125,-1.0123138427734375,-0.0208587646484375,-0.0324554443359375
1761505994055113500,6.346113525390625,-1.012847900390625,-0.020111083984375,-0.032684326171875
1761505994065149400,6.3561494140625,-1.0128173828125,-0.0196685791015625,-0.0329132080078125
1761505994075185700,6.366185546875,-1.01251220703125,-0.0198822021484375,-0.0334320068359375
1761505994085221600,6.3762216796875,-1.0128021240234375,-0.0204620361328125,-0.03277587890625
1761505994095257600,6.386257568359375,-1.013458251953125,-0.020416259765625,-0.03289794921875
1761505994105293000,6.39629296875,-1.013214111328125,-0.02056884765625,-0.033477783203125
1761505994115328000,6.406327880859375,-1.0130615234375,-0.020965576171875,-0.033203125
1761505994125364000,6.416364013671875,-1.0137939453125,-0.019989013671875,-0.03271484375
1761505994135400000,6.42639990234375,-1.013427734375,-0.0197296142578125,-0.03350830078125
1761505994145436200,6.436436279296875,-1.0132904052734375,-0.0199737548828125,-0.0323638916015625
1761505994155472100,6.44647216796875,-1.013519287109375,-0.0202484130859375,-0.032135009765625
1761505994165508000,6.456508056640625,-1.0140838623046875,-0.019989013671875,-0.03338623046875
1761505994175544000,6.4665439453125,-1.0132598876953125,-0.020416259765625,-0.0327911376953125
1761505994185580000,6.476580078125,-1.013702392578125,-0.0204010009765625,-0.0321044921875
1761505994195616000,6.486615966796875,-1.013214111328125,-0.020233154296875,-0.032745361328125
1761505994205652000,6.49665185546875,-1.012969970703125,-0.0208282470703125,-0.0328521728515625
1761505994215688000,6.50668798828125,-1.0133514404296875,-0.019989013671875,-0.0325927734375
1761505994225724000,6.516723876953125,-1.0131988525390625,-0.021087646484375,-0.032501220703125
1761505994235759000,6.526759033203125,-1.01312255859375,-0.02069091796875,-0.0332794189453125
1761505994245795000,6.536795166015625,-1.0131988525390625,-0.020416259765625,-0.032257080078125
1761505994255831000,6.5468310546875,-1.0127716064453125,-0.0201416015625,-0.0322113037109375
1761505994265867000,6.556866943359375,-1.0135040283203125,-0.0203094482421875,-0.0318603515625
1761505994275903000,6.566903076171875,-1.0138092041015625,-0.020233154296875,-0.0328369140625
1761505994285939000,6.57693896484375,-1.01324462890625,-0.0209197998046875,-0.033416748046875
1761505994295975000,6.586974853515625,-1.0135650634765625,-0.0201416015625,-0.0333251953125
1761505994306011000,6.597010986328125,-1.0125885009765625,-0.02001953125,-0.03228759765625
1761505994316046800,6.607046875,-1.0128021240234375,-0.02032470703125,-0.0328826904296875
1761505994326083000,6.6170830078125,-1.0139923095703125,-0.0206298828125,-0.0324859619140625
1761505994336119000,6.627119140625,-1.0134735107421875,-0.020965576171875,-0.0328826904296875
1761505994346155000,6.637155029296875,-1.013885498046875,-0.0208740234375,-0.03369140625
1761505994356190000,6.64718994140625,-1.012908935546875,-0.0207366943359375,-0.0330352783203125
1761505994366226000,6.657225830078125,-1.0134735107421875,-0.0197906494140625,-0.0333404541015625
1761505994376262000,6.667261962890625,-1.0123748779296875,-0.0204925537109375,-0.0330810546875
1761505994386297900,6.6772978515625,-1.0140838623046875,-0.02008056640625,-0.0326995849609375
1761505994396333800,6.687333740234375,-1.014556884765625,-0.0201568603515625,-0.0328369140625
1761505994406370000,6.6973701171875,-1.0129547119140625,-0.0198516845703125,-0.0336456298828125
1761505994416406000,6.707406005859375,-1.013641357421875,-0.020904541015625,-0.0325164794921875
1761505994426442000,6.71744189453125,-1.012908935546875,-0.01983642578125,-0.033416748046875
1761505994436478000,6.72747802734375,-1.0132904052734375,-0.019012451171875,-0.03326416015625
1761505994446514000,6.737513916015625,-1.0133056640625,-0.019500732421875,-0.0326385498046875
1761505994456550000,6.7475498046875,-1.0136566162109375,-0.0200653076171875,-0.03302001953125
1761505994466586000,6.757586181640625,-1.0132598876953125,-0.020904541015625,-0.03271484375
1761505994476620800,6.767620849609375,-1.0136260986328125,-0.0208740234375,-0.0325775146484375
1761505994486657000,6.777656982421875,-1.01385498046875,-0.01983642578125,-0.033172607421875
1761505994496693000,6.78769287109375,-1.0138397216796875,-0.019989013671875,-0.0332489013671875
1761505994506729000,6.79772900390625,-1.0128326416015625,-0.01983642578125,-0.0326080322265625
1761505994516765000,6.807764892578125,-1.0140228271484375,-0.0202484130859375,-0.0328369140625
1761505994526801200,6.81780126953125,-1.014007568359375,-0.0207672119140625,-0.032684326171875
1761505994536837000,6.827837158203125,-1.0134124755859375,-0.020599365234375,-0.032928466796875
1761505994546873000,6.837873046875,-1.012664794921875,-0.0210723876953125,-0.0322265625
1761505994556909000,6.847908935546875,-1.0118560791015625,-0.019927978515625,-0.034332275390625
1761505994566945000,6.857945068359375,-1.01263427734375,-0.02008056640625,-0.0330810546875
1761505994576981000,6.86798095703125,-1.01336669921875,-0.020172119140625,-0.032867431640625
1761505994587016200,6.87801611328125,-1.0128173828125,-0.02001953125,-0.0327911376953125
1761505994597052200,6.88805224609375,-1.013336181640625,-0.0201873779296875,-0.032684326171875
1761505994607088000,6.898088134765625,-1.013214111328125,-0.0200347900390625,-0.032440185546875
1761505994617124000,6.9081240234375,-1.01318359375,-0.0206756591796875,-0.032440185546875
1761505994627160000,6.91816015625,-1.0129547119140625,-0.0206298828125,-0.0330047607421875
1761505994637196000,6.928196044921875,-1.0135040283203125,-0.01971435546875,-0.0324859619140625
1761505994647232000,6.93823193359375,-1.0131072998046875,-0.0195770263671875,-0.0326080322265625
1761505994657268000,6.94826806640625,-1.0132598876953125,-0.02081298828125,-0.032318115234375
1761505994667304000,6.958303955078125,-1.01397705078125,-0.019989013671875,-0.033355712890625
1761505994677340000,6.96833984375,-1.0126800537109375,-0.019927978515625,-0.032806396484375
1761505994687376100,6.978376220703125,-1.0125885009765625,-0.0195465087890625,-0.0327911376953125
1761505994697412000,6.988412109375,-1.012786865234375,-0.0202178955078125,-0.0329742431640625
1761505994707447000,6.998447021484375,-1.0134124755859375,-0.0204620361328125,-0.0325927734375
1761505994717483000,7.00848291015625,-1.0133056640625,-0.0201873779296875,-0.0326690673828125
1761505994727519000,7.01851904296875,-1.0135955810546875,-0.020538330078125,-0.03277587890625
1761505994737555000,7.028554931640625,-1.0127716064453125,-0.0195465087890625,-0.03326416015625
1761505994747591000,7.0385908203125,-1.0124053955078125,-0.0206756591796875,-0.03271484375
1761505994757627100,7.048627197265625,-1.01348876953125,-0.0200042724609375,-0.031890869140625
1761505994767663000,7.0586630859375,-1.013580322265625,-0.0198211669921875,-0.032562255859375
1761505994777699000,7.068698974609375,-1.0141448974609375,-0.0204925537109375,-0.0325164794921875
1761505994787735000,7.078735107421875,-1.0137786865234375,-0.021148681640625,-0.0330047607421875
1761505994797771000,7.08877099609375,-1.0139007568359375,-0.0201263427734375,-0.03240966796875
1761505994807807000,7.098806884765625,-1.013916015625,-0.019866943359375,-0.0329742431640625
1761505994817842000,7.108842041015625,-1.01422119140625,-0.019927978515625,-0.0336456298828125
1761505994827878000,7.1188779296875,-1.0133819580078125,-0.0199737548828125,-0.0334014892578125
1761505994837914000,7.1289140625,-1.01312255859375,-0.019012451171875,-0.0323333740234375
1761505994847950000,7.1389501953125,-1.0128631591796875,-0.0198516845703125,-0.0324554443359375
1761505994857986000,7.148986083984375,-1.012969970703125,-0.0193328857421875,-0.0330047607421875
1761505994868022000,7.15902197265625,-1.0143585205078125,-0.0202484130859375,-0.0324859619140625
1761505994878058000,7.16905810546875,-1.013580322265625,-0.020172119140625,-0.03271484375
1761505994888094000,7.179093994140625,-1.013214111328125,-0.02081298828125,-0.0337982177734375
1761505994898130000,7.1891298828125,-1.012847900390625,-0.0206146240234375,-0.033477783203125
1761505994908166000,7.199165771484375,-1.0128021240234375,-0.0196380615234375,-0.032501220703125
1761505994918201900,7.209201904296875,-1.01385498046875,-0.0203857421875,-0.0335845947265625
1761505994928237000,7.219237060546875,-1.014190673828125,-0.0204010009765625,-0.0325775146484375
1761505994938273000,7.22927294921875,-1.0123443603515625,-0.0198211669921875,-0.0325927734375
1761505994948309000,7.23930908203125,-1.0127410888671875,-0.020965576171875,-0.0325775146484375
1761505994958345000,7.249344970703125,-1.01348876953125,-0.0197296142578125,-0.032806396484375
1761505994968381000,7.259380859375,-1.013031005859375,-0.01947021484375,-0.0327911376953125
1761505994978417000,7.2694169921875,-1.0135498046875,-0.01995849609375,-0.0332183837890625
1761505994988452900,7.279452880859375,-1.012786865234375,-0.019989013671875,-0.033172607421875
1761505994998488800,7.28948876953125,-1.01324462890625,-0.01983642578125,-0.0334014892578125
1761505995008524800,7.29952490234375,-1.0134735107421875,-0.0205535888671875,-0.0327911376953125
1761505995018560800,7.309560791015625,-1.0129547119140625,-0.0206298828125,-0.0325775146484375
1761505995028597000,7.319596923828125,-1.0136566162109375,-0.0200347900390625,-0.0330810546875
1761505995038632000,7.3296318359375,-1.0126800537109375,-0.02001953125,-0.0328521728515625
1761505995048668000,7.33966796875,-1.0133056640625,-0.0194549560546875,-0.032470703125
1761505995058704000,7.349703857421875,-1.0139617919921875,-0.0190887451171875,-0.0330963134765625
1761505995068739800,7.35973974609375,-1.014556884765625,-0.02069091796875,-0.0329132080078125
1761505995078775800,7.36977587890625,-1.014190673828125,-0.0203857421875,-0.032806396484375
1761505995088812000,7.37981201171875,-1.0142974853515625,-0.0201263427734375,-0.0326995849609375
1761505995098848000,7.389847900390625,-1.0129852294921875,-0.0191497802734375,-0.032745361328125
1761505995108883500,7.399883544921875,-1.012939453125,-0.0196380615234375,-0.0337066650390625
1761505995118919700,7.409919677734375,-1.0138397216796875,-0.0202484130859375,-0.032257080078125
1761505995128955600,7.41995556640625,-1.0134429931640625,-0.020538330078125,-0.03326416015625
1761505995138990300,7.429990234375,-1.0124359130859375,-0.0203094482421875,-0.0330963134765625
1761505995149026300,7.4400263671875,-1.011474609375,-0.0208587646484375,-0.0326690673828125
1761505995159062300,7.450062255859375,-1.0127716064453125,-0.0197906494140625,-0.032623291015625
1761505995169098500,7.460098388671875,-1.012969970703125,-0.0201416015625,-0.032806396484375
1761505995179134700,7.470134765625,-1.0136260986328125,-0.020843505859375,-0.0330963134765625
1761505995189170700,7.480170654296875,-1.01263427734375,-0.0201416015625,-0.032440185546875
1761505995199206700,7.49020654296875,-1.012847900390625,-0.0198516845703125,-0.0332183837890625
1761505995209242600,7.50024267578125,-1.013702392578125,-0.0199127197265625,-0.0337371826171875
1761505995219278600,7.510278564453125,-1.0131988525390625,-0.019866943359375,-0.032806396484375
1761505995229314600,7.520314453125,-1.0122833251953125,-0.020355224609375,-0.0325469970703125
1761505995239349500,7.530349609375,-1.013671875,-0.020843505859375,-0.0325927734375
1761505995249385500,7.540385498046875,-1.013214111328125,-0.02056884765625,-0.0336456298828125
1761505995259421700,7.550421630859375,-1.0136871337890625,-0.019439697265625,-0.0325927734375
1761505995269457700,7.560457763671875,-1.012786865234375,-0.0204010009765625,-0.0330047607421875
1761505995279493600,7.57049365234375,-1.0131378173828125,-0.0202789306640625,-0.0328369140625
1761505995289529600,7.580529541015625,-1.0129241943359375,-0.0200958251953125,-0.0332489013671875
1761505995299565600,7.590565673828125,-1.013153076171875,-0.01995849609375,-0.033599853515625
1761505995309601500,7.6006015625,-1.0139312744140625,-0.0198822021484375,-0.0325775146484375
1761505995319637500,7.610637451171875,-1.0137176513671875,-0.020355224609375,-0.032257080078125
1761505995329673500,7.620673583984375,-1.0131683349609375,-0.019622802734375,-0.03277587890625
1761505995339709400,7.63070947265625,-1.0134429931640625,-0.01983642578125,-0.03314208984375
1761505995349744600,7.64074462890625,-1.0131072998046875,-0.0200042724609375,-0.0332183837890625
1761505995359780600,7.650780517578125,-1.012420654296875,-0.020111083984375,-0.03289794921875
1761505995369816600,7.660816650390625,-1.0142974853515625,-0.020111083984375,-0.032073974609375
1761505995379852500,7.6708525390625,-1.013427734375,-0.020172119140625,-0.0332183837890625
1761505995389888500,7.680888427734375,-1.01263427734375,-0.0208587646484375,-0.032501220703125
1761505995399924500,7.690924560546875,-1.0132293701171875,-0.0208740234375,-0.0321197509765625
1761505995409960400,7.70096044921875,-1.0134735107421875,-0.020355224609375,-0.03228759765625
1761505995419996400,7.710996337890625,-1.0122528076171875,-0.0209808349609375,-0.032135009765625
1761505995430032400,7.721032470703125,-1.01275634765625,-0.02099609375,-0.0322113037109375
1761505995440068600,7.731068603515625,-1.0136260986328125,-0.0192413330078125,-0.0325164794921875
1761505995450103600,7.741103515625,-1.0135040283203125,-0.01959228515625,-0.0321197509765625
1761505995460139500,7.751139404296875,-1.013916015625,-0.02020263671875,-0.032623291015625
1761505995470175500,7.761175537109375,-1.012603759765625,-0.0201263427734375,-0.03363037109375
1761505995480211500,7.77121142578125,-1.0135650634765625,-0.0196990966796875,-0.0328521728515625
1761505995490247400,7.781247314453125,-1.0130767822265625,-0.0198516845703125,-0.0334625244140625
1761505995500283400,7.791283447265625,-1.01251220703125,-0.0203704833984375,-0.033294677734375
1761505995510319400,7.8013193359375,-1.0128326416015625,-0.020294189453125,-0.032958984375
1761505995520355600,7.81135546875,-1.01287841796875,-0.0196533203125,-0.0330963134765625
1761505995530391600,7.8213916015625,-1.0133209228515625,-0.0193634033203125,-0.0329132080078125
1761505995540426500,7.831426513671875,-1.0142364501953125,-0.02044677734375,-0.032928466796875
1761505995550462500,7.84146240234375,-1.0132598876953125,-0.0191650390625,-0.033172607421875
1761505995560498400,7.85149853515625,-1.0125885009765625,-0.0201873779296875,-0.0324249267578125
1761505995570534400,7.861534423828125,-1.0136566162109375,-0.0196075439453125,-0.033233642578125
1761505995580570400,7.8715703125,-1.014678955078125,-0.0200347900390625,-0.03265380859375
1761505995590606300,7.8816064453125,-1.0142974853515625,-0.0208892822265625,-0.0333404541015625
1761505995600642600,7.891642578125,-1.014251708984375,-0.01995849609375,-0.033111572265625
1761505995610678500,7.901678466796875,-1.0138397216796875,-0.02056884765625,-0.033203125
1761505995620714500,7.911714599609375,-1.013214111328125,-0.02008056640625,-0.03314208984375
1761505995630750500,7.92175048828125,-1.013641357421875,-0.020599365234375,-0.0330963134765625
1761505995640786400,7.931786376953125,-1.0130767822265625,-0.0203094482421875,-0.0336151123046875
1761505995650821400,7.9418212890625,-1.01275634765625,-0.021240234375,-0.033233642578125
1761505995660857300,7.951857421875,-1.012847900390625,-0.02081298828125,-0.0330963134765625
1761505995670893300,7.961893310546875,-1.0129241943359375,-0.0200653076171875,-0.032684326171875
1761505995680929500,7.971929443359375,-1.0134124755859375,-0.0203857421875,-0.032745361328125
1761505995690965500,7.981965576171875,-1.0126800537109375,-0.020538330078125,-0.033111572265625
1761505995701001500,7.99200146484375,-1.0131072998046875,-0.0201263427734375,-0.0330352783203125
1761505995711037400,8.002037353515625,-1.0132293701171875,-0.0203399658203125,-0.0325469970703125
1761505995721073400,8.012073486328125,-1.0142364501953125,-0.0202789306640625,-0.0335235595703125
1761505995731108400,8.0221083984375,-1.013519287109375,-0.021087646484375,-0.0331573486328125
1761505995741144300,8.032144287109375,-1.01361083984375,-0.020050048828125,-0.032623291015625
1761505995751180300,8.04218017578125,-1.0131683349609375,-0.0205841064453125,-0.03277587890625
1761505995761216500,8.052216552734375,-1.012115478515625,-0.02099609375,-0.0328826904296875
1761505995771252500,8.06225244140625,-1.0130462646484375,-0.020050048828125,-0.033172607421875
1761505995781288400,8.072288330078125,-1.0136871337890625,-0.0197906494140625,-0.0337982177734375
1761505995791323400,8.082323486328125,-1.01239013671875,-0.020355224609375,-0.0326995849609375
1761505995801359400,8.092359375,-1.01318359375,-0.02099609375,-0.03228759765625
1761505995811395300,8.102395263671875,-1.0125885009765625,-0.019287109375,-0.033172607421875
1761505995821431300,8.112431396484375,-1.0128631591796875,-0.0198974609375,-0.032928466796875
1761505995831467300,8.12246728515625,-1.0139312744140625,-0.020599365234375,-0.0328216552734375
1761505995841503500,8.13250341796875,-1.0137176513671875,-0.020751953125,-0.03228759765625
1761505995851539700,8.142539794921875,-1.012908935546875,-0.0193328857421875,-0.0319671630859375
1761505995861575700,8.15257568359375,-1.0139617919921875,-0.01971435546875,-0.0331573486328125
1761505995871611600,8.162611572265625,-1.0123443603515625,-0.020843505859375,-0.0331878662109375
1761505995881646300,8.172646240234375,-1.0134429931640625,-0.0196075439453125,-0.0330047607421875
1761505995891682300,8.182682373046875,-1.013397216796875,-0.020172119140625,-0.0326995849609375
1761505995901718300,8.19271826171875,-1.01336669921875,-0.020263671875,-0.031646728515625
1761505995911754500,8.20275439453125,-1.013153076171875,-0.0201873779296875,-0.0328521728515625
1761505995921790700,8.212790771484375,-1.012542724609375,-0.0203704833984375,-0.0328369140625
1761505995931826700,8.22282666015625,-1.013519287109375,-0.02001953125,-0.0330047607421875
1761505995941862700,8.232862548828125,-1.0127716064453125,-0.0201873779296875,-0.0330352783203125
1761505995951898600,8.242898681640625,-1.0130157470703125,-0.0201416015625,-0.032257080078125
1761505995961934600,8.2529345703125,-1.01373291015625,-0.0204315185546875,-0.0332794189453125
1761505995971969500,8.262969482421875,-1.013458251953125,-0.0201873779296875,-0.033782958984375
1761505995982005500,8.273005615234375,-1.0132293701171875,-0.020416259765625,-0.032928466796875
1761505995992041500,8.28304150390625,-1.013092041015625,-0.0205841064453125,-0.032318115234375
1761505996002077700,8.29307763671875,-1.01324462890625,-0.0207061767578125,-0.0329437255859375
1761505996012113700,8.30311376953125,-1.0135040283203125,-0.0204925537109375,-0.0326080322265625
1761505996022149600,8.313149658203125,-1.0135650634765625,-0.020355224609375,-0.0327606201171875
1761505996032185600,8.323185546875,-1.0133819580078125,-0.02105712890625,-0.032928466796875
1761505996042221600,8.3332216796875,-1.0134429931640625,-0.01934814453125,-0.0330963134765625
1761505996052257500,8.343257568359375,-1.0137481689453125,-0.01959228515625,-0.032012939453125
1761505996062292500,8.35329248046875,-1.012359619140625,-0.0205841064453125,-0.0329132080078125
1761505996072328400,8.363328369140625,-1.013702392578125,-0.0202789306640625,-0.033935546875
1761505996082364700,8.37336474609375,-1.0130767822265625,-0.0203094482421875,-0.0332794189453125
1761505996092400600,8.383400634765625,-1.0131988525390625,-0.0205841064453125,-0.033050537109375
1761505996102436600,8.3934365234375,-1.01275634765625,-0.02069091796875,-0.032684326171875
1761505996112473000,8.40347314453125,-1.0127410888671875,-0.0200347900390625,-0.0326690673828125
1761505996122509000,8.413509033203125,-1.0134124755859375,-0.0206451416015625,-0.03399658203125
1761505996132545000,8.423544921875,-1.012939453125,-0.02032470703125,-0.0330352783203125
1761505996142581000,8.4335810546875,-1.0127105712890625,-0.0200042724609375,-0.0331573486328125
1761505996152617000,8.443616943359375,-1.012939453125,-0.01959228515625,-0.0328826904296875
1761505996162652000,8.45365185546875,-1.012847900390625,-0.0194549560546875,-0.0327301025390625
1761505996172688100,8.463688232421875,-1.013641357421875,-0.0200958251953125,-0.0328216552734375
1761505996182724000,8.47372412109375,-1.01336669921875,-0.021209716796875,-0.0329132080078125
1761505996192760000,8.483760009765625,-1.013397216796875,-0.0199737548828125,-0.0336761474609375
1761505996202796000,8.493796142578125,-1.012908935546875,-0.0203094482421875,-0.0337677001953125
1761505996212832000,8.50383203125,-1.0134124755859375,-0.0202789306640625,-0.0333404541015625
1761505996222868000,8.513867919921875,-1.00732421875,-0.0204315185546875,-0.034698486328125
1761505996232904000,8.523904052734375,-1.01458740234375,-0.0208892822265625,-0.0320892333984375
1761505996242940000,8.53393994140625,-1.008270263671875,-0.0196380615234375,-0.0361175537109375
1761505996252975000,8.54397509765625,-0.9911956787109375,-0.0153350830078125,-0.0526275634765625
1761505996263011000,8.554010986328125,-1.0426025390625,-0.02789306640625,-0.0029296875
1761505996273047000,8.564047119140625,-1.03009033203125,-0.0243377685546875,-0.01287841796875
1761505996283083000,8.5740830078125,-0.9952545166015625,-0.01593017578125,-0.0497589111328125
1761505996293119000,8.584118896484375,-1.0167388916015625,-0.0217437744140625,-0.0259857177734375
1761505996303155000,8.594155029296875,-1.0274810791015625,-0.024505615234375,-0.0167388916015625
1761505996313191000,8.60419091796875,-0.9920196533203125,-0.0164642333984375,-0.0511474609375
