time,seconds_elapsed,z,y,x
1761505987820271600,0.111271728515625,0.00008961139246821404,0.0008185696788132191,-0.0014493339695036411
1761505987830307600,0.1213076171875,0.0000630565918982029,0.000683394493535161,-0.00017207104247063398
1761505987840343600,0.131343505859375,0.0005592033267021179,-0.0036503677256405354,0.002785102929919958
1761505987850379500,0.141379638671875,-0.0010826624929904938,-0.0002988353371620178,0.000605868932325393
1761505987860415500,0.15141552734375,-0.00037372903898358345,0.00265274615958333,0.0002269010292366147
1761505987870451500,0.161451416015625,0.00008935993537306786,-0.00048031052574515343,-0.0001340049784630537
1761505987880486400,0.171486328125,0.00043157581239938736,-0.002452381420880556,-0.00043813802767544985
1761505987890522400,0.1815224609375,-0.0004456266760826111,0.00012030778452754021,0.0008322989451698959
1761505987900558600,0.19155859375,0.001932043582201004,0.00029687536880373955,-0.001821274752728641
1761505987910594600,0.201594482421875,-0.0006368421018123627,-0.0013873458374291658,0.00010105525143444538
1761505987920630500,0.211630615234375,-0.0006935675628483295,-0.00138255232013762,0.0005588526255451143
1761505987930666500,0.22166650390625,0.001973206177353859,0.0020919025409966707,0.00024887186009436846
1761505987940702500,0.231702392578125,-0.000658262986689806,-0.0015065609477460384,0.0008022767724469304
1761505987950738400,0.241738525390625,0.0007766047492623329,-0.002982750302180648,-0.0011277467710897326
1761505987960774400,0.2517744140625,0.0006599579937756062,0.0006146477535367012,-0.0012995206052437425
1761505987970810400,0.261810302734375,0.0005962373688817024,-0.00016052252613008022,0.00048703711945563555
1761505987980846300,0.271846435546875,0.0009139524772763252,-0.00026039103977382183,-0.00034440180752426386
1761505987990882300,0.28188232421875,-0.0006591668352484703,-0.0019408836960792542,0.0010511560831218958
1761505988000918300,0.291918212890625,0.0020175762474536896,0.0007507733535021544,-0.0005115867825224996
1761505988010954500,0.30195458984375,-0.0007821084000170231,-0.0016642948612570763,0.0015243858797475696
1761505988020990500,0.311990478515625,-0.0007275133393704891,-0.0007769297808408737,-0.0005856365896761417
1761505988031026400,0.3220263671875,-0.0014184522442519665,-0.0011096729431301355,-0.003233398776501417
1761505988041062400,0.3320625,0.0013453764840960503,0.00045200460590422153,-0.0001944657415151596
1761505988051098400,0.342098388671875,0.002174511319026351,0.0013547975104302168,0.0006995365838520229
1761505988061134300,0.35213427734375,0.002767064841464162,0.000504183815792203,0.0013221836416050792
1761505988071170600,0.362170654296875,-0.000128201674669981,-0.00002827751450240612,0.0003467221977189183
1761505988081206500,0.37220654296875,0.00017779553309082985,-0.0002708914689719677,0.0009336828952655196
1761505988091242500,0.382242431640625,0.000552961602807045,0.000655394047498703,0.001549841952510178
1761505988101279500,0.392279541015625,-0.000262498389929533,0.000037540681660175323,-0.0012898866552859545
1761505988111315500,0.4023154296875,0.0007698978297412395,-0.0012361155822873116,-0.0005656221183016896
1761505988121351400,0.412351318359375,-0.0005182730965316296,0.001332236803136766,0.00020136835519224405
1761505988131387400,0.422387451171875,0.00038282573223114014,-0.0004782946780323982,-0.0010660443222150207
1761505988141423400,0.43242333984375,-0.0010598087683320045,0.000039956532418727875,-0.00030464655719697475
1761505988151459300,0.442459228515625,0.00017006928101181984,0.0008388098794966936,0.00005996075924485922
1761505988161495600,0.45249560546875,-0.0007713581435382366,0.0003048460930585861,-0.0014995862729847431
1761505988171531500,0.462531494140625,0.0005159154534339905,0.0012005050666630268,0.0009515260462649167
1761505988181567500,0.4725673828125,-0.001505690161138773,-0.0006583812646567822,-0.001799519406631589
1761505988191603500,0.482603515625,0.000410416629165411,-0.0006967878434807062,0.00011794979218393564
1761505988201639400,0.492639404296875,0.0006421119906008244,-0.0021577978041023016,0.0009627045365050435
1761505988211675400,0.50267529296875,0.00043755024671554565,0.000030141323804855347,-0.0005236533470451832
1761505988221711400,0.51271142578125,0.0022450375836342573,-0.0003317822702229023,-0.00037345103919506073
1761505988231747300,0.522747314453125,-0.0013774270191788673,-0.0012811231426894665,-0.0010710899950936437
1761505988241783300,0.532783203125,0.0005773333832621574,0.0008366226684302092,-0.0011688278755173087
1761505988251819300,0.5428193359375,0.0011157472617924213,0.0017001141095533967,-0.0029838269110769033
1761505988261855500,0.55285546875,-0.0001055784523487091,0.001281997887417674,0.0009440692374482751
1761505988271891500,0.562891357421875,-0.000775274820625782,0.0006390339694917202,-0.0011089047184213996
1761505988281927400,0.572927490234375,-0.0005904515273869038,-0.0009455466642975807,-0.00087800866458565
1761505988291963400,0.58296337890625,0.00016848649829626083,-0.0012812772765755653,-0.001352392602711916
1761505988301999600,0.59299951171875,-0.0018981262110173702,0.0010737559059634805,0.0007861257763579488
1761505988312035600,0.60303564453125,-0.0002947133034467697,0.00040415627881884575,-0.003932520281523466
1761505988322071600,0.613071533203125,0.0006211479194462299,0.0016350692603737116,-0.00017719680909067392
1761505988332107500,0.623107421875,0.0004102294333279133,-0.0013672409113496542,0.0025602588430047035
1761505988342143500,0.6331435546875,-0.0018156408332288265,0.00034170947037637234,-0.0003590984269976616
1761505988352179500,0.643179443359375,0.0003335378132760525,-0.000260454835370183,-0.0009307516738772392
1761505988362215400,0.65321533203125,0.0016544656828045845,0.000956343486905098,0.001902052783407271
1761505988372250600,0.663250732421875,-0.0005004317499697208,0.00017046136781573296,-0.002037971280515194
1761505988382286600,0.67328662109375,-0.0015228190459311008,0.0014804702950641513,-0.0015338347293436527
1761505988392323600,0.683323486328125,-0.0030953511595726013,0.0016354991821572185,-0.0028000432066619396
1761505988402358500,0.693358642578125,0.0029170012567192316,-0.002907853340730071,0.00002663605846464634
1761505988412394500,0.70339453125,-0.0008695246651768684,-0.00034823641180992126,0.0008017744403332472
1761505988422430500,0.713430419921875,-0.00208286102861166,-0.0018169698305428028,0.0001431747805327177
1761505988432466400,0.723466552734375,0.00042596645653247833,0.0034248169977217913,-0.0014901936519891024
1761505988442502400,0.73350244140625,-0.0005263802595436573,-0.00030440744012594223,-0.0003833839436993003
1761505988452538400,0.743538330078125,0.001436151098459959,0.0003455625846982002,0.00004015641752630472
1761505988462574600,0.75357470703125,-0.0005961069837212563,0.0006789902690798044,0.001370938029140234
1761505988472610600,0.763610595703125,0.0016724644228816032,-0.002234554151073098,-0.00027288543060421944
1761505988482646500,0.773646484375,-0.0007355655543506145,-0.0008433188777416945,0.0019612405449151993
1761505988492682500,0.7836826171875,0.0022033455315977335,0.0029914381448179483,0.0013709258055314422
1761505988502718500,0.793718505859375,0.0010560555383563042,0.0002475832588970661,0.0001850201515480876
1761505988512754400,0.80375439453125,-0.00030409591272473335,0.002029638271778822,0.000005194102413952351
1761505988522790400,0.813790283203125,-0.00026441505178809166,-0.00035548885352909565,0.001712014083750546
1761505988532826400,0.823826416015625,-0.00015709130093455315,0.0016523567028343678,-0.00008937262464314699
1761505988542862300,0.8338623046875,0.0027492165099829435,0.0016166702844202518,0.0007918673800304532
1761505988552898300,0.843898193359375,-0.0014183917082846165,-0.0015504753682762384,-0.0007614872884005308
1761505988562934300,0.853934326171875,0.002132933586835861,-0.0007089166902005672,0.0037493749987334013
1761505988572970500,0.863970458984375,0.00019610440358519554,-0.0009588487446308136,-0.0012211863650009036
1761505988583006500,0.87400634765625,-0.0012076478451490402,0.00020761601626873016,0.00394268287345767
1761505988593042400,0.88404248046875,0.0018786322325468063,0.00033673527650535107,0.0007341417367570102
1761505988603078400,0.894078369140625,0.0003640921786427498,-0.0026779628824442625,-0.0006168799009174109
1761505988613114400,0.9041142578125,-0.0007986137643456459,0.0005046857986599207,-0.0005190868396311998
1761505988623150300,0.914150390625,-0.000464386772364378,-0.00048627634532749653,-0.0004985805135220289
1761505988633186300,0.924186279296875,-0.00035276729613542557,0.0009900741279125214,-0.0025482624769210815
1761505988643222500,0.934222412109375,0.0020992052741348743,-0.0005090192425996065,0.0015876268735155463
1761505988653258500,0.944258544921875,-0.0010748989880084991,0.0022571589797735214,-0.0011595073156058788
1761505988663294500,0.95429443359375,0.00022845203056931496,0.0005623232573270798,0.0007920571370050311
1761505988673330400,0.964330322265625,-0.00003608269616961479,0.0018826834857463837,-0.0004199162358418107
1761505988683366700,0.97436669921875,0.0007527456618845463,0.0008672201074659824,-0.0011546824825927615
1761505988693402600,0.984402587890625,-0.0030185002833604813,-0.0004692124202847481,0.0007596498471684754
1761505988703438600,0.9944384765625,0.0011112634092569351,0.0011992579093202949,0.0012094577541574836
1761505988713474600,1.004474609375,0.0009372956119477749,-0.0013532568700611591,-0.0018668189877644181
1761505988723510500,1.014510498046875,-0.0014108135364949703,-0.001146063208580017,-0.00033949618227779865
1761505988733546500,1.02454638671875,-0.0014998670667409897,0.002323785563930869,0.0008036863873712718
1761505988743582500,1.03458251953125,-0.00040690600872039795,-0.0006664115935564041,-0.0010440148180350661
1761505988753618400,1.044618408203125,0.0009225029498338699,0.0022897194139659405,-0.0008479038951918483
1761505988763654400,1.054654296875,-0.005391052924096584,0.0006332332268357277,-0.0009882523445412517
1761505988773690400,1.0646904296875,0.0009966478683054447,-0.0020632802043110132,-0.0003205145476385951
1761505988783726300,1.074726318359375,-0.0015120496973395348,-0.0010251796338707209,0.00042810000013560057
1761505988793762600,1.084762451171875,-0.0019280798733234406,0.0004144639242440462,0.00009780679829418659
1761505988803798500,1.094798583984375,-0.0016945204697549343,0.00130609015468508,-0.0011666620848700404
1761505988813834500,1.10483447265625,0.0017945794388651848,-0.0014124952722340822,0.00005922093987464905
1761505988823870500,1.114870361328125,-0.000403327401727438,-0.0026468702126294374,-0.0004955155309289694
1761505988833906400,1.124906494140625,0.002240329748019576,0.00033641024492681026,-0.0015763069968670607
1761505988843942400,1.1349423828125,-0.0019403002224862576,0.0006983338389545679,0.0017113653011620045
1761505988853978400,1.144978271484375,-0.0014374889433383942,0.0006642553489655256,-0.002339103724807501
1761505988864014300,1.155014404296875,0.00014496129006147385,0.0030943898018449545,0.0013973111053928733
1761505988874050300,1.16505029296875,-0.0005306964740157127,-0.000059868209064006805,-0.0004358668811619282
1761505988884086300,1.175086181640625,0.0012962319888174534,0.001578774768859148,0.0017199619906023145
1761505988894122200,1.185122314453125,-0.002336266450583935,-0.0015094648115336895,-0.0002825525589287281
1761505988904158500,1.195158447265625,0.0010424857027828693,0.00230870908126235,-0.00029746629297733307
1761505988914194400,1.2051943359375,-0.0009144102223217487,-0.00020264415070414543,0.0005330574349500239
1761505988924230400,1.21523046875,0.0030915166717022657,0.0018844751175493002,-0.0014081206172704697
1761505988934266600,1.2252666015625,-0.0004419879987835884,0.00012179743498563766,0.0019152446184307337
1761505988944302600,1.235302490234375,-0.00046489108353853226,0.0009732099715620279,0.0008949876064434648
1761505988954338600,1.245338623046875,-0.00015324726700782776,0.003214704105630517,-0.00001051777508109808
1761505988964374500,1.25537451171875,-0.0025908388197422028,-0.00039547705091536045,-0.0009255800396203995
1761505988974410500,1.265410400390625,-0.0012249872088432312,-0.0012713661417365074,-0.00011063669808208942
1761505988984446500,1.275446533203125,0.0008179238066077232,0.0018003239529207349,0.000010004499927163124
1761505988994482400,1.285482421875,-0.001192370429635048,0.0041534313932061195,0.00022556050680577755
1761505989004518400,1.295518310546875,-0.00010074116289615631,0.0009690898004919291,0.001800553873181343
1761505989014554600,1.3055546875,-0.00025496305897831917,0.001192554016597569,0.002134415553882718
1761505989024590600,1.315590576171875,0.0016404087655246258,-0.0002479497343301773,-0.0011631104862317443
1761505989034626600,1.32562646484375,-0.00004870351403951645,-0.0001361551694571972,0.0018012870568782091
1761505989044662500,1.33566259765625,0.001501256600022316,-0.0011340416967868805,0.0007810301030986011
1761505989054698500,1.345698486328125,-0.0010583829134702682,0.0023427684791386127,-0.00127357745077461
1761505989064734500,1.355734375,0.0007062279619276524,-0.0008631448727101088,0.0012758666416630149
1761505989074770400,1.3657705078125,-0.0017327717505395412,-0.001925294054672122,0.0008700630278326571
1761505989084806400,1.375806396484375,-0.002034507691860199,-0.0005529671907424927,-0.0023182732984423637
1761505989094841900,1.385841796875,0.0008544926531612873,-0.001295910682529211,0.0014601885341107845
1761505989104877800,1.3958779296875,-0.00045551639050245285,0.0032905852422118187,0.0016575288027524948
1761505989114913000,1.4059130859375,0.0013459273613989353,-0.0017911342438310385,0.0006532483967021108
1761505989124949000,1.415948974609375,-0.000707636121660471,-0.00020895013585686684,-0.00009856198448687792
1761505989134985000,1.42598486328125,0.0006936504505574703,0.0010502897202968597,0.00026391318533569574
1761505989145021000,1.43602099609375,0.0008363956585526466,-0.0000991306733340025,0.00044767133658751845
1761505989155057000,1.446056884765625,0.000013943761587142944,-0.0016110420692712069,-0.0010057167382910848
1761505989165092900,1.4560927734375,-0.002019912004470825,0.000795123865827918,-0.0011114442022517323
1761505989175128800,1.46612890625,0.00183476647362113,-0.0010929112322628498,0.000736936170142144
1761505989185165000,1.4761650390625,0.0028875139541924,-0.00014642393216490746,0.0007284140447154641
1761505989195201000,1.486200927734375,-0.0027767689898610115,-0.002675775671377778,0.00012637220788747072
1761505989205237000,1.496237060546875,-0.0007421141490340233,0.0005101638380438089,-0.0028553029987961054
1761505989215273000,1.50627294921875,-0.0047981273382902145,-0.0006974425632506609,-0.000715112779289484
1761505989225309000,1.516308837890625,0.0007585575804114342,0.0009441298898309469,-0.0022781221196055412
1761505989235345000,1.526344970703125,0.0010776650160551071,-0.002431152854114771,-0.000262250192463398
1761505989245380900,1.536380859375,-0.0001393994316458702,-0.0006689394358545542,-0.0007844959618523717
1761505989255416800,1.546416748046875,-0.0002695848233997822,0.00023367488756775856,-0.0009585182415321469
1761505989265452800,1.556452880859375,-0.0004948885180056095,-0.0010217393282800913,-0.003134586848318577
1761505989275488800,1.56648876953125,0.001411772333085537,-0.00006854231469333172,0.0007827329682186246
1761505989285524700,1.576524658203125,-0.00006335275247693062,-0.000030192779377102852,0.00020509329624474049
1761505989295561000,1.58656103515625,0.0031594280153512955,0.001596360933035612,-0.0002113811206072569
1761505989305597200,1.59659716796875,-0.0024627717211842537,0.0006014038808643818,-0.0007437471067532897
1761505989315633200,1.606633056640625,0.001624066848307848,-0.00023097102530300617,-0.00047316972631961107
1761505989325669000,1.616669189453125,-0.00021644355729222298,-0.0032579198013991117,-0.0020625442266464233
1761505989335705000,1.626705078125,0.00008363183587789536,0.000696015078574419,0.0002493285574018955
1761505989345741000,1.636740966796875,0.00045407749712467194,-0.0004925536923110485,0.00039793294854462147
1761505989355777000,1.646777099609375,0.0034930428955703974,-0.00031976751051843166,-0.00007032300345599651
1761505989365813000,1.65681298828125,0.0011736960150301456,0.00005653710104525089,-0.00010361254680901766
1761505989375849000,1.666848876953125,0.00011900905519723892,-0.003052161540836096,-0.001091805286705494
1761505989385885000,1.676885009765625,0.0006590979173779488,0.00033458019606769085,0.0010834647109732032
1761505989395921000,1.6869208984375,0.000046146102249622345,-0.0018096701242029667,-0.0009337444789707661
1761505989405956900,1.696956787109375,-0.0008747749961912632,-0.0006051221862435341,-0.0022626619320362806
1761505989415993000,1.7069931640625,0.0009473585523664951,0.00041374610736966133,0.0013445252552628517
1761505989426029000,1.717029052734375,0.0006767814047634602,0.0024041926953941584,0.0002696734154596925
1761505989436065000,1.72706494140625,0.0009926380589604378,-0.001645945943892002,-0.0004295462276786566
1761505989446101000,1.73710107421875,-0.0011450815945863724,0.0014563704608008265,-0.0015440790448337793
1761505989456137000,1.747136962890625,0.001118543092161417,0.001106171403080225,0.0003311975160613656
1761505989466173000,1.7571728515625,-0.001860469114035368,-0.0017759015318006277,0.000865161360707134
1761505989476209000,1.767208984375,-0.0028380360454320908,0.00008010654710233212,0.000836714927572757
1761505989486244900,1.777244873046875,0.0001468351110816002,0.0009432369843125343,0.00029396277386695147
1761505989496280800,1.78728076171875,0.00021383771672844887,-0.0016878526657819748,-0.0005453795893117785
1761505989506316800,1.79731689453125,0.00004259636625647545,-0.00005080760456621647,-0.0009397938847541809
1761505989516352800,1.807352783203125,-0.00037210574373602867,-0.00016836309805512428,-0.0009025437757372856
1761505989526389000,1.817388916015625,-0.0012064739130437374,-0.0018890313804149628,0.0020706092473119497
1761505989536425000,1.827425048828125,-0.0021768053993582726,-0.0018080435693264008,-0.0011630665976554155
1761505989546461000,1.8374609375,0.0008509424515068531,0.0006149006076157093,0.001888117054477334
1761505989556497000,1.847496826171875,-0.0005882331170141697,-0.0017143781296908855,-0.001499428879469633
1761505989566532900,1.857532958984375,-0.00010806508362293243,-0.0012696306221187115,-0.0010240545962005854
1761505989576568800,1.86756884765625,0.0016934559680521488,-0.0014094323851168156,0.0012806933373212814
1761505989586605000,1.87760498046875,-0.0011942097917199135,0.0009277577046304941,0.001588554703630507
1761505989596641000,1.88764111328125,0.0002891654148697853,-0.00039518927223980427,-0.0004402881022542715
1761505989606677000,1.897677001953125,0.001177063211798668,-0.0018455467652529478,-0.0003484090557321906
1761505989616713000,1.907712890625,0.0006649075075984001,-0.00020362879149615765,-0.001324816606938839
1761505989626749000,1.9177490234375,-0.00012072501704096794,-0.0007450494449585676,-0.0002014952478930354
1761505989636785200,1.92778515625,0.004228811711072922,-0.000276374164968729,-0.00012456451077014208
1761505989646821000,1.937821044921875,0.00020557409152388573,0.0004892847500741482,-0.001549622043967247
1761505989656857000,1.947857177734375,0.0010795188136398792,-0.003350479993969202,-0.0009417262626811862
1761505989666893000,1.95789306640625,-0.00022276677191257477,0.0007116398774087429,-0.0024080625735223293
1761505989676929000,1.967928955078125,-0.001885728444904089,-0.0017108044121414423,-0.00028714374639093876
1761505989686965000,1.977965087890625,0.0007108533754944801,0.0009222629014402628,0.0013019645120948553
1761505989697001000,1.9880009765625,-0.0019470364786684513,-0.0019309492781758308,-0.0010562906973063946
1761505989707037000,1.998036865234375,0.001676193904131651,-0.0017413320019841194,0.00010644551366567612
1761505989717073000,2.008072998046875,-0.0002954648807644844,-0.001656398642808199,0.0004160410026088357
1761505989727108900,2.01810888671875,0.0011090864427387714,-0.002711542882025242,0.00032602623105049133
1761505989737144800,2.028144775390625,-0.0006221211515367031,-0.0001776756253093481,0.0014573783846572042
1761505989747181000,2.03818115234375,0.000693214125931263,0.00014909426681697369,0.001584677491337061
1761505989757217000,2.048217041015625,-0.0010567200370132923,-0.0028481807094067335,0.002866322174668312
1761505989767253000,2.0582529296875,-0.0012010629288852215,-0.0015530853997915983,-0.00043493229895830154
1761505989777289000,2.0682890625,0.0003431662917137146,-0.00003356859087944031,-0.0022071897983551025
1761505989787325000,2.078324951171875,0.0007924414239823818,-0.0008042873814702034,0.001821373705752194
1761505989797361000,2.08836083984375,-0.0003609713166952133,-0.0009701370727270842,0.0018387638265267015
1761505989807396900,2.09839697265625,0.00007365643978118896,0.0015673228772357106,-0.0005277211312204599
1761505989817432800,2.108432861328125,-0.0016730818897485733,-0.0006581970956176519,0.0017874951008707285
1761505989827468000,2.118468017578125,-0.00025734538212418556,-0.00045925891026854515,0.00039359659422188997
1761505989837504800,2.1285048828125,-0.0002963063307106495,-0.001734795980155468,0.0029403837397694588
1761505989847540000,2.1385400390625,0.0015697707422077656,-0.0006429001223295927,-0.0012823246652260423
1761505989857576000,2.148575927734375,-0.001542685553431511,0.0009104995988309383,-0.0029579512774944305
1761505989867612000,2.15861181640625,-0.0012462758459150791,0.0022284979932010174,0.0011209462536498904
1761505989877648000,2.16864794921875,-0.001141535583883524,-0.00007911026477813721,-0.0004365096101537347
1761505989887683800,2.178683837890625,0.002092873677611351,-0.0012594230938702822,-0.001380600268021226
1761505989897719800,2.1887197265625,-0.0010396861471235752,-0.0010178012307733297,-0.0009035541443154216
1761505989907755800,2.198755859375,0.0006186640821397305,0.001665067276917398,-0.0019259416731074452
1761505989917791700,2.208791748046875,-0.00035118218511343,-0.0028165944386273623,0.0010072794975712895
1761505989927827700,2.21882763671875,0.00000727921724319458,0.0006793371867388487,0.0002682523336261511
1761505989937864200,2.2288642578125,0.0006136954762041569,0.0024217437021434307,0.0009565642103552818
1761505989947900200,2.238900146484375,-0.004186652135103941,-0.0006499465089291334,0.0018918663263320923
1761505989957936000,2.24893603515625,0.001949729397892952,-0.0012178076431155205,0.0007352341199293733
1761505989967972000,2.25897216796875,-0.0022146557457745075,-0.00153072876855731,-0.00006664369720965624
1761505989978008000,2.269008056640625,0.0014798208139836788,0.002802898408845067,-0.0007590209133923054
1761505989988044000,2.2790439453125,0.0007559736259281635,-0.000642433064058423,-0.0005305216182023287
1761505989998080000,2.289080078125,0.002013326156884432,0.002090879250317812,-0.0019077509641647339
1761505990008116000,2.299115966796875,-0.0015150955878198147,0.0009758139494806528,-0.00030133232939988375
1761505990018152000,2.30915185546875,0.00038065528497099876,0.0006946315988898277,-0.000117843272164464
1761505990028188000,2.31918798828125,0.0006344541907310486,-0.002716611372306943,0.000474177417345345
1761505990038224000,2.329223876953125,-0.0002485383301973343,0.000686755171045661,-0.0006537602748721838
1761505990048260000,2.339260009765625,0.0005738455802202225,-0.00021738791838288307,-0.0005576203111559153
1761505990058296000,2.349296142578125,-0.0019622729159891605,-0.0009358006063848734,0.0004294265527278185
1761505990068332000,2.35933203125,0.0001794411800801754,0.0009012480732053518,-0.000684307306073606
1761505990078368000,2.369367919921875,0.00029774662107229233,0.0006868129130452871,-0.00025337841361761093
1761505990088404000,2.379404052734375,0.001761686522513628,-0.0008927078451961279,0.0006861848523840308
1761505990098440700,2.389440673828125,0.00041187601163983345,-0.0013141320087015629,-0.0007546423003077507
1761505990108476700,2.3994765625,-0.00015431176871061325,0.0012086806818842888,0.00034737365785986185
1761505990118512600,2.4095126953125,0.0011748080141842365,-0.0017692705150693655,0.0005561921279877424
1761505990128548600,2.419548583984375,-0.0030620149336755276,0.0009383654687553644,0.0016254512593150139
1761505990138584600,2.42958447265625,0.00034953560680150986,-0.0027061470318585634,0.002929598093032837
1761505990148620500,2.43962060546875,0.0008896244689822197,-0.00006322585977613926,-0.001045436249114573
1761505990158656500,2.449656494140625,0.0033485484309494495,-0.0023394483141601086,0.0009138645837083459
1761505990168692500,2.4596923828125,-0.00006988504901528358,0.00021825125440955162,-0.0003471422242000699
1761505990178728700,2.469728759765625,-0.00017932849004864693,-0.0006460999138653278,0.0010868507670238614
1761505990188765000,2.479764892578125,-0.0002594897523522377,-0.0006559535395354033,-0.0006798903923481703
1761505990198801000,2.48980078125,-0.0019806837663054466,-0.001678565051406622,-0.0012380839325487614
1761505990208836900,2.4998369140625,0.0006579761393368244,0.0007755376864224672,0.0002940326230600476
1761505990218872800,2.509872802734375,-0.002426120452582836,0.001030202955007553,0.0003959834575653076
1761505990228908800,2.51990869140625,-0.0020018788054585457,0.00031780730932950974,0.00006149045657366514
1761505990238944800,2.52994482421875,-0.0015760618261992931,-0.001725231995806098,-0.0018446537433192134
1761505990248980700,2.539980712890625,0.0007089301943778992,-0.0007451886776834726,-0.0001178601523861289
1761505990259016700,2.5500166015625,0.000006015412509441376,0.0018089961959049106,0.0005380469956435263
1761505990269052700,2.560052734375,-0.00016016606241464615,-0.00002379133366048336,-0.0025421653408557177
1761505990279088600,2.570088623046875,0.0006978120654821396,0.0005168209318071604,-0.0021442314609885216
1761505990289123800,2.580123779296875,-0.0006047398783266544,0.00008086161687970161,0.00011918926611542702
1761505990299159800,2.590159912109375,0.0014835637994110584,-0.0016092387959361076,-0.0014059435343369842
1761505990309195800,2.60019580078125,-0.002921571023762226,-0.0007596905343234539,0.00003083201590925455
1761505990319231700,2.610231689453125,0.0006395424716174603,-0.00022183172404766083,-0.0017020264640450478
1761505990329267700,2.620267822265625,0.00046936655417084694,0.0008908368181437254,-0.0007701865397393703
1761505990339303700,2.6303037109375,0.00011631334200501442,0.003468154463917017,0.00019232835620641708
1761505990349339600,2.640339599609375,-0.0007012770511209965,-0.0021894650999456644,-0.0012766713043674827
1761505990359375600,2.650375732421875,-0.000463179312646389,0.0016189677407965064,0.0007608085288666189
1761505990369411600,2.66041162109375,0.0007911697030067444,0.0017001940868794918,-0.0009830293711274862
1761505990379447800,2.67044775390625,0.0007732720114290714,0.002570133423432708,0.0005969138583168387
1761505990389483800,2.68048388671875,0.0002944357693195343,0.0007112470921128988,0.0003036998677998781
1761505990399519700,2.690519775390625,0.0001886221580207348,-0.0017047703731805086,0.00032405450474470854
1761505990409555700,2.7005556640625,0.0020898524671792984,-0.0023402005899697542,-0.0010480061173439026
1761505990419591700,2.710591796875,0.0004946286790072918,0.0010756151750683784,-0.0020802062936127186
1761505990429627600,2.720627685546875,0.000017390120774507523,-0.0014224296901375055,0.0018743214895948768
1761505990439663600,2.73066357421875,0.000497687142342329,-0.0014052074402570724,0.0030926724430173635
1761505990449699600,2.740699462890625,0.0020609628409147263,-0.0029226765036582947,-0.00022695783991366625
1761505990459735600,2.750735595703125,0.0011730659753084183,-0.0011985250748693943,0.0014588251942768693
1761505990469771500,2.760771484375,-0.0008767689578235149,0.00011281529441475868,-0.0005334856687113643
1761505990479807500,2.770807373046875,0.0008449507877230644,-0.000015058554708957672,-0.0021236829925328493
1761505990489843700,2.78084375,0.0007599960081279278,-0.0014872539322823286,0.00010884483344852924
1761505990499879700,2.790879638671875,0.0022875380236655474,-0.0008659092709422112,-0.0006843452574685216
1761505990509915600,2.80091552734375,0.0003109397366642952,0.0032321629114449024,0.0015630964189767838
1761505990519952000,2.810951904296875,-0.0006437031552195549,0.0011941009433940053,0.0010486147366464138
1761505990529987800,2.82098779296875,-0.0005784556269645691,-0.0013649303000420332,0.00014606944750994444
1761505990540023800,2.83102392578125,-0.0016104364767670631,-0.00027358834631741047,-0.0017766122473403811
1761505990550059800,2.841059814453125,0.001503597479313612,-0.001584662590175867,-0.00038484425749629736
1761505990560095700,2.851095703125,0.000007213559001684189,0.000701746204867959,-0.00015338999219238758
1761505990570131700,2.861131591796875,-0.00020317593589425087,0.0011022856924682856,0.0028378725983202457
1761505990580167700,2.871167724609375,0.0008179252035915852,0.001030181534588337,0.0005606126505881548
1761505990590203600,2.88120361328125,0.003257647156715393,0.0012988945236429572,0.00046953256241977215
1761505990600239900,2.891239990234375,0.000176197849214077,-0.0006464947946369648,-0.0019548777490854263
1761505990610275800,2.90127587890625,-0.0006858673878014088,-0.0011168092023581266,0.0011951089836657047
1761505990620311800,2.911311767578125,0.0004481556825339794,-0.0006356188096106052,0.0008016949286684394
1761505990630347800,2.92134765625,-0.00030711712315678596,0.00045787496492266655,0.00029489537701010704
1761505990640383700,2.9313837890625,0.0006020530126988888,0.0007345252670347691,-0.0001060387585312128
1761505990650419700,2.941419677734375,0.00012055318802595139,0.001278076320886612,-0.00044452655129134655
1761505990660454700,2.95145458984375,0.0014331461861729622,0.001076769782230258,-0.00073006481397897
1761505990670490600,2.96149072265625,-0.0015096468850970268,0.00225495221093297,-0.0010866621742025018
1761505990680526800,2.97152685546875,-0.0013565844856202602,0.00005317758768796921,0.0007041465723887086
1761505990690562800,2.981562744140625,-0.0001453789882361889,0.0003221568185836077,-0.0014530138578265905
1761505990700598800,2.991598876953125,-0.0006166417151689529,0.00041419267654418945,0.000022090505808591843
1761505990710634800,3.001634765625,0.0017245430499315262,0.0021878578700125217,-0.0006668692221865058
1761505990720670700,3.011670654296875,-0.0004912083968520164,-0.00004565343260765076,-0.00025693001225590706
1761505990730706700,3.021706787109375,0.0016260044649243355,-0.0021860357373952866,-0.0012902364833280444
1761505990740742700,3.03174267578125,-0.0008251792751252651,-0.00016535143367946148,-0.00002598168794065714
1761505990750778600,3.041778564453125,0.0008406275883316994,0.0007646242156624794,-0.00041373795829713345
1761505990760814600,3.051814697265625,-0.00023624207824468613,-0.0012450444046407938,0.00008326629176735878
1761505990770850600,3.0618505859375,0.0022756513208150864,-0.0017313372809439898,-0.002099460456520319
1761505990780886500,3.071886474609375,0.00021058693528175354,-0.0004763535689562559,-0.00031689880415797234
1761505990790922800,3.0819228515625,0.0014825123362243176,-0.0005637053400278091,0.0010815270943567157
1761505990800958700,3.091958740234375,0.0003274907357990742,-0.0026059465017169714,-0.0007779423613101244
1761505990810994700,3.10199462890625,-0.0010653422214090824,0.0031427531503140926,0.002306264592334628
1761505990821030700,3.11203076171875,-0.0024948930367827415,-0.0019089418929070234,-0.0005561216967180371
1761505990831066600,3.122066650390625,-0.0011276258155703545,-0.0013968159910291433,0.0004532163729891181
1761505990841102600,3.1321025390625,0.0005661863833665848,0.0006052874960005283,-0.00007018004544079304
1761505990851138600,3.142138671875,-0.00001731235533952713,-0.0017265761271119118,-0.0005756479222327471
1761505990861174800,3.1521748046875,-0.00005818484351038933,0.001064372481778264,-0.0004977674689143896
1761505990871210800,3.162210693359375,0.0021578315645456314,0.001465710811316967,-0.00063545280136168
1761505990881246700,3.172246826171875,-0.00021659629419445992,-0.0013162782415747643,0.0008616441045887768
1761505990891282700,3.18228271484375,0.0022481591440737247,0.0020912366453558207,0.00048560573486611247
1761505990901319000,3.19231884765625,-0.0003004511818289757,-0.0003443311434239149,-0.0011338188778609037
1761505990911355000,3.20235498046875,-0.0002099038101732731,0.0026077828370034695,0.002513646613806486
1761505990921390800,3.212390869140625,-0.0012916335836052895,0.0003300153184682131,-0.0009464395698159933
1761505990931426800,3.2224267578125,-0.0007033413276076317,-0.0012814635410904884,-0.0008007646538317204
1761505990941461800,3.232461669921875,0.0002119378186762333,0.0007122303359210491,0.00007763225585222244
1761505990951497700,3.242497802734375,0.0014684172347187996,-0.0029402950312942266,-0.0002139839343726635
1761505990961533700,3.25253369140625,0.0004946230910718441,0.0021738058421760798,0.0008997997501865029
1761505990971569700,3.262569580078125,-0.00007236376404762268,0.00106140342541039,-0.0006917053833603859
1761505990981606000,3.27260595703125,-0.0006261691451072693,0.0006996691226959229,-0.001968763070181012
1761505990991641900,3.282641845703125,0.0006984872743487358,-0.00138558610342443,-0.0005077528767287731
1761505991001677800,3.292677734375,-0.0004526237025856972,0.0012711137533187866,-0.000844036927446723
1761505991011713800,3.3027138671875,0.0017764419317245483,-0.0009491634555160999,0.00011416838970035315
1761505991021749800,3.312749755859375,0.0011914563365280628,0.00017907656729221344,-0.0001791252288967371
1761505991031785700,3.32278564453125,0.0005512326024472713,-0.00004329741932451725,-0.0012603686191141605
1761505991041821700,3.33282177734375,-0.0003191158175468445,-0.0002947608008980751,0.0017708407249301672
1761505991051857700,3.342857666015625,0.0006353612989187241,-0.002604786539450288,-0.000058484612964093685
1761505991061893600,3.3528935546875,-0.0004987074062228203,0.00045277434401214123,0.0006030439399182796
1761505991071929600,3.3629296875,0.00028745783492922783,0.0008764832746237516,0.001796939061023295
1761505991081965600,3.372965576171875,-0.00044157635420560837,-0.0021273158490657806,-0.0002780207432806492
1761505991092001800,3.383001708984375,-0.0003856499679386616,0.0004575485363602638,0.0020628978963941336
1761505991102036700,3.39303662109375,-0.000815143808722496,0.0009914382826536894,-0.00028787320479750633
1761505991112073000,3.403072998046875,-0.0007248627953231335,0.0010518920607864857,-0.00003993290010839701
1761505991122109000,3.41310888671875,0.00024953484535217285,0.0018035279354080558,0.0017447583377361298
1761505991132145000,3.423144775390625,-0.0011835121549665928,0.002413924317806959,-0.003622310236096382
1761505991142180900,3.433180908203125,0.0023139286786317825,0.004392437636852264,-0.00033685192465782166
1761505991152216800,3.443216796875,-0.0007356572896242142,-0.0015245736576616764,-0.0004436447052285075
1761505991162252800,3.453252685546875,-0.0026668990030884743,-0.0020090348552912474,-0.001864926191046834
1761505991172288800,3.463288818359375,0.0005616513080894947,0.000008842209354043007,-0.000019089318811893463
1761505991182325000,3.473324951171875,0.0011728540994226933,-0.0003265694249421358,-0.0008665767963975668
1761505991192361000,3.48336083984375,0.0006668535061180592,0.0010332404635846615,-0.0005829501897096634
1761505991202396000,3.49339599609375,-0.0031486479565501213,0.0005306978709995747,-0.0009413491934537888
1761505991212432000,3.503431884765625,0.0006711240857839584,-0.0006858340930193663,-0.0006079215090721846
1761505991222467800,3.5134677734375,-0.003109878860414028,0.000823967857286334,-0.001605696277692914
1761505991232503800,3.52350390625,0.0020497296936810017,-0.0005781864747405052,0.0006052600801922381
1761505991242539800,3.533539794921875,-0.000010706949979066849,0.0010117713827639818,-0.001360527821816504
1761505991252576000,3.543575927734375,-0.0009667817503213882,-0.00013205618597567081,-0.0014803701778873801
1761505991262612000,3.553612060546875,0.00011002132669091225,-0.0015501065645366907,-0.0010505991522222757
1761505991272648000,3.56364794921875,-0.0007320703007280827,-0.0007879096083343029,-0.0013848259113729
1761505991282684000,3.573683837890625,-0.0009747976437211037,-0.00002272031269967556,-0.0009527719812467694
1761505991292719900,3.583719970703125,0.0005884780548512936,0.00122523691970855,0.0003769444301724434
1761505991302755800,3.593755859375,0.0005654855631291866,-0.00209648534655571,-0.0013414486311376095
1761505991312791800,3.603791748046875,-0.001991415396332741,-0.0021462864242494106,-0.0003155989106744528
1761505991322827800,3.613827880859375,-0.00026286114007234573,-0.0005456260405480862,-0.0007647635648027062
1761505991332863700,3.62386376953125,-0.0010879086330533028,-0.0012170090340077877,-0.00006408593617379665
1761505991342899700,3.633899658203125,0.0004101702943444252,0.0009621260687708855,0.0007876846357248724
1761505991352935700,3.643935791015625,0.0027492244262248278,0.0003975359722971916,0.00189662491902709
1761505991362972000,3.653971923828125,-0.0015428680926561356,-0.0002060425467789173,0.0001238012919202447
1761505991373008000,3.6640078125,-0.0009148949757218361,0.0010768021456897259,-0.001080213813111186
1761505991383043800,3.6740439453125,-0.0003294306807219982,0.0026899175718426704,0.001642958726733923
1761505991393079800,3.684079833984375,-0.000899879727512598,0.000951672438532114,-0.001132854144088924
1761505991403115800,3.69411572265625,-0.0004938505589962006,-0.0014888602308928967,0.0006459241267293692
1761505991413151700,3.70415185546875,0.0008028429001569748,0.001833166927099228,-0.0009386567398905754
1761505991423187700,3.714187744140625,-0.001486839260905981,-0.0005624422337859869,-0.00015061756130307913
1761505991433222700,3.72422265625,0.0012588798999786377,0.003515656339004636,0.003881674725562334
1761505991443259000,3.7342587890625,-0.0018243170343339443,0.000024417415261268616,-0.0020804936066269875
1761505991453294800,3.744294921875,-0.0023076809011399746,-0.0014834643807262182,-0.0011068419553339481
1761505991463330800,3.754330810546875,0.0005249660462141037,-0.00029576942324638367,-0.0006586071103811264
1761505991473366800,3.76436669921875,-0.000351480208337307,-0.002259584376588464,0.0008546009776182473
1761505991483402800,3.77440283203125,-0.0009430032223463058,0.001780103542841971,0.0000910215312615037
1761505991493438700,3.784438720703125,-0.0008356780745089054,-0.00040235696360468864,-0.0014573404332622886
1761505991503474700,3.794474609375,0.0009857029654085636,0.002293005818501115,0.00034449982922524214
1761505991513511000,3.804510986328125,0.0008181901648640633,0.0020623761229217052,-0.00040890846867114305
1761505991523547000,3.814546875,0.0007043466903269291,0.0003861661534756422,-0.000952324946410954
1761505991533582800,3.824582763671875,0.0010955650359392166,-0.0010900241322815418,-0.0005714927101507783
1761505991543618800,3.834618896484375,-0.00006841076537966728,0.0022722752764821053,-0.0005487544694915414
1761505991553654800,3.84465478515625,-0.0006636274047195911,-0.0012332438491284847,-0.00256902864202857
1761505991563691000,3.85469091796875,0.0005691698752343655,-0.0010042975191026926,0.00036557111889123917
1761505991573727000,3.86472705078125,-0.0018204846419394016,0.0006649720016866922,-0.00193460111040622
1761505991583763000,3.874762939453125,-0.0011786124669015408,0.0006029331125319004,0.0008963075815699995
1761505991593799000,3.884798828125,0.0008983868174254894,0.0010079999919980764,-0.0007700324058532715
1761505991603835000,3.8948349609375,-0.0017979545518755913,0.000715798931196332,0.0015647736145183444
1761505991613870800,3.904870849609375,-0.0031460467725992203,-0.0004594540223479271,-0.00023126218002289534
1761505991623906800,3.91490673828125,0.000538138672709465,-0.0021155502181500196,-0.0007906930986791849
1761505991633942800,3.92494287109375,0.0009855497628450394,0.004445146769285202,0.00038775557186454535
1761505991643978800,3.934978759765625,0.0012024319730699062,-0.0007494552992284298,0.000584143737796694
1761505991654014700,3.9450146484375,0.0011422447860240936,0.001107034389860928,0.00255088834092021
1761505991664050000,3.9550498046875,0.0032226042822003365,-0.0014879005029797554,0.0016323411837220192
1761505991674086000,3.9650859375,-0.0016485834494233131,0.0004133302718400955,-0.001923777861520648
1761505991684121900,3.975121826171875,-0.0006455564871430397,0.0005249024834483862,-0.001681181020103395
1761505991694157800,3.98515771484375,0.000053256750106811523,0.0004705740138888359,-0.0000068517401814460754
1761505991704193800,3.99519384765625,-0.0006293426267802715,0.0021121948957443237,0.002673664828762412
1761505991714229800,4.005229736328125,0.0008322000503540039,-0.000016736099496483803,-0.0012723408872261643
1761505991724265700,4.015265625,-0.0023443331010639668,-0.002818114124238491,-0.0007200632244348526
1761505991734301700,4.0253017578125,0.0005401372909545898,0.0008743586950004101,0.00006397138349711895
1761505991744338000,4.035337890625,0.0008955011144280434,0.001679730135947466,-0.0011012894101440907
1761505991754372900,4.045372802734375,0.0010627475567162037,-0.001410335535183549,-0.0006544110365211964
1761505991764408800,4.055408935546875,0.00042750313878059387,-0.0009143946226686239,-0.0008131623035296798
1761505991774444800,4.06544482421875,-0.0007075360044836998,-0.0013817793224006891,-0.0010211552726104856
1761505991784480800,4.075480712890625,0.0005523194558918476,0.001432298682630062,0.0007626863662153482
1761505991794516700,4.085516845703125,0.003115079365670681,0.0010037960018962622,0.0008058295352384448
1761505991804552700,4.095552734375,0.0014237449504435062,0.00012067495845258236,0.0037051732651889324
1761505991814588700,4.105588623046875,-0.002280179411172867,0.0016341493465006351,-0.00034389691427350044
1761505991824625000,4.115625,0.000049110036343336105,-0.0018316113855689764,0.000316953519359231
1761505991834660900,4.125660888671875,-0.0018736920319497585,-0.002427093917503953,0.00044851365964859724
1761505991844696800,4.13569677734375,-0.0019134222529828548,-0.000555871520191431,-0.0008925575530156493
1761505991854732800,4.14573291015625,-0.0007546809501945972,0.0002366853877902031,0.0001948110293596983
1761505991864768800,4.155768798828125,-0.002964222338050604,0.004499404691159725,-0.0009110197424888611
1761505991874804700,4.1658046875,0.0009026871994137764,-0.00035260827280581,-0.0006673403549939394
1761505991884840700,4.1758408203125,-0.0008713616989552975,0.0008844886906445026,-0.0010361323365941644
1761505991894876700,4.185876708984375,-0.00037441588938236237,-0.0019768113270401955,0.0016264960868284106
1761505991904912600,4.19591259765625,0.0007826643995940685,-0.0006992171984165907,-0.0016102618537843227
1761505991914948900,4.205948974609375,-0.001444270834326744,0.001064061769284308,0.0013061659410595894
1761505991924984800,4.21598486328125,0.0018010837957262993,-0.0005425778217613697,0.000867854745592922
1761505991935020800,4.226020751953125,-0.000790704507380724,-0.0009668194688856602,0.0007283050799742341
1761505991945055700,4.2360556640625,0.0004776902496814728,-0.00004093418829143047,-0.001506757689639926
1761505991955091700,4.246091796875,0.0006614481098949909,0.0006658686324954033,-0.0010521560907363892
1761505991965128000,4.2561279296875,-0.0018141348846256733,-0.0006856478285044432,0.0016958742635324597
1761505991975164000,4.266163818359375,-0.0020519550889730453,-0.0002576778642833233,0.001696939580142498
1761505991985199900,4.276199951171875,-0.0011126394383609295,0.0006300050299614668,-0.00009221117943525314
1761505991995235800,4.28623583984375,-0.0001515042968094349,0.0013879407197237015,0.0009344374411739409
1761505992005271800,4.296271728515625,0.0005932962521910667,0.002346763387322426,0.0017809347482398152
1761505992015307800,4.306307861328125,0.0020870633888989687,-0.0014596928376704454,0.00354980630800128
1761505992025344000,4.316343994140625,-0.0009106532670557499,0.00041274726390838623,-0.0015640243655070662
1761505992035380000,4.3263798828125,-0.0008134478703141212,-0.0017068625893443823,0.0006730310269631445
1761505992045416000,4.336416015625,-0.000028969720005989075,-0.0005597751587629318,0.00013964204117655754
1761505992055452000,4.346451904296875,0.004051791969686747,0.0003145404625684023,-0.0012172386050224304
1761505992065488000,4.35648779296875,-0.000498372595757246,-0.0003373045474290848,-0.00014192168600857258
1761505992075523800,4.36652392578125,-0.0009226142428815365,-0.000028377864509820938,0.00031454418785870075
1761505992085559800,4.376559814453125,0.0009381873533129692,0.0016967699630185962,0.001160056097432971
1761505992095595800,4.386595703125,0.0010513714514672756,0.00039288634434342384,-0.000830124132335186
1761505992105632000,4.396632080078125,0.0012092511169612408,-0.0007123355753719807,0.00014540157280862331
1761505992115668000,4.40666796875,0.0012723682448267937,0.0022581543307751417,-0.002066353801637888
1761505992125704000,4.416703857421875,0.00011008558794856071,-0.00036624609492719173,0.0019489515107125044
1761505992135739100,4.4267392578125,-0.0006603668443858624,0.0017733374843373895,0.00016090518329292536
1761505992145775000,4.436775146484375,0.0008659590966999531,-0.0013418167363852262,-0.001039318274706602
1761505992155811000,4.44681103515625,-0.000951648224145174,0.0018675585743039846,-0.0006587526295334101
1761505992165847000,4.456846923828125,0.001086447387933731,-0.0011214562691748142,-0.0006975431460887194
1761505992175883000,4.466883056640625,-0.0005242321640253067,-0.0000199729111045599,-0.0003918121801689267
1761505992185919000,4.4769189453125,0.001157455611974001,-0.0016997274942696095,0.0017769737169146538
1761505992195955000,4.486954833984375,0.0021588043309748173,0.0010348064824938774,-0.00013118120841681957
1761505992205991000,4.496990966796875,-0.0017213989049196243,0.004177105147391558,0.0007925752433948219
1761505992216027100,4.507027099609375,0.0009801117703318596,-0.001583844656124711,0.0005968328914605081
1761505992226063000,4.51706298828125,-0.001957849133759737,0.0012534144334495068,0.00009288964793086052
1761505992236099000,4.52709912109375,0.00036149797961115837,0.00014287629164755344,0.0014593575615435839
1761505992246135300,4.53713525390625,-0.0010010306723415852,-0.00028668763116002083,-0.0010220877593383193
1761505992256171300,4.547171142578125,0.0001614391803741455,-0.0012917646672576666,-0.0014138388214632869
1761505992266207200,4.557207275390625,0.0010035494342446327,-0.0003657401539385319,-0.0017590979114174843
1761505992276243200,4.5672431640625,-0.0020806570537388325,-0.0012895907275378704,0.00046996783930808306
1761505992286279200,4.577279052734375,-0.0008446467109024525,0.0007703539449721575,-0.000241166097112
1761505992296316200,4.587316162109375,0.0006331414915621281,0.0010249522747471929,-0.00041027681436389685
1761505992306352000,4.59735205078125,0.0019128676503896713,-0.0011855554766952991,0.0005242282059043646
1761505992316388000,4.60738818359375,0.0010950108990073204,-0.0019227187149226665,0.001340487040579319
1761505992326424000,4.617424072265625,-0.001188362017273903,-0.0016991549637168646,0.0007217031670734286
1761505992336460000,4.6274599609375,-0.0002629132941365242,-0.001304208068177104,0.0019656657241284847
1761505992346496000,4.63749609375,-0.0013262624852359295,0.0011813400778919458,-0.0006161732599139214
1761505992356532200,4.6475322265625,0.0007243715226650238,-0.00009910785593092442,0.0005566828767769039
1761505992366568200,4.657568115234375,-0.00150615768507123,-0.0032840408384799957,0.00013899849727749825
1761505992376604200,4.667604248046875,0.00037749623879790306,0.0008656969293951988,-0.0006679391954094172
1761505992386640100,4.67764013671875,0.0011630062945187092,0.0007639059331268072,-0.0008818948408588767
1761505992396675000,4.687675048828125,0.0018232041038572788,0.0009492619428783655,0.000634242664091289
1761505992406711000,4.6977109375,0.00006264867261052132,0.0012627290561795235,0.0005604612524621189
1761505992416747000,4.7077470703125,-0.0019725393503904343,-0.0034497343003749847,0.00031864619813859463
1761505992426783000,4.717782958984375,-0.001439007930457592,-0.001052329782396555,-0.0007906877435743809
1761505992436819200,4.727819091796875,0.0011463891714811325,-0.0016320999711751938,-0.0005123873706907034
1761505992446855200,4.737855224609375,0.001548160333186388,-0.0012187925167381763,-0.0002533453516662121
1761505992456891100,4.74789111328125,-0.001348559744656086,0.0000366216991096735,-0.000026710331439971924
1761505992466927000,4.757927001953125,0.001993275247514248,-0.0006130693946033716,0.0010654432699084282
1761505992476963000,4.767963134765625,-0.0002304641529917717,-0.0007494231685996056,-0.002005447866395116
1761505992486999000,4.7779990234375,0.0016465596854686737,0.000872164499014616,0.00048297340981662273
1761505992497035000,4.788034912109375,-0.0016728043556213379,0.002699625678360462,-0.0005050592590123415
1761505992507071000,4.798071044921875,-0.0016757836565375328,-0.0018476760014891624,-0.0016677516978234053
1761505992517107000,4.80810693359375,-0.00028721150010824203,-0.00008706026710569859,-0.0009604161605238914
1761505992527143000,4.818142822265625,0.00017989613115787506,-0.000188533216714859,-0.0019202742259949446
1761505992537179100,4.82817919921875,0.00019800569862127304,0.0010716745164245367,0.0003151833079755306
1761505992547215000,4.838215087890625,-0.0005340930074453354,0.002266556490212679,-0.0007280095014721155
1761505992557251300,4.848251220703125,-0.0029935226775705814,-0.0015878365375101566,0.0004965120460838079
1761505992567287300,4.858287353515625,-0.00015457440167665482,0.00003683660179376602,-0.001131356810219586
1761505992577322000,4.868322021484375,-0.001665651798248291,0.00043790857307612896,-0.00020218000281602144
1761505992587358200,4.878358154296875,-0.00023779552429914474,-0.0009849404450505972,0.0006191987195052207
1761505992597394200,4.888394287109375,-0.00026735663414001465,-0.002892829244956374,0.0009555559372529387
1761505992607430100,4.89843017578125,-0.0014885789714753628,0.001151705626398325,0.0014831533189862967
1761505992617466000,4.908466064453125,0.0012470199726521969,0.0030995416454970837,0.0003598319599404931
1761505992627502000,4.918502197265625,0.0012684990651905537,-0.0022933173459023237,0.000058619421906769276
1761505992637538300,4.928538330078125,-0.001985084731131792,-0.0020086250733584166,0.000816288695205003
1761505992647574300,4.93857421875,0.0008222386240959167,0.0008023644331842661,-0.00002626609057188034
1761505992657610200,4.9486103515625,0.0019679307006299496,-0.00021842517890036106,0.0005937177920714021
1761505992667646200,4.958646240234375,0.00023656105622649193,0.0012460388243198395,-0.0007611437467858195
1761505992677682200,4.96868212890625,0.000720989890396595,0.0022820085287094116,-0.0026234923861920834
1761505992687718100,4.97871826171875,-0.000542694702744484,0.00230989302508533,0.0018971327226608992
1761505992697754000,4.988754150390625,0.0020070159807801247,0.00012423680163919926,0.0000837863190099597
1761505992707790000,4.9987900390625,-0.00421051774173975,-0.0025816948618739843,0.001016803551465273
1761505992717826000,5.008825927734375,-0.00025013042613863945,-0.0006847253534942865,0.00019921304192394018
1761505992727862000,5.018862060546875,-0.0006661941297352314,-0.0012711382005363703,0.0019330054055899382
1761505992737898000,5.02889794921875,0.000027292873710393906,0.0011928182793781161,-0.0008678411832079291
1761505992747933200,5.03893310546875,-0.00003452319651842117,-0.0007231070194393396,0.0003232564777135849
1761505992757969200,5.04896923828125,-0.0017381468787789345,0.0003048733342438936,0.001596780028194189
1761505992768005000,5.059005126953125,0.0008864076808094978,0.0008038945961743593,-0.000015025143511593342
1761505992778041000,5.069041015625,0.0015093213878571987,-0.00009119370952248573,-0.002568197902292013
1761505992788077000,5.0790771484375,-0.00005352683365345001,0.0016552010783925653,-0.0006359730614349246
1761505992798113000,5.089113037109375,-0.0019520940259099007,-0.000603159423917532,-0.002075411844998598
1761505992808149000,5.09914892578125,0.0006381096318364143,-0.0018418163526803255,-0.0002773071173578501
1761505992818185200,5.109185302734375,-0.0003469935618340969,-0.0003861323930323124,-0.0008102055871859193
1761505992828221200,5.11922119140625,0.0014014174230396748,0.0036344118416309357,-0.0016523466911166906
1761505992838257200,5.129257080078125,0.0008946177549660206,0.0017060168320313096,-0.0027026976458728313
1761505992848293000,5.139293212890625,0.0008914065547287464,-0.0001636827364563942,0.0005304044461809099
1761505992858329000,5.1493291015625,0.0016330969519913197,-0.0011929944157600403,-0.000037647783756256104
1761505992868365000,5.159364990234375,0.00011824769899249077,-0.001292212400585413,0.0009403970907442272
1761505992878401000,5.169401123046875,0.0019505023956298828,-0.0007105779368430376,0.0015995295252650976
1761505992888437000,5.17943701171875,-0.001747335772961378,-0.001801084727048874,-0.0014782054349780083
1761505992898473000,5.189472900390625,0.0013919984921813011,0.000860744621604681,0.0003465925110504031
1761505992908509000,5.199509033203125,-0.0020530144684016705,0.0009256647899746895,0.0009027214837260544
1761505992918545000,5.209544921875,-0.00019173137843608856,0.0006401739083230495,0.0004936599871143699
1761505992928581000,5.2195810546875,-0.002017797902226448,-0.00041451025754213333,-0.001528206281363964
1761505992938616000,5.229615966796875,-0.0002670353278517723,0.0004246518947184086,-0.00039449858013540506
1761505992948652000,5.239652099609375,-0.0016935919411480427,-0.0006830424536019564,-0.0008170650107786059
1761505992958688000,5.24968798828125,-0.0005513620562851429,0.001094351289793849,0.0003541932674124837
1761505992968724000,5.259723876953125,0.0010022055357694626,0.002235099906101823,0.0013972437009215355
1761505992978760000,5.269760009765625,-0.001006084494292736,-0.0012067696079611778,-0.0009873505914583802
1761505992988796200,5.279796142578125,-0.000029496848583221436,-0.0007271645590662956,0.00016728101763874292
1761505992998832000,5.28983203125,0.0013196603395044804,-0.00211440515704453,0.001583816483616829
1761505993008868000,5.2998681640625,-0.00039114244282245636,0.0009224163368344307,-0.0002536549000069499
1761505993018904300,5.309904296875,-0.0016590734012424946,0.0012281471863389015,0.0014947103336453438
1761505993028940300,5.319940185546875,0.00007732352241873741,-0.002947230124846101,-0.0017812923761084676
1761505993038976300,5.329976318359375,0.000399033073335886,0.000008878763765096664,0.00010449194815009832
1761505993049012200,5.34001220703125,-0.0008890097960829735,0.003279802156612277,-0.001885239384137094
1761505993059048200,5.350048095703125,-0.0003057774156332016,-0.00016126828268170357,-0.0033198841847479343
1761505993069084200,5.360084228515625,-0.0016159708611667156,-0.0023464651312679052,0.002499484922736883
1761505993079120100,5.3701201171875,-0.0016987952403724194,-0.002689480548724532,0.0004616340156644583
1761505993089156000,5.380156005859375,0.0006251591257750988,-0.0008631893433630466,-0.0005147785414010286
1761505993099191600,5.390191650390625,0.000857919454574585,-0.0013896964956074953,-0.0018378370441496372
1761505993109227500,5.4002275390625,0.0017775739543139935,-0.0031313905492424965,0.00006635731551796198
1761505993119263500,5.410263427734375,-0.00009516067802906036,0.0011283357162028551,-0.0009738734224811196
1761505993129299500,5.420299560546875,0.0003865174949169159,0.0021380006801337004,0.000056776334531605244
1761505993139335400,5.43033544921875,-0.0018257703632116318,0.001250635483302176,0.0012003376614302397
1761505993149371400,5.440371337890625,0.00026076193898916245,-0.00019315583631396294,0.0010242611169815063
1761505993159407400,5.450407470703125,-0.002002658788114786,-0.00008583045564591885,0.0010186685249209404
1761505993169443300,5.460443359375,-0.0012431503273546696,0.00040485034696757793,-0.00004722783342003822
1761505993179479300,5.470479248046875,0.0016274708323180676,-0.0009136807639151812,0.000795129977632314
1761505993189515300,5.480515380859375,-0.0033024693839251995,0.0006883265450596809,-0.00028591463342309
1761505993199551200,5.49055126953125,0.00023420853540301323,0.0021834252402186394,-0.0008443795377388597
1761505993209587500,5.50058740234375,-0.0024651982821524143,-0.0025767385959625244,-0.0017517338274046779
1761505993219623700,5.510623779296875,0.00024803075939416885,-0.0009162575006484985,-0.0003269427688792348
1761505993229659600,5.52065966796875,-0.000016849488019943237,-0.0016480255872011185,0.0009074941044673324
1761505993239695600,5.530695556640625,-0.001450162846595049,0.0011616094270721078,-0.0010446030646562576
1761505993249731600,5.540731689453125,-0.001080803107470274,-0.0009667633567005396,0.0015109782107174397
1761505993259766300,5.550766357421875,-0.0020022564567625523,0.000016742153093218803,0.0014582476578652859
1761505993269802500,5.560802490234375,0.0008052387274801731,0.00019496725872159004,0.0015946681378409266
1761505993279838500,5.57083837890625,-0.00020942557603120804,-0.0029584818985313177,0.00045323732774704695
1761505993289874400,5.58087451171875,0.001029863953590393,-0.0014563286677002907,0.001487194444052875
1761505993299910700,5.59091064453125,-0.0014407504349946976,-0.00025417772121727467,0.0005268586101010442
1761505993309946600,5.600946533203125,0.0009252023883163929,0.0009430078789591789,0.0002685193903744221
1761505993319982600,5.610982666015625,-0.0014482070691883564,-0.0006484971381723881,-0.00027476553805172443
1761505993330018600,5.6210185546875,0.0006325691938400269,-0.0006392600480467081,0.00018266099505126476
1761505993340054500,5.631054443359375,0.00018222862854599953,0.0005780709907412529,0.0006585679366253316
1761505993350090500,5.641090576171875,-0.00207670871168375,0.0011496483348309994,-0.0022018100135028362
1761505993360126500,5.65112646484375,0.0014503812417387962,-0.0007278802804648876,0.002865386661142111
1761505993370162400,5.661162353515625,-0.0011337623000144958,-0.0023864221293479204,0.000022596213966608047
1761505993380198400,5.671198486328125,0.0005456274375319481,0.0032504242844879627,0.0007632213528268039
1761505993390234400,5.681234375,-0.00007759127765893936,0.004610124044120312,-0.001048845937475562
1761505993400270300,5.691270263671875,0.000869428738951683,-0.0018011699430644512,-0.001632611034438014
1761505993410305500,5.701305419921875,0.00011617830023169518,0.001281818258576095,0.001774776028469205
1761505993420341500,5.711341552734375,-0.0006745145656168461,-0.0008678853046149015,-0.0004303212044760585
1761505993430377500,5.72137744140625,-0.0012603560462594032,0.0044386982917785645,0.00006314110942184925
1761505993440413400,5.731413330078125,-0.0029948726296424866,0.004116722382605076,0.000270601361989975
1761505993450449400,5.741449462890625,0.0009447187185287476,-0.00048510939814150333,-0.0016313267406076193
1761505993460485400,5.7514853515625,-0.0026604020968079567,-0.0005849779117852449,0.00037696294020861387
1761505993470521300,5.761521240234375,0.000779440626502037,0.00006276741623878479,0.0008529718033969402
1761505993480557600,5.7715576171875,0.0003165830858051777,-0.0007777262944728136,0.0008244759519584477
1761505993490593500,5.781593505859375,0.0032334751449525356,-0.001381443114951253,0.0005183968460187316
1761505993500629500,5.79162939453125,-0.00048163440078496933,0.0023142253048717976,0.0013788641663268209
1761505993510665500,5.80166552734375,-0.0011794320307672024,-0.0009365417063236237,0.0007268377230502665
1761505993520701400,5.811701416015625,0.000895969569683075,0.0016411319375038147,-0.0007810440147295594
1761505993530737400,5.8217373046875,0.0015708203427493572,0.0007233188953250647,0.00036923110019415617
1761505993540773400,5.8317734375,-0.000490998849272728,0.0026075055357068777,-0.0008763293735682964
1761505993550809300,5.841809326171875,0.0010197535157203674,-0.00011950009502470493,-0.002762335818260908
1761505993560844500,5.851844482421875,0.0010991157032549381,0.001112478319555521,0.0015583767089992762
1761505993570880500,5.861880615234375,-0.00019449135288596153,0.0008723996579647064,0.0008749944972805679
1761505993580916500,5.87191650390625,-0.0004581441171467304,-0.00021310476586222649,0.0038896927144378424
1761505993590952400,5.881952392578125,-0.0003402731381356716,-0.000556151382625103,0.0007571557653136551
1761505993600988400,5.891988525390625,0.0022302097640931606,-0.000133241293951869,-0.00023567071184515953
1761505993611024400,5.9020244140625,0.0005977144464850426,-0.002138470532372594,0.00146558100823313
1761505993621060400,5.912060302734375,-0.0019128471612930298,-0.0012508390937000513,0.00012814148794859648
1761505993631096300,5.922096435546875,0.001348061952739954,0.0016626084689050913,0.0008833095780573785
1761505993641132300,5.93213232421875,0.00017041200771927834,-0.0011691309046000242,-0.0004733046516776085
1761505993651168300,5.942168212890625,-0.000567006878554821,0.000023990869522094727,-0.00025916111189872026
1761505993661204200,5.952204345703125,-0.0018652984872460365,0.0023294894490391016,0.00034218071959912777
1761505993671240400,5.962240478515625,-0.00003359513357281685,0.0008299187757074833,-0.00004081381484866142
1761505993681276700,5.972276611328125,0.0012183571234345436,0.0015247375704348087,-0.0011843752581626177
1761505993691312600,5.982312744140625,0.001388725358992815,-0.0015948277432471514,-0.0010584858246147633
1761505993701348600,5.9923486328125,-0.0012243683449923992,0.0020427838899195194,-0.0005799157079309225
1761505993711383300,6.00238330078125,0.0003497772850096226,-0.0018269720021635294,0.0012431517243385315
1761505993721419300,6.012419189453125,-0.0009186863899230957,0.00025535374879837036,-0.0019523751689121127
1761505993731455500,6.02245556640625,-0.001732095144689083,-0.00029179523698985577,-0.0007585653802379966
1761505993741491500,6.032491455078125,0.002166240243241191,-0.0007101777009665966,-0.0009311382891610265
1761505993751527400,6.04252734375,0.00016569159924983978,-0.0002785194665193558,0.0013351585948839784
1761505993761563600,6.052563720703125,0.0004059090279042721,0.002128445543348789,-0.0007828534580767155
1761505993771599600,6.062599609375,0.0009765578433871269,-0.0007841507904231548,-0.0006901080487295985
1761505993781635600,6.072635498046875,0.00016322871670126915,0.002380483550950885,-0.0010419116588309407
1761505993791671600,6.082671630859375,0.0008194106630980968,-0.0003077967558056116,0.0008848941652104259
1761505993801707500,6.09270751953125,-0.001062112394720316,-0.0005445517599582672,0.004183751996606588
1761505993811743500,6.102743408203125,0.0014254343695938587,0.0009688891004770994,0.000019377912394702435
1761505993821779500,6.112779541015625,0.0008829482831060886,0.0005768716800957918,0.0026641632430255413
1761505993831815400,6.1228154296875,-0.00013844110071659088,0.000754685141146183,0.0020061780232936144
1761505993841850600,6.1328505859375,-0.00011074403300881386,0.0006707955617457628,0.00040135718882083893
1761505993851886600,6.142886474609375,-0.0022295350208878517,-0.005269044078886509,0.0013732935767620802
1761505993861922600,6.152922607421875,0.0016197976656258106,-0.0006183658260852098,-0.0020464714616537094
1761505993871958500,6.16295849609375,-0.002460760995745659,-0.0007819861639291048,0.001387758762575686
1761505993881994500,6.172994384765625,-0.0006141248159110546,-0.0002509518526494503,0.0010388847440481186
1761505993892030500,6.183030517578125,-0.0012563737109303474,0.00007479963824152946,0.0003481198800727725
1761505993902066400,6.19306640625,0.0003202175721526146,0.00180825125426054,-0.00008277955930680037
1761505993912102400,6.203102294921875,0.0003878609277307987,0.0013482078211382031,0.00004848861135542393
1761505993922138400,6.213138427734375,-0.0029301717877388,0.00022515282034873962,-0.0010878823231905699
1761505993932174300,6.22317431640625,-0.0016623688861727715,0.0009680127259343863,0.0026829391717910767
1761505993942210600,6.23321044921875,-0.002760922536253929,0.0006423082668334246,-0.0001437400933355093
1761505993952246500,6.24324658203125,0.0014950549229979515,-0.000053546857088804245,-0.0005625003250315785
1761505993962282500,6.253282470703125,-0.0008682343177497387,0.0003794832155108452,-0.0014205706538632512
1761505993972317400,6.2633173828125,0.00018956605345010757,0.001935125794261694,-0.0005686687072739005
1761505993982353400,6.273353515625,0.0010542944073677063,0.00004721083678305149,0.0005501252016983926
1761505993992389400,6.283389404296875,-0.001917945221066475,-0.00001743505708873272,-0.001710565877147019
1761505994002425300,6.29342529296875,-0.001893710345029831,0.0022720845881849527,0.00180294259916991
1761505994012461300,6.30346142578125,0.0019970848225057125,-0.0009281437378376722,0.000904484826605767
1761505994022497500,6.31349755859375,0.0003861389122903347,-0.0015497254207730293,0.0006118034361861646
1761505994032533500,6.323533447265625,-0.0005675540305674076,0.00035294960252940655,0.0004204665310680866
1761505994042569500,6.333569580078125,-0.00036142533645033836,-0.000595135847106576,0.0006028930656611919
1761505994052605400,6.34360546875,0.0001308610662817955,0.000533553771674633,-0.0004467293620109558
1761505994062641400,6.353641357421875,0.0022035990841686726,-0.002584208734333515,0.000008138478733599186
1761505994072677400,6.363677490234375,0.00012932997196912766,0.003399681067094207,-0.0006639916682615876
1761505994082713300,6.37371337890625,-0.0030342387035489082,-0.001291477121412754,0.00013309239875525236
1761505994092749300,6.383749267578125,0.0010416335426270962,0.0010142970131710172,-0.00046888075303286314
1761505994102785000,6.393784912109375,-0.0006302986294031143,-0.0015830839984118938,-0.00021880981512367725
1761505994112820000,6.403820068359375,0.002049400471150875,-0.0005362820811569691,0.0011222109897062182
1761505994122856000,6.41385595703125,-0.001581819262355566,0.0005734572187066078,-0.001957734813913703
1761505994132892000,6.423891845703125,0.0003620344214141369,-0.0014388756826519966,-0.004129420965909958
1761505994142928000,6.433927978515625,0.0017367582768201828,0.0013156316708773375,0.00032551458571106195
1761505994152963800,6.4439638671875,0.0011640391312539577,-0.0002631277311593294,-0.0011715107830241323
1761505994163000000,6.454,0.0001911860890686512,0.001421587890945375,0.0030866176821291447
1761505994173036000,6.4640361328125,0.0014481781981885433,0.0006138929165899754,0.0006683467072434723
1761505994183072000,6.474072021484375,0.0008345856331288815,0.0031598748173564672,-0.0023724506609141827
1761505994193108000,6.48410791015625,0.0005615274421870708,-0.0013192042242735624,0.00034980010241270065
1761505994203144200,6.494144287109375,0.0007468834519386292,0.0017687308136373758,0.0015183951472863555
1761505994213180200,6.50418017578125,-0.002205624245107174,-0.0008409132715314627,0.000463940086774528
1761505994223216000,6.514216064453125,-0.00015285983681678772,-0.0013929863926023245,0.0006919066654518247
1761505994233251000,6.5242509765625,-0.00040877144783735275,0.0009612370049580932,-0.0008895992068573833
1761505994243287000,6.534287109375,0.003956149332225323,-0.0010854022111743689,0.0003791307099163532
1761505994253323000,6.544322998046875,-0.0005985293537378311,-0.0029867743141949177,0.0011884050909429789
1761505994263359000,6.55435888671875,-0.0018563400954008102,0.00028944644145667553,0.001858190051279962
1761505994273395000,6.56439501953125,0.00046706898137927055,0.003148211631923914,-0.001796803786419332
1761505994283431200,6.57443115234375,0.001656969077885151,0.000009942799806594849,-0.0009310102323070168
1761505994293467100,6.584467041015625,0.0005802311934530735,0.00039214431308209896,-0.0007718784036114812
1761505994303503000,6.594503173828125,-0.0033812210895121098,0.0018315828638151288,-0.0016525856917724013
1761505994313539000,6.6045390625,0.0004122951067984104,-0.000854885671287775,0.00009075156413018703
1761505994323575000,6.614574951171875,-0.000230325385928154,-0.002386735752224922,0.00117652234621346
1761505994333611000,6.624611083984375,0.00030898116528987885,-0.000884895445778966,-0.0008715711301192641
1761505994343647000,6.63464697265625,-0.0006316476501524448,-0.000340811675414443,0.0014160842401906848
1761505994353682000,6.644681884765625,0.001254530157893896,0.00046683219261467457,-0.0003811650676652789
1761505994363718100,6.65471826171875,-0.0002831793390214443,-0.0007813915144652128,0.00004787021316587925
1761505994373754000,6.664754150390625,-0.0018670749850571156,0.0002957910764962435,-0.0007958185160532594
1761505994383790000,6.6747900390625,0.0014605442993342876,0.0005828798748552799,-0.0014903709525242448
1761505994393826000,6.684825927734375,-0.0006666798144578934,-0.0017478957306593657,-0.0008147761691361666
1761505994403862000,6.694862060546875,0.0004430594854056835,0.001533385133370757,-0.0011268986854702234
1761505994413898000,6.70489794921875,-0.0024415962398052216,-0.00034880172461271286,-0.000036640558391809464
1761505994423934000,6.714933837890625,-0.003924444317817688,-0.001125113107264042,0.0001497806515544653
1761505994433970000,6.724969970703125,0.000261909794062376,0.003020729636773467,0.002604702953249216
1761505994444006000,6.735005859375,0.002173793502151966,0.0021410875488072634,0.0006704491679556668
1761505994454041900,6.745041748046875,0.000630195252597332,-0.0004427067469805479,0.000743345299270004
1761505994464077800,6.755077880859375,-0.00024784915149211884,0.0010302877053618431,0.0003641111543402076
1761505994474113000,6.765113037109375,0.0017534433864057064,0.0018796134972944856,0.0018381598638370633
1761505994484149000,6.77514892578125,-0.00025111762806773186,0.0007142142858356237,0.0031777299009263515
1761505994494185000,6.78518505859375,0.002127251587808132,-0.0008604256436228752,0.0007599811069667339
1761505994504221000,6.795220947265625,0.00015704520046710968,-0.0004231345374137163,0.0006617104518227279
1761505994514257000,6.8052568359375,0.0010585193522274494,0.0015147787053138018,0.0007655098452232778
1761505994524292900,6.81529296875,0.0007368098013103008,0.002377909142524004,0.0005609790678136051
1761505994534328800,6.825328857421875,-0.001794204581528902,-0.00036815833300352097,0.0013333052629604936
1761505994544365000,6.835364990234375,0.0026612638030201197,0.00002678832970559597,0.000299466191790998
1761505994554401000,6.845401123046875,0.0012706001289188862,-0.0020747589878737926,0.0010022325441241264
1761505994564437000,6.85543701171875,-0.001643963623791933,0.0007564474362879992,-0.0011224374175071716
1761505994574473000,6.865472900390625,-0.0014978740364313126,-0.0031131592113524675,-0.00255759758874774
1761505994584508000,6.8755078125,0.0019876710139214993,0.0006874380633234978,0.0011101081036031246
1761505994594543900,6.8855439453125,0.000016376841813325882,0.001081085647456348,-0.00031643593683838844
1761505994604579800,6.895579833984375,-0.0017759301699697971,0.0012153089046478271,-0.003147376235574484
1761505994614615800,6.90561572265625,0.0005132234655320644,-0.0010400600731372833,0.000013195094652473927
1761505994624652000,6.915652099609375,-0.0011781500652432442,0.0004654247313737869,-0.00018361257389187813
1761505994634688000,6.92568798828125,0.000225055031478405,-0.0024387724697589874,0.00039833353366702795
1761505994644724000,6.935723876953125,0.001024802215397358,-0.002814012113958597,-0.0012847842881456017
1761505994654760000,6.945760009765625,0.0015719183720648289,-0.0000668652355670929,0.0017562310677021742
1761505994664796200,6.955796142578125,-0.0003010830841958523,-0.00021067587658762932,0.001371670630760491
1761505994674832100,6.96583203125,-0.0012152688577771187,-0.00024581514298915863,-0.0017588812625035644
1761505994684868000,6.9758681640625,-0.00016118958592414856,-0.0021566329523921013,0.0015932394890114665
1761505994694904000,6.985904052734375,-0.0005338257178664207,0.000044653890654444695,0.0016285099554806948
1761505994704939000,6.99593896484375,-0.0006209108978509903,-0.0006650786381214857,0.000745938450563699
1761505994714975000,7.00597509765625,0.0006399275735020638,-0.0019145580008625984,0.0012501811143010855
1761505994725011200,7.01601123046875,0.0013680360279977322,-0.0004343728069216013,0.0011662915349006653
1761505994735047200,7.026047119140625,-0.00025429902598261833,0.0008629728108644485,-0.0018208263209089637
1761505994745083100,7.036083251953125,-0.002795487642288208,-0.001408170908689499,0.0016181136015802622
1761505994755119000,7.046119140625,0.0014674854464828968,0.004020594991743565,0.002826760755851865
1761505994765155000,7.056155029296875,-0.0003674328327178955,0.00004982203245162964,0.0019710869528353214
1761505994775191000,7.06619091796875,0.0010852692648768425,0.0022177319042384624,0.00156038673594594
1761505994785227000,7.07622705078125,-0.0034809866920113564,-0.00046060909517109394,0.002208866411820054
1761505994795263000,7.086262939453125,0.0012218127958476543,-0.002852676436305046,0.0002568416530266404
1761505994805299000,7.096298828125,-0.00009458744898438454,0.0007585701532661915,0.0016683170106261969
1761505994815334100,7.106334228515625,-0.0019243424758315086,-0.0010880294721573591,0.00011292635463178158
1761505994825370000,7.1163701171875,-0.0017293989658355713,0.0009189285337924957,-0.0008213105611503124
1761505994835406000,7.126406005859375,0.0006563230417668819,0.00022141984663903713,-0.0007263891166076064
1761505994845442000,7.136442138671875,-0.0003905659541487694,0.0010368798393756151,-0.002069687470793724
1761505994855478000,7.14647802734375,0.0006175604648888111,-0.0007608132436871529,0.0018489111680537462
1761505994865514000,7.156513916015625,0.00003965431824326515,0.0015848991461098194,-0.00035272398963570595
1761505994875550000,7.166550048828125,-0.0004938445053994656,0.0017847397830337286,-0.0012596242595463991
1761505994885586000,7.1765859375,0.0003232131712138653,-0.001362051349133253,-0.0004960958613082767
1761505994895622000,7.186621826171875,0.0011874823831021786,-0.0003018612042069435,0.0004927290719933808
1761505994905658000,7.196658203125,0.0026104093994945288,0.0019940498750656843,0.0005119037814438343
1761505994915694000,7.206694091796875,0.0016128774732351303,-0.0002536324318498373,0.00010022672358900309
1761505994925729000,7.21672900390625,0.0002828948199748993,0.00024278066121041775,0.0019484604708850384
1761505994935765000,7.226764892578125,0.0022332072257995605,0.00050553516484797,0.001386916497722268
1761505994945801000,7.236801025390625,-0.0002784198150038719,-0.000820985296741128,0.0014929103199392557
1761505994955837000,7.2468369140625,-0.00010003568604588509,-0.0016844449564814568,0.000485328899230808
1761505994965873000,7.256872802734375,-0.00005635945126414299,-0.0004154485650360584,-0.0004891217686235905
1761505994975909000,7.2669091796875,0.00413742009550333,-0.0027999880257993937,0.0007417514570988715
1761505994985945000,7.276945068359375,-0.00012124096974730492,0.0017715941648930311,-0.00031419191509485245
1761505994995981000,7.28698095703125,-0.0006847735494375229,-0.00021423841826617718,-0.0010636490769684315
1761505995006017000,7.29701708984375,-0.0007090084254741669,0.0012797950766980648,-0.0009547257795929909
1761505995016053000,7.307052978515625,-0.00016695866361260414,-0.0008769484702497721,-0.0008193515241146088
1761505995026089000,7.3170888671875,-0.0004870705306529999,-0.001314505934715271,-0.000008419039659202099
1761505995036124000,7.3271240234375,-0.00180740375071764,-0.0007517724297940731,-0.0013902829959988594
1761505995046160000,7.337159912109375,0.0017348667606711388,0.0010149687295779586,0.00018178101163357496
1761505995056196000,7.347196044921875,-0.0022362112067639828,-0.0002703468780964613,-0.0004678915720432997
1761505995066232000,7.357232177734375,0.0021721194498240948,-0.0006964525673538446,-0.0001150226453319192
1761505995076268000,7.36726806640625,-0.0016379677690565586,-0.0013756239786744118,0.00090724480105564
1761505995086304000,7.377303955078125,-0.001035560853779316,-0.0008917276281863451,0.0001727449707686901
1761505995096340000,7.387340087890625,-0.000572702381759882,-0.0006081513129174709,-0.00008475419599562883
1761505995106375400,7.39737548828125,-0.0011732452549040318,0.00005630729719996452,-0.00012869632337242365
1761505995116411400,7.407411376953125,0.000928293913602829,0.0019570142030715942,-0.00040463381446897984
1761505995126447400,7.417447265625,-0.0033173179253935814,-0.0012904442846775055,-6.32251612842083e-7
1761505995136482600,7.427482666015625,-0.00047056423500180244,-0.001274379901587963,0.0026263114996254444
1761505995146518500,7.4375185546875,-0.001427704468369484,0.002185865305364132,-0.0009609664557501674
1761505995156554500,7.447554443359375,0.0004807705990970135,-0.0011932654306292534,-0.0018242901423946023
1761505995166590500,7.457590576171875,-0.00034720590338110924,-0.003139237407594919,0.0005525812157429755
1761505995176626400,7.46762646484375,0.0022230343893170357,-0.001741686835885048,-0.0011075141374021769
1761505995186662400,7.477662353515625,-0.0009746230207383633,-0.000805585877969861,-0.00012001406867057085
1761505995196698400,7.487698486328125,-0.001284430269151926,0.0007111129816621542,-0.0016056426102295518
1761505995206734300,7.497734375,-0.0004330174997448921,-0.00034003681503236294,0.0028700660914182663
1761505995216770300,7.507770263671875,-0.0008924198336899281,0.003062550676986575,0.000352504663169384
1761505995226806500,7.517806640625,0.00018003489822149277,-0.00007678358815610409,-0.0032273163087666035
1761505995236841500,7.527841552734375,0.0020760642364621162,-0.0017610893119126558,0.0026795342564582825
1761505995246877400,7.53787744140625,0.002566618612036109,-0.0019528369884938002,-0.002702447585761547
1761505995256913400,7.547913330078125,0.00003505265340209007,-0.002542827744036913,0.0001224013976752758
1761505995266949400,7.557949462890625,-0.0004443163052201271,-0.0024086041375994682,0.001449987175874412
1761505995276985300,7.5679853515625,-0.0011739316396415234,-0.002596571808680892,-0.0007077576592564583
1761505995287021300,7.578021240234375,-0.00018243677914142609,-0.0006958737503737211,0.0016914841253310442
1761505995297057300,7.588057373046875,0.0011317012831568718,-0.0023226626217365265,-0.00028736493550240993
1761505995307093500,7.598093505859375,-0.0018885894678533077,-0.001323710661381483,0.0002178366994485259
1761505995317129700,7.608129638671875,-0.0006070192903280258,-0.0004378161393105984,-0.002023526933044195
1761505995327165700,7.618165771484375,-0.00031620170921087265,0.00018855929374694824,0.0004319074796512723
1761505995337201700,7.62820166015625,0.0005408427678048611,0.0005344788078218699,-0.0008139344863593578
1761505995347236400,7.638236328125,-0.001829370390623808,-0.0017776775639504194,-0.0016341879963874817
1761505995357272300,7.648272216796875,0.000925110187381506,-0.00018178182654082775,-0.000908540328964591
1761505995367308300,7.658308349609375,0.0003826241008937359,-0.001739198574796319,-0.0010805805213749409
1761505995377344500,7.668344482421875,-0.0013082637451589108,-0.0013410148676484823,-0.000712993205524981
1761505995387380500,7.67838037109375,0.0017096302472054958,0.001983941998332739,0.00003961601760238409
1761505995397416700,7.688416748046875,-0.0008750278502702713,0.0038894913159310818,-0.0006272095488384366
1761505995407452700,7.69845263671875,0.0007484350353479385,-0.0013995463959872723,0.00006894080433994532
1761505995417488600,7.708488525390625,0.0005176314152777195,-0.00024378695525228977,0.0009363479912281036
1761505995427524600,7.718524658203125,-0.002577228005975485,-0.0006989212706685066,-0.002129483036696911
1761505995437560600,7.728560546875,0.0000389711931347847,-0.002560744294896722,-0.0007247058674693108
1761505995447595500,7.738595458984375,0.00020568538457155228,-0.001954076113179326,0.00020127533935010433
1761505995457631500,7.748631591796875,0.0009525339119136333,-0.0006266704294830561,-0.0010007484816014767
1761505995467667500,7.75866748046875,0.0004020589403808117,0.00032594241201877594,-0.0009626653045415878
1761505995477703700,7.76870361328125,0.0008487901650369167,0.0014981196727603674,-0.0033422703854739666
1761505995487739600,7.77873974609375,-0.0028319647535681725,-0.003570142202079296,0.00003355252556502819
1761505995497775600,7.788775634765625,0.0016292803920805454,0.000855262391269207,-0.0009978687157854438
1761505995507811600,7.7988115234375,0.00046468013897538185,0.0005284924991428852,0.00005035148933529854
1761505995517847600,7.80884765625,0.0016687661409378052,-0.0011087297461926937,0.0008309569675475359
1761505995527883500,7.818883544921875,0.000656498596072197,-0.0003308206796646118,-0.00028277700766921043
1761505995537918500,7.82891845703125,-0.00042764097452163696,0.002522294642403722,0.003830378409475088
1761505995547954400,7.838954345703125,0.0010767783969640732,-0.0010577929206192493,-0.0020874314941465855
1761505995557990700,7.84899072265625,-0.0009626476094126701,0.0008572589140385389,-0.002875974401831627
1761505995568026600,7.859026611328125,-0.00006143422797322273,-0.00004049250856041908,-0.0005819272482767701
1761505995578062600,7.8690625,-0.0001689232885837555,-0.00025341776199638844,-0.000812433660030365
1761505995588098600,7.8790986328125,0.000544804148375988,-0.0030555957928299904,0.0015830796910449862
1761505995598134500,7.889134521484375,-0.0006715916097164154,0.0006401219870895147,-0.003030243329703808
1761505995608170500,7.89917041015625,-0.0014210054650902748,-0.0001937136985361576,-0.00034977146424353123
1761505995618206500,7.90920654296875,-0.0001729666255414486,-0.0013006087392568588,-0.001225841697305441
1761505995628242400,7.919242431640625,-0.00017083622515201569,0.0018669551936909556,-0.000934225507080555
1761505995638278400,7.9292783203125,0.00026654452085494995,-0.0006118833553045988,0.0003389021148905158
1761505995648313600,7.939313720703125,0.0019850824028253555,0.00046589807607233524,-0.0008637814316898584
1761505995658349600,7.949349609375,0.002505703829228878,0.00012277578935027122,0.0001425000373274088
1761505995668385500,7.959385498046875,-0.0002669128589332104,0.0017307923408225179,0.0007755333790555596
1761505995678421500,7.96942138671875,0.00018083490431308746,0.001649555517360568,-0.0002423590049147606
1761505995688457500,7.97945751953125,-0.0013731196522712708,0.0006924152839928865,0.00007295922841876745
1761505995698493400,7.989493408203125,-0.00021083885803818703,-0.0008648275397717953,-0.00012180220801383257
1761505995708529400,7.999529296875,0.0013202126137912273,0.0016073848819360137,0.0011152360821142793
1761505995718565400,8.0095654296875,0.002225896343588829,0.0009000380523502827,-0.0000826854957267642
1761505995728599600,8.019599609375,-0.0003107646480202675,0.0004036249592900276,0.0008755198796279728
1761505995738635500,8.029635498046876,0.0010574557818472385,0.001102559152059257,-0.001304210745729506
1761505995748671500,8.03967138671875,0.0006100446917116642,0.00044582365080714226,-0.0007875576848164201
1761505995758707500,8.04970751953125,0.0024163753259927034,0.0011309792753309011,-0.0031525488011538982
1761505995768743400,8.059743408203126,-0.00015224376693367958,0.002198906848207116,-0.0011602379381656647
1761505995778779400,8.069779296875,-0.0016414374113082886,0.0008757759351283312,-0.000949932262301445
1761505995788814600,8.079814697265626,0.00012450478971004486,0.0026033686008304358,0.0009193405858241022
1761505995798850600,8.0898505859375,0.00328907766379416,0.0014265271602198482,-0.00005722802598029375
1761505995808886500,8.099886474609375,-0.0013179248198866844,-0.0006834953092038631,0.001730019343085587
1761505995818922500,8.109922607421876,-0.0007549263536930084,0.001370784011669457,-0.0004167100414633751
1761505995828958500,8.11995849609375,-0.0003935350105166435,-0.0018188839312642813,0.0005457563092932105
1761505995838994400,8.129994384765626,0.0017301710322499275,0.0007258267141878605,-0.0010540494695305824
1761505995849030400,8.140030517578126,-0.00012711761519312859,-0.0014909885358065367,0.00036408379673957825
1761505995859066400,8.15006640625,0.0017778826877474785,0.003036714857444167,0.0005756858736276627
1761505995869102600,8.1601025390625,0.00033151963725686073,-0.001588929444551468,-0.001770825358107686
1761505995879137500,8.170137451171875,-0.0007547042332589626,0.0006908762734383345,0.0008336844621226192
1761505995889173500,8.180173583984375,0.0008810092695057392,-0.001707832794636488,0.0008712350390851498
1761505995899209500,8.19020947265625,-0.00011606048792600632,0.0017645276384428144,0.00014200422447174788
1761505995909245400,8.200245361328125,0.0004075169563293457,-0.0003103411290794611,-0.0010646741138771176
1761505995919281400,8.210281494140625,-0.0016428683884441853,0.00039965822361409664,-0.002159970346838236
1761505995929317400,8.2203173828125,0.0017843530513346195,-0.000024316832423210144,-0.00004808360245078802
1761505995939353300,8.230353271484375,-0.00018302863463759422,0.00027568102814257145,-0.0019052736461162567
1761505995949389600,8.2403896484375,-0.0015236642211675644,0.0004226875025779009,-0.0028323200531303883
1761505995959425500,8.250425537109376,0.0013327854685485363,-0.00021540140733122826,-0.0007038288749754429
1761505995969461500,8.26046142578125,0.0022832672111690044,-0.0027680411003530025,-0.0011336628813296556
1761505995979496400,8.270496337890625,0.0015323092229664326,0.0008038904052227736,-0.0014106346061453223
1761505995989532400,8.280532470703125,-0.0010618758387863636,0.00015061697922647,-0.000014871940948069096
1761505995999568400,8.290568359375,-0.0001711677759885788,0.0011530701303854585,-0.0002567193005234003
1761505996009604400,8.300604248046875,-0.0018652044236660004,-0.002716503106057644,0.0000029389047995209694
1761505996019640300,8.310640380859375,0.0007547563873231411,-0.00035781809128820896,-0.00025191192980855703
1761505996029676500,8.320676513671875,-0.0010178438387811184,0.0011820215731859207,0.003050674218684435
1761505996039712500,8.33071240234375,0.001962335780262947,0.0020978557877242565,-0.0005277608288452029
1761505996049748500,8.34074853515625,0.0013404879719018936,-0.0036569691728800535,-0.0016284451121464372
1761505996059784400,8.350784423828125,-0.0008528986945748329,0.000862946268171072,0.0007305503240786493
1761505996069819400,8.3608193359375,0.0019663237035274506,0.0006568175740540028,-0.0008258010493591428
1761505996079855400,8.37085546875,0.000032658688724040985,0.00006453879177570343,-0.001986329909414053
1761505996089891300,8.380891357421875,-0.002378301229327917,-0.0012297574430704117,0.00005684711504727602
1761505996099927600,8.390927490234375,0.0014047217555344105,-0.0006795602384954691,-0.00018212967552244663
1761505996109963800,8.4009638671875,-0.0012413947843015194,0.0009758607484400272,0.0009893948445096612
1761505996120000000,8.411,0.0017047720029950142,-0.0005184474866837263,-0.002438572235405445
1761505996130036000,8.421035888671875,-0.0021155327558517456,0.0012837136164307594,0.0017798750195652246
1761505996140072000,8.431072021484376,0.003381273942068219,-0.0003696389030665159,0.00042060145642608404
1761505996150108000,8.44110791015625,-0.0014483686536550522,0.000061793252825737,0.002577761886641383
1761505996160142800,8.451142822265625,0.0008266493678092957,0.0009354259818792343,0.0001940857619047165
1761505996170178800,8.4611787109375,0.0005709859542548656,0.0003884127363562584,-0.0015007498441264033
1761505996180214800,8.47121484375,-0.0013771881349384785,0.00011194823309779167,0.00003787851892411709
1761505996190250800,8.481250732421875,0.001393564511090517,0.0011812073644250631,0.0005667823133990169
1761505996200287000,8.491286865234375,-0.0010750661604106426,-0.001321302494034171,-0.0003444979665800929
1761505996210323000,8.501322998046875,0.0004629092290997505,0.0011439858935773373,0.0002565775066614151
1761505996220359000,8.51135888671875,-0.0011343127116560936,0.02412133477628231,0.006584526039659977
1761505996230395000,8.521394775390625,0.00030698999762535095,0.016249028965830803,0.005519527941942215
1761505996240431000,8.53143115234375,-0.0009815152734518051,0.12560473382472992,0.036877069622278214
1761505996250465800,8.5414658203125,-0.007501732558012009,0.33984512090682983,0.06839637458324432
1761505996260501800,8.551501708984375,0.003542217891663313,-0.1608165055513382,-0.03339589759707451
1761505996270537700,8.561537841796875,0.0038556719664484262,-0.11540907621383667,-0.027712181210517883
1761505996280574000,8.571573974609375,-0.0016101915389299393,0.027950920164585114,0.00498198764398694
1761505996290610000,8.58160986328125,0.005538265686482191,-0.07297889143228531,-0.018639985471963882
1761505996300647000,8.59164697265625,0.002373127033933997,-0.24097655713558197,-0.05714738368988037
1761505996310683100,8.60168310546875,-0.002810449805110693,0.05952441319823265,0.003909047693014145
