time,seconds_elapsed,z,y,x
1761505117647182800,0.095182861328125,-0.27416999235749245,-0.13257154647544958,0.3090365769468248
1761505117657218800,0.10521875,-0.2510182493507862,-0.2779476112000644,0.35601533187329765
1761505117667253800,0.115253662109375,-0.17027005742192267,-0.20797230382859705,0.1521414032742381
1761505117677288700,0.125288818359375,0.008815759140253067,0.06830020463294349,-0.0989234616972506
1761505117687324700,0.13532470703125,0.18160218329727648,0.29257644053325055,-0.20524974699690937
1761505117697360000,0.14535986328125,0.31148820788264275,0.3070614774815738,-0.16353738816604016
1761505117707395800,0.155395751953125,0.35114100383520125,0.12698190064169465,-0.014168372214585542
1761505117717430800,0.1654306640625,0.2884802572607994,-0.09588738193698226,0.1558814665853977
1761505117727466000,0.175466064453125,0.08052724265456199,-0.2746503232203424,0.2585911688230932
1761505117737502000,0.185501953125,-0.17111527607440946,-0.4158670854415744,0.24705899033099413
1761505117747537000,0.195536865234375,-0.4436076906085014,-0.4820309447661042,0.06998465972170233
1761505117757571800,0.20557177734375,-0.6481365759849548,-0.3053177756194025,-0.1834654929511249
1761505117767607800,0.21560791015625,-0.632139965429902,0.03604899930693209,-0.3740468092568218
1761505117777642800,0.225642822265625,-0.48065468797683714,0.2553745448641479,-0.39302886536344883
1761505117787678700,0.2356787109375,-0.18595511780977247,0.20886676845028995,-0.2152979705415666
1761505117797713700,0.245713623046875,0.046890345990657806,-0.009382087786123155,0.05125234059244394
1761505117807748900,0.255748779296875,0.1691705717474222,-0.238462938356027,0.19781419016867874
1761505117817784800,0.265784912109375,0.1911480102777481,-0.3825708189088851,0.27867928647547957
1761505117827819800,0.27581982421875,-0.00983516531586647,-0.46400443581864237,0.3056742609068751
1761505117837855000,0.28585498046875,-0.3938356517016887,-0.5132216903869062,0.29042496158778663
1761505117847891000,0.295890869140625,-0.8240899397403001,-0.4683084896881133,0.2691463189765811
1761505117857926000,0.30592578125,-1.0382219352424145,-0.3112920277234167,0.19119974046498536
1761505117867961900,0.3159619140625,-1.0146201103806496,-0.14428491762019693,0.057258010748028755
1761505117877996800,0.325996826171875,-0.8303215276062488,-0.04713379935771227,0.06209609842896461
1761505117888031700,0.33603173828125,-0.6242816531449557,-0.0067249974060803646,0.10653963578939438
1761505117898067700,0.346067626953125,-0.5377262362420558,-0.03008541472740471,0.08247633089572191
1761505117908102700,0.3561025390625,-0.3980085534721613,-0.0689393884524703,-0.009880758023262024
1761505117918137900,0.366137939453125,-0.22329320707917213,-0.06600918021947146,-0.13537468512952328
1761505117928173800,0.376173828125,-0.06854571295976639,-0.05890636247694492,-0.19611703086197374
1761505117938208800,0.386208740234375,0.04246668432950973,-0.06322159532755613,-0.17057342428267
1761505117948244700,0.39624462890625,0.06577098754942416,-0.10226064329594373,-0.17516309016048906
1761505117958280000,0.406280029296875,0.08812485817670822,-0.05870039157606661,-0.2193202117949724
1761505117968315000,0.41631494140625,0.19637831214666365,0.039443975507467983,-0.316167013348639
1761505117978350800,0.426350830078125,0.3428945690155029,0.07010799384042621,-0.4136281474083662
1761505117988385800,0.4363857421875,0.49302434020638464,-0.044288273733481764,-0.45296676284521814
1761505117998420700,0.446420654296875,0.667735594946146,-0.22364717161599545,-0.44500557470768687
1761505118008457000,0.45645703125,0.6582844605118036,-0.2778557316655293,-0.4545575391680002
1761505118018491600,0.46649169921875,0.49648704788088793,-0.31441132878772915,-0.44775019724071025
1761505118028527600,0.476527587890625,0.14456746088862418,-0.41720023374147713,-0.42430385520160196
1761505118038562800,0.486562744140625,-0.4893301618635654,-0.5213794970750808,-0.5799032899752259
1761505118048597800,0.49659765625,-0.8675754457235336,-0.6192983848396688,-0.8172291140601039
1761505118058633700,0.5066337890625,-1.2258283273905515,-0.6695602530900389,-0.9795338916912675
1761505118068669000,0.5166689453125,-1.3388099789261818,-0.650182475664094,-1.03856563411355
1761505118078703900,0.526703857421875,-1.2001169630289077,-0.5970139627194032,-0.9576172434374689
1761505118088739800,0.53673974609375,-0.9472393495470285,-0.6137156162712722,-0.8056231396794319
1761505118098774800,0.54677490234375,-0.6651829878538846,-0.6623331513807177,-0.6572600859001279
1761505118108810800,0.556810791015625,-0.3979004169225693,-0.6650948711790144,-0.585938186225295
1761505118118845400,0.566845458984375,-0.29471652130186554,-0.5770801223132759,-0.5302963785022496
1761505118128880400,0.57688037109375,-0.2763222019553184,-0.38688093719296157,-0.4741194409891963
1761505118138916600,0.58691650390625,-0.25222645609676836,-0.16991744459196925,-0.38295010055005546
1761505118148951600,0.59695166015625,-0.2921533928155899,0.01200030746050179,-0.255492764416337
1761505118158986500,0.606986572265625,-0.20140286231040955,0.16293050831407307,-0.06572013414502144
1761505118169022500,0.6170224609375,0.04170797491669655,0.2746202203430235,0.1849298664152622
1761505118179057700,0.6270576171875,0.22803660221397876,0.4818953356876969,0.3274032776340842
1761505118189093600,0.63709375,0.4724059150695801,0.6398010746423155,0.298990253098309
1761505118199128600,0.647128662109375,0.7005582526177168,0.6567957563240081,0.27095629100799556
1761505118209163800,0.657163818359375,0.7796236060261726,0.6019844811409711,0.3034703211218118
1761505118219199700,0.66719970703125,0.7718208233207464,0.4873541125502437,0.39414106438905
1761505118229234700,0.677234619140625,0.8334791148543358,0.4101327065080404,0.4089782757759094
1761505118239269400,0.687269287109375,0.6011439386636018,0.43390155849978324,0.36603608288913964
1761505118249305600,0.6973056640625,0.3915501711130142,0.4365823220163583,0.36509997108280656
1761505118259340500,0.707340576171875,0.17258885575830935,0.37257184133343396,0.45963060464859007
1761505118269376500,0.71737646484375,0.17782967902123928,0.22920718036331236,0.5485644411206245
1761505118279411500,0.727411376953125,0.040810149294137954,0.12753215493559836,0.5748559434577822
1761505118289446700,0.73744677734375,-0.1335346102207899,0.10223353609330951,0.5510027741834521
1761505118299482600,0.747482666015625,-0.0949707785487175,0.05594838945418596,0.4838192894876003
1761505118309517600,0.757517578125,0.025076573589444158,-0.019841449414938688,0.3184279440179467
1761505118319553500,0.767553466796875,0.026328034955263136,-0.04847922261729836,0.17297084081321953
1761505118329588700,0.777588623046875,-0.02764496277272701,-0.1148245029233396,0.046020285157859324
1761505118339623700,0.787623779296875,-0.1171744270503521,-0.2397402648154646,-0.0662573097616434
1761505118349659600,0.79765966796875,-0.15957389136254788,-0.38387539870142934,-0.16835224110186098
1761505118359694600,0.807694580078125,-0.18528817833364009,-0.4952889972027391,-0.21161709007173776
1761505118369729500,0.8177294921875,-0.2911976995259523,-0.6438245580047368,-0.3110194213271141
1761505118379765500,0.827765625,-0.27200258519053455,-0.7898647948596627,-0.5042702491030097
1761505118389800400,0.837800537109375,-0.24602175623774528,-0.7804104455549269,-0.6799599934861064
1761505118399836400,0.84783642578125,-0.2458814709842205,-0.6887593860134482,-0.828875712712109
1761505118409871600,0.85787158203125,-0.20620529415607453,-0.6499946980070322,-0.9487351410627365
1761505118419906600,0.867906494140625,-0.072945993745327,-0.6383197500433773,-0.9355930431559681
1761505118429942500,0.877942626953125,-0.03412731052935123,-0.5987989099074155,-0.8282379993304609
1761505118439977700,0.887977783203125,-0.012145195823907851,-0.5500641781590878,-0.7011813529521227
1761505118450013700,0.898013671875,-0.017096096229553222,-0.4032395129282027,-0.5672103971406817
1761505118460048600,0.908048583984375,-0.08049567847251891,-0.23798545703738927,-0.47888066404163837
1761505118470083600,0.91808349609375,-0.09767360776662826,-0.1396793965861201,-0.3906193200036883
1761505118480119600,0.92811962890625,-0.030189386558532712,-0.05875117191523313,-0.2513157709926367
1761505118490154500,0.938154541015625,0.025566987454891204,0.010655395657569169,0.00007715688943862914
1761505118500189400,0.948189453125,0.19344108965098858,0.0320079802878201,0.23714959073513744
1761505118510225400,0.958225341796875,0.307436886665225,-0.010773907470703125,0.40465047570466994
1761505118520260600,0.968260498046875,0.34557752448916434,-0.04702200954630971,0.4155994474813342
1761505118530296600,0.978296630859375,0.26573943314254284,-0.04327390905916691,0.278441678327322
1761505118540331500,0.98833154296875,0.06980126597881317,-0.040842297998070716,0.03706628659069538
1761505118550366700,0.99836669921875,-0.18891805926859379,-0.04226049423292279,-0.1820613252416253
1761505118560402700,1.008402587890625,-0.3887649243086576,-0.0823467131666839,-0.29579262610077856
1761505118570437600,1.018437744140625,-0.42876200365424155,-0.10499357539117336,-0.37459377561509605
1761505118580473600,1.0284736328125,-0.37503859677314755,-0.11178279713988304,-0.44551907718777656
1761505118590508500,1.038508544921875,-0.1989209823668003,-0.11604907628223299,-0.4761942014366388
1761505118600543500,1.04854345703125,0.038189153140783305,-0.15537117897570132,-0.5151595996469259
1761505118610579500,1.058579345703125,0.33192484671175476,-0.18764467833191156,-0.49771834324151276
1761505118620614700,1.06861474609375,0.5057780233174562,-0.19710341155081987,-0.3784109958156943
1761505118630650600,1.078650634765625,0.578903465282917,-0.17049217574000358,-0.3259828894421458
1761505118640685600,1.088685546875,0.683427669596672,-0.1414757784835994,-0.3007528788566589
1761505118650720500,1.098720458984375,0.7149509351074695,-0.09847191853746771,-0.31707536036521194
1761505118660756500,1.108756591796875,0.7298749479949473,-0.05969838963747024,-0.3605886311382055
1761505118670791700,1.118791748046875,0.818871912831068,-0.024314649306237696,-0.3324374724090099
1761505118680826600,1.12882666015625,0.8675210851877927,-0.0005921206742525101,-0.25901713915020225
1761505118690862600,1.138862548828125,0.8010697141587734,-0.008646101661771535,-0.15719868666380643
1761505118700897800,1.148897705078125,0.7173550736397505,-0.026556875275075435,-0.10524491980373858
1761505118710933800,1.158933837890625,0.6513514463782311,-0.02308174651041627,-0.11285831741690636
1761505118720968400,1.168968505859375,0.588608866739273,0.009971358916163443,-0.11705343101918697
1761505118731003600,1.179003662109375,0.6046276891261338,0.04426481979265809,-0.023965981999039647
1761505118741039600,1.18903955078125,0.6090244627803564,0.019534137031435965,0.10708353340774773
1761505118751074600,1.199074462890625,0.5698784473061561,-0.06371960797756909,0.20724165146648882
1761505118761110500,1.209110595703125,0.47531800312399863,-0.13006547280550002,0.2152662602290511
1761505118771145500,1.2191455078125,0.33224984088242054,-0.14040508051216602,0.08084113090932368
1761505118781180700,1.2291806640625,0.20618717397749423,-0.17885200780630112,-0.12568477350324392
1761505118791216600,1.239216552734375,0.04879354926347732,-0.256168910112232,-0.2630345580980182
1761505118801251600,1.24925146484375,-0.1520171923726797,-0.32453035254627466,-0.39641193193048235
1761505118811287600,1.25928759765625,-0.2586842539340258,-0.3776435185745358,-0.4443453572332859
1761505118821322800,1.26932275390625,-0.2816425201952457,-0.4427784001775086,-0.41642829952090976
1761505118831357400,1.279357421875,-0.27068741093873977,-0.4793078034125268,-0.39033524236530065
1761505118841393400,1.289393310546875,-0.1866214727640152,-0.5311475885041058,-0.40324177795052524
1761505118851428600,1.2994287109375,-0.13166472469568252,-0.5504178139023482,-0.42988253211677074
1761505118861464600,1.309464599609375,-0.10792495266795157,-0.5303522003427148,-0.4990975226402282
1761505118871499500,1.31949951171875,-0.11469839232563972,-0.5221268083110452,-0.5079918999746441
1761505118881534500,1.329534423828125,-0.13719137916266919,-0.5101606223158538,-0.38414603233635425
1761505118891570700,1.33957080078125,-0.1195224514812231,-0.5085546484239399,-0.17415362085700034
1761505118901605600,1.349605712890625,-0.1165770456790924,-0.5302276971802116,-0.03626023090481758
1761505118911641600,1.3596416015625,-0.03142623487710953,-0.5571279790654778,-0.002490355511009693
1761505118921676500,1.369676513671875,0.11938391979336738,-0.5336497805833816,-0.033007366588711735
1761505118931711700,1.379711669921875,0.2533662737816572,-0.49745457773879165,-0.07555822207033634
1761505118941747700,1.389747802734375,0.3636123628735542,-0.4881786537408828,-0.08376724748909473
1761505118951782400,1.399782470703125,0.3790454943269491,-0.5014793032102286,-0.131136024646461
1761505118961817600,1.409817626953125,0.2860755342066288,-0.4067404337212443,-0.29322043752521276
1761505118971853600,1.419853515625,0.00015548282265663146,-0.2832949635773897,-0.5643105840459466
1761505118981888500,1.429888427734375,-0.3130278385400772,-0.35807810962200165,-0.6820563812434672
1761505118991924500,1.439924560546875,-0.6303723712354898,-0.5160306833930314,-0.6682321462914347
1761505119001959700,1.449959716796875,-1.0092086067259312,-0.5531451930396258,-0.7359916773095726
1761505119011994600,1.45999462890625,-1.1026964532405137,-0.569301378070563,-0.7990887694746256
1761505119022030600,1.470030517578125,-1.0136784456163643,-0.5159804145105182,-0.851106541481614
1761505119032065500,1.4800654296875,-0.8918465481489897,-0.32277737139910456,-0.954504372113943
1761505119042101500,1.4901015625,-0.6892261267423629,-0.06282149009406567,-0.9608893969759345
1761505119052136700,1.50013671875,-0.5872323176890611,0.1829882308281958,-0.8204530445426702
1761505119062171400,1.51017138671875,-0.4765396538734436,0.34231136230006814,-0.5350926728680729
1761505119072207600,1.52020751953125,-0.3768640586346388,0.4116793514281511,-0.1972346367150545
1761505119082242600,1.53024267578125,-0.26750527377128597,0.4659627302795648,0.026982407210767268
1761505119092278500,1.540278564453125,-0.10407353793680667,0.5553479637809098,-0.05694821414649486
1761505119102313200,1.550313232421875,-0.01630932976603508,0.52966158773005,0.03310615078806877
1761505119112348400,1.560348388671875,0.035658757880330086,0.6238843243904412,0.08555208507925272
1761505119122384400,1.57038427734375,0.09586743512749671,0.7832314212597906,0.07044950075447559
1761505119132419300,1.58041943359375,0.13116378943622112,0.8820440429937094,0.06425853715986013
1761505119142455300,1.590455322265625,0.2091904474467039,0.9094275783512741,0.009894786548614502
1761505119152490500,1.600490478515625,0.34488837318122384,0.7809536125209182,-0.07425181564688682
1761505119162525400,1.610525390625,0.429029714679718,0.5483869656618684,-0.14023323107659816
1761505119172561400,1.6205615234375,0.49411798066198825,0.34440709247030316,-0.17378887919783592
1761505119182596400,1.630596435546875,0.4941758483290672,0.21316315046995876,-0.2272860761076212
1761505119192632300,1.64063232421875,0.3900076178461313,0.16389175456166266,-0.3321738530367613
1761505119202667300,1.650667236328125,0.25639701977968216,0.1635495900604874,-0.3863958570897579
1761505119212702200,1.6607021484375,0.10356208128333091,0.11493979986608027,-0.42765754954367874
1761505119222738200,1.67073828125,0.01035012910068035,0.043965617650374766,-0.4480889276757836
1761505119232773400,1.6807734375,-0.06737140848338603,-0.03189268334507942,-0.4977092831522226
1761505119242809300,1.690809326171875,-0.11045359436273575,-0.09651355101130903,-0.5656979467511176
1761505119252844300,1.70084423828125,-0.09706278239190579,-0.1105181840315461,-0.5927198091894388
1761505119262879500,1.71087939453125,-0.022195465195178985,-0.12879158041216432,-0.5662617181137204
1761505119272915500,1.72091552734375,0.014293313768506049,-0.14907280948385596,-0.5303682746946812
1761505119282950400,1.730950439453125,0.000032733225822448726,-0.1684419652119279,-0.4937713591814041
1761505119292986400,1.740986328125,-0.04631050027608871,-0.16320486827604472,-0.40687721184343095
1761505119303021300,1.751021240234375,-0.18780805220007896,-0.1024204369675368,-0.31853900317698713
1761505119313056300,1.76105615234375,-0.3086310648858547,0.042446737520024175,-0.27699264856278893
1761505119323092200,1.77109228515625,-0.4252653937101364,0.20664120135530828,-0.2597600664719939
1761505119333127200,1.781127197265625,-0.43924014304876324,0.3079026044808328,-0.25570026968717574
1761505119343163100,1.7911630859375,-0.3659352528631687,0.32308563363067805,-0.2257449841454625
1761505119353198300,1.8011982421875,-0.26033494375050065,0.3076006258595735,-0.19187194063812493
1761505119363233300,1.8112333984375,-0.10603928505182265,0.2729080095976591,-0.15965324020907282
1761505119373269200,1.821269287109375,0.1711141070306301,0.22023455016091464,-0.14396905660405754
1761505119383304400,1.831304443359375,0.2631383107334375,0.22273433108739554,-0.07834931409358978
1761505119393339400,1.84133935546875,0.1864426090657711,0.2571259916413575,-0.010521686275303364
1761505119403375400,1.851375244140625,-0.007788169658184051,0.32196108658015726,0.019014204810559748
1761505119413410300,1.861410400390625,-0.23706220471262932,0.4271875939443707,-0.03285056859180331
1761505119423446500,1.871446533203125,-0.46049452800154683,0.5259821685649454,-0.14418503744229674
1761505119433481200,1.881481201171875,-0.5989151566982269,0.5476087478309869,-0.22269597183838485
1761505119443516200,1.89151611328125,-0.5918775131464005,0.5233361110355704,-0.19968246825858949
1761505119453552000,1.90155224609375,-0.4871995795756578,0.4613037985578179,-0.09042758216112852
1761505119463587300,1.91158740234375,-0.32512393452525135,0.39607838912717996,-0.00919862097799778
1761505119473623300,1.921623291015625,-0.2274286994487047,0.37096937457285817,0.05171265158057212
1761505119483658200,1.931658203125,-0.25290976218581196,0.37407048239335416,0.07586363475769758
1761505119493693400,1.941693359375,-0.28683365909755226,0.43027752278372644,0.03452624671906233
1761505119503729400,1.9517294921875,-0.22976970961689946,0.5107174524810165,-0.05245061046630144
1761505119513764400,1.961764404296875,-0.09911036257147789,0.5749861457087099,-0.13185761691927908
1761505119523800300,1.97180029296875,0.14437632223069666,0.6090319884996861,-0.1473455472998321
1761505119533835500,1.98183544921875,0.31861995945870875,0.6086850016929208,-0.07560776030048727
1761505119543870200,1.9918701171875,0.3617705343991518,0.5966776799697429,0.032291473404318094
1761505119553906400,2.001906494140625,0.15657587859034539,0.5979072948299348,0.02265855266228318
1761505119563941000,2.011941162109375,-0.007729132947325706,0.6770529469329863,-0.06999094333201647
1761505119573977300,2.021977294921875,-0.19062369414269922,0.7999378605846316,-0.05232873765230178
1761505119584012300,2.03201220703125,-0.313121362042427,0.8488341395702212,0.011355506750941276
1761505119594047200,2.042047119140625,-0.28114801467657086,0.8190946887362748,0.09243570711314678
1761505119604083200,2.052083251953125,-0.2209060196816921,0.7482790580831468,0.12526114126369356
1761505119614118400,2.062118408203125,-0.1416255622178316,0.6680734485983848,0.22474618236646055
1761505119624154400,2.072154296875,-0.10560849241912364,0.6170740598537028,0.29722368181720377
1761505119634189300,2.082189208984375,-0.2579997788012028,0.6093936614189297,0.2829978803269565
1761505119644224500,2.092224609375,-0.49781741970181465,0.6060967387653887,0.12019538230672477
1761505119654260500,2.102260498046875,-0.5855711064785719,0.6184152453295886,-0.05842617774456739
1761505119664295400,2.11229541015625,-0.6369342139691114,0.6613400486901402,-0.1796283990062773
1761505119674331400,2.122331298828125,-0.6200988145023584,0.6484325632568448,-0.2973521305024624
1761505119684366300,2.132366455078125,-0.44418110658228394,0.6371869466211646,-0.33111104611083864
1761505119694401300,2.1424013671875,-0.21997546083331107,0.6433025068920105,-0.3240526520319283
1761505119704437200,2.152437255859375,-0.0614081161648035,0.6123234312605113,-0.2557626673988998
1761505119714472200,2.16247216796875,0.05568155521154403,0.544356906428188,-0.18942571652978657
1761505119724508200,2.172508056640625,0.06797638863921165,0.4679605530332774,-0.13192498306706546
1761505119734543400,2.18254345703125,-0.01685878034234047,0.4132954813878983,-0.09010068829432129
1761505119744578300,2.192578369140625,-0.07629705773890018,0.3688983039198443,-0.05477379271686077
1761505119754614300,2.2026142578125,-0.12163900524377823,0.34087968552913517,-0.020180179850012064
1761505119764649500,2.2126494140625,-0.20315701250135898,0.32649840121623125,-0.050018414883315564
1761505119774684400,2.222684326171875,-0.2808072384148836,0.32214287288784976,-0.11785919444411992
1761505119784720400,2.232720458984375,-0.29233284103572366,0.35250114973988383,-0.11987652561590074
1761505119794755300,2.24275537109375,-0.278784792676568,0.411241252271831,-0.08508490595892071
1761505119804791300,2.252791259765625,-0.292958863979578,0.4196999416027218,-0.033709961900115014
1761505119814826200,2.262826171875,-0.2714092954725027,0.37858532946929335,0.033278584745526314
1761505119824861200,2.272861083984375,-0.26768413746953007,0.3181704986581579,0.06479585890695452
1761505119834897200,2.282897216796875,-0.31344694073498247,0.2929299301460385,0.06270692380368709
1761505119844932400,2.292932373046875,-0.33660102182924745,0.2628038911473006,0.0024488544568419457
1761505119854968300,2.30296826171875,-0.2552051796466112,0.23439886725489048,-0.1097802251458168
1761505119865003300,2.313003173828125,-0.10174480272829532,0.17030655350740997,-0.2351173542551696
1761505119875038500,2.32303857421875,0.05339958175420761,0.11810915061719715,-0.3046751668669283
1761505119885074400,2.333074462890625,0.2108843918830156,0.07880440091732889,-0.2694778890185058
1761505119895109400,2.343109375,0.25791268503963943,0.028805896310880777,-0.12252543268948793
1761505119905145300,2.353145263671875,0.09422025244235992,-0.03968216817751526,0.08690466873198747
1761505119915180500,2.3631806640625,-0.16857143681049347,-0.11526172529682516,0.19661328994631766
1761505119925215200,2.37321533203125,-0.40864977447390555,-0.22272969144489616,0.19813611559942362
1761505119935251200,2.383251220703125,-0.5107593188613653,-0.3171981099620461,0.1920204091981053
1761505119945286400,2.393286376953125,-0.4714262563824653,-0.40611170736365015,0.19887056735381484
1761505119955322400,2.403322265625,-0.34561201128065583,-0.44411637078300115,0.16229425623714924
1761505119965357300,2.413357421875,-0.19715864886939524,-0.45745073985885826,0.09450403781980275
1761505119975392300,2.423392333984375,-0.09995148957073688,-0.4592315953936428,0.03877542859613895
1761505119985428200,2.43342822265625,-0.016381225958466528,-0.4755274080909788,-0.005092062442004681
1761505119995463400,2.44346337890625,-0.036703883019089695,-0.5060923864962533,-0.011140841086953878
1761505120005498400,2.453498291015625,-0.0076589903205633155,-0.5555946320183575,0.024443974774330853
1761505120015534300,2.463534423828125,0.05607552296519279,-0.5518563953381032,0.06058130995184183
1761505120025569500,2.473569580078125,0.11172083781957626,-0.5218745871156454,0.0792155755341053
1761505120035605500,2.48360546875,0.16419219881296157,-0.4877768314743414,0.03820274327471852
1761505120045640200,2.49364013671875,0.1500865165710449,-0.4412389521831646,-0.0103828623265028
1761505120055675400,2.50367529296875,0.09487550148069858,-0.43314942495822906,-0.007050649163872003
1761505120065711400,2.51371142578125,0.020468787533044815,-0.45781383755020794,0.00015665186643600462
1761505120075746300,2.523746337890625,-0.025360066705942153,-0.4624994015505537,-0.02394830021187663
1761505120085782300,2.5337822265625,0.013900515058636664,-0.47685303067155177,-0.07261340079009533
1761505120095817200,2.543817138671875,0.01932955437004566,-0.4747770281150937,-0.13504998321980238
1761505120105853400,2.553853515625,0.06832827081680297,-0.5085632335891946,-0.16016250490546224
1761505120115889400,2.563889404296875,0.08794014925956725,-0.5611213230179622,-0.14033040784075856
1761505120125924400,2.57392431640625,0.07682078935205935,-0.5826774673962966,-0.16144216945245862
1761505120135960300,2.583960205078125,0.005184709161520004,-0.5880163807388394,-0.21322277170270681
1761505120145995300,2.593995361328125,-0.1840893239378929,-0.5477206837728619,-0.24296149188429117
1761505120156030500,2.604030517578125,-0.25524551165699955,-0.5230924384728074,-0.2064320886492729
1761505120166066400,2.61406640625,-0.28181203154325485,-0.5419533158851787,-0.11751973335668443
1761505120176101400,2.624101318359375,-0.32261808918416496,-0.5885079636480659,-0.032284751402586694
1761505120186137300,2.634137451171875,-0.26585049230158325,-0.6307061332345009,0.03834142109304666
1761505120196172300,2.64417236328125,-0.19574235233068465,-0.6355347954999655,0.06008811960741877
1761505120206207200,2.654207275390625,-0.1691927835792303,-0.6490536908298731,0.02667100317403674
1761505120216243200,2.6642431640625,-0.060169514280557626,-0.6640313336007296,-0.013898615362495183
1761505120226278400,2.6742783203125,0.031997897285223,-0.7014822355948388,0.006414981608837842
1761505120236314400,2.684314453125,-0.036086627903580665,-0.744916376717016,0.015564064356684684
1761505120246349300,2.694349365234375,-0.1473509541273117,-0.7585514457724988,-0.03229717249274253
1761505120256384300,2.70438427734375,-0.1853320174753666,-0.7214164778597653,-0.04399330937489867
1761505120266420500,2.71442041015625,-0.1837760202050209,-0.6835781839832663,0.01861936027407646
1761505120276455400,2.724455322265625,-0.16152677899599074,-0.6782591809175909,0.0986041666150093
1761505120286490400,2.734490478515625,-0.11340016920864582,-0.6624905338995158,0.1622812506251037
1761505120296526300,2.7445263671875,-0.08708499373495578,-0.6213614548493176,0.2646180278971791
1761505120306561300,2.754561279296875,-0.0899947437018156,-0.5509279188489541,0.33563831427693364
1761505120316597200,2.76459716796875,-0.1498860255628824,-0.5050604496326297,0.3756280870988965
1761505120326632200,2.774632080078125,-0.2720230434566736,-0.4749232316527515,0.4133921466954052
1761505120336667400,2.78466748046875,-0.35999943307340143,-0.47595133259147404,0.504458172890544
1761505120346703400,2.794703369140625,-0.42082653447985646,-0.4524027722869068,0.6129280460901558
1761505120356738300,2.80473828125,-0.4679945283681154,-0.407303839757666,0.6877313581399619
1761505120366774300,2.814774169921875,-0.5394359627693891,-0.3314434929355979,0.7564715707585216
1761505120376809500,2.8248095703125,-0.5798965679734945,-0.2617482080819085,0.8020809370279312
1761505120386844400,2.834844482421875,-0.6194061560630798,-0.1786378901315853,0.8269741168744862
1761505120396880400,2.84488037109375,-0.7485206117540597,-0.039849049177020784,0.7851473378837108
1761505120406915300,2.854915283203125,-0.8442851710289716,0.17301639698799698,0.6496890661239624
1761505120416950300,2.8649501953125,-0.9710212071508169,0.35767920996490865,0.4766355154633522
1761505120426986200,2.874986328125,-0.9784130709677934,0.39180356135219335,0.3567486145839095
1761505120437021200,2.885021240234375,-0.9880652809321879,0.2711225874856114,0.31160452773869035
1761505120447057200,2.89505712890625,-1.0692261453151701,0.11141166227255016,0.2769692676872015
1761505120457092400,2.90509228515625,-1.137109010452032,0.055549380199238656,0.23055004633963105
1761505120467127300,2.915127197265625,-1.2951280735880135,0.11506751789897679,0.17614041076004505
1761505120477163300,2.925163330078125,-1.505770473408699,0.11900967965349554,0.1393539640240371
1761505120487198500,2.935198486328125,-1.5259008227676152,0.0570355636363849,0.22339316032230852
1761505120497234400,2.945234375,-1.414427822229266,0.03997552510090172,0.34302228704839943
1761505120507269400,2.955269287109375,-1.095036293876171,0.07871643037293106,0.3763996559932828
1761505120517304300,2.96530419921875,-0.6896358765870332,0.16501228302419185,0.29682328432276844
1761505120527340300,2.97534033203125,-0.37048692481815815,0.22709669101536273,0.17538316265195608
1761505120537375200,2.985375244140625,-0.036541385933756824,0.23024671601150185,0.02072130098938942
1761505120547411500,2.995411376953125,0.2715910817801952,0.20739859559386967,-0.10832491177096962
1761505120557446100,3.005446044921875,0.4797907646238804,0.17478607354164122,-0.23462328712791203
1761505120567481300,3.0154814453125,0.6898766996055841,0.12378339686132966,-0.41047231372594833
1761505120577517300,3.025517333984375,0.9043746058106422,0.1152619444925338,-0.5476921883307397
1761505120587552300,3.03555224609375,1.0063421113789082,0.09598989246338606,-0.641076282209903
1761505120597587500,3.04558740234375,1.1097463717520237,0.05660583044961095,-0.647714843441546
1761505120607623400,3.05562353515625,1.1103402459919451,-0.005167758026719093,-0.5822681194104254
1761505120617658400,3.065658447265625,0.9584083938151597,-0.04032894164845347,-0.5088862184658647
1761505120627694300,3.0756943359375,0.83792849547863,-0.0650083326138556,-0.4193948942415416
1761505120637729300,3.085729248046875,0.7268623221755027,-0.04330569243691861,-0.32874709345847364
1761505120647764500,3.095764404296875,0.591093084770441,0.029514044580236074,-0.21280717663913964
1761505120657800400,3.105800537109375,0.3653466393202543,0.07490998729467392,-0.10182473609670996
1761505120667835100,3.115835205078125,0.16903028649389742,0.06292787307798862,0.01035538979768753
1761505120677871000,3.12587109375,-0.059174658024311065,0.04473086640182882,0.10892536188215017
1761505120687906300,3.13590625,-0.4244447249770164,0.02375522532518953,0.07692614942267537
1761505120697941200,3.145941162109375,-0.6727239047527312,0.0485753399355337,-0.030329817942529914
1761505120707977200,3.155977294921875,-0.8419161038100719,0.12201814075447619,-0.13239113927409052
1761505120718012400,3.166012451171875,-0.9105606009691953,0.17234996896851806,-0.224321088822186
1761505120728048400,3.17604833984375,-0.8025923936814069,0.146867591057159,-0.25139672727435824
1761505120738083300,3.186083251953125,-0.6214420458048582,0.07108944262582809,-0.16429302883893251
1761505120748118500,3.196118408203125,-0.41023032166361806,0.0070474708260968326,-0.07745514173284172
1761505120758154500,3.206154541015625,-0.1450286486595869,-0.0168002550881356,-0.05614215846061706
1761505120768189400,3.216189453125,0.07407178290486335,-0.022864158236980438,-0.07747370030283927
1761505120778224000,3.22622412109375,0.1644137326091528,0.0038652240607887503,-0.11615224439576267
1761505120788260000,3.236260009765625,0.24134616564214229,0.05552256525754928,-0.1519146087810397
1761505120798295300,3.24629541015625,0.23824118536412714,0.10630568090304732,-0.1525382936373353
1761505120808331300,3.256331298828125,0.12846388282775878,0.1660468867689371,-0.16829276599958537
1761505120818366200,3.2663662109375,0.07874152828156948,0.22486491337530315,-0.17534122320637105
1761505120828401400,3.2764013671875,0.011295885518193244,0.2496546328473836,-0.23042028248012064
1761505120838437400,3.286437255859375,-0.09968144045770168,0.2686049786414951,-0.2664372061483562
1761505120848472300,3.296472412109375,-0.1967810477286577,0.2613329418119043,-0.29430004945546384
1761505120858508300,3.30650830078125,-0.2514876204282045,0.24927082116156815,-0.3166990743987262
1761505120868543500,3.31654345703125,-0.24610826547741887,0.2842874086808413,-0.35651875135079025
1761505120878578400,3.326578369140625,-0.260520821711421,0.31215872755534946,-0.40685616905540223
1761505120888614400,3.336614501953125,-0.3029150253266096,0.33729104992002246,-0.4363903065755963
1761505120898649000,3.346649169921875,-0.420060810804367,0.37198052437677975,-0.44075595443919297
1761505120908685600,3.356685546875,-0.4460737884610891,0.4238377720598131,-0.42094183142259717
1761505120918720300,3.36672021484375,-0.4602689025521278,0.45334129524603484,-0.40396643896326423
1761505120928755200,3.376755126953125,-0.40349487592875954,0.4583338428363204,-0.41742227899432177
1761505120938791200,3.386791259765625,-0.3544324465960264,0.4465690976973623,-0.5202035851635038
1761505120948826400,3.396826416015625,-0.36832887000143527,0.478450455930829,-0.6789271433070302
1761505120958861300,3.406861328125,-0.280819513374567,0.533674841959402,-0.8015805862903594
1761505120968897300,3.416897216796875,-0.06678221041858196,0.5898633237797767,-0.7803104192465543
1761505120978932500,3.426932373046875,0.0972013140797615,0.4915322750177234,-0.7134256252363324
1761505120988968400,3.436968505859375,0.17403905456662178,0.5552803053721785,-0.6509855356752872
1761505120999003400,3.44700341796875,0.38792204374372957,0.6042847939725965,-0.6502668660119175
1761505121009038300,3.457038330078125,0.49174248370230195,0.5786757209416479,-0.6555749092921614
1761505121019074600,3.467074462890625,0.4254173694014549,0.5144816273201257,-0.6518208174556493
1761505121029109200,3.477109130859375,0.19284020114839076,0.39953956243172284,-0.7325336458101869
1761505121039144200,3.487144287109375,-0.17550386642217636,0.36644619805999096,-0.8722235637903213
1761505121049180200,3.49718017578125,-0.5328980854332447,0.32687961908616125,-0.8680576762825251
1761505121059215400,3.50721533203125,-0.8043214094310999,0.24361082263849673,-0.8106225554019212
1761505121069251300,3.517251220703125,-0.9033183747559785,0.15983751073479652,-0.7364359139457345
1761505121079286300,3.527286376953125,-0.7544196066647768,0.13515702379085123,-0.6865633372738957
1761505121089321500,3.537321533203125,-0.5409381840258837,0.18435097054876387,-0.7543208224654198
1761505121099357400,3.547357421875,-0.2390659457504749,0.19872129507623612,-0.8224854271531105
1761505121109392000,3.557391845703125,-0.03820551975369453,0.1250751171723008,-0.8389420564353466
1761505121119427800,3.567427734375,-0.09103694623112678,0.029272563974559306,-0.7013160852476954
1761505121129463000,3.577463134765625,-0.18785306038558483,-0.022027707412838934,-0.44503713888972996
1761505121139498000,3.587498046875,-0.2933744590431452,0.03980550229623914,-0.21748627436608076
1761505121149534000,3.597533935546875,-0.32379765435755253,0.15722572080120442,-0.06277034442871808
1761505121159569200,3.607569091796875,-0.3504360704362392,0.2841914740256965,-0.0480886158645153
1761505121169604000,3.61760400390625,-0.34585108073353765,0.36962563181370495,-0.03668517831861973
1761505121179640000,3.62764013671875,-0.24960136829018592,0.40336072815507645,0.04908551794737577
1761505121189675000,3.637675048828125,-0.2145189489930868,0.43455300814583897,0.20282558858990668
1761505121199711000,3.6477109375,-0.12089549340009689,0.47400706665590403,0.30422523114234207
1761505121209746000,3.657745849609375,-0.13433891234099865,0.5644998230077326,0.3602113222584128
1761505121219780900,3.66778076171875,-0.002144610813260078,0.653001843933761,0.2841983421579003
1761505121229816800,3.67781689453125,0.12143734519183635,0.7213605098888277,0.18487404457479714
1761505121239852000,3.68785205078125,0.31643326306939124,0.7344771810933947,-0.030521687252819535
1761505121249888000,3.697887939453125,0.5389776976078748,0.6337392173200845,-0.3024772184312343
1761505121259923000,3.7079228515625,0.5608183580160141,0.49674964433982965,-0.465733013176918
1761505121269958100,3.717958251953125,0.47603404243886466,0.40348961523175236,-0.5360930820822716
1761505121279994000,3.727994140625,0.30845103214383124,0.3795712717667222,-0.6183347274392843
1761505121290029000,3.738029052734375,0.18810732740759847,0.36072380182519553,-0.7093982694163918
1761505121300064000,3.74806396484375,0.08410802375078201,0.30209990955144167,-0.8633753636851906
1761505121310100000,3.758099853515625,0.16594167282879352,0.23456118167713283,-0.9110837480604648
1761505121320135000,3.768135009765625,0.2999345482110977,0.13283333008363843,-0.7828262014597653
1761505121330171100,3.778171142578125,0.5072919350117445,-0.026405922497063875,-0.5832277582228184
1761505121340205800,3.788205810546875,0.5748609118938446,-0.11771847079917788,-0.3442667341515422
1761505121350241000,3.798240966796875,0.4148609040737152,-0.1219426643654704,-0.11817279043793677
1761505121360277000,3.808277099609375,0.12920154945254325,-0.10802373686730861,-0.034955578047037125
1761505121370312000,3.81831201171875,-0.07380290283560753,-0.10143398321345448,-0.1185293487906456
1761505121380347100,3.82834716796875,-0.19387363584935663,-0.06341492594256996,-0.22153321166932582
1761505121390383000,3.838383056640625,-0.12218611773252487,-0.06394055725187063,-0.24990590419471262
1761505121400418000,3.84841796875,0.045454760229587554,-0.10785057225748897,-0.11419073506444692
1761505121410454000,3.8584541015625,0.268288533103466,-0.047371992027759546,-0.03143208009600639
1761505121420489000,3.868489013671875,0.3302969532489776,0.005249006569385528,-0.028367139567434786
1761505121430524200,3.878524169921875,0.29250176786184306,-0.031775925097614524,-0.0300090615555644
1761505121440560000,3.88856005859375,0.279107448759675,-0.08114625133574009,-0.0858531138524413
1761505121450594800,3.8985947265625,0.3085574151277542,-0.07190700608640908,-0.09883388371765613
1761505121460630800,3.908630859375,0.30848902606666084,-0.0006803834795951843,-0.08264379641711711
1761505121470666000,3.918666015625,0.2765811451524496,0.03147650375962257,-0.09965104531943797
1761505121480701000,3.928700927734375,0.3066173869758844,-0.07225187400132417,-0.11986205869913101
1761505121490737000,3.93873681640625,0.34525077675282956,-0.16668898406475782,-0.07422200503051281
1761505121500772000,3.948772216796875,0.3258201000958681,-0.16958689746335148,-0.15460837790966034
1761505121510807000,3.95880712890625,0.2875561281532049,-0.18485007917732,-0.2863350619256496
1761505121520843000,3.968843017578125,0.14526245741546154,-0.22917013628855346,-0.2570262575939298
1761505121530878000,3.9788779296875,0.02684592134952545,-0.27488047871440646,-0.20506810681968926
1761505121540914200,3.9889140625,-0.05273088871240616,-0.24529607231169936,-0.082034140086174
1761505121550949000,3.99894921875,-0.11216975063085555,-0.16582506071180103,0.10648089133948087
1761505121560983000,4.008983154296875,-0.16888941671848295,-0.06264101896062493,0.28429040435552594
1761505121571018000,4.01901806640625,-0.11094693083763121,0.07119198968484998,0.4628998355776071
1761505121581054000,4.029053955078125,-0.003712298521399498,0.2512770464174449,0.40581981174498793
1761505121591089000,4.0390888671875,0.10552958196401595,0.25324834649041295,0.37288784848004575
1761505121601125000,4.049125,0.11378361556828022,0.17251330630406736,0.437985466812551
1761505121611160000,4.05916015625,0.2190367186784744,0.0353901700720191,0.4782385667458176
1761505121621195000,4.069195068359375,0.6130851363480091,-0.13306830788329244,0.4966656193181872
1761505121631231000,4.07923095703125,0.7809820348978043,-0.1438835702776909,0.3831047065898776
1761505121641266200,4.08926611328125,0.7848761197268962,-0.14016981045156718,0.12097878776937722
1761505121651302100,4.09930224609375,0.7358779878020286,-0.24461992661580442,-0.05748188263177871
1761505121661336800,4.1093369140625,0.5202057771205901,-0.34473215970620513,-0.0959463455826044
1761505121671372000,4.1193720703125,0.38105215797424313,-0.3731716338574886,-0.033799247618764634
1761505121681408000,4.129407958984375,0.3961848451763391,-0.3472365437425673,0.11238660825192928
1761505121691443000,4.13944287109375,0.23497253895699977,-0.3218758925147354,0.2054195506058633
1761505121701478000,4.149477783203125,0.15233692584633826,-0.2531663672953844,0.15238792538121343
1761505121711514000,4.15951416015625,0.20031331350803375,-0.12469897733628749,0.041289603374153376
1761505121721549000,4.169549072265625,0.0928051249474287,-0.0825458890005946,-0.10962269649654627
1761505121731585000,4.1795849609375,0.12710837656557558,-0.14785364295244216,-0.21877426835000513
1761505121741620000,4.189619873046875,0.249789584338665,-0.19808073215037583,-0.2229500927299261
1761505121751655200,4.1996552734375,0.2191243969619274,-0.1762622835740447,-0.15622282736897466
1761505121761691100,4.209691162109375,0.20012918911278246,-0.14840660066008568,-0.10158975829705595
1761505121771725800,4.219725830078125,0.3225356715977192,-0.10517360813319683,-0.08462225688323378
1761505121781761000,4.229760986328125,0.3172457484960556,-0.09468860060647129,-0.16179960458800197
1761505121791797000,4.239796875,0.11346271305084228,-0.15576237025037407,-0.32297581658065316
1761505121801832000,4.24983203125,0.0678869567900896,-0.21785686124414205,-0.5097139014616608
1761505121811868000,4.259867919921875,0.031014146944880482,-0.32565570331439375,-0.6692620738610625
1761505121821903000,4.269903076171875,-0.11418284401893615,-0.47457843680307266,-0.7857055562883615
1761505121831938000,4.27993798828125,-0.23839783723056315,-0.5808114908613264,-0.8552892339937388
1761505121841974000,4.28997412109375,-0.3511199610471725,-0.648583004578203,-0.8908192509278654
1761505121852009000,4.300009033203125,-0.46404959013462066,-0.6905413009941578,-0.8646361774012445
1761505121862044200,4.310044189453125,-0.45908115407228467,-0.8114183819547295,-0.825592599388212
1761505121872080100,4.320080078125,-0.23783611169457433,-0.8419983752660453,-0.7911601684324443
1761505121882114800,4.33011474609375,0.03471884668171406,-0.7178432955481111,-0.8119904827542602
1761505121892150800,4.34015087890625,0.027167992910742757,-0.5653880040191114,-1.0111338757000863
1761505121902186000,4.35018603515625,-0.27752280991673467,-0.6049931614376605,-1.261213821287453
1761505121912221000,4.360220947265625,-0.7670908721894025,-0.7709891948021947,-1.468437790966779
1761505121922257000,4.3702568359375,-1.3633739268183707,-0.9943249989140778,-1.6000231668159364
1761505121932292000,4.3802919921875,-1.7330109568089245,-1.2226863761030138,-1.6286616706706583
1761505121942327000,4.3903271484375,-1.8135253399819136,-1.2056203827507794,-1.5375237482830881
1761505121952363000,4.400363037109375,-1.6597008059263227,-0.882256005243957,-1.1933847321644424
1761505121962398000,4.41039794921875,-1.4724234996020793,-0.47526978006809945,-0.6081263448968529
1761505121972434000,4.420433837890625,-1.2954776176780463,-0.23189020890221,-0.010433131209015846
1761505121982469000,4.43046923828125,-1.0952186647057534,-0.15019246116355062,0.379020506016165
1761505121992503800,4.44050390625,-0.7937474084466696,-0.05425714843161404,0.5191967462085187
1761505122002540000,4.4505400390625,-0.3417781322062015,0.10505231984108686,0.5041852011680603
1761505122012575000,4.460574951171875,0.14688333661556244,0.2920522705286741,0.4162620030432939
1761505122022611000,4.47061083984375,0.5833855791330337,0.4802022680342197,0.3034951633021235
1761505122032646000,4.48064599609375,0.9677934772759675,0.5909327796421945,0.24710297560319303
1761505122042681000,4.49068115234375,1.1150286960691214,0.6185952780716121,0.28344372439831494
1761505122052717000,4.500717041015625,0.960410965809226,0.6157761289976537,0.3536575167007744
1761505122062752000,4.510751953125,0.7112959197312593,0.6797482504315674,0.4260850395299494
1761505122072787000,4.520786865234375,0.5151297890305518,0.7879591804340481,0.3470987427070737
1761505122082823000,4.530822998046875,0.38897476766705513,0.8721539326202123,0.21125541715249418
1761505122092858000,4.540858154296875,0.15634206983447074,0.8412239568274468,0.13386018891334533
1761505122102894000,4.55089404296875,0.025374095231294632,0.751230893626064,0.08292802018597721
1761505122112928500,4.560928466796875,0.10748831481635569,0.656836965117231,0.008128799789398908
1761505122122963700,4.570963623046875,0.11461422117352485,0.6022531420145183,-0.04036503587514162
1761505122132999700,4.580999755859375,0.054363458350300785,0.5408018442951142,-0.051667351134121416
1761505122143035600,4.59103564453125,-0.0185480486035347,0.4943884681664407,-0.09360635832771658
1761505122153070600,4.601070556640625,-0.1317401280194521,0.4785219137318432,-0.14964958645850418
1761505122163106600,4.6111064453125,-0.3275695741117,0.47572599940299987,-0.23667890448346732
1761505122173141800,4.621141845703125,-0.42191199162900445,0.46905061329230663,-0.27806553849130866
1761505122183176700,4.6311767578125,-0.38382746790647504,0.48591801533252,-0.30503727817758913
1761505122193212700,4.641212646484375,-0.2831552628457546,0.486902277129516,-0.29879926057085393
1761505122203247900,4.651247802734375,-0.14400982700586318,0.4792422638956457,-0.32996699064224955
1761505122213283800,4.661283935546875,-0.042025370302796364,0.49692448945008216,-0.43496158894672987
1761505122223318800,4.67131884765625,0.005079495221376419,0.5285145365867764,-0.5490883188642561
1761505122233353700,4.681353759765625,0.007196048983931541,0.5711670988772064,-0.6521000727884471
1761505122243389700,4.6913896484375,0.0046510406762361525,0.6054942428275942,-0.6584092559352517
1761505122253424600,4.701424560546875,0.008908698120713234,0.6354761241152882,-0.5612561649113893
1761505122263460600,4.711460693359375,0.014672668474912642,0.6923577027663588,-0.4682600474365055
1761505122273495600,4.72149560546875,-0.0661877516567707,0.7659333727173506,-0.27211627469807864
1761505122283530800,4.73153076171875,-0.2597089208066463,0.836506865177676,-0.09084376174658536
1761505122293566700,4.741566650390625,-0.45797523865699763,0.9186733994718641,-0.011535539492964745
1761505122303601700,4.7516015625,-0.6970622271955013,0.9895516470324247,-0.0055834992207586765
1761505122313636900,4.761636962890625,-0.8380617664694786,1.0267729780543595,-0.008837678711116313
1761505122323672800,4.7716728515625,-0.8371522504091262,1.06491339668259,-0.06303527897521853
1761505122333707800,4.781707763671875,-0.62559741191864,1.0889372463487088,-0.11773951358720659
1761505122343743700,4.79174365234375,-0.3496843752861023,1.093176199092716,-0.1307645609855652
1761505122353778700,4.80177880859375,-0.09805062438547611,1.1538263364970682,-0.15255232216268777
1761505122363813600,4.811813720703125,0.0713946726500988,1.2067406920175998,-0.21069281483367083
1761505122373849600,4.821849609375,0.10715513733923435,1.209522650886327,-0.2139391032785177
1761505122383884500,4.831884521484375,0.08498597562909126,1.1854762971274555,-0.18171455763056873
1761505122393920800,4.841920654296875,0.057768882879614826,1.1525243870530277,-0.13087035944759845
1761505122403955700,4.851955810546875,0.019627076011896134,1.1337097234025597,-0.07767448357194662
1761505122413990700,4.86199072265625,-0.05337444731295109,1.1549499336995184,-0.12775880329832434
1761505122424026600,4.872026611328125,-0.09685469259917735,1.2108695354506374,-0.17064648951888084
1761505122434061800,4.882061767578125,-0.046073768910765645,1.261922554078698,-0.18829685863032936
1761505122444096800,4.8920966796875,0.05795826797187328,1.2199526402901857,-0.2239155767612159
1761505122454132700,4.9021328125,0.029528876823186872,1.0661587205685674,-0.31561171755343675
1761505122464167700,4.912167724609375,-0.0066512745827436446,0.8157922131247818,-0.3359738298416137
1761505122474203600,4.92220361328125,-0.022632687568664548,0.5851700148643926,-0.3064674571111798
1761505122484238600,4.932238525390625,0.034874914026260376,0.3800156180007383,-0.2814712552815676
1761505122494273500,4.9422734375,0.1246937166392803,0.22622955279201268,-0.2585002756692469
1761505122504309800,4.952309814453125,0.19651041409373282,0.11318082736954092,-0.26033567440286276
1761505122514344700,4.9623447265625,0.14661153393685816,0.03055566258765757,-0.19529621599838137
1761505122524380700,4.972380615234375,0.06519464896619319,-0.04754683713801205,-0.1267674541734159
1761505122534415600,4.98241552734375,-0.05260638554990291,-0.14466657388154416,-0.07975932702198624
1761505122544450800,4.992450927734375,-0.15827391467988491,-0.203524384509027,-0.06880991685390472
1761505122554486800,5.00248681640625,-0.11574702459573745,-0.23014767608381806,0.020610680221766233
1761505122564521700,5.012521728515625,-0.10177227525711059,-0.2232093281880021,0.10766279460042714
1761505122574556700,5.022556640625,-0.24689210933148859,-0.20083525502290575,0.10359934455379843
1761505122584593000,5.032593017578125,-0.5145826765418052,-0.2288943880870938,0.03783113348335027
1761505122594627600,5.042627685546875,-0.710856359270215,-0.25397191152460874,0.08268442068845033
1761505122604663600,5.05266357421875,-0.8075263429522513,-0.2428889381047338,0.15429463578537106
1761505122614698800,5.06269873046875,-0.8191746951699257,-0.18217282279208302,0.1883855598270893
1761505122624733700,5.072733642578125,-0.768395525047183,-0.13352796128429473,0.2220515364550054
1761505122634769700,5.082769775390625,-0.7944915048122405,-0.1075267836632207,0.2756349503435194
1761505122644804600,5.0928046875,-0.7579711616665125,-0.06717387661729007,0.3067880673676729
1761505122654840800,5.1028408203125,-0.6777110455155372,-0.0017168869204819202,0.22851298755407332
1761505122664875800,5.112875732421875,-0.6324573608160019,0.13393256002981216,0.11954305587783455
1761505122674910700,5.12291064453125,-0.665202861598134,0.2680880786279216,0.07090995787307619
1761505122684946700,5.13294677734375,-0.7023316920310259,0.353033539583534,0.030124066237360237
1761505122694982000,5.14298193359375,-0.622992197856307,0.3860019624013453,0.016574264312535524
1761505122705017900,5.153017822265625,-0.4685170909374952,0.4235102936711162,0.007361760939657688
1761505122715052500,5.163052490234375,-0.2754430810332298,0.4552889952477067,0.015630845982581375
1761505122725087700,5.173087646484375,-0.07351707163155079,0.4582099607283249,0.02283785475194454
1761505122735123700,5.183123779296875,0.0048953708261251444,0.4415276329314336,0.051835255046933884
1761505122745158700,5.19315869140625,0.055098202365636825,0.44018794529289007,0.09617065585777163
1761505122755193600,5.203193603515625,0.12662146983146666,0.47731385311633345,0.13876637339442968
1761505122765229800,5.213229736328125,0.12259469853341579,0.5352807793186977,0.11431874535828829
1761505122775264800,5.2232646484375,0.15218553467690943,0.5509003367222846,0.11773965971767901
1761505122785300700,5.23330078125,0.1495078399002552,0.5423292730581015,0.07676131424978375
1761505122795335700,5.243335693359375,0.22084873653650283,0.5297372833147644,0.0028584581710398194
1761505122805371000,5.253370849609375,0.276701556661725,0.4766830809321254,-0.0473230383194983
1761505122815406800,5.26340673828125,0.2641886965692043,0.40327805484030393,0.02009045573994517
1761505122825441500,5.273441650390625,0.3304074278861284,0.3224965816963464,0.12181918411627411
1761505122835477500,5.2834775390625,0.3331932592123747,0.2547321187747642,0.17584741916283964
1761505122845512700,5.2935126953125,0.19755027853548526,0.156871719731763,0.2679028947867453
1761505122855547600,5.303547607421875,0.09150514826476573,0.04940079444162547,0.3263939544610679
1761505122865583600,5.31358349609375,0.013809329643845557,-0.012416413980722426,0.34955461142659183
1761505122875618800,5.323618896484375,-0.04511106135845184,-0.07206117373481392,0.35695611985474823
1761505122885653800,5.33365380859375,-0.12026128714978694,-0.14295249997265635,0.25894319713115693
1761505122895689700,5.343689697265625,-0.2001023011058569,-0.20443594639599322,0.11117314080893993
1761505122905724700,5.353724609375,-0.2831727985024452,-0.2810978919245303,-0.07083060902655124
1761505122915760600,5.3637607421875,-0.25800503949820996,-0.35207273172736164,-0.24962635660097002
1761505122925795800,5.3737958984375,-0.16515315279960632,-0.46819750359430906,-0.3754236505679786
1761505122935830500,5.38383056640625,-0.11640168911218643,-0.5800949035571887,-0.45662440856993197
1761505122945866500,5.393866455078125,-0.06808277162313461,-0.6628492111440748,-0.46364437033459543
1761505122955901700,5.403901611328125,-0.06699614543020725,-0.728103846669197,-0.4937979549273848
1761505122965937700,5.413937744140625,-0.07499649653434753,-0.7504588863402605,-0.5273617863550782
1761505122975972600,5.42397265625,-0.19109189617633818,-0.7593033601183444,-0.6080072485618293
1761505122986007800,5.4340078125,-0.31997488119900225,-0.76650357382074,-0.6591422463849187
1761505122996043800,5.444043701171875,-0.40570027701854705,-0.7496111834697425,-0.6664794574052095
1761505123006078700,5.45407861328125,-0.4250006052941084,-0.7107211155179888,-0.7058383849777281
1761505123016114700,5.46411474609375,-0.2938222028106451,-0.669473670785129,-0.6929165056928992
1761505123026149600,5.474149658203125,-0.19095862518548964,-0.6688730745434761,-0.600282061137259
1761505123036184800,5.484184814453125,-0.2247451594531536,-0.6354072966627776,-0.4391729230314493
1761505123046220800,5.494220703125,-0.3077542820513248,-0.5991772417005151,-0.2744350730344653
1761505123056255700,5.504255859375,-0.3042202627062797,-0.5865265440398827,-0.15306509399041532
1761505123066290700,5.514290771484375,-0.31062896070480345,-0.5227381816750392,-0.039417672022432085
1761505123076326700,5.52432666015625,-0.24285130950808523,-0.44432676213067024,0.05842515483126044
1761505123086361600,5.534361572265625,-0.1488841550439596,-0.42270339773502197,0.1437022223614156
1761505123096397600,5.5443974609375,-0.07738836010694504,-0.4307154758095741,0.21066636521816254
1761505123106432800,5.554432861328125,-0.03296235840320587,-0.440634666147083,0.21481822420060634
1761505123116467000,5.564467041015625,-0.06643091276288032,-0.43291989051867275,0.20013094267845152
1761505123126503000,5.5745029296875,-0.08849895218610764,-0.4454262843377888,0.1926454092286527
1761505123136538000,5.5845380859375,-0.11275953321754932,-0.46141935122888533,0.19061901796758174
1761505123146574000,5.594573974609375,-0.12669102793633938,-0.4616883408959955,0.1632201389104128
1761505123156609000,5.604609130859375,-0.0498620552778244,-0.4817116131512448,0.14819778021499513
1761505123166644200,5.614644287109375,0.01235270109474659,-0.4855702613407746,0.1364022746115923
1761505123176680200,5.62468017578125,0.03105214086771011,-0.4811767390895635,0.12830679256990551
1761505123186715100,5.634715087890625,0.036384734067320824,-0.42396161763519047,0.11574278681203723
1761505123196750000,5.64475,0.02668517782986164,-0.3310803587116301,0.1053705920100212
1761505123206786000,5.6547861328125,-0.0029839842468500134,-0.2747760684918612,0.06811871971935034
1761505123216821200,5.6648212890625,0.021803251007199285,-0.22580131744258106,0.06660100863277912
1761505123226857200,5.674857177734375,0.07267945176362992,-0.16791260757558046,0.024596096596121785
1761505123236892000,5.684891845703125,0.18276421281397343,-0.13622998678460715,-0.013630904337018728
1761505123246927000,5.694927001953125,0.2951771245509386,-0.14320026418864726,-0.024351912576705215
1761505123256963000,5.704963134765625,0.17808511508703231,-0.17249452853836117,-0.004141191457957029
1761505123266998000,5.714998046875,-0.0709369920104742,-0.21609284724630415,-0.07457432559952139
1761505123277034000,5.725033935546875,-0.1391588798433542,-0.22989589327983556,-0.14086729119643568
1761505123287069200,5.735069091796875,-0.1543617096722126,-0.2384833235569298,-0.06731558664292096
1761505123297104100,5.745104248046875,-0.07131810028254985,-0.24807277048341927,-0.04089344366341829
1761505123307140000,5.75514013671875,0.07952420309185981,-0.2803929585255682,-0.07164996258541942
1761505123317175000,5.765175048828125,0.16552140159010886,-0.322689839246124,-0.0909581819064915
1761505123327210200,5.775210205078125,0.18768997877836227,-0.33418957677334543,-0.033894963078200814
1761505123337246200,5.78524609375,0.06026771395802497,-0.3516942538037896,0.02024637695401907
1761505123347281000,5.795281005859375,-0.14441548519730568,-0.4112723049972206,0.08650850902125239
1761505123357316900,5.80531689453125,-0.3340454921275377,-0.5183957320239395,0.1976768275246024
1761505123367352000,5.81535205078125,-0.4490367299199104,-0.6229854758545756,0.2838148957982659
1761505123377387000,5.825386962890625,-0.4200421061038971,-0.7049811836265027,0.3525090773180127
1761505123387423000,5.835423095703125,-0.3145043408334255,-0.7485240458201616,0.4260216189049184
1761505123397458200,5.845458251953125,-0.241954652929306,-0.7817338031131774,0.5381364244781435
1761505123407494100,5.855494140625,-0.2087590702921152,-0.7925631670981645,0.5968311900310218
1761505123417529000,5.865529052734375,-0.3011234657347202,-0.7449925106931478,0.7070831243418156
1761505123427564000,5.87556396484375,-0.4402928669720888,-0.7404803670309483,0.8132721931278705
1761505123437600300,5.885600341796875,-0.5620002612769603,-0.7507059929691254,0.8721575128167867
1761505123447635200,5.89563525390625,-0.7151479189842939,-0.6649436992052942,0.7917132722705602
1761505123457670000,5.905669921875,-0.8065583747029305,-0.40024434970021244,0.5361339986145496
1761505123467705900,5.915705810546875,-0.8159194927662611,-0.09137611505761742,0.2622228033237159
1761505123477741000,5.925740966796875,-0.8810790704190731,0.07970745070427655,0.0955757587045431
1761505123487777000,5.935777099609375,-1.0557114147037268,0.08297164013199508,0.10494272198677063
1761505123497812000,5.94581201171875,-1.4359218611568212,-0.04521496012434363,0.1717547430217266
1761505123507847200,5.95584716796875,-1.8067004623979328,-0.1620510951310396,0.29940570203140376
1761505123517883100,5.965883056640625,-2.1937632589638234,-0.2181145257996395,0.3657352002464235
1761505123527918000,5.97591796875,-2.3599960236936806,-0.24342739236298946,0.4425961754783988
1761505123537953000,5.985953125,-2.2704554535001513,-0.3599612930200994,0.5370471679367125
1761505123547989200,5.9959892578125,-1.8550491905033588,-0.5352372689705341,0.6416061513029039
1761505123558024200,6.006024169921875,-1.2790309252679348,-0.6701972358193248,0.7441000188328325
1761505123568060200,6.01606005859375,-0.7729471970021724,-0.6596823446109891,0.7455806127794087
1761505123578094800,6.0260947265625,-0.2680149768590927,-0.5316440667841583,0.5736828080251812
1761505123588130000,6.036130126953125,0.2004723034620285,-0.39557964582480487,0.38857188595458864
1761505123598166000,6.046166015625,0.5195674792170524,-0.28121187369301914,0.2301965567268431
1761505123608201000,6.056200927734375,0.7871288670897484,-0.21268588834702967,0.04490516352280974
1761505123618237000,6.06623681640625,1.0380804809451103,-0.17328195258900522,-0.12327698170915245
1761505123628272000,6.076272216796875,1.0968880592226982,-0.12314721784964203,-0.2869485176488757
1761505123638307000,6.08630712890625,1.0577800376713276,-0.11663688610754906,-0.40262466896548865
1761505123648343000,6.096343017578125,0.9617734863340854,-0.11914872279800474,-0.40274405756145715
1761505123658378200,6.106378173828125,0.7753928365886211,-0.08289718665629625,-0.3955710971921682
1761505123668413200,6.1164130859375,0.5656657980471849,0.00310527253895998,-0.3850444424808025
1761505123678449200,6.12644921875,0.3175011845618486,0.10481339651867747,-0.42637452399581666
1761505123688484000,6.136484130859375,0.05943535478711128,0.19869053461179137,-0.44414340492039917
1761505123698520000,6.14652001953125,-0.13532441624701022,0.290451776529476,-0.4107084605693817
1761505123708555000,6.156554931640625,-0.23338322393894195,0.40680809212997554,-0.36201194193959235
1761505123718590000,6.16658984375,-0.43879590641260147,0.6165809425745159,-0.38068069431334733
1761505123728626000,6.1766259765625,-0.6493138030707836,0.8408375147931277,-0.43222588037252424
1761505123738661000,6.1866611328125,-0.726742495188117,1.0083090275377034,-0.4872749828994274
1761505123748696000,6.196696044921875,-0.7741811227113008,1.102606802195683,-0.49201253281533713
1761505123758732000,6.20673193359375,-0.7209773557901382,1.1091793855190277,-0.47581835386157034
1761505123768767200,6.216767333984375,-0.5801414826452732,1.07414321651645,-0.452687361381948
1761505123778803200,6.22680322265625,-0.41337621847391126,1.0229236822150647,-0.47222705137133597
1761505123788838100,6.236838134765625,-0.30196868438720703,0.9733366444863378,-0.5252028547555208
1761505123798873000,6.246873046875,-0.19356091663837433,0.9256091900844127,-0.625481968845427
1761505123808909000,6.256908935546875,-0.018324176719784736,0.9009612902358174,-0.6906108590990304
1761505123818944000,6.266944091796875,0.14925006574690342,0.9002334143526851,-0.7058870464250445
1761505123828980000,6.27697998046875,0.3235270207226276,0.8969314501978456,-0.6680155809313059
1761505123839015000,6.287014892578125,0.5119990897893906,0.917129750226438,-0.599263824005425
1761505123849050000,6.297050048828125,0.644016281184554,0.9970859880600124,-0.5194353772699832
1761505123859086000,6.307086181640625,0.6236690742045641,1.0068513760752975,-0.42599312346279616
1761505123869121000,6.31712109375,0.39760347980260846,0.8985957301482558,-0.3210971632272005
1761505123879156200,6.32715625,0.24766952344477175,0.908782558446005,-0.241494049680233
1761505123889192200,6.337192138671875,0.09439268639981746,0.843963683989644,-0.1734004644021392
1761505123899227100,6.34722705078125,-0.015744681620597837,0.792404615535587,-0.1861597004711628
1761505123909263000,6.35726318359375,-0.0687450349241495,0.745745374887064,-0.31940847948789597
1761505123919298000,6.367298095703125,-0.025643559822440147,0.6742790983054786,-0.4834183074712753
1761505123929333000,6.3773330078125,0.004540566039085388,0.4633277786660939,-0.6441545206114649
1761505123939369000,6.387368896484375,-0.03450724975764751,0.27388576858863234,-0.8091811244219541
1761505123949404000,6.39740380859375,-0.036761166164278984,0.05627411427721381,-1.0059706477180124
1761505123959439000,6.407439208984375,-0.08706044381558894,-0.14409794368073342,-1.2165811910957098
1761505123969475000,6.41747509765625,-0.12168167534172535,-0.3104550654426217,-1.4116495896875858
1761505123979510000,6.427510009765625,-0.09051964435875415,-0.4525898923568427,-1.5042717592835426
1761505123989546000,6.4375458984375,-0.11995324411392211,-0.5231539594016968,-1.4842679589137433
1761505123999581200,6.447581298828125,-0.1256301207065582,-0.5867341589085757,-1.4055477656811475
1761505124009616100,6.4576162109375,-0.16429039849042892,-0.4861098846428096,-1.2419693148523567
1761505124019652000,6.467652099609375,-0.2585778709501028,-0.32267595685124395,-1.0396034527286886
1761505124029687000,6.47768701171875,-0.4155962326109409,-0.18389058649539947,-0.8140364554986357
1761505124039722000,6.487721923828125,-0.6563210514843464,-0.07319543846175074,-0.5734416927456856
1761505124049758200,6.49775830078125,-0.8061696676462888,0.05578150845468044,-0.32024083865880965
1761505124059793000,6.50779296875,-0.8117273017734289,0.246762637732923,-0.05534662416875362
1761505124069828900,6.517828857421875,-0.7743523876249789,0.45248672424331304,0.2106397694721818
1761505124079864000,6.527864013671875,-0.6607464667111634,0.594606938110292,0.5140647901475429
1761505124089899000,6.53789892578125,-0.5053226807653903,0.7019716265469789,0.8011100461691617
1761505124099935000,6.54793505859375,-0.5077659822642803,0.8150165525771677,0.977154887600243
1761505124109970400,6.557970458984375,-0.409329573431611,0.9220873726338148,0.9977665907353163
1761505124120005000,6.568005126953125,-0.34700668050944805,0.9857055660635232,0.9765113289996981
1761505124130041300,6.578041259765625,-0.32953473670482636,1.0299632254630326,0.7992354844689369
1761505124140076300,6.588076171875,-0.21817104175984858,0.9749917182169854,0.6104489426255226
1761505124150112300,6.5981123046875,-0.08303074990808963,0.8227084222540259,0.41992929337918755
1761505124160147200,6.608147216796875,0.1283241820961237,0.6421656848818064,0.2004217423185706
1761505124170182100,6.61818212890625,0.29241467410027977,0.5041295254580677,0.07512158421874046
1761505124180218000,6.628218017578125,0.3104214554339647,0.4715308858007192,-0.005552957952022552
1761505124190253300,6.63825341796875,0.2530249129980802,0.46164223673194643,-0.13640519722104072
1761505124200289300,6.648289306640625,0.1407318282485008,0.4029498092666268,-0.2107256941899657
1761505124210324200,6.65832421875,0.07676467525064945,0.34513358011394735,-0.288169583876431
1761505124220359400,6.668359375,0.03711421738564968,0.32185090420395135,-0.3473004027590155
1761505124230395400,6.6783955078125,0.04070961152911186,0.29604090177342296,-0.35914281624406574
1761505124240430300,6.688430419921875,-0.08904723371863364,0.30740795283168554,-0.29385639734119173
1761505124250465300,6.69846533203125,-0.1171697508752346,0.3890671221256256,-0.17566665576845406
1761505124260501200,6.708501220703125,-0.004902385088801383,0.5225156614981591,-0.0567047607794404
1761505124270536200,6.7185361328125,0.13790332682430742,0.5976080196224153,0.03015694559365511
1761505124280571100,6.728571044921875,0.33002573509216304,0.639129970447719,0.011681085443496704
1761505124290607000,6.738607177734375,0.47308980568051334,0.6539157439082861,-0.012686463093757629
1761505124300642300,6.748642333984375,0.5309481204092502,0.6169065943323075,-0.009684358668327332
1761505124310678300,6.75867822265625,0.43017888471484184,0.6107625386193394,0.04981792387515306
1761505124320713200,6.768713134765625,0.33370939204096794,0.6011109131768345,0.1424795486986637
1761505124330748400,6.77874853515625,0.37560032230913637,0.6059951780870556,0.07353373050540685
1761505124340784400,6.788784423828125,0.34569735147655006,0.5986290332332254,-0.05750701707303524
1761505124350819300,6.7988193359375,0.4334767572164535,0.5387605477258562,-0.17261574376523495
1761505124360854300,6.808854248046875,0.49894846955835814,0.39288901850134134,-0.23036475290060043
1761505124370890200,6.81889013671875,0.5824871689885854,0.17307693153619766,-0.2879004115462303
1761505124380925200,6.82892529296875,0.515280595678091,-0.01599529538080096,-0.4109171348839998
1761505124390961200,6.838961181640625,0.2722223654210567,-0.18346651586443186,-0.5077072378143668
1761505124400996000,6.84899609375,0.16689970420598982,-0.36722967658787964,-0.5995110767647623
1761505124411031300,6.85903125,0.05777531262040138,-0.5142597281977535,-0.6400450394660234
1761505124421067300,6.8690673828125,0.025738836890459058,-0.690014939032495,-0.7124728545561433
1761505124431102200,6.879102294921875,-0.06269874049723148,-0.8256010749556124,-0.7895148854434489
1761505124441137400,6.889137451171875,-0.21737200033664703,-0.9037716714814304,-0.8097378815218805
1761505124451173400,6.89917333984375,-0.537132946524024,-0.9185904704287647,-0.7557245517835021
1761505124461208300,6.909208251953125,-0.7001970180898904,-0.8834034217134118,-0.6178498665317893
1761505124471244300,6.919244384765625,-0.823372146859765,-0.7742398671612143,-0.43269992762506004
1761505124481279200,6.929279296875,-0.8622674024432897,-0.6275766030371189,-0.20654314780831337
1761505124491314200,6.939314208984375,-0.6653460694611072,-0.40786549222841856,-0.05783084219992161
1761505124501350100,6.94935009765625,-0.4931213708400726,-0.13865896749719978,0.05436199704557657
1761505124511385000,6.959385009765625,-0.13781447949707507,0.08276245436072349,0.12127046419233083
1761505124521420300,6.969420166015625,0.3283423120498657,0.18707827662080526,0.15881722777634857
1761505124531456300,6.979456298828125,0.456928359952569,0.25058921028375625,0.17690671895742416
1761505124541491200,6.9894912109375,0.3743471073776483,0.37037908052951096,0.0707999216273427
1761505124551527200,6.999527099609375,0.36293548652529717,0.4437850930020213,-0.04749766423404216
1761505124561562400,7.009562255859375,0.4333873253673315,0.49988954980075356,-0.11184855585247278
1761505124571597300,7.019597412109375,0.5391559767842292,0.52270519272089,-0.06305149945765734
1761505124581633300,7.02963330078125,0.7137742925435304,0.5107540581643581,0.004864975687861442
1761505124591668200,7.039668212890625,0.8710726401895285,0.4795815057873726,0.047834933364391326
1761505124601703200,7.049703125,0.9411573992848395,0.3838236685141921,0.06440700571984052
1761505124611739100,7.0597392578125,0.9063292470097541,0.27896365637481213,0.0507093197569251
1761505124621774000,7.069774169921875,0.8385311375468969,0.20624007320851087,0.03815232826173305
1761505124631810300,7.079810302734375,0.6771867293804884,0.12435790881365537,0.020257190608978272
1761505124641845200,7.08984521484375,0.5329921934574842,0.0564084081813693,0.06996639341264962
1761505124651880200,7.099880126953125,0.20667174262404442,0.04592500808984041,0.0713312520250678
1761505124661916200,7.109916259765625,0.04175882832109928,0.008018471282720565,0.005641805279254913
1761505124671951400,7.119951416015625,0.0016740706920623778,-0.11145195775032042,-0.09328443289697169
1761505124681986300,7.129986328125,-0.012594693157076835,-0.2881052864685654,-0.12692249860465527
1761505124692022300,7.140022216796875,0.017827333113551138,-0.4006123062297702,-0.11881927164793014
1761505124702057500,7.150057373046875,0.08004092044234275,-0.3788112471796572,-0.14007511790543795
1761505124712093400,7.160093505859375,0.24076456636190413,-0.3090443218618631,-0.15388386302739382
1761505124722128100,7.170128173828125,0.37086920213401314,-0.25569091733694077,-0.16836743867099285
1761505124732163000,7.1801630859375,0.3736988726019859,-0.2792816362828016,-0.11214520071148872
1761505124742199300,7.19019921875,0.23392273764312266,-0.3529061138115823,-0.0801344439446926
1761505124752234200,7.200234130859375,0.04685352111160755,-0.41799657175093885,-0.10292845955491066
1761505124762269200,7.210269287109375,-0.06200900466740131,-0.45806174789667126,-0.1153267533570528
1761505124772305200,7.22030517578125,0.03582417757511139,-0.38873993599787354,-0.2356532146975398
1761505124782340400,7.23034033203125,0.11196633701324463,-0.28911270994544025,-0.21892624404132366
1761505124792376300,7.240376220703125,0.2062140619844198,-0.2393311725579202,-0.10179039543569088
1761505124802411300,7.250411376953125,0.27453707210421563,-0.1927843793079257,-0.029481822811067104
1761505124812446500,7.260446533203125,0.4049070808142423,-0.1862055854395032,0.009373977544903754
1761505124822482400,7.270482421875,0.5338613775074482,-0.2951084432289004,-0.020504151107370854
1761505124832517000,7.28051708984375,0.5238584544092416,-0.4579601872183382,-0.11828589542359114
1761505124842552000,7.290552001953125,0.4727636424660682,-0.5944849191658198,-0.21436025130003689
1761505124852588300,7.30058837890625,0.4621639225184917,-0.6669764471419155,-0.2736415845692158
1761505124862623200,7.310623291015625,0.3495563649922609,-0.6687532475560903,-0.32750352313816544
1761505124872659200,7.3206591796875,0.1401262635707855,-0.6781624425448477,-0.3258049025267362
1761505124882694100,7.330694091796875,-0.054367550003528595,-0.7358461313590406,-0.276237154020369
1761505124892729300,7.340729248046875,-0.17662614845037458,-0.7936145758472383,-0.25905951698720453
1761505124902765300,7.350765380859375,-0.3154506817728281,-0.8020746534176171,-0.2640671160161495
1761505124912800300,7.36080029296875,-0.3636345747053623,-0.7782226531870663,-0.2813859150856733
1761505124922835500,7.37083544921875,-0.31602351322472094,-0.6768138044148683,-0.2538467507749796
1761505124932871400,7.380871337890625,-0.24137714530229568,-0.5480844025187194,-0.21938801633417604
1761505124942906000,7.390906005859375,-0.09696808984577655,-0.5031590729907155,-0.20367197628617287
1761505124952941000,7.400941162109375,0.0666238049864769,-0.555382012180984,-0.2055611510336399
1761505124962977300,7.410977294921875,-0.00466682276725769,-0.6503206420257687,-0.1939037387266755
1761505124973012200,7.42101220703125,-0.17854688737988472,-0.642646600266546,-0.2607598911643028
1761505124983048200,7.431048095703125,-0.29473113434910775,-0.49008770223259923,-0.37241058635711666
1761505124993083100,7.441083251953125,-0.4862514850705862,-0.34054479101896284,-0.5478825963363051
1761505125003118300,7.451118408203125,-0.5845622216969728,-0.2807632531426847,-0.6982111049696803
1761505125013154300,7.461154296875,-0.7259329323709011,-0.25677578996419903,-0.7857838822215795
1761505125023189200,7.471189208984375,-0.881459594169259,-0.25085531387403603,-0.9714341718658804
1761505125033224400,7.481224365234375,-0.9229752613842487,-0.2906932571351528,-1.2124170571535826
1761505125043260400,7.491260498046875,-1.0037994411587714,-0.351383872680366,-1.4206228774771092
1761505125053295000,7.501295166015625,-1.26643214045763,-0.4244682519830763,-1.5378089949652551
1761505125063331000,7.5113310546875,-1.4834417372226714,-0.46130759795010085,-1.4052572583019733
1761505125073366300,7.5213662109375,-1.4991834962338209,-0.33180662715956566,-1.1281576422333717
1761505125083401200,7.531401123046875,-1.4701368499696255,-0.1413689571082592,-0.8991244301974773
1761505125093437200,7.541437255859375,-1.1682423998624085,-0.04167246521189809,-0.6689300654277205
1761505125103472000,7.55147216796875,-0.5469242726981639,-0.08569938459545373,-0.384017729781568
1761505125113508400,7.56150830078125,-0.0005342530071735382,-0.1387327633857727,-0.16225304744392632
1761505125123544300,7.57154443359375,0.36746319308280945,-0.15385829019472003,-0.025207798753678796
1761505125133579000,7.5815791015625,0.527321162083745,-0.12350216876715421,0.017462883715331553
1761505125143615000,7.591614990234375,0.46608898700773715,-0.0850496885150671,0.03174772191643715
1761505125153650000,7.60164990234375,0.2968196310609579,-0.03509527877867222,0.06771349991932511
1761505125163685000,7.61168505859375,0.22632453759908674,0.04513838775679469,0.10796879180967807
1761505125173721000,7.62172119140625,0.2740875747710466,0.1655114647179842,0.15640695176422595
1761505125183756000,7.631756103515625,0.2588987734675407,0.2821253352761268,0.16715280218422413
1761505125193791200,7.641791259765625,0.20771452967524529,0.3611804595515132,0.21634543376788495
1761505125203827200,7.6518271484375,0.10432663591504096,0.37461043448895215,0.23010712487772106
1761505125213862100,7.661862060546875,0.05702887816727161,0.3978839041791856,0.17789383029863237
1761505125223897300,7.6718974609375,0.032167408633232114,0.40726796472668647,0.08532280636802315
1761505125233933300,7.681933349609375,0.042511107993125914,0.42331484416425225,0.04054769896566868
1761505125243968000,7.691968017578125,0.07916238404214382,0.434152026129514,-0.09972250312045217
1761505125254004000,7.70200390625,0.008313654837012291,0.36848742156401276,-0.28801804657652974
1761505125264039000,7.712038818359375,-0.164077632522583,0.3239952227562666,-0.44730610673502086
1761505125274074000,7.72207421875,-0.3950140478312969,0.3179848764255643,-0.5206057362236082
1761505125284110000,7.732110107421875,-0.6624409956693649,0.32215003328099845,-0.6297765972994268
1761505125294145000,7.74214501953125,-0.7240384969264269,0.29445991619229317,-0.7660467699639498
1761505125304180200,7.75218017578125,-0.6545698239028453,0.32176103396341205,-0.5827504960998893
1761505125314216200,7.76221630859375,-0.4833271220564842,0.40804494044855233,-0.391714714024961
1761505125324251100,7.772251220703125,-0.20254852521419525,0.4905950672328472,-0.39873409126773474
1761505125334287000,7.782287109375,0.12959376364052294,0.5468963617779314,-0.3782293556384742
1761505125344322300,7.792322265625,0.29592005187273024,0.5958500700391829,-0.28259792122393845
1761505125354357000,7.80235693359375,0.2906558477342129,0.6274149827346205,-0.1667915676563978
1761505125364393200,7.812393310546875,0.20067922421097753,0.6273012932270765,-0.0768865480646491
1761505125374428200,7.82242822265625,0.13906769442856312,0.5876803537175059,-0.027047727531939743
1761505125384463000,7.832463134765625,0.03335223450362682,0.581703763525933,0.01082242278754711
1761505125394499000,7.8424990234375,-0.07203238603174686,0.6143399587146937,0.0029568039789795875
1761505125404534000,7.852533935546875,-0.05469488226175308,0.642425504861772,0.052040860621631144
1761505125414569200,7.8625693359375,-0.051743046718835825,0.6689306499496102,0.13743278670310974
1761505125424605200,7.872605224609375,-0.16848142043948172,0.7106444700852036,0.15767945591807364
1761505125434640100,7.88264013671875,-0.22401450709104537,0.7264334292389452,0.08045520033165812
1761505125444676000,7.892676025390625,-0.18359364937543868,0.73097516432181,0.0011034311972558499
1761505125454711300,7.902711181640625,-0.21466332589983939,0.740002666516602,-0.07431435948908328
1761505125464746200,7.912746337890625,-0.1979880854308605,0.7446978385955095,-0.09441241401359439
1761505125474782200,7.9227822265625,-0.10512743090391158,0.7359367322519421,-0.07332403327748178
1761505125484817200,7.932817138671875,-0.010892565414309502,0.7678875755250454,-0.04362549897581339
1761505125494852000,7.94285205078125,0.03815817348062992,0.8606944540381432,-0.003145312288403511
1761505125504888000,7.95288818359375,-0.06110182669460773,0.922418796545267,0.07044248649179935
1761505125514923000,7.962923095703125,-0.28782909987568855,0.9167902891390025,0.07896335433870554
1761505125524958200,7.972958251953125,-0.6352268255293368,0.8521763626702129,0.09035992375239729
1761505125534994200,7.982994140625,-0.8528525083661079,0.8230310783371328,0.09893997444063425
1761505125545029000,7.993029052734375,-0.8897773406594991,0.8384436053939163,0.15856120718866587
1761505125555065000,8.003065185546875,-0.7977291715592145,0.8623495277687907,0.22797844228595493
1761505125565099000,8.01309912109375,-0.5263000023424625,0.8630439397737384,0.24526611556485295
1761505125575134000,8.023134033203124,-0.19295535196065902,0.7734092615559697,0.2326363510943949
1761505125585170000,8.033169921875,0.06237666893601417,0.6552236116364598,0.26310820785611866
1761505125595205000,8.043205078125,0.20147826563417912,0.5407819705508649,0.3001278788261115
1761505125605241000,8.053240966796874,0.24203882408142088,0.4776711421214044,0.2775533511854708
1761505125615276000,8.063276123046874,0.2837655036985874,0.4770098286684602,0.19667276504859327
1761505125625311200,8.073311279296876,0.3086433398455381,0.4866895842269063,0.12357684143856167
1761505125635347200,8.08334716796875,0.3154237937659025,0.5031974322397261,0.08127879167422651
1761505125645382100,8.093382080078126,0.3168751616179943,0.49449061336666345,0.054292585071176284
1761505125655417000,8.1034169921875,0.3455699257045984,0.4788203852217644,0.028072102143615482
1761505125665453300,8.113453369140625,0.32553076176047324,0.4584340152751654,-0.03905731427744031
1761505125675488300,8.12348828125,0.22780454702377317,0.4167526361044496,-0.13426000188589096
1761505125685524200,8.133524169921875,0.11631225726306438,0.34570604623965917,-0.09750468094050883
1761505125695559000,8.143558837890625,0.11186872185766697,0.2774512059852481,-0.009405249466001986
1761505125705594000,8.153593994140625,0.08497194710373877,0.23769911437667904,0.03891761354580521
1761505125715630000,8.163630126953125,-0.061271922564506524,0.22813231767341494,0.0824155406191945
1761505125725665000,8.1736650390625,-0.26409225045740603,0.21779928583800792,0.0648895285397768
1761505125735700200,8.1837001953125,-0.4166682457566261,0.18170710497647521,0.08034282599836587
1761505125745736200,8.193736083984374,-0.5508551824063063,0.1401059514351189,0.07334931384921073
1761505125755771100,8.203771240234374,-0.486091326072812,0.09805142810307442,-0.025795097122341393
1761505125765806000,8.21380615234375,-0.36575814273059365,0.038252135374397034,-0.03957636971548199
1761505125775842300,8.22384228515625,-0.23314298544228076,-0.03614142683073878,-0.01111526825428009
1761505125785877200,8.233877197265626,-0.12240998961627482,-0.09602430618964135,0.017026976516097782
1761505125795913200,8.243913330078126,-0.05478782124221324,-0.14759689171239732,-0.027157763777673243
1761505125805948000,8.253947998046876,-0.039926936718821526,-0.19200988780409098,-0.014903993012756108
1761505125815983000,8.263983154296875,-0.07798340339064598,-0.2570676855828613,-0.002285188327729702
1761505125826019000,8.27401904296875,-0.11765899569690227,-0.3339521878208965,-0.04836377954408526
1761505125836054000,8.284053955078125,-0.16742518938481807,-0.3834158914308995,-0.07990779558196663
1761505125846089200,8.294089111328125,-0.28787176997363567,-0.381600731767714,-0.08596358848959207
1761505125856125200,8.304125244140625,-0.39810558410584923,-0.29747575688213107,-0.11327201278433204
1761505125866160000,8.31416015625,-0.5479822573184967,-0.19489128845930098,-0.1871637629471719
1761505125876195000,8.324195068359375,-0.6119114163935184,-0.14435725220404563,-0.26342618776410814
1761505125886231300,8.334231201171875,-0.5048667536914349,-0.14578765033334493,-0.35560996594280003
1761505125896266200,8.344266357421875,-0.3976706998199224,-0.1503660641647875,-0.34285774413645265
1761505125906302200,8.35430224609375,-0.2494055534571409,-0.1580922745026648,-0.16896701199933886
1761505125916337000,8.3643369140625,-0.12440613186955451,-0.17833127186782657,0.019226970778405666
1761505125926372000,8.3743720703125,-0.026412790629267692,-0.19629275275506078,0.08826791990920901
1761505125936408000,8.384407958984376,0.02304185289144516,-0.20118008640520274,0.06823445505350828
1761505125946443000,8.394443115234376,-0.06597206307947635,-0.20364443069212138,0.03393792543709278
1761505125956478200,8.404478271484376,-0.14415478843450547,-0.20902663518711923,-0.006531155334413051
1761505125966514200,8.41451416015625,-0.18824936622679234,-0.2555178988575935,-0.025225188279896973
1761505125976549000,8.424549072265625,-0.1474503228485584,-0.3208352974206209,0.03890753054320812
1761505125986584000,8.434583984375,-0.0705757574826479,-0.36697263308689,0.09444792371839285
1761505125996620300,8.444620361328125,-0.006167874979972839,-0.3443606960453093,0.1318197691269219
1761505126006655200,8.4546552734375,-0.06009995617568493,-0.29134434145502747,0.15216697610691188
1761505126016691200,8.464691162109375,-0.05635083277523517,-0.3342946445830166,0.1786522474505007
1761505126026726000,8.474725830078125,-0.018036591950058935,-0.4188203822892159,0.24677242847457526
1761505126036761000,8.484760986328125,0.04651625198125839,-0.4836210635017603,0.2859257504723966
1761505126046797000,8.494797119140625,0.17939035246670246,-0.5547431297555565,0.20396964405849574
1761505126056832000,8.50483203125,0.24584932228028772,-0.6622209962431341,0.007208908465504646
1761505126066867200,8.5148671875,0.16237550477981566,-0.750703070359677,-0.1067936105504632
1761505126076903200,8.524903076171874,0.025005261918902396,-0.725884417054057,-0.08668708045855164
1761505126086938000,8.534938232421876,-0.13494856867194174,-0.5744925900381058,-0.07379618083387612
1761505126096973000,8.54497314453125,-0.25344693780243394,-0.434408850434795,0.0421707701228559
1761505126107009300,8.55500927734375,-0.34919863759577274,-0.37587592438012357,0.11544526517018674
1761505126117043000,8.56504296875,-0.3792068223685026,-0.4226293826507404,0.21276713688969612
1761505126127079000,8.575078857421875,-0.3087228348225355,-0.5464072630867362,0.25877909261062737
1761505126137115000,8.585114990234375,-0.20378537353277204,-0.6454017441935836,0.20801000549048185
1761505126147151000,8.595151123046875,-0.15002806438207625,-0.7511741950027644,-0.02160918973982334
1761505126157186000,8.60518603515625,-0.08666764510571956,-0.7878599578432738,-0.1839057840645313
1761505126167221000,8.615220947265625,-0.03735153327286243,-0.6668104429252445,-0.35073242303431035
1761505126177257000,8.625257080078125,0.01616144572794437,-0.4626667574740946,-0.477682101906836
1761505126187292000,8.6352919921875,0.22230711865127084,-0.010206775107234715,-0.47963396662697194
1761505126197326800,8.645326904296875,-0.4963280579268932,0.37240426621418443,-0.2581251587465405
1761505126207362800,8.65536279296875,-1.1136696826756,-0.955313934931159,0.7220442543692887
1761505126217398000,8.66539794921875,-0.4976052382558584,-1.3000187682390212,0.8935033754453062
1761505126227433000,8.675432861328124,0.04960135851502418,-0.9350649276286364,0.6003289690189063
1761505126237469000,8.685468994140624,0.22858955992162228,-0.5030986480403691,-0.061901160378754136
1761505126247504000,8.69550390625,0.20549276197254657,-0.4252545800551772,-0.3224750274516642
1761505126257540000,8.7055400390625,0.0958989993095398,-0.6823791834570467,-0.2104784414306283
1761505126267575000,8.715574951171876,-0.21690555186867713,-0.6016484541196375,-0.13136311140060425
