time,seconds_elapsed,z,y,x
1761505117632129800,0.0801298828125,-0.053397711366415024,-0.016331568360328674,0.17026494443416595
1761505117642166000,0.090166015625,0.007534082513302565,-0.05648671090602875,0.17365461587905884
1761505117652201000,0.100200927734375,0.06763550639152527,-0.11175529658794403,0.17642110586166382
1761505117662235600,0.110235595703125,0.09320158511400223,-0.11670557409524918,0.1844065934419632
1761505117672271600,0.120271728515625,0.07020412385463715,-0.08922175318002701,0.18712061643600464
1761505117682306800,0.130306884765625,0.027828434482216835,-0.05173217132687569,0.16094280779361725
1761505117692341800,0.140341796875,-0.0005523395957425237,-0.03891837224364281,0.1214505285024643
1761505117702377700,0.150377685546875,-0.0005877596559002995,-0.05302167311310768,0.07154954969882965
1761505117712413000,0.160412841796875,0.026668095961213112,-0.10586357861757278,0.016115853562951088
1761505117722449000,0.170448974609375,0.07418421655893326,-0.1647024005651474,-0.03323012590408325
1761505117732483800,0.18048388671875,0.11570822447538376,-0.21112848818302155,-0.04900402948260307
1761505117742518800,0.190518798828125,0.12695474922657013,-0.23722399771213531,-0.037577737122774124
1761505117752555000,0.200554931640625,0.09629005193710327,-0.2259441763162613,0.008960471488535404
1761505117762590000,0.21058984375,0.04084277153015137,-0.15565989911556244,0.07527530938386917
1761505117772624600,0.220624755859375,-0.011974903754889965,-0.08121709525585175,0.13068370521068573
1761505117782660600,0.23066064453125,-0.025547171011567116,-0.05451757088303566,0.14798866212368011
1761505117792695800,0.24069580078125,0.004223773255944252,-0.08440223336219788,0.13228507339954376
1761505117802731800,0.250731689453125,0.061958443373441696,-0.1514206826686859,0.09005691856145859
1761505117812766700,0.2607666015625,0.12217944115400314,-0.23776063323020935,0.04214132949709892
1761505117822802000,0.270802001953125,0.16854001581668854,-0.3387596905231476,0.004547347314655781
1761505117832838000,0.280837890625,0.19760015606880188,-0.4082721769809723,0.0012141350889578462
1761505117842872800,0.290872802734375,0.22137846052646637,-0.4123721122741699,0.05266161262989044
1761505117852907800,0.30090771484375,0.22332549095153809,-0.3791965842247009,0.1253480613231659
1761505117862944000,0.310944091796875,0.20365086197853088,-0.3431568145751953,0.20600323379039764
1761505117872979000,0.32097900390625,0.20722375810146332,-0.31552812457084656,0.27164456248283386
1761505117883015000,0.331014892578125,0.2298252135515213,-0.3002575635910034,0.3180522620677948
1761505117893049600,0.341049560546875,0.258747398853302,-0.30683770775794983,0.35319241881370544
1761505117903084800,0.351084716796875,0.27468588948249817,-0.28257256746292114,0.3889525532722473
1761505117913120800,0.361120849609375,0.265956312417984,-0.26012104749679565,0.40934595465660095
1761505117923155700,0.37115576171875,0.23768605291843414,-0.23431849479675293,0.4094120264053345
1761505117933191000,0.38119091796875,0.2014273852109909,-0.20320771634578705,0.3936402499675751
1761505117943227000,0.391226806640625,0.17340613901615143,-0.16180594265460968,0.3685380816459656
1761505117953261800,0.40126171875,0.14907629787921906,-0.11423736065626144,0.3408263027667999
1761505117963297800,0.4112978515625,0.11191188544034958,-0.07431710511445999,0.3239607512950897
1761505117973333000,0.4213330078125,0.06220238655805588,-0.05729258432984352,0.2992601990699768
1761505117983368000,0.431367919921875,0.018996328115463257,-0.07437436282634735,0.26197436451911926
1761505117993404000,0.44140380859375,0.001568069215863943,-0.07730357348918915,0.1830473095178604
1761505118003438600,0.4514384765625,-0.01173335500061512,-0.09610576182603836,0.08662517368793488
1761505118013473800,0.461473876953125,-0.025068601593375206,-0.13297589123249054,0.005860552191734314
1761505118023509800,0.471509765625,-0.04162440821528435,-0.18890680372714996,-0.04667961969971657
1761505118033544700,0.481544677734375,-0.06729248911142349,-0.2414826601743698,-0.04198100417852402
1761505118043580700,0.49158056640625,-0.11431698501110077,-0.21585959196090698,0.02749580703675747
1761505118053615900,0.501615966796875,-0.17245273292064667,-0.18354693055152893,0.14002421498298645
1761505118063650800,0.51165087890625,-0.2348974645137787,-0.13877545297145844,0.26637470722198486
1761505118073686800,0.521686767578125,-0.29849427938461304,-0.09760139137506485,0.3813460171222687
1761505118083722000,0.531721923828125,-0.3425746560096741,-0.08158806711435318,0.4664236307144165
1761505118093757000,0.5417568359375,-0.359991192817688,-0.0917605459690094,0.5155892968177795
1761505118103792600,0.551792724609375,-0.35289493203163147,-0.0982983410358429,0.5294532179832458
1761505118113827600,0.56182763671875,-0.32900533080101013,-0.12220101058483124,0.5308143496513367
1761505118123863600,0.571863525390625,-0.3087032437324524,-0.14074194431304932,0.5287381410598755
1761505118133898500,0.5818984375,-0.28854045271873474,-0.14717693626880646,0.529224693775177
1761505118143933400,0.591933349609375,-0.260686457157135,-0.16401690244674683,0.5431314706802368
1761505118153969400,0.601969482421875,-0.20380079746246338,-0.16622759401798248,0.5572406053543091
1761505118164004600,0.612004638671875,-0.10884685814380646,-0.11728348582983017,0.5396304726600647
1761505118174039600,0.62203955078125,-0.004269047174602747,-0.045343246310949326,0.4889824688434601
1761505118184075500,0.632075439453125,0.06854976713657379,0.06760460883378983,0.4033067226409912
1761505118194110700,0.64211083984375,0.10468566417694092,0.2350205034017563,0.2858511805534363
1761505118204146700,0.652146728515625,0.11983133107423782,0.3797057867050171,0.16997279226779938
1761505118214181600,0.662181640625,0.12515978515148163,0.4902307093143463,0.06438298523426056
1761505118224216600,0.672216552734375,0.11544296890497208,0.5645970702171326,-0.03581631928682327
1761505118234252800,0.682252685546875,0.0925363227725029,0.5597373247146606,-0.08765022456645966
1761505118244287500,0.69228759765625,0.06796227395534515,0.4969061613082886,-0.08789709955453873
1761505118254323500,0.702323486328125,0.05263151973485947,0.3683508634567261,-0.035540949553251266
1761505118264358400,0.7123583984375,0.062366705387830734,0.23646792769432068,0.010369017720222473
1761505118274393600,0.7223935546875,0.09589590132236481,0.0829143226146698,0.0481393001973629
1761505118284429600,0.7324296875,0.13698475062847137,-0.05223684012889862,0.11210549622774124
1761505118294464500,0.742464599609375,0.18265849351882935,-0.09887651354074478,0.1605960726737976
1761505118304499700,0.752499755859375,0.22691065073013306,-0.06514651328325272,0.1446208357810974
1761505118314535700,0.76253564453125,0.24311918020248413,0.0005203816690482199,0.10668729990720749
1761505118324570600,0.772570556640625,0.24548006057739258,0.05470239371061325,0.07863275706768036
1761505118334606600,0.782606689453125,0.25432470440864563,0.08310447633266449,0.06627728790044785
1761505118344641800,0.792641845703125,0.27620017528533936,0.10297857969999313,0.07278312742710114
1761505118354676500,0.802676513671875,0.2996538281440735,0.09112165123224258,0.0913674607872963
1761505118364712400,0.81271240234375,0.3236997723579407,0.04663008451461792,0.11065993458032608
1761505118374747400,0.822747314453125,0.3430444300174713,0.033058881759643555,0.13625584542751312
1761505118384782600,0.832782470703125,0.3455105423927307,0.020169716328382492,0.16210289299488068
1761505118394818600,0.842818603515625,0.32041770219802856,0.008206530474126339,0.17970424890518188
1761505118404853500,0.852853515625,0.29294025897979736,0.009167399257421494,0.19882307946681976
1761505118414889500,0.862889404296875,0.2674117386341095,0.009905095212161541,0.2132004201412201
1761505118424924700,0.872924560546875,0.2452014982700348,-0.023028353229165077,0.2201848328113556
1761505118434959600,0.882959716796875,0.21987590193748474,-0.04754355177283287,0.22981801629066467
1761505118444995600,0.89299560546875,0.1897353082895279,-0.05627605691552162,0.24567581713199615
1761505118455030800,0.90303076171875,0.15840642154216766,-0.052853360772132874,0.25710129737854004
1761505118465066800,0.913066650390625,0.13114283978939056,-0.023732226341962814,0.279855340719223
1761505118475101400,0.923101318359375,0.11393295973539352,0.0014631407102569938,0.29327982664108276
1761505118485136400,0.933136474609375,0.10711100697517395,-0.010910438373684883,0.2961112856864929
1761505118495172600,0.943172607421875,0.13505315780639648,-0.04003716632723808,0.2719510793685913
1761505118505207600,0.95320751953125,0.17987816035747528,-0.07477091252803802,0.22541208565235138
1761505118515243500,0.963243408203125,0.22444136440753937,-0.11059362441301346,0.16755597293376923
1761505118525278500,0.973278564453125,0.2569572329521179,-0.14039359986782074,0.12061057239770889
1761505118535313700,0.983313720703125,0.2633863687515259,-0.15237435698509216,0.1002829298377037
1761505118545349600,0.993349609375,0.24975736439228058,-0.15057805180549622,0.12017487734556198
1761505118555384600,1.003384521484375,0.22712689638137817,-0.133707195520401,0.17395661771297455
1761505118565420500,1.013420654296875,0.19468826055526733,-0.09525221586227417,0.23718298971652985
1761505118575455700,1.023455810546875,0.1641034483909607,-0.04866474121809006,0.30055662989616394
1761505118585490400,1.033490478515625,0.13577914237976074,0.002811232814565301,0.3405778110027313
1761505118595526700,1.043526611328125,0.1065264418721199,0.025291241705417633,0.3553895354270935
1761505118605561600,1.0535615234375,0.08679188787937164,0.04327849671244621,0.3419879674911499
1761505118615596500,1.063596435546875,0.08234866708517075,0.03416090086102486,0.31470200419425964
1761505118625632500,1.073632568359375,0.09441385418176651,0.02364594116806984,0.282247930765152
1761505118635667500,1.08366748046875,0.09534543007612228,0.02142805978655815,0.24813923239707947
1761505118645703700,1.09370361328125,0.0881173387169838,0.02562733180820942,0.2116805613040924
1761505118655738600,1.103738525390625,0.06695506721735,0.0361819714307785,0.17481735348701477
1761505118665773600,1.113773681640625,0.04459037259221077,0.0766385868191719,0.12789565324783325
1761505118675809500,1.1238095703125,0.023515712469816208,0.11859162896871567,0.07542231678962708
1761505118685844700,1.1338447265625,0.009476859122514725,0.14879879355430603,0.019226424396038055
1761505118695880700,1.143880615234375,0.0017776599852368236,0.17259706556797028,-0.025588983669877052
1761505118705915600,1.15391552734375,0.0008945558220148087,0.17320267856121063,-0.05540493503212929
1761505118715950600,1.16395068359375,0.008212922140955925,0.16561293601989746,-0.07496851682662964
1761505118725986600,1.173986572265625,0.02550935372710228,0.15463298559188843,-0.09146440029144287
1761505118736021500,1.184021484375,0.05031030997633934,0.1298655867576599,-0.11425280570983887
1761505118746057500,1.194057373046875,0.08631837368011475,0.10397859662771225,-0.14671726524829865
1761505118756092700,1.2040927734375,0.1258964091539383,0.09358853846788406,-0.17854709923267365
1761505118766127600,1.214127685546875,0.1596469134092331,0.1043194830417633,-0.2003573328256607
1761505118776163600,1.22416357421875,0.17062632739543915,0.12731081247329712,-0.2157197743654251
1761505118786198500,1.234198486328125,0.16626593470573425,0.11609172075986862,-0.21801355481147766
1761505118796233700,1.244233642578125,0.15244519710540771,0.1033540889620781,-0.1935763955116272
1761505118806269700,1.254269775390625,0.14032648503780365,0.10838053375482559,-0.14748798310756683
1761505118816304600,1.2643046875,0.12853240966796875,0.12372540682554245,-0.1008744165301323
1761505118826340600,1.274340576171875,0.11185649037361145,0.1400926560163498,-0.06414996087551117
1761505118836375600,1.28437548828125,0.10225819796323776,0.15569372475147247,-0.03626586124300957
1761505118846410500,1.294410400390625,0.09005745500326157,0.1519021838903427,-0.008772452361881733
1761505118856446500,1.304446533203125,0.07953610271215439,0.13428111374378204,0.019337212666869164
1761505118866481700,1.314481689453125,0.06754948198795319,0.11272814869880676,0.05703718587756157
1761505118876517600,1.324517578125,0.07247713208198547,0.0924345925450325,0.09799473732709885
1761505118886552600,1.334552490234375,0.09492731094360352,0.06718995422124863,0.12920431792736053
1761505118896587500,1.34458740234375,0.12488840520381927,0.02839888446033001,0.15248487889766693
1761505118906623500,1.35462353515625,0.15145663917064667,-0.010598582215607166,0.1720481961965561
1761505118916658700,1.36465869140625,0.17564000189304352,-0.03131131827831268,0.18024247884750366
1761505118926694700,1.374694580078125,0.1978161484003067,-0.043788228183984756,0.16496577858924866
1761505118936729600,1.3847294921875,0.2316334992647171,-0.030195185914635658,0.12812042236328125
1761505118946764500,1.3947646484375,0.27187758684158325,0.0011459582019597292,0.057067014276981354
1761505118956800500,1.404800537109375,0.29736775159835815,0.054375890642404556,-0.04403483495116234
1761505118966835500,1.41483544921875,0.2840926945209503,0.08666245639324188,-0.14009638130664825
1761505118976871400,1.424871337890625,0.28690314292907715,0.11657828092575073,-0.20891566574573517
1761505118986906600,1.43490673828125,0.33855754137039185,0.13527846336364746,-0.23627112805843353
1761505118996941600,1.444941650390625,0.34425270557403564,0.10239002108573914,-0.19310155510902405
1761505119006977500,1.4549775390625,0.33874955773353577,0.08533220738172531,-0.136042520403862
1761505119017012500,1.465012451171875,0.3303036093711853,0.09634251147508621,-0.10074445605278015
1761505119027048700,1.475048583984375,0.3167062997817993,0.13146108388900757,-0.0873306468129158
1761505119037083600,1.485083740234375,0.2746392786502838,0.17208229005336761,-0.07625801861286163
1761505119047118600,1.49511865234375,0.23201033473014832,0.18213865160942078,-0.06279999762773514
1761505119057154600,1.505154541015625,0.22712795436382294,0.1652265042066574,-0.03569035232067108
1761505119067189800,1.515189697265625,0.2607666254043579,0.1073557510972023,-0.0036618465092033148
1761505119077225700,1.525225830078125,0.2990442216396332,0.038054440170526505,0.02624252252280712
1761505119087260400,1.535260498046875,0.24619752168655396,-0.037336185574531555,0.04037272185087204
1761505119097295600,1.545295654296875,0.2547542452812195,-0.08665207028388977,0.049124933779239655
1761505119107331300,1.555331298828125,0.2929117679595947,-0.10274741798639297,0.04747271165251732
1761505119117366300,1.5653662109375,0.32806283235549927,-0.053294647485017776,0.046174950897693634
1761505119127401500,1.5754013671875,0.3568641245365143,0.022290924564003944,0.051182493567466736
1761505119137437400,1.5854375,0.3527148962020874,0.07972864806652069,0.0490567572414875
1761505119147472400,1.595472412109375,0.33619505167007446,0.12059565633535385,0.03302772343158722
1761505119157508400,1.60550830078125,0.3147062659263611,0.13720153272151947,0.003915379289537668
1761505119167543300,1.615543212890625,0.2876104712486267,0.13776879012584686,-0.04697869345545769
1761505119177578200,1.625578125,0.2589367628097534,0.12014957517385483,-0.10424118489027023
1761505119187614500,1.635614501953125,0.2285623401403427,0.1012432649731636,-0.15360873937606812
1761505119197649200,1.645649169921875,0.20234617590904236,0.08356626331806183,-0.18367742002010345
1761505119207685000,1.65568505859375,0.18361350893974304,0.08341899514198303,-0.19655220210552216
1761505119217720300,1.66572021484375,0.16684703528881073,0.10722792148590088,-0.19778232276439667
1761505119227755300,1.67575537109375,0.15754222869873047,0.12530305981636047,-0.19267651438713074
1761505119237791200,1.685791259765625,0.15279513597488403,0.133745014667511,-0.18046271800994873
1761505119247826400,1.695826416015625,0.15090562403202057,0.13793709874153137,-0.16822229325771332
1761505119257862400,1.7058623046875,0.16304591298103333,0.12890765070915222,-0.1652832329273224
1761505119267897300,1.7158974609375,0.17996230721473694,0.10198149085044861,-0.16927984356880188
1761505119277932300,1.725932373046875,0.19519639015197754,0.07415705174207687,-0.16867876052856445
1761505119287968500,1.735968505859375,0.20244552195072174,0.04872093349695206,-0.1637210249900818
1761505119298003500,1.74600341796875,0.21238097548484802,0.046299055218696594,-0.15538959205150604
1761505119308039400,1.756039306640625,0.2088160663843155,0.07252319902181625,-0.12965066730976105
1761505119318074000,1.76607421875,0.19536390900611877,0.10258682817220688,-0.08265919238328934
1761505119328109300,1.776109375,0.175789937376976,0.1393248736858368,-0.03479473292827606
1761505119338145300,1.786145263671875,0.15929564833641052,0.17432279884815216,0.005652559455484152
1761505119348180200,1.79618017578125,0.14638197422027588,0.19598734378814697,0.02833416871726513
1761505119358216200,1.80621630859375,0.13577380776405334,0.21200093626976013,0.02628779597580433
1761505119368251400,1.81625146484375,0.13776132464408875,0.25801822543144226,-0.013236177153885365
1761505119378286300,1.826286376953125,0.14437076449394226,0.2860892713069916,-0.07372935116291046
1761505119388322300,1.836322265625,0.1430213302373886,0.2626212239265442,-0.11745898425579071
1761505119398357500,1.846357421875,0.1417456865310669,0.20304232835769653,-0.13650697469711304
1761505119408393500,1.8563935546875,0.14714044332504272,0.14224421977996826,-0.1288732886314392
1761505119418428400,1.866428466796875,0.15139244496822357,0.09708846360445023,-0.09650736302137375
1761505119428463000,1.876463134765625,0.14882968366146088,0.08495457470417023,-0.04893851280212402
1761505119438499300,1.886499267578125,0.14165407419204712,0.08490476757287979,-0.008616391569375992
1761505119448534300,1.8965341796875,0.1385331153869629,0.09849754720926285,0.011317103169858456
1761505119458570200,1.9065703125,0.14315928518772125,0.10585212707519531,0.0137789286673069
1761505119468605200,1.916605224609375,0.15133093297481537,0.11207407712936401,0.019178221002221107
1761505119478640400,1.926640380859375,0.16683292388916016,0.09566500782966614,0.04345639795064926
1761505119488676400,1.93667626953125,0.17249400913715363,0.07111785560846329,0.0832568034529686
1761505119498711300,1.946711181640625,0.1602783501148224,0.05537457391619682,0.12705329060554504
1761505119508747300,1.956747314453125,0.12646712362766266,0.04073304682970047,0.15111520886421204
1761505119518782500,1.966782470703125,0.08774716407060623,0.04899124428629875,0.12856969237327576
1761505119528817400,1.9768173828125,0.05065571889281273,0.04772517830133438,0.08062294125556946
1761505119538853400,1.986853271484375,0.01804158464074135,0.04416479915380478,0.01792946644127369
1761505119548888300,1.996888427734375,-0.01564314216375351,0.05516818165779114,-0.04290299117565155
1761505119558924500,2.006924560546875,-0.050997935235500336,0.1080487072467804,-0.0751299038529396
1761505119568959200,2.016959228515625,-0.08563048392534256,0.1415315717458725,-0.0812130942940712
1761505119578994200,2.026994140625,-0.11966194957494736,0.13555675745010376,-0.08142295479774475
1761505119589030100,2.037030029296875,-0.138993039727211,0.12018100172281265,-0.08891415596008301
1761505119599065300,2.0470654296875,-0.13659672439098358,0.10488060861825943,-0.10894698649644852
1761505119609100300,2.057100341796875,-0.1102743074297905,0.09912578761577606,-0.13537566363811493
1761505119619136300,2.06713623046875,-0.08071029186248779,0.09728607535362244,-0.16418707370758057
1761505119629171500,2.07717138671875,-0.059726715087890625,0.08882813900709152,-0.17990638315677643
1761505119639207400,2.08720751953125,-0.045699842274188995,0.09848210215568542,-0.1564447283744812
1761505119649242400,2.097242431640625,-0.032112929970026016,0.1307966262102127,-0.10606305301189423
1761505119659277300,2.10727734375,-0.024697355926036835,0.136339470744133,-0.057792194187641144
1761505119669313500,2.1173134765625,-0.028864137828350067,0.14861717820167542,-0.011728827841579914
1761505119679348200,2.12734814453125,-0.04351978003978729,0.17777664959430695,0.00398648576810956
1761505119689384200,2.13738427734375,-0.055861666798591614,0.20482851564884186,-0.020739100873470306
1761505119699419100,2.147419189453125,-0.06615132093429565,0.21806256473064423,-0.06357791274785995
1761505119709454300,2.157454345703125,-0.06938359886407852,0.21944047510623932,-0.11096113920211792
1761505119719490300,2.167490234375,-0.062651127576828,0.20794548094272614,-0.14321734011173248
1761505119729525200,2.177525146484375,-0.06025242060422897,0.17232675850391388,-0.15010987222194672
1761505119739561200,2.187561279296875,-0.06400348246097565,0.12841416895389557,-0.1365695595741272
1761505119749596400,2.197596435546875,-0.07012369483709335,0.06526901572942734,-0.12084812670946121
1761505119759631400,2.20763134765625,-0.07571446895599365,0.003510312642902136,-0.10846735537052155
1761505119769667300,2.217667236328125,-0.08498839288949966,-0.03182503953576088,-0.09707408398389816
1761505119779702500,2.22770263671875,-0.09388148784637451,-0.04440395161509514,-0.07790971547365189
1761505119789738500,2.237738525390625,-0.1025916188955307,-0.0458441860973835,-0.07327128201723099
1761505119799773200,2.247773193359375,-0.11108630895614624,-0.05044932663440704,-0.07426624000072479
1761505119809808100,2.25780810546875,-0.11218033730983734,-0.03816576302051544,-0.08209380507469177
1761505119819844400,2.26784423828125,-0.10369523614645004,-0.019650133326649666,-0.07932119071483612
1761505119829879300,2.27787939453125,-0.08777645975351334,0.00872265174984932,-0.06664320826530457
1761505119839915300,2.287915283203125,-0.08583607524633408,0.023326095193624496,-0.038601189851760864
1761505119849950200,2.2979501953125,-0.09584503620862961,0.036064259707927704,-0.010424943640828133
1761505119859985400,2.3079853515625,-0.11989151686429977,0.05627472326159477,-0.008640360087156296
1761505119870021400,2.318021484375,-0.1614200472831726,0.08424856513738632,-0.04652835428714752
1761505119880056300,2.328056396484375,-0.19705447554588318,0.12441515922546387,-0.11597054451704025
1761505119890092300,2.33809228515625,-0.21703670918941498,0.1594780683517456,-0.1984987109899521
1761505119900127500,2.34812744140625,-0.2136070877313614,0.15536348521709442,-0.24706491827964783
1761505119910162200,2.358162109375,-0.19209380447864532,0.12815983593463898,-0.2431788295507431
1761505119920198400,2.368198486328125,-0.16230902075767517,0.09065160900354385,-0.1819133460521698
1761505119930233300,2.3782333984375,-0.13571655750274658,0.05541452392935753,-0.09872151911258698
1761505119940268300,2.388268310546875,-0.10893847048282623,0.01884292997419834,-0.02387950010597706
1761505119950304300,2.39830419921875,-0.08874931186437607,-0.0162466149777174,0.023565780371427536
1761505119960339200,2.408339111328125,-0.0706547275185585,-0.03127430006861687,0.047260988503694534
1761505119970375400,2.41837548828125,-0.06955298036336899,-0.03416675701737404,0.048101749271154404
1761505119980410400,2.428410400390625,-0.07949802279472351,-0.014307300560176373,0.037039510905742645
1761505119990445300,2.4384453125,-0.09322981536388397,0.003439738880842924,0.03009372018277645
1761505120000481300,2.448481201171875,-0.09689192473888397,0.022853916510939598,0.023724503815174103
1761505120010516500,2.4585166015625,-0.09327349066734314,0.027164509519934654,0.01774810440838337
1761505120020552400,2.468552490234375,-0.08541769534349442,0.027398334816098213,0.009298693388700485
1761505120030587400,2.47858740234375,-0.0733618289232254,0.027628431096673012,-0.003668504301458597
1761505120040622300,2.488622314453125,-0.05097636580467224,0.02082831598818302,-0.021083714440464973
1761505120050658300,2.498658203125,-0.02159024588763714,0.01276027038693428,-0.026311764493584633
1761505120060693200,2.508693359375,0.011650530621409416,-0.016811737790703773,-0.022011026740074158
1761505120070729200,2.518729248046875,0.04110082983970642,-0.05240035802125931,-0.007089600898325443
1761505120080764400,2.528764404296875,0.06474224478006363,-0.08146023750305176,0.008048338815569878
1761505120090799400,2.53879931640625,0.07939308881759644,-0.12046356499195099,0.013113937340676785
1761505120100835300,2.54883544921875,0.08395987749099731,-0.1279294639825821,0.0057010287418961525
1761505120110871300,2.558871337890625,0.0688115581870079,-0.1162475124001503,-0.011744806542992592
1761505120120907300,2.5689072265625,0.052494365721940994,-0.09312701225280762,-0.034269291907548904
1761505120130942500,2.5789423828125,0.040398288518190384,-0.06285406649112701,-0.05498575419187546
1761505120140977400,2.588977294921875,0.021829931065440178,-0.03718731552362442,-0.056114137172698975
1761505120151013400,2.599013427734375,0.005108475685119629,0.01068087387830019,-0.043403930962085724
1761505120161048300,2.60904833984375,-0.005093561951071024,0.051835235208272934,-0.027284352108836174
1761505120171083300,2.619083251953125,-0.004526308737695217,0.06825202703475952,-0.013615410774946213
1761505120181119500,2.629119384765625,0.001285241567529738,0.06320586800575256,0.0041097900830209255
1761505120191154200,2.639154296875,0.001576857641339302,0.03520166128873825,0.01955932006239891
1761505120201190100,2.649190185546875,-0.004643487744033337,-0.01359517127275467,0.029337381944060326
1761505120211225300,2.659225341796875,-0.006535930093377829,-0.05150233954191208,0.02901407517492771
1761505120221260300,2.66926025390625,-0.020717529579997063,-0.07390564680099487,0.019820310175418854
1761505120231296300,2.679296142578125,-0.03855537995696068,-0.09932631999254227,0.003942543640732765
1761505120241331500,2.68933154296875,-0.07034766674041748,-0.09297601133584976,0.003078614128753543
1761505120251367400,2.699367431640625,-0.09942485392093658,-0.062733955681324,0.006654973141849041
1761505120261402400,2.70940234375,-0.13133512437343597,-0.05420997366309166,0.008733304217457771
1761505120271437300,2.719437255859375,-0.1527693122625351,-0.07171227037906647,-0.0004748416249640286
1761505120281473300,2.729473388671875,-0.1661953628063202,-0.08872054517269135,-0.006564159411936998
1761505120291508500,2.739508544921875,-0.16534101963043213,-0.10433093458414078,-0.020593425258994102
1761505120301544400,2.74954443359375,-0.16894188523292542,-0.11864755302667618,-0.03352067619562149
1761505120311579100,2.7595791015625,-0.16485606133937836,-0.11987260729074478,-0.048715874552726746
1761505120321614300,2.7696142578125,-0.15559758245944977,-0.09790339320898056,-0.053285058587789536
1761505120331650300,2.779650390625,-0.14344744384288788,-0.040584977716207504,-0.049915362149477005
1761505120341685200,2.789685302734375,-0.13079982995986938,0.016005864366889,-0.048524126410484314
1761505120351720400,2.799720458984375,-0.11819908022880554,0.08825422823429108,-0.04087978973984718
1761505120361756400,2.80975634765625,-0.09503064304590225,0.1444125771522522,-0.022051772102713585
1761505120371791400,2.819791259765625,-0.06589432805776596,0.18771743774414062,0.016923855990171432
1761505120381827300,2.829827392578125,-0.02039209008216858,0.1886032074689865,0.05675595626235008
1761505120391862300,2.8398623046875,0.022603046149015427,0.13280917704105377,0.0914020836353302
1761505120401897500,2.8498974609375,0.05573436990380287,0.01991618424654007,0.1080218106508255
1761505120411933400,2.859933349609375,0.06606902927160263,-0.12121883779764175,0.09606528282165527
1761505120421968100,2.869968017578125,0.05772534757852554,-0.20947280526161194,0.06227162852883339
1761505120432004000,2.880004150390625,0.04211016744375229,-0.24650831520557404,0.004205397795885801
1761505120442039300,2.890039306640625,0.009942112490534782,-0.2509933412075043,-0.0641518235206604
1761505120452074200,2.90007421875,-0.0438137948513031,-0.20944350957870483,-0.1331511288881302
1761505120462110200,2.910110107421875,-0.10824551433324814,-0.13421478867530823,-0.18047204613685608
1761505120472145400,2.9201455078125,-0.15163452923297882,-0.010581538081169128,-0.18083928525447845
1761505120482181400,2.930181396484375,-0.14885684847831726,0.14236539602279663,-0.13050980865955353
1761505120492216300,2.94021630859375,-0.10037773847579956,0.2523006796836853,-0.05319877341389656
1761505120502251300,2.950251220703125,-0.03259709104895592,0.28709515929222107,0.023182550445199013
1761505120512287500,2.96028759765625,0.04518985003232956,0.2562224566936493,0.09610309451818466
1761505120522322400,2.970322509765625,0.11958152800798416,0.16814319789409637,0.16928915679454803
1761505120532357000,2.980357177734375,0.18029360473155975,0.056526925414800644,0.23489001393318176
1761505120542393300,2.990393310546875,0.21631339192390442,-0.05874001234769821,0.27233830094337463
1761505120552428300,3.00042822265625,0.2127668559551239,-0.15600131452083588,0.2733343243598938
1761505120562464300,3.01046435546875,0.1801133155822754,-0.19315321743488312,0.2428981363773346
1761505120572499200,3.020499267578125,0.1291971355676651,-0.17129690945148468,0.18783195316791534
1761505120582534400,3.030534423828125,0.0739985927939415,-0.12321674078702927,0.11768189072608948
1761505120592570400,3.0405703125,0.021499965339899063,-0.07742448151111603,0.0378887914121151
1761505120602605300,3.050605224609375,-0.03290655091404915,-0.04363589361310005,-0.02418789453804493
1761505120612641300,3.060641357421875,-0.09415605664253235,-0.05343100056052208,-0.06565064936876297
1761505120622676500,3.070676513671875,-0.15241244435310364,-0.09850074350833893,-0.09078209847211838
1761505120632711400,3.08071142578125,-0.19807898998260498,-0.1634049117565155,-0.11430393904447556
1761505120642747400,3.090747314453125,-0.21813206374645233,-0.24536634981632233,-0.14920413494110107
1761505120652782300,3.1007822265625,-0.21279935538768768,-0.33219045400619507,-0.18112504482269287
1761505120662818300,3.110818359375,-0.19647124409675598,-0.38540974259376526,-0.20734013617038727
1761505120672853200,3.120853271484375,-0.18044248223304749,-0.4153063893318176,-0.22450128197669983
1761505120682888200,3.13088818359375,-0.16935893893241882,-0.4296312630176544,-0.21817387640476227
1761505120692924200,3.140924072265625,-0.16318252682685852,-0.367236852645874,-0.1762741059064865
1761505120702959400,3.15095947265625,-0.1643865406513214,-0.2720666825771332,-0.12344416975975037
1761505120712994300,3.160994384765625,-0.17103326320648193,-0.15655872225761414,-0.061524346470832825
1761505120723030300,3.1710302734375,-0.17705999314785004,-0.03172410652041435,-0.0067540425807237625
1761505120733065500,3.1810654296875,-0.18264411389827728,0.055687762796878815,0.03995008021593094
1761505120743101400,3.191101318359375,-0.1872148960828781,0.07962984591722488,0.07106512039899826
1761505120753136400,3.201136474609375,-0.19614127278327942,0.07708919048309326,0.08816181868314743
1761505120763171300,3.21117138671875,-0.20968292653560638,0.044443365186452866,0.09663146734237671
1761505120773207600,3.22120751953125,-0.22419288754463196,-0.007767908275127411,0.09106359630823135
1761505120783242200,3.2312421875,-0.23118528723716736,-0.043231625109910965,0.08531436324119568
1761505120793278200,3.2412783203125,-0.2355981469154358,-0.08175531774759293,0.06319548189640045
1761505120803313200,3.251313232421875,-0.22344987094402313,-0.11988113075494766,0.044374387711286545
1761505120813348400,3.261348388671875,-0.18869508802890778,-0.1404615044593811,0.03338112682104111
1761505120823384300,3.27138427734375,-0.1476682871580124,-0.1437651515007019,0.027993017807602882
1761505120833419300,3.281419189453125,-0.10659195482730865,-0.13435514271259308,0.028501415625214577
1761505120843454500,3.291454345703125,-0.07342840731143951,-0.11665844172239304,0.04174105450510979
1761505120853490400,3.301490478515625,-0.042806584388017654,-0.10168375074863434,0.06360907107591629
1761505120863525400,3.311525390625,-0.019958527758717537,-0.0860440731048584,0.09126386791467667
1761505120873561300,3.321561279296875,0.0010567422723397613,-0.0907144546508789,0.12083560973405838
1761505120883596500,3.331596435546875,0.022173745557665825,-0.11411458998918533,0.15001267194747925
1761505120893631200,3.34163134765625,0.039920516312122345,-0.14666347205638885,0.18657813966274261
1761505120903667200,3.351667236328125,0.06953193992376328,-0.16805292665958405,0.2250320464372635
1761505120913702100,3.3617021484375,0.10882368683815002,-0.1821567565202713,0.2536221444606781
1761505120923738400,3.37173828125,0.15428410470485687,-0.17646637558937073,0.2714754343032837
1761505120933773300,3.381773193359375,0.1745920479297638,-0.16282886266708374,0.281576007604599
1761505120943808300,3.391808349609375,0.1590687483549118,-0.1318160891532898,0.30675166845321655
1761505120953844200,3.40184423828125,0.11324639618396759,-0.08006953448057175,0.3357867896556854
1761505120963879400,3.41187939453125,0.052261605858802795,-0.03664802759885788,0.34717074036598206
1761505120973914400,3.421914306640625,0.003951332066208124,-0.04441487044095993,0.35551920533180237
1761505120983950300,3.431950439453125,-0.046657782047986984,-0.0989617332816124,0.35718396306037903
1761505120993985500,3.441985595703125,-0.07881758362054825,-0.12085238844156265,0.3296753764152527
1761505121004021500,3.452021484375,-0.09510307759046555,-0.1355258673429489,0.26585325598716736
1761505121014056400,3.462056396484375,-0.10604148358106613,-0.15155597031116486,0.17281411588191986
1761505121024091100,3.472091064453125,-0.1205700933933258,-0.17060954868793488,0.08995838463306427
1761505121034127400,3.48212744140625,-0.1375541388988495,-0.18297594785690308,0.05396336689591408
1761505121044162300,3.492162353515625,-0.15392538905143738,-0.1671498417854309,0.07132398337125778
1761505121054198300,3.5021982421875,-0.1559581756591797,-0.15214213728904724,0.12460877746343613
1761505121064233200,3.512233154296875,-0.1490030586719513,-0.12787887454032898,0.1976531594991684
1761505121074268400,3.522268310546875,-0.14063380658626556,-0.06917667388916016,0.25618064403533936
1761505121084304400,3.532304443359375,-0.16892537474632263,-0.023735688999295235,0.28885123133659363
1761505121094339300,3.54233935546875,-0.22232814133167267,0.005509547423571348,0.2817089259624481
1761505121104374000,3.5523740234375,-0.2815704345703125,0.0035414716694504023,0.2435423582792282
1761505121114410000,3.562409912109375,-0.33265092968940735,-0.02100248634815216,0.21661992371082306
1761505121124445000,3.57244482421875,-0.3588721454143524,-0.04446467012166977,0.21308590471744537
1761505121134481000,3.58248095703125,-0.3515865206718445,-0.06844031065702438,0.2198609858751297
1761505121144516000,3.59251611328125,-0.3227170705795288,-0.07904767990112305,0.22806619107723236
1761505121154551000,3.602551025390625,-0.28726106882095337,-0.08153427392244339,0.2481570839881897
1761505121164587000,3.6125869140625,-0.2482425570487976,-0.04795634001493454,0.27782416343688965
1761505121174622000,3.6226220703125,-0.20352809131145477,-0.014965900219976902,0.30785104632377625
1761505121184658200,3.632658203125,-0.14149987697601318,-0.009811618365347385,0.33857566118240356
1761505121194693000,3.642693115234375,-0.06432599574327469,0.004119910299777985,0.3535673916339874
1761505121204727800,3.652727783203125,0.021707693114876747,-0.015858856961131096,0.37461942434310913
1761505121214763800,3.662763671875,0.10441349446773529,-0.03259975463151932,0.3886188566684723
1761505121224799000,3.672799072265625,0.17499898374080658,-0.06487167626619339,0.391777366399765
1761505121234834000,3.682833984375,0.21422894299030304,-0.09549323469400406,0.36482298374176025
1761505121244870000,3.692869873046875,0.21617303788661957,-0.11699452996253967,0.3076150715351105
1761505121254905000,3.702905029296875,0.19541876018047333,-0.12327266484498978,0.24637888371944427
1761505121264941000,3.712941162109375,0.1635308712720871,-0.13240250945091248,0.1988244205713272
1761505121274976000,3.72297607421875,0.1175154447555542,-0.12625381350517273,0.1732567399740219
1761505121285011000,3.733010986328125,0.06423650681972504,-0.10691925883293152,0.17021940648555756
1761505121295047200,3.743047119140625,0.0027856663800776005,-0.06830049306154251,0.18919043242931366
1761505121305082000,3.75308203125,-0.0636463537812233,-0.024897359311580658,0.19939912855625153
1761505121315118000,3.7631181640625,-0.11288793385028839,-0.0051622712053358555,0.18550993502140045
1761505121325153000,3.773153076171875,-0.14087988436222076,-0.0005166532355360687,0.1377301663160324
1761505121335188000,3.78318798828125,-0.14550979435443878,-0.015416240319609642,0.07705803215503693
1761505121345224000,3.793223876953125,-0.1295880824327469,-0.06394010037183762,0.038895200937986374
1761505121355259000,3.8032587890625,-0.09867224842309952,-0.10750196129083633,0.034261833876371384
1761505121365294000,3.813294189453125,-0.07224330306053162,-0.11312203109264374,0.056770071387290955
1761505121375330000,3.823330078125,-0.0718398317694664,-0.07432270050048828,0.10825297236442566
1761505121385365000,3.833364990234375,-0.08190099149942398,-0.01793399266898632,0.14608822762966156
1761505121395401000,3.84340087890625,-0.044381313025951385,0.02954271249473095,0.15420900285243988
1761505121405436200,3.853436279296875,-0.036803022027015686,0.07588624209165573,0.12327053397893906
1761505121415471000,3.86347119140625,-0.03897802531719208,0.08771946281194687,0.09017650038003922
1761505121425507000,3.873507080078125,-0.04833371192216873,0.07085393369197845,0.07113436609506607
1761505121435542000,3.8835419921875,-0.05679883435368538,0.07440712302923203,0.06339441984891891
1761505121445577000,3.893576904296875,-0.07435359060764313,0.08524379134178162,0.0465744249522686
1761505121455613000,3.903613037109375,-0.1002752035856247,0.09640856087207794,0.012871057726442814
1761505121465647900,3.91364794921875,-0.15241697430610657,0.10408006608486176,-0.008488559164106846
1761505121475683800,3.923683837890625,-0.18674537539482117,0.11550316214561462,-0.034144122153520584
1761505121485719000,3.933718994140625,-0.18344280123710632,0.1294085830450058,-0.0704515278339386
1761505121495754000,3.94375390625,-0.19813092052936554,0.14912636578083038,-0.12713052332401276
1761505121505790000,3.9537900390625,-0.22999697923660278,0.17877453565597534,-0.17914845049381256
1761505121515825200,3.9638251953125,-0.24885296821594238,0.18039827048778534,-0.2002185732126236
1761505121525861000,3.973861083984375,-0.2595333158969879,0.15828071534633636,-0.19947528839111328
1761505121535896000,3.98389599609375,-0.24104776978492737,0.12995800375938416,-0.17858465015888214
1761505121545931000,3.993930908203125,-0.18827404081821442,0.09345884621143341,-0.12984640896320343
1761505121555967000,4.003967041015625,-0.09426072239875793,0.06649993360042572,-0.09172246605157852
1761505121566001000,4.0140009765625,0.020913537591695786,0.08460303395986557,-0.05673518404364586
1761505121576036000,4.0240361328125,0.0790247768163681,0.1259472817182541,-0.005285309627652168
1761505121586072000,4.034072021484375,0.10646358877420425,0.1365290880203247,0.03542963042855263
1761505121596107000,4.04410693359375,0.11984437704086304,0.09003881365060806,0.07005711644887924
1761505121606142000,4.054141845703125,0.11362429708242416,0.0388275571167469,0.09114935249090195
1761505121616178000,4.064177978515625,0.15869270265102386,0.054179348051548004,0.04614139720797539
1761505121626213000,4.074213134765625,0.19688110053539276,0.07925780117511749,-0.04067499190568924
1761505121636248000,4.084248046875,0.1894058734178543,0.10577596724033356,-0.14567144215106964
1761505121646284000,4.094283935546875,0.1665615439414978,0.17074431478977203,-0.22160029411315918
1761505121656319000,4.104319091796875,0.15215544402599335,0.20099756121635437,-0.2428419440984726
1761505121666355000,4.11435498046875,0.15315866470336914,0.18558157980442047,-0.22742517292499542
1761505121676390000,4.124389892578125,0.1858185976743698,0.15474483370780945,-0.21033592522144318
1761505121686425000,4.134425048828125,0.24164031445980072,0.10732565820217133,-0.2029230147600174
1761505121696461000,4.1444609375,0.2993829846382141,0.08773038536310196,-0.17849278450012207
1761505121706496000,4.15449609375,0.32641884684562683,0.08929445594549179,-0.15071360766887665
1761505121716531000,4.164531005859375,0.33085009455680847,0.06113046407699585,-0.1301678568124771
1761505121726567000,4.17456689453125,0.3220113217830658,0.04764395207166672,-0.10748278349637985
1761505121736602000,4.18460205078125,0.3113674819469452,0.061593588441610336,-0.09062683582305908
1761505121746638000,4.19463818359375,0.3196040987968445,0.047857269644737244,-0.08473779261112213
1761505121756673000,4.204673095703125,0.3483923375606537,0.023673903197050095,-0.07937391847372055
1761505121766708000,4.2147080078125,0.3900492191314697,0.03212331607937813,-0.07915527373552322
1761505121776744000,4.224743896484375,0.42212966084480286,0.03725123032927513,-0.0946359634399414
1761505121786779000,4.23477880859375,0.42676064372062683,0.010972223244607449,-0.11342509835958481
1761505121796814000,4.24481396484375,0.408671110868454,0.015899604186415672,-0.12396189570426941
1761505121806850000,4.25485009765625,0.38034626841545105,0.013049488887190819,-0.12539973855018616
1761505121816885000,4.264885009765625,0.3467494249343872,-0.021338311955332756,-0.1187298446893692
1761505121826921000,4.2749208984375,0.31602799892425537,-0.04440448060631752,-0.096123605966568
1761505121836956000,4.284955810546875,0.28522375226020813,-0.02947586588561535,-0.05647925287485123
1761505121846991000,4.2949912109375,0.2568261921405792,-0.013773602433502674,-0.002472745021805167
1761505121857027000,4.305027099609375,0.24732670187950134,-0.0017534252256155014,0.039499204605817795
1761505121867062000,4.31506201171875,0.26179325580596924,0.03707519546151161,0.014991998672485352
1761505121877098000,4.325097900390625,0.29675471782684326,0.11221282184123993,-0.12124732881784439
1761505121887133000,4.3351328125,0.3042296767234802,0.1674654334783554,-0.30547335743904114
1761505121897168000,4.34516796875,0.27115747332572937,0.1874881386756897,-0.4668335020542145
1761505121907203800,4.355203857421875,0.20028595626354218,0.19082054495811462,-0.5581825971603394
1761505121917239000,4.365239013671875,0.09334619343280792,0.17748557031154633,-0.5362339019775391
1761505121927274000,4.37527392578125,-0.025045698508620262,0.1595153659582138,-0.43338844180107117
1761505121937310000,4.38531005859375,-0.13320492208003998,0.17025455832481384,-0.29988470673561096
1761505121947345000,4.395344970703125,-0.1878889501094818,0.1888096034526825,-0.1723637729883194
1761505121957381000,4.405381103515625,-0.17789170145988464,0.16923855245113373,-0.05649176985025406
1761505121967416000,4.415416015625,-0.09916093945503235,0.11390846222639084,0.06676198542118073
1761505121977451000,4.425450927734375,0.023325562477111816,0.059611931443214417,0.20829914510250092
1761505121987487000,4.435487060546875,0.14679184556007385,0.016318785026669502,0.33561474084854126
1761505121997522000,4.44552197265625,0.23293444514274597,-0.002130262553691864,0.4072372615337372
1761505122007556900,4.455556884765625,0.2797168791294098,0.0068272799253463745,0.4084649980068207
1761505122017592800,4.4655927734375,0.28654760122299194,0.02587766945362091,0.33431458473205566
1761505122027628000,4.4756279296875,0.2797357738018036,0.05922657251358032,0.20182126760482788
1761505122037664000,4.4856640625,0.2696716785430908,0.09235869348049164,0.05739085376262665
1761505122047699000,4.495698974609375,0.27278733253479004,0.10482468456029892,-0.05263764411211014
1761505122057734000,4.50573388671875,0.29212960600852966,0.10999947041273117,-0.12721307575702667
1761505122067770000,4.51577001953125,0.3047870695590973,0.13793949782848358,-0.18854035437107086
1761505122077805000,4.52580517578125,0.308542937040329,0.1747393161058426,-0.22861240804195404
1761505122087840000,4.535840087890625,0.3049521744251251,0.1728239804506302,-0.2291487604379654
1761505122097876000,4.5458759765625,0.3031921088695526,0.15815874934196472,-0.20642347633838654
1761505122107911200,4.5559111328125,0.2938859462738037,0.16863934695720673,-0.20063988864421844
1761505122117946600,4.565946533203125,0.28802940249443054,0.15764422714710236,-0.21052208542823792
1761505122127981600,4.575981689453125,0.28100770711898804,0.13989372551441193,-0.22495029866695404
1761505122138017500,4.586017578125,0.2958763837814331,0.11993572860956192,-0.22398117184638977
1761505122148053800,4.5960537109375,0.30591118335723877,0.09743494540452957,-0.20508790016174316
1761505122158088700,4.606088623046875,0.31886452436447144,0.07531552761793137,-0.15963813662528992
1761505122168123600,4.61612353515625,0.3324708938598633,0.08277424424886703,-0.09597712755203247
1761505122178159600,4.62615966796875,0.34450066089630127,0.08813252300024033,-0.03755083680152893
1761505122188194800,4.63619482421875,0.36505040526390076,0.08849231153726578,0.00851226132363081
1761505122198230800,4.646230712890625,0.37898167967796326,0.08466455340385437,0.02906760387122631
1761505122208265700,4.656265625,0.3754822611808777,0.08238222450017929,0.02623852901160717
1761505122218301000,4.666301025390625,0.3452562093734741,0.0763927772641182,0.010455037467181683
1761505122228337000,4.6763369140625,0.3020229637622833,0.0765557587146759,-0.01480238139629364
1761505122238371600,4.68637158203125,0.24723242223262787,0.07696402072906494,-0.05620867758989334
1761505122248406500,4.696406494140625,0.1926136612892151,0.0928492471575737,-0.10979973524808884
1761505122258442800,4.70644287109375,0.15118232369422913,0.11398116499185562,-0.1680646389722824
1761505122268477700,4.716477783203125,0.12735022604465485,0.10873260349035263,-0.2209092080593109
1761505122278513700,4.726513671875,0.12322978675365448,0.08663928508758545,-0.2469187080860138
1761505122288548600,4.736548583984375,0.1375831663608551,0.07020092755556107,-0.23246227204799652
1761505122298583800,4.746583740234375,0.1549871861934662,0.05180061236023903,-0.17579074203968048
1761505122308619800,4.756619873046875,0.1752873957157135,0.04423510655760765,-0.09525488317012787
1761505122318654700,4.76665478515625,0.1837674379348755,0.05005064979195595,-0.01521996594965458
1761505122328690700,4.776690673828125,0.18259085714817047,0.06009875610470772,0.039914924651384354
1761505122338726000,4.786725830078125,0.1656920313835144,0.07298979163169861,0.04914863780140877
1761505122348760600,4.796760498046875,0.13885189592838287,0.06732471287250519,0.02178385853767395
1761505122358796500,4.806796630859375,0.10839252173900604,0.06101461872458458,-0.023452594876289368
1761505122368831700,4.816831787109375,0.07883062958717346,0.043350934982299805,-0.06728636473417282
1761505122378866700,4.82686669921875,0.0451485700905323,0.02738102339208126,-0.10082434862852097
1761505122388902700,4.836902587890625,0.021402226760983467,0.02117905393242836,-0.12180153280496597
1761505122398937600,4.8469375,0.00669225724413991,0.025977538898587227,-0.13667342066764832
1761505122408973600,4.8569736328125,0.00424374733120203,0.03551751375198364,-0.13968519866466522
1761505122419008800,4.8670087890625,0.004563859198242426,0.05230768024921417,-0.13006319105625153
1761505122429043700,4.877043701171875,0.010733604431152344,0.06136881932616234,-0.13097240030765533
1761505122439079700,4.88707958984375,0.029644977301359177,0.0579458586871624,-0.1486094444990158
1761505122449115000,4.897114990234375,0.03544268012046814,0.034085530787706375,-0.17155124247074127
1761505122459150800,4.90715087890625,0.032460469752550125,0.02095002308487892,-0.18233518302440643
1761505122469185500,4.917185546875,0.02389228343963623,0.005367068573832512,-0.17506422102451324
1761505122479220700,4.927220703125,0.004459729418158531,-0.007503456436097622,-0.17172569036483765
1761505122489256700,4.937256591796875,-0.02750139869749546,0.00472524669021368,-0.1861187368631363
1761505122499291600,4.947291748046875,-0.05604329705238342,0.039925046265125275,-0.21387234330177307
1761505122509326600,4.95732666015625,-0.07327261567115784,0.0681484267115593,-0.2281104028224945
1761505122519362800,4.96736279296875,-0.08318010717630386,0.07575894147157669,-0.22983533143997192
1761505122529397800,4.977397705078125,-0.08500650525093079,0.04946741834282875,-0.2172585427761078
1761505122539433700,4.987433837890625,-0.08127647638320923,0.020788636058568954,-0.19144585728645325
1761505122549468700,4.99746875,-0.07455971837043762,0.005623264703899622,-0.18480926752090454
1761505122559504000,5.00750390625,-0.06975457817316055,-0.009338906966149807,-0.20556673407554626
1761505122569539800,5.017539794921875,-0.06957188993692398,-0.03588210046291351,-0.22546933591365814
1761505122579574500,5.027574462890625,-0.07809346914291382,-0.046544067561626434,-0.21092209219932556
1761505122589610800,5.03761083984375,-0.0895083099603653,-0.0279136560857296,-0.17514678835868835
1761505122599645700,5.047645751953125,-0.10007386654615402,-0.00959803257137537,-0.13831207156181335
1761505122609680600,5.0576806640625,-0.11313214898109436,0.024955151602625847,-0.111384317278862
1761505122619716600,5.067716552734375,-0.10921970009803772,0.07291841506958008,-0.08695247769355774
1761505122629751800,5.077751708984375,-0.10111916065216064,0.0707990750670433,-0.04387611150741577
1761505122639787800,5.087787841796875,-0.08290021121501923,0.04019881784915924,-0.006524212192744017
1761505122649822700,5.09782275390625,-0.06662297248840332,0.007211041171103716,0.014393320307135582
1761505122659857700,5.107857666015625,-0.06064470484852791,-0.010924287140369415,0.026873160153627396
1761505122669893600,5.1178935546875,-0.06332571059465408,-0.01877874694764614,0.040832649916410446
1761505122679928800,5.1279287109375,-0.0719199925661087,-0.003756654914468527,0.06096774712204933
1761505122689963800,5.1379638671875,-0.07829640060663223,0.04662103205919266,0.0707375556230545
1761505122699999700,5.147999755859375,-0.093116894364357,0.11662248522043228,0.07216261327266693
1761505122710034700,5.15803466796875,-0.11057338118553162,0.18617652356624603,0.06573933362960815
1761505122720070700,5.168070556640625,-0.12494885921478271,0.21974700689315796,0.054003845900297165
1761505122730105600,5.178105712890625,-0.1269582211971283,0.20308999717235565,0.048770204186439514
1761505122740140800,5.188140869140625,-0.11516334116458893,0.1556287407875061,0.06867440044879913
1761505122750176800,5.1981767578125,-0.0873655304312706,0.10195299983024597,0.08832666277885437
1761505122760211700,5.208211669921875,-0.05257292836904526,0.04944344982504845,0.09975109249353409
1761505122770247700,5.21824755859375,-0.020431239157915115,0.018985409289598465,0.1135108470916748
1761505122780282600,5.22828271484375,0.004384362138807774,-0.000666322885081172,0.12013839185237885
1761505122790317800,5.23831787109375,0.017978733405470848,0.005038168281316757,0.11311589926481247
1761505122800353800,5.248353759765625,0.02309839427471161,0.020858943462371826,0.09212779253721237
1761505122810388700,5.258388671875,0.026460636407136917,0.0202243123203516,0.06300666183233261
1761505122820423700,5.268423583984375,0.030043119564652443,0.03001995012164116,0.03110705316066742
1761505122830459600,5.278459716796875,0.03809545561671257,0.026444656774401665,-0.006866161711513996
1761505122840494600,5.28849462890625,0.06514810770750046,0.006650712341070175,-0.042336270213127136
1761505122850530600,5.298530517578125,0.1070185974240303,-0.008185491897165775,-0.05294790491461754
1761505122860565800,5.308565673828125,0.15557999908924103,-0.028741367161273956,-0.04422951117157936
1761505122870600700,5.3186005859375,0.19750376045703888,-0.0614314042031765,-0.04019322618842125
1761505122880636700,5.32863671875,0.23930180072784424,-0.08375055342912674,-0.0315195769071579
1761505122890671600,5.338671630859375,0.2628942131996155,-0.09122951328754425,-0.01678324118256569
1761505122900707800,5.348707763671875,0.27012842893600464,-0.0960540920495987,0.0018972359830513597
1761505122910742800,5.35874267578125,0.2520444989204407,-0.09055626392364502,0.02231729030609131
1761505122920777700,5.36877783203125,0.21867161989212036,-0.07341163605451584,0.016978982836008072
1761505122930813700,5.378813720703125,0.17040875554084778,-0.05209862068295479,0.0009273127070628107
1761505122940848600,5.3888486328125,0.13059157133102417,-0.03152916207909584,-0.017652763053774834
1761505122950884900,5.398884765625,0.08906009793281555,-0.02526274509727955,-0.03791861981153488
1761505122960919600,5.40891943359375,0.04882266744971275,-0.02961275354027748,-0.054001715034246445
1761505122970954800,5.418954833984375,-0.004018976353108883,-0.052615806460380554,-0.05374791845679283
1761505122980990700,5.42899072265625,-0.05991766229271889,-0.07344039529561996,-0.03484346717596054
1761505122991025700,5.439025634765625,-0.11501766741275787,-0.07641647756099701,-0.007860586047172546
1761505123001060600,5.449060546875,-0.17987921833992004,-0.06468338519334793,0.011597533710300922
1761505123011096800,5.459096923828125,-0.24181023240089417,-0.025468342006206512,0.010690194554626942
1761505123021131800,5.4691318359375,-0.2940230965614319,0.019892482087016106,-0.012675847858190536
1761505123031167700,5.479167724609375,-0.33676791191101074,0.022070415318012238,-0.018007230013608932
1761505123041202700,5.48920263671875,-0.3601885437965393,0.00098190747667104,0.0028431906830519438
1761505123051237600,5.499237548828125,-0.3571019470691681,-0.014098508283495903,0.029198098927736282
1761505123061273900,5.50927392578125,-0.34396031498908997,-0.018014952540397644,0.055878181010484695
1761505123071308500,5.51930859375,-0.32517969608306885,-0.023138875141739845,0.07290349900722504
1761505123081343700,5.52934375,-0.30724409222602844,-0.028990905731916428,0.07720344513654709
1761505123091379700,5.539379638671875,-0.27838316559791565,-0.028069984167814255,0.07318020612001419
1761505123101414700,5.54941455078125,-0.25026071071624756,-0.03581685200333595,0.07039640098810196
1761505123111450000,5.5594501953125,-0.22862198948860168,-0.05258944258093834,0.0673297718167305
1761505123121485000,5.569485107421875,-0.2179941087961197,-0.05615701153874397,0.07874274998903275
1761505123131520000,5.57952001953125,-0.2184322029352188,-0.058642540127038956,0.08981217443943024
1761505123141556000,5.589555908203125,-0.22666031122207642,-0.049744654446840286,0.10189733654260635
1761505123151591200,5.599591064453125,-0.24546489119529724,-0.027829766273498535,0.11127965152263641
1761505123161627100,5.609627197265625,-0.25621581077575684,0.0014953649369999766,0.11528744548559189
1761505123171662000,5.619662109375,-0.26570117473602295,0.012915798462927341,0.11975516378879547
1761505123181697000,5.629697021484375,-0.2736022472381592,-0.0020519655663520098,0.13127467036247253
1761505123191733200,5.639733154296875,-0.2704109847545624,-0.042632680386304855,0.13449177145957947
1761505123201768200,5.649768310546875,-0.26778510212898254,-0.0842038244009018,0.13463132083415985
1761505123211804200,5.65980419921875,-0.2587212920188904,-0.09820566326379776,0.12897102534770966
1761505123221839000,5.669839111328125,-0.25212013721466064,-0.10488221049308777,0.10049624741077423
1761505123231874000,5.6798740234375,-0.24125629663467407,-0.08784516900777817,0.058824434876441956
1761505123241910000,5.689909912109375,-0.22694899141788483,-0.07173250615596771,0.0004993426846340299
1761505123251945000,5.699945068359375,-0.2137245386838913,-0.08626192063093185,-0.03832608461380005
1761505123261980200,5.709980224609375,-0.2108650952577591,-0.09780485928058624,-0.034940142184495926
1761505123272016100,5.72001611328125,-0.2054184079170227,-0.08616684377193451,-0.0027840686962008476
1761505123282051000,5.730051025390625,-0.20349372923374176,-0.1128208264708519,0.027027355507016182
1761505123292087000,5.740087158203125,-0.20582932233810425,-0.15163639187812805,0.03460191935300827
1761505123302122200,5.750122314453125,-0.20579896867275238,-0.1691695898771286,0.0215966384857893
1761505123312157200,5.7601572265625,-0.21534240245819092,-0.1760498583316803,-0.01828606240451336
1761505123322193200,5.770193115234375,-0.2236919403076172,-0.18926259875297546,-0.07086139172315598
1761505123332228000,5.78022802734375,-0.23398639261722565,-0.20894336700439453,-0.1128716915845871
1761505123342264000,5.79026416015625,-0.25597211718559265,-0.21154581010341644,-0.1256285011768341
1761505123352299000,5.800299072265625,-0.2852993905544281,-0.20353049039840698,-0.1182107925415039
1761505123362334000,5.810333984375,-0.31361091136932373,-0.17046867311000824,-0.09817983210086823
1761505123372370000,5.820369873046875,-0.3406321406364441,-0.1052987277507782,-0.08173640817403793
1761505123382405000,5.830405029296875,-0.3660179376602173,-0.04290618747472763,-0.0750657245516777
1761505123392440000,5.840440185546875,-0.3789483904838562,-0.016464726999402046,-0.08958075195550919
1761505123402476000,5.85047607421875,-0.3817044794559479,-0.012959474697709084,-0.10173647850751877
1761505123412511200,5.86051123046875,-0.367647260427475,-0.04404788464307785,-0.10202863067388535
1761505123422547200,5.870547119140625,-0.35447925329208374,-0.08857300877571106,-0.07677999883890152
1761505123432582100,5.88058203125,-0.3387114703655243,-0.14291374385356903,-0.034451182931661606
1761505123442617000,5.8906171875,-0.33347517251968384,-0.2349773645401001,0.0005805690889246762
1761505123452653000,5.900653076171875,-0.3646075129508972,-0.348106324672699,-0.005540440324693918
1761505123462688000,5.91068798828125,-0.4212239384651184,-0.4253619611263275,-0.07343000918626785
1761505123472723000,5.920722900390625,-0.4759145975112915,-0.4295380413532257,-0.1959359496831894
1761505123482759000,5.930759033203125,-0.4983735680580139,-0.3596058487892151,-0.3311164081096649
1761505123492794000,5.940794189453125,-0.4908658564090729,-0.26253628730773926,-0.44171616435050964
1761505123502830000,5.950830078125,-0.4788645803928375,-0.15539811551570892,-0.48906874656677246
1761505123512865000,5.960864990234375,-0.4475253224372864,-0.07510966062545776,-0.45884987711906433
1761505123522900200,5.970900146484375,-0.39791780710220337,0.009767942130565643,-0.3621981739997864
1761505123532936200,5.980936279296875,-0.31555289030075073,0.07997152954339981,-0.22061572968959808
1761505123542971100,5.99097119140625,-0.18474774062633514,0.12117702513933182,-0.07628065347671509
1761505123553007000,6.001007080078125,-0.04026539623737335,0.1180448830127716,0.053653374314308167
1761505123563042000,6.0110419921875,0.09590283036231995,0.06346099823713303,0.16186080873012543
1761505123573077000,6.021076904296875,0.19322244822978973,-0.0005219795857556164,0.2526988387107849
1761505123583113200,6.03111328125,0.24434715509414673,-0.060925934463739395,0.31504717469215393
1761505123593148000,6.04114794921875,0.24829156696796417,-0.13404834270477295,0.3348882496356964
1761505123603183000,6.05118310546875,0.22231189906597137,-0.18086884915828705,0.3169100284576416
1761505123613219000,6.061218994140625,0.1807308942079544,-0.1940232664346695,0.2679307758808136
1761505123623254000,6.07125390625,0.11763129383325577,-0.1994476020336151,0.19711174070835114
1761505123633290000,6.0812900390625,0.05018913373351097,-0.19212283194065094,0.13368162512779236
1761505123643325200,6.0913251953125,-0.0033603766933083534,-0.18733979761600494,0.08116249740123749
1761505123653360000,6.101360107421875,-0.047934237867593765,-0.2097122222185135,0.041974615305662155
1761505123663396000,6.11139599609375,-0.08002399653196335,-0.24620018899440765,0.020495953038334846
1761505123673431000,6.12143115234375,-0.11018402874469757,-0.2673957645893097,0.01605886034667492
1761505123683466200,6.13146630859375,-0.1404029130935669,-0.270067423582077,0.02322995476424694
1761505123693502200,6.141502197265625,-0.16925907135009766,-0.2514687180519104,0.035114310681819916
1761505123703537000,6.151536865234375,-0.1842108517885208,-0.23546338081359863,0.03916604444384575
1761505123713572900,6.16157275390625,-0.16778740286827087,-0.239002987742424,0.04475255683064461
1761505123723608000,6.171608154296875,-0.13693122565746307,-0.24652215838432312,0.07702367752790451
1761505123733643000,6.18164306640625,-0.09010645747184753,-0.2330486923456192,0.12077568471431732
1761505123743679000,6.191678955078125,-0.04045368358492851,-0.2209845781326294,0.1693541407585144
1761505123753714200,6.201714111328125,0.01853640004992485,-0.19204559922218323,0.20711590349674225
1761505123763750100,6.211750244140625,0.07688120007514954,-0.1412961483001709,0.23707646131515503
1761505123773785000,6.22178515625,0.12116530537605286,-0.09768661111593246,0.26007047295570374
1761505123783820000,6.231820068359375,0.1342531442642212,-0.0637558102607727,0.2749655246734619
1761505123793856300,6.241856201171875,0.11551407724618912,-0.020184630528092384,0.2996743321418762
1761505123803891200,6.25189111328125,0.07394319772720337,0.02977760322391987,0.32459619641304016
1761505123813926000,6.26192578125,0.019037606194615364,0.05688085779547691,0.3357788026332855
1761505123823961900,6.2719619140625,-0.027645742520689964,0.059656139463186264,0.3234938979148865
1761505123833997000,6.2819970703125,-0.059605807065963745,0.052558548748493195,0.2927541136741638
1761505123844033000,6.292032958984375,-0.08066102117300034,0.027463315054774284,0.23908820748329163
1761505123854068000,6.30206787109375,-0.08415748924016953,-0.017725734040141106,0.1804821640253067
1761505123864103200,6.312103271484375,-0.06753696501255035,-0.08881455659866333,0.15985465049743652
1761505123874139100,6.32213916015625,-0.043365851044654846,-0.14261120557785034,0.1552380621433258
1761505123884174000,6.332174072265625,0.011953598819673061,-0.17307111620903015,0.17032405734062195
1761505123894209000,6.342208984375,0.06534198671579361,-0.1929263174533844,0.1967439502477646
1761505123904245200,6.352245361328125,0.0990821123123169,-0.19402672350406647,0.21837441623210907
1761505123914280200,6.3622802734375,0.10705588012933731,-0.171288400888443,0.22641396522521973
1761505123924316200,6.372316162109375,0.078621044754982,-0.163910374045372,0.21703298389911652
1761505123934350800,6.382350830078125,0.026080602779984474,-0.17876175045967102,0.2078341543674469
1761505123944386000,6.392385986328125,-0.03149054944515228,-0.16654850542545319,0.19469305872917175
1761505123954422000,6.402422119140625,-0.08706992119550705,-0.11772823333740234,0.17938441038131714
1761505123964457000,6.41245703125,-0.1618136614561081,-0.05468535050749779,0.16620495915412903
1761505123974492200,6.4224921875,-0.24511708319187164,-0.006283728405833244,0.15355227887630463
1761505123984528100,6.432528076171875,-0.3255559802055359,-0.002377936616539955,0.14431163668632507
1761505123994563000,6.44256298828125,-0.3897496163845062,-0.030914239585399628,0.13883565366268158
1761505124004599000,6.45259912109375,-0.4370250105857849,-0.04206995666027069,0.12316028028726578
1761505124014634200,6.46263427734375,-0.4748285710811615,-0.04915716126561165,0.12170646339654922
1761505124024669200,6.472669189453125,-0.5056445598602295,-0.04132560268044472,0.1329314112663269
1761505124034705200,6.482705078125,-0.5401859879493713,-0.03388100117444992,0.1774863749742508
1761505124044739800,6.49273974609375,-0.5562486052513123,-0.005665342323482037,0.2387012541294098
1761505124054776000,6.502776123046875,-0.5559244751930237,0.015078019350767136,0.3027356266975403
1761505124064811000,6.51281103515625,-0.5422384738922119,0.0014897723449394107,0.35920822620391846
1761505124074846000,6.522845947265625,-0.49051883816719055,-0.016760604456067085,0.40647855401039124
1761505124084882000,6.5328818359375,-0.3821875751018524,-0.03647146001458168,0.4360249936580658
1761505124094917000,6.542917236328125,-0.24793097376823425,-0.07613258808851242,0.45928555727005005
1761505124104952000,6.5529521484375,-0.11174890398979187,-0.08205997943878174,0.4741673171520233
1761505124114988300,6.56298828125,0.0175640806555748,-0.07114101946353912,0.4731625020503998
1761505124125023200,6.573023193359375,0.09405992180109024,-0.056176185607910156,0.4684505760669708
1761505124135059500,6.5830595703125,0.12008193135261536,-0.030049245804548264,0.4615047872066498
1761505124145094100,6.59309423828125,0.10422760248184204,0.0008205199264921248,0.44509172439575195
1761505124155129000,6.603129150390625,0.06934072822332382,0.0395391546189785,0.4029645025730133
1761505124165165300,6.613165283203125,0.05114254727959633,0.09305191040039062,0.3454386293888092
1761505124175200300,6.6232001953125,0.03984355181455612,0.13202302157878876,0.28914472460746765
1761505124185235200,6.633235107421875,0.02634798362851143,0.1477883905172348,0.2418893277645111
1761505124195271200,6.643271240234375,0.018370484933257103,0.16331622004508972,0.2166052758693695
1761505124205306400,6.653306396484375,0.018491925671696663,0.17750048637390137,0.21117721498012543
1761505124215342300,6.66334228515625,0.002246376359835267,0.16973070800304413,0.21512775123119354
1761505124225377300,6.673377197265625,-0.011916047893464565,0.14749863743782043,0.2206285148859024
1761505124235412500,6.68341259765625,-0.005092496518045664,0.10475996881723404,0.2510721683502197
1761505124245448400,6.693448486328125,0.017668742686510086,0.06577368825674057,0.29078710079193115
1761505124255483100,6.703483154296875,0.05708405748009682,0.040284574031829834,0.31340718269348145
1761505124265518000,6.71351806640625,0.10516476631164551,0.020265057682991028,0.3164021670818329
1761505124275554300,6.72355419921875,0.12985201179981232,-0.007530354429036379,0.291582852602005
1761505124285589200,6.73358935546875,0.1500914990901947,-0.02756638079881668,0.24342544376850128
1761505124295625200,6.743625244140625,0.17548100650310516,-0.025361549109220505,0.20306496322155
1761505124305660200,6.75366015625,0.1883121132850647,-0.04515229910612106,0.18405692279338837
1761505124315695400,6.7636953125,0.2074301540851593,-0.07885246723890305,0.1940395087003708
1761505124325731300,6.7737314453125,0.22646349668502808,-0.08538893610239029,0.19204586744308472
1761505124335766300,6.783766357421875,0.23934414982795715,-0.06849144399166107,0.19323471188545227
1761505124345801500,6.793801513671875,0.22845713794231415,-0.03033526800572872,0.17928878962993622
1761505124355837400,6.80383740234375,0.20470014214515686,-0.00640863087028265,0.14631353318691254
1761505124365872000,6.8138720703125,0.15927274525165558,0.026069950312376022,0.0680064782500267
1761505124375908000,6.823908203125,0.11223626136779785,0.06744508445262909,-0.006893858779221773
1761505124385943300,6.833943359375,0.06992661952972412,0.08358410745859146,-0.048044223338365555
1761505124395978200,6.843978271484375,0.03286447376012802,0.1062830314040184,-0.07509581744670868
1761505124406014200,6.85401416015625,-0.023419572040438652,0.12955746054649353,-0.10047094523906708
1761505124416049200,6.864049072265625,-0.0805281326174736,0.16935840249061584,-0.13310186564922333
1761505124426084400,6.87408447265625,-0.14545972645282745,0.20977213978767395,-0.16563929617404938
1761505124436120300,6.884120361328125,-0.2068392038345337,0.2344159632921219,-0.1902085542678833
1761505124446155300,6.8941552734375,-0.2535957992076874,0.20667675137519836,-0.173007994890213
1761505124456191200,6.904191162109375,-0.27952539920806885,0.18932145833969116,-0.11452657729387283
1761505124466226400,6.914226318359375,-0.2621293365955353,0.15161243081092834,-0.0037670412566512823
1761505124476261000,6.92426123046875,-0.21758292615413666,0.10991531610488892,0.12650521099567413
1761505124486297000,6.934297119140625,-0.15283401310443878,0.08340700715780258,0.24256762862205505
1761505124496332300,6.944332275390625,-0.09863123297691345,0.011799934320151806,0.3230736553668976
1761505124506367200,6.9543671875,-0.07501352578401566,-0.06934445351362228,0.3473707437515259
1761505124516403200,6.9644033203125,-0.04332723468542099,-0.10058200359344482,0.316243976354599
1761505124526438100,6.974438232421875,0.0003888215287588537,-0.11112305521965027,0.2746795117855072
1761505124536474000,6.98447412109375,0.019332684576511383,-0.11911121010780334,0.24837811291217804
1761505124546509300,6.99450927734375,0.02587820217013359,-0.08772984892129898,0.2431255728006363
1761505124556544300,7.004544189453125,0.01745169423520565,-0.04345027357339859,0.23110298812389374
1761505124566580200,7.014580322265625,0.011691809631884098,-0.015907859429717064,0.20307721197605133
1761505124576615400,7.024615478515625,0.0010010822443291545,0.00017656758427619934,0.13652189075946808
1761505124586650000,7.034650146484375,-0.0011677960865199566,0.005939381662756205,0.05421397089958191
1761505124596686000,7.04468603515625,0.009845972992479801,0.02352743037045002,-0.014255634509027004
1761505124606721300,7.05472119140625,0.022587867453694344,0.02424382045865059,-0.06682243943214417
1761505124616757200,7.06475732421875,0.020736437290906906,0.027823908254504204,-0.1233174055814743
1761505124626792200,7.074792236328125,0.017976338043808937,0.03500672057271004,-0.16159768402576447
1761505124636827100,7.0848271484375,0.016333432868123055,0.08460729569196701,-0.18942318856716156
1761505124646863000,7.094863037109375,0.033408023416996,0.0913112685084343,-0.17756839096546173
1761505124656898300,7.104898193359375,0.05145653337240219,0.1099344864487648,-0.15962854027748108
1761505124666933200,7.114933349609375,0.0622125081717968,0.12787248194217682,-0.12510386109352112
1761505124676969200,7.12496923828125,0.06718649715185165,0.12788259983062744,-0.08959779143333435
1761505124687004400,7.13500439453125,0.06734281778335571,0.10240573436021805,-0.06667117029428482
1761505124697040400,7.145040283203125,0.061519019305706024,0.06699500977993011,-0.06893911957740784
1761505124707075300,7.155075439453125,0.063798688352108,0.07143503427505493,-0.08843212574720383
1761505124717110300,7.1651103515625,0.07507477700710297,0.08163121342658997,-0.11569011211395264
1761505124727146200,7.175146240234375,0.09433741867542267,0.06478725373744965,-0.15019775927066803
1761505124737181200,7.18518115234375,0.10879252851009369,0.030360301956534386,-0.16533596813678741
1761505124747216100,7.195216064453125,0.11376810818910599,-0.0046967510133981705,-0.1436290740966797
1761505124757252000,7.205252197265625,0.11314945667982101,-0.04748229682445526,-0.08661691844463348
1761505124767287300,7.215287353515625,0.08497241139411926,-0.05594395846128464,-0.044558677822351456
1761505124777323300,7.2253232421875,0.05420411750674248,-0.08169432729482651,-0.019092468544840813
1761505124787358200,7.235358154296875,0.028667863458395004,-0.09006597846746445,-0.0306929312646389
1761505124797393400,7.245393310546875,0.035234421491622925,-0.09819979965686798,-0.03901078179478645
1761505124807429400,7.255429443359375,0.06272756308317184,-0.10829531401395798,-0.04878644645214081
1761505124817464300,7.26546435546875,0.09037011116743088,-0.11663766950368881,-0.07109788060188293
1761505124827499300,7.275499267578125,0.114345483481884,-0.1314762681722641,-0.09099062532186508
1761505124837535200,7.28553515625,0.11798788607120514,-0.15318208932876587,-0.11569304019212723
1761505124847570200,7.295570068359375,0.10492774844169617,-0.1339876353740692,-0.15179671347141266
1761505124857605000,7.305605224609375,0.0684400424361229,-0.09382209926843643,-0.1834220290184021
1761505124867641000,7.31564111328125,0.0247250534594059,-0.06315793097019196,-0.19875437021255493
1761505124877676300,7.32567626953125,-0.005510346498340368,-0.04644046723842621,-0.1807394176721573
1761505124887712300,7.335712158203125,-0.0257455762475729,-0.0367223285138607,-0.14245222508907318
1761505124897747200,7.345747314453125,-0.0266603734344244,-0.06274300813674927,-0.09485407173633575
1761505124907782400,7.355782470703125,-0.01805143803358078,-0.06422106176614761,-0.04713448882102966
1761505124917818400,7.365818359375,-0.014057229273021221,-0.029834860935807228,-0.00210709311068058
1761505124927853300,7.375853271484375,-0.010612164624035358,0.01859392412006855,0.0041366880759596825
1761505124937888300,7.38588818359375,-0.0016114787431433797,0.08207063376903534,-0.018027735874056816
1761505124947924200,7.39592431640625,0.023269636556506157,0.15843304991722107,-0.07163876295089722
1761505124957959200,7.405959228515625,0.058282479643821716,0.19888700544834137,-0.1150517538189888
1761505124967995100,7.4159951171875,0.08947928249835968,0.1914471983909607,-0.14782434701919556
1761505124978030000,7.426030029296875,0.11571194976568222,0.13887692987918854,-0.17862673103809357
1761505124988065300,7.436065185546875,0.13773922622203827,0.056771937757730484,-0.2093481570482254
1761505124998101200,7.446101318359375,0.18084435164928436,-0.002928145695477724,-0.2475259006023407
1761505125008136200,7.45613623046875,0.23378479480743408,-0.05820658057928085,-0.2794191241264343
1761505125018171400,7.46617138671875,0.2917250692844391,-0.09296455979347229,-0.3073942959308624
1761505125028207400,7.476207275390625,0.3189881145954132,-0.09354592859745026,-0.33939725160598755
1761505125038242300,7.4862421875,0.29529741406440735,-0.08801107853651047,-0.3653995394706726
1761505125048277200,7.49627734375,0.2231782227754593,-0.08552688360214233,-0.3452053368091583
1761505125058313200,7.506313232421875,0.14585041999816895,-0.045280929654836655,-0.2628646492958069
1761505125068348200,7.51634814453125,0.0862715020775795,0.04565669968724251,-0.17641977965831757
1761505125078384000,7.526384033203125,0.030549386516213417,0.1308371126651764,-0.09480933099985123
1761505125088419000,7.536419189453125,-0.010075271129608154,0.23149260878562927,-0.03424612060189247
1761505125098454300,7.546454345703125,-0.02750059962272644,0.34190699458122253,-0.03562404215335846
1761505125108490200,7.556490234375,-0.025619609281420708,0.42664292454719543,-0.08440542966127396
1761505125118526200,7.566526123046875,-0.018101239576935768,0.48050349950790405,-0.15480555593967438
1761505125128561000,7.576560791015625,-0.015133412554860115,0.522876501083374,-0.23787914216518402
1761505125138597000,7.58659716796875,-0.026851054280996323,0.529522180557251,-0.29542553424835205
1761505125148632000,7.596632080078125,-0.051528170704841614,0.5179691314697266,-0.31486234068870544
1761505125158668000,7.60666796875,-0.08390581607818604,0.5041137337684631,-0.30213722586631775
1761505125168703000,7.616702880859375,-0.10799464583396912,0.4778065085411072,-0.2828359603881836
1761505125178738200,7.62673828125,-0.1213165745139122,0.42001965641975403,-0.25929227471351624
1761505125188774100,7.636774169921875,-0.11207007616758347,0.32932382822036743,-0.23564422130584717
1761505125198809000,7.64680908203125,-0.0822133794426918,0.2293327897787094,-0.2080109864473343
1761505125208844300,7.65684423828125,-0.03476330637931824,0.15695233643054962,-0.1705528348684311
1761505125218880300,7.66688037109375,0.01377972774207592,0.12054399400949478,-0.15316104888916016
1761505125228915200,7.676915283203125,0.06025588512420654,0.0965888574719429,-0.16840578615665436
1761505125238951200,7.686951171875,0.10007733106613159,0.10407606512308121,-0.21684762835502625
1761505125248986000,7.696986083984375,0.12178502231836319,0.1359437257051468,-0.26366254687309265
1761505125259021000,7.70702099609375,0.11962413787841797,0.15555576980113983,-0.2847299873828888
1761505125269057000,7.71705712890625,0.10803991556167603,0.14910373091697693,-0.2663201093673706
1761505125279092000,7.727092041015625,0.0684400424361229,0.14764857292175293,-0.19352206587791443
1761505125289127200,7.737127197265625,0.008448079228401184,0.18015219271183014,-0.0938338190317154
1761505125299163100,7.7471630859375,-0.04012078791856766,0.19844332337379456,-0.00757988914847374
1761505125309198000,7.757197998046875,-0.06466687470674515,0.20283673703670502,0.040046218782663345
1761505125319233300,7.7672333984375,-0.08751706779003143,0.21667131781578064,0.026091787964105606
1761505125329269200,7.777269287109375,-0.08540917187929153,0.2545587718486786,-0.02546088583767414
1761505125339304200,7.78730419921875,-0.06856068223714828,0.2759109437465668,-0.07972625643014908
1761505125349340200,7.797340087890625,-0.040591899305582047,0.26176369190216064,-0.11937645822763443
1761505125359375000,7.807375,-0.01751614362001419,0.20515741407871246,-0.12342792749404907
1761505125369410000,7.81741015625,0.010378072038292885,0.15699361264705658,-0.10331813246011734
1761505125379446000,7.827446044921875,0.0300202164798975,0.09271954745054245,-0.07447796314954758
1761505125389481000,7.83748095703125,0.04969991371035576,0.01925678551197052,-0.05542491003870964
1761505125399516200,7.84751611328125,0.0752798393368721,-0.046123817563056946,-0.03851250559091568
1761505125409552100,7.85755224609375,0.09773268550634384,-0.09048009663820267,-0.03032168745994568
1761505125419587000,7.867587158203125,0.10366567224264145,-0.13769395649433136,-0.0244374331086874
1761505125429623000,7.877623046875,0.09737209230661392,-0.12323351949453354,-0.01185186579823494
1761505125439658200,7.887658203125,0.08713756501674652,-0.05452209711074829,0.009926400147378445
1761505125449693200,7.897693115234375,0.06442426145076752,0.002752376953139901,0.02280304953455925
1761505125459729200,7.907729248046875,0.02822577953338623,0.01791961118578911,0.01695874333381653
1761505125469764400,7.917764404296875,-0.024868331849575043,0.027593543753027916,-0.01726820319890976
1761505125479799000,7.927799072265625,-0.07194715738296509,0.025050491094589233,-0.06656384468078613
1761505125489835000,7.9378349609375,-0.11279711872339249,0.016401076689362526,-0.13556501269340515
1761505125499870000,7.947869873046875,-0.13745053112506866,-0.0017933726776391268,-0.20394860208034515
1761505125509905200,7.9579052734375,-0.14611487090587616,-0.032586973160505295,-0.2543444037437439
1761505125519941000,7.967941162109375,-0.13587261736392975,-0.056298691779375076,-0.26580503582954407
1761505125529976000,7.97797607421875,-0.11868616938591003,-0.029325131326913834,-0.21583402156829834
1761505125540012000,7.988011962890625,-0.11518064886331558,0.04806659370660782,-0.1479330062866211
1761505125550047200,7.998047119140625,-0.11541207879781723,0.1225043460726738,-0.09332222491502762
1761505125560082200,8.008082275390626,-0.10441002994775772,0.1914176344871521,-0.07138469815254211
1761505125570117000,8.0181171875,-0.08861668407917023,0.23145373165607452,-0.08446907997131348
1761505125580152000,8.028152099609375,-0.06709514558315277,0.23204734921455383,-0.11424774676561356
1761505125590188000,8.03818798828125,-0.04657575860619545,0.1905185431241989,-0.14990587532520294
1761505125600223000,8.048222900390625,-0.02907426282763481,0.11763662099838257,-0.16993923485279083
1761505125610258200,8.058258056640625,-0.02268240973353386,0.05020085349678993,-0.17779795825481415
1761505125620294100,8.068294189453125,-0.034860510379076004,-0.002126534003764391,-0.18307767808437347
1761505125630329000,8.0783291015625,-0.05019073188304901,-0.037872545421123505,-0.18852676451206207
1761505125640364300,8.0883642578125,-0.07042676210403442,-0.04652782157063484,-0.2101132869720459
1761505125650400300,8.098400146484375,-0.08553061634302139,-0.028188494965434074,-0.24348056316375732
1761505125660435200,8.108435302734375,-0.0970623642206192,-0.005126585252583027,-0.2872972786426544
1761505125670470100,8.11847021484375,-0.11085195094347,0.005860818549990654,-0.330777645111084
1761505125680506000,8.128506103515624,-0.12385430186986923,0.015988286584615707,-0.3492581248283386
1761505125690541000,8.138541015625,-0.13728861510753632,0.02767663449048996,-0.36004260182380676
1761505125700577000,8.148576904296876,-0.15496934950351715,0.03230440989136696,-0.36310017108917236
1761505125710612000,8.158612060546876,-0.16529256105422974,0.0017217335989698768,-0.35568591952323914
1761505125720647200,8.168647216796876,-0.16014786064624786,-0.03226259723305702,-0.3184504210948944
1761505125730683100,8.17868310546875,-0.13111913204193115,-0.045517951250076294,-0.25480005145072937
1761505125740718000,8.188718017578125,-0.09925974160432816,-0.04778723046183586,-0.1787756085395813
1761505125750753300,8.198753173828125,-0.07759838551282883,-0.02412717416882515,-0.1111675351858139
1761505125760789200,8.208789306640625,-0.05986786261200905,0.001205080421641469,-0.08440808951854706
1761505125770824200,8.21882421875,-0.047573644667863846,0.015893479809165,-0.08474738150835037
1761505125780860200,8.228860107421875,-0.031018368899822235,0.026215357705950737,-0.1096857488155365
1761505125790895000,8.23889501953125,-0.018314292654395103,0.02834242582321167,-0.1380462795495987
1761505125800930000,8.248929931640625,-0.012524314224720001,0.014430871233344078,-0.15791906416416168
1761505125810966000,8.258966064453125,-0.007800398860126734,-0.02358308993279934,-0.16899222135543823
1761505125821001000,8.2690009765625,-0.007903196848928928,-0.06257177144289017,-0.1728048026561737
1761505125831036200,8.2790361328125,-0.012415124103426933,-0.10403505712747574,-0.1707882583141327
1761505125841072000,8.289072021484374,-0.023195067420601845,-0.14836576581001282,-0.15747298300266266
1761505125851107000,8.299107177734374,-0.03217364847660065,-0.16329199075698853,-0.1324872076511383
1761505125861142300,8.309142333984376,-0.046723563224077225,-0.15692543983459473,-0.10119985789060593
1761505125871178200,8.31917822265625,-0.06413663923740387,-0.1103169173002243,-0.07106885313987732
1761505125881213200,8.329213134765626,-0.0768500417470932,-0.02417990379035473,-0.04445508122444153
1761505125891248000,8.339248046875,-0.08145757764577866,0.04890149459242821,-0.044865209609270096
1761505125901284000,8.3492841796875,-0.08419077843427658,0.08116302639245987,-0.05692959576845169
1761505125911319000,8.359319091796875,-0.08420702069997787,0.06204153224825859,-0.07608438283205032
1761505125921355000,8.36935498046875,-0.0783643126487732,0.0155531270429492,-0.10238975286483765
1761505125931390000,8.379389892578125,-0.07010931521654129,-0.03325648978352547,-0.12512142956256866
1761505125941425200,8.389425048828125,-0.05850166082382202,-0.08468586206436157,-0.12883254885673523
1761505125951461000,8.399461181640625,-0.050934553146362305,-0.11397770047187805,-0.11395905911922455
1761505125961496000,8.40949609375,-0.053283728659152985,-0.12172776460647583,-0.09254457801580429
1761505125971531300,8.41953125,-0.06339281797409058,-0.11245064437389374,-0.08062906563282013
1761505125981567200,8.429567138671874,-0.06502746790647507,-0.0886092260479927,-0.07407741993665695
1761505125991602200,8.439602294921874,-0.07053408771753311,-0.05242326110601425,-0.07167685031890869
1761505126001638100,8.44963818359375,-0.07096312195062637,-0.034569427371025085,-0.05907823517918587
1761505126011673000,8.459673095703126,-0.06712497770786285,-0.019834425300359726,-0.03248763456940651
1761505126021708000,8.4697080078125,-0.05576286464929581,-0.03154940530657768,-0.004709800239652395
1761505126031744000,8.479743896484376,-0.05126558244228363,-0.08387519419193268,-0.001430916483514011
1761505126041779000,8.489779052734375,-0.06005454808473587,-0.13003815710544586,-0.03825204819440842
1761505126051814100,8.499814208984375,-0.08543793857097626,-0.1323564350605011,-0.09882644563913345
1761505126061850000,8.50985009765625,-0.11492551863193512,-0.10875017940998077,-0.15855209529399872
1761505126071885000,8.519885009765625,-0.14959055185317993,-0.057265155017375946,-0.20087771117687225
1761505126081920300,8.529920166015625,-0.19214200973510742,0.001538241864182055,-0.20652946829795837
1761505126091956200,8.539956298828125,-0.2222176194190979,0.043002329766750336,-0.1793135702610016
1761505126101991200,8.5499912109375,-0.23128728568553925,0.04977341368794441,-0.12804105877876282
1761505126112027100,8.560027099609375,-0.2057132124900818,0.02816931903362274,-0.061942730098962784
1761505126122061000,8.57006103515625,-0.15820933878421783,-0.02207494154572487,-0.019032014533877373
1761505126132096000,8.580095947265624,-0.11756151914596558,-0.07789693027734756,-0.012258264236152172
1761505126142133000,8.590133056640624,-0.11327143013477325,-0.11285970360040665,-0.05632452666759491
1761505126152168000,8.60016796875,-0.1297484040260315,-0.061285462230443954,-0.14177098870277405
1761505126162204000,8.610203857421874,-0.1526143103837967,0.09263832122087479,-0.24446646869182587
1761505126172239000,8.620239013671876,-0.2212706059217453,0.2549888789653778,-0.3336527943611145
1761505126182273800,8.630273681640626,-0.28815507888793945,0.4952153265476227,-0.19724835455417633
1761505126192309800,8.640309814453126,-0.40987035632133484,0.3355817198753357,0.07948789745569229
1761505126202345000,8.650344970703125,-0.35907241702079773,-0.12037301808595657,0.16608165204524994
1761505126212380000,8.6603798828125,-0.24612374603748322,-0.360215961933136,0.22513005137443542
1761505126222416000,8.670415771484375,-0.13338841497898102,-0.378030389547348,0.20569510757923126
1761505126232451000,8.680451171875,-0.11685444414615631,-0.32390323281288147,0.10633736103773117
1761505126242487000,8.690487060546875,-0.1878945380449295,-0.22310657799243927,-0.0068147629499435425
1761505126252522000,8.70052197265625,-0.2885444462299347,-0.11735539138317108,-0.1136258989572525
1761505126262557000,8.710556884765625,-0.37775927782058716,-0.07096631824970245,-0.14035896956920624
1761505126272593000,8.720593017578125,-0.44402724504470825,-0.03658118098974228,-0.027774106711149216
