time,seconds_elapsed,z,y,x
1761478521147807200,0.09380712890625,-0.3888356514573097,0.20049634192474186,0.44945027915686364
1761478521157843200,0.10384326171875,-0.16153087064921856,0.1154611203264445,0.31893618580102917
1761478521167878100,0.113878173828125,-0.003253448837995529,0.026647403102740642,0.03374181834310293
1761478521177914000,0.1239140625,0.12416647789478301,-0.04452133357068524,-0.1477498903170228
1761478521187950000,0.1339501953125,0.2947106760829687,-0.1185773526508361,-0.12485621372461318
1761478521197986000,0.143986083984375,0.35989421913325786,-0.0703483054023236,-0.08841463490352033
1761478521208022000,0.15402197265625,0.3081476652830839,-0.008021101631224156,0.03572363981008529
1761478521218057200,0.16405712890625,0.2735194194942713,-0.02077498567169532,0.20717136270925401
1761478521228093200,0.17409326171875,0.246229261508584,-0.0003596270926296711,0.2782031933963299
1761478521238129200,0.184129150390625,0.03793079446554184,0.09291296923607588,0.07384615745544433
1761478521248165000,0.1941650390625,-0.12251052738130092,0.08343686475725844,-0.17634177855104208
1761478521258201000,0.204201171875,-0.2312152322500944,0.0605436265562661,-0.2585118199765682
1761478521268236300,0.214236328125,-0.20627719034850597,0.11037117677628994,-0.25084844574183224
1761478521278272300,0.224272216796875,-0.2260568265736103,0.1252317690387368,-0.14188450541496275
1761478521288308200,0.23430810546875,-0.2734083603352308,0.04889269878901541,0.10783376725316048
1761478521298344200,0.24434423828125,-0.29546120218932626,-0.03801321205198765,0.2647501298442483
1761478521308380200,0.254380126953125,-0.37732583092749117,-0.051629211080819366,0.24172245160862801
1761478521318415000,0.2644150390625,-0.37904315623939033,-0.04165690231658518,0.149484897416085
1761478521328451000,0.274451171875,-0.32825814089775085,0.03255949495704844,0.06429404686465859
1761478521338487000,0.284487060546875,-0.3037187429249286,0.044781391012668606,0.11828194990083575
1761478521348523300,0.294523193359375,-0.37589725942909713,0.003267038971930742,0.21385230177789924
1761478521358559200,0.304559326171875,-0.455100560003519,-0.04736687746122479,0.3389716964833438
1761478521368595200,0.31459521484375,-0.4341887048780918,-0.08014394242540002,0.3385539094626903
1761478521378630100,0.324630126953125,-0.331344416475296,-0.028985636791959403,0.27463848665207624
1761478521388666000,0.334666015625,-0.31455987041294575,-0.04865969375073909,0.3266857770144939
1761478521398702000,0.3447021484375,-0.42558454266190526,0.0023407179072499275,0.3493840771652758
1761478521408738000,0.354738037109375,-0.5158697937428951,0.09704217799529433,0.3366255717486143
1761478521418774000,0.36477392578125,-0.6087666886270046,0.20792928667077792,0.27498744622021914
1761478521428809200,0.374809326171875,-0.5166758494287729,0.31738245355300604,0.2498104809962213
1761478521438845200,0.38484521484375,-0.42173020532131195,0.2736826472319662,0.24756138689517973
1761478521448881200,0.394881103515625,-0.3006406506538391,0.1976180830746889,0.23129180461764334
1761478521458917000,0.404917236328125,-0.09711071318686008,0.16147073795981703,0.06094444417580962
1761478521468953000,0.414953125,0.07136895368695259,0.22602679676152765,-0.25029855677410956
1761478521478988300,0.42498828125,0.1406026489108801,0.25345446352176365,-0.42745428205654024
1761478521489024300,0.435024169921875,0.07713233951926231,0.2775789240181446,-0.48195159591957926
1761478521499060200,0.445060302734375,-0.04471066386401653,0.2585384887877852,-0.25879385178834197
1761478521509096200,0.45509619140625,-0.02211070952117443,0.28053609332330526,-0.13170929448977112
1761478521519132200,0.465132080078125,0.08828910882771014,0.3022527620255947,-0.16318126820474863
1761478521529167000,0.4751669921875,0.2160211702495813,0.19214250120781362,-0.16740268529206515
1761478521539203000,0.485203125,0.36577041769027707,0.03823182323873043,-0.17253142648264766
1761478521549239000,0.495239013671875,0.45673722129464145,-0.0837664437714964,-0.09080635234564542
1761478521559275300,0.505275146484375,0.49893093390166754,-0.189126075996086,0.056084436924010515
1761478521569311200,0.515311279296875,0.4432359346866607,-0.21259709581872446,0.2041961462907493
1761478521579346200,0.52534619140625,0.24416648375988007,-0.1449585060328245,0.3259821587897837
1761478521589382100,0.535382080078125,-0.08438450260460376,-0.06279708630517125,0.3368883143380284
1761478521599418000,0.545418212890625,-0.4537117359936237,0.0504885896783322,0.19761457594335077
1761478521609454000,0.5554541015625,-0.6862953339874744,0.17007915622601286,0.009420154774188994
1761478521619490000,0.565489990234375,-0.7751596123546362,0.1308484398767352,0.007729717469215393
1761478521629525200,0.575525146484375,-0.773171653407812,0.03385718835107982,0.08109671310558915
1761478521639561200,0.585561279296875,-0.508894694033265,-0.016576894661039114,0.12138342304751276
1761478521649597200,0.59559716796875,-0.25216858842968937,-0.06967639749012887,0.15905439753308892
1761478521659633200,0.605633056640625,0.0020271219134330746,-0.12698818425200878,0.24874913537502288
1761478521669669000,0.615669189453125,0.15470014784634112,-0.1814187895543873,0.46934521232470866
1761478521679705000,0.625705078125,0.12806348533332348,-0.1910565143357031,0.6528023758389055
1761478521689740300,0.635740234375,0.08015899386405945,-0.11754976316876709,0.6479121195793152
1761478521699776300,0.6457763671875,0.0009451718956232071,-0.1667524046897888,0.5764101871624588
1761478521709812200,0.655812255859375,-0.16249182463586329,-0.27420725562795994,0.42441447596922516
1761478521719848200,0.66584814453125,-0.4234755876839161,-0.3282524418093264,0.15891002062633633
1761478521729884200,0.67588427734375,-0.6053717854917049,-0.40548948381207883,-0.0632753713414073
1761478521739919000,0.685919189453125,-0.7721130842655897,-0.36854499697014687,-0.1794697013132274
1761478521749955000,0.695955078125,-0.762164521703124,-0.26786387795060873,-0.2355653902836144
1761478521759991300,0.7059912109375,-0.6541115587413311,-0.14855797356320544,-0.22806100600287316
1761478521770027300,0.71602734375,-0.521314030623436,-0.03882129529817029,-0.20436887250915167
1761478521780063200,0.726063232421875,-0.42982817158102987,0.026675825479626655,-0.18559300649911165
1761478521790098200,0.73609814453125,-0.4153951570808887,0.03621049174526706,-0.19507278250604868
1761478521800134100,0.746134033203125,-0.4303647626757621,0.037905733089521526,-0.20231281676217913
1761478521810170000,0.756170166015625,-0.4250473670452833,0.03704728962928056,-0.16121829756870865
1761478521820206000,0.7662060546875,-0.3476695283323526,0.03369213398247957,-0.19287790281027553
1761478521830242000,0.776241943359375,-0.2008160023331642,0.03582885375022888,-0.34196868634223937
1761478521840278300,0.7862783203125,-0.0071019409596920005,0.019601156119350344,-0.4899775198563933
1761478521850313200,0.796313232421875,0.1927981155723333,0.03964373586326837,-0.5170480437420308
1761478521860349200,0.80634912109375,0.4318482792317867,-0.0067614569589495655,-0.33489231821522114
1761478521870385200,0.81638525390625,0.498141244828701,-0.14625446412749588,-0.06749313516691327
1761478521880421000,0.826421142578125,0.42609424574971194,-0.2614895206131041,0.038974750560522076
1761478521890457000,0.83645703125,0.28372283360064027,-0.38832697128280996,-0.06921469826251268
1761478521900492300,0.8464921875,0.07807984950244426,-0.484132483622618,-0.36127997440323234
1761478521910528300,0.8565283203125,-0.07469137610793113,-0.5546527845909819,-0.6262516380436718
1761478521920564200,0.866564208984375,-0.16474048034548758,-0.5389641805391758,-0.7298556587725877
1761478521930600200,0.87660009765625,-0.22810674484074114,-0.45820155822616065,-0.7921326667264104
1761478521940636200,0.88663623046875,-0.242051683562994,-0.3043010728575289,-0.7846987173333764
1761478521950671000,0.896671142578125,-0.23211247335076332,-0.19312084472067653,-0.5902037347152829
1761478521960707000,0.90670703125,-0.33110417797863484,-0.16411825679391623,-0.3040086657822132
1761478521970743300,0.916743408203125,-0.3991822734266519,-0.11771288130860776,-0.04962269356399774
1761478521980779300,0.926779296875,-0.373045961651206,-0.11954495557397603,0.17942191664874552
1761478521990815200,0.936815185546875,-0.22541852867007253,-0.15193908563517033,0.31593408137559886
1761478522000851200,0.946851318359375,-0.15232874253988266,-0.28476503612995147,0.24914076504111288
1761478522010886100,0.95688623046875,-0.08953589401841162,-0.31891550833918153,-0.0695624887868762
1761478522020922000,0.966922119140625,0.038240591067075724,-0.18215667537488042,-0.4511930311709642
1761478522030958000,0.9769580078125,0.18783318664133547,-0.14757164767328648,-0.6318322146549821
1761478522040994000,0.986994140625,0.24144728792905806,-0.20522731596939264,-0.5927598489388823
1761478522051030300,0.9970302734375,0.24875790320336819,-0.1790268529165536,-0.5470049367189407
1761478522061066500,1.00706640625,0.31309038238227366,-0.07604819754436612,-0.5565224143877625
1761478522071101400,1.017101318359375,0.3470475970417261,-0.022931378254294393,-0.5268018143847585
1761478522081137400,1.027137451171875,0.3208323748111725,-0.07097111347578465,-0.49732145287841556
1761478522091173400,1.03717333984375,0.1811702216207981,-0.03971767788231373,-0.49966246304661033
1761478522101209300,1.047209228515625,0.13409107505977153,0.004001344595849513,-0.43122079498320814
1761478522111245300,1.057245361328125,0.14838731143772602,0.004957622407376766,-0.32559272108078
1761478522121281300,1.06728125,0.21848376097083091,0.0037140520870685575,-0.3075993837505579
1761478522131316500,1.07731640625,0.2662456290990114,-0.03415887471139431,-0.3395385365858674
1761478522141352400,1.0873525390625,0.2904302222847938,-0.07889379623383283,-0.3168766229227185
1761478522151388400,1.097388427734375,0.2983516629338264,-0.07894063105024397,-0.22558336384296415
1761478522161424400,1.10742431640625,0.245955120742321,-0.0695334818881005,-0.10978402453809975
1761478522171460400,1.11746044921875,0.10582184290885925,-0.07703625873364507,-0.060788815222680564
1761478522181495600,1.12749560546875,-0.02843231375813484,-0.07572758728787303,-0.04773468786031008
1761478522191531500,1.137531494140625,-0.09883271467387676,-0.048000827983208,-0.07524725642502307
1761478522201567500,1.1475673828125,-0.10070376924276352,-0.021704064949043093,-0.05485387221574783
1761478522211603500,1.157603515625,-0.07699205426573753,-0.07063618243299424,0.03142097418010235
1761478522221639400,1.167639404296875,-0.13589023343622683,-0.13707118684910238,0.06764204211831093
1761478522231675400,1.17767529296875,-0.1527969445735216,-0.16101868334338068,0.07198153262734412
1761478522241710300,1.18771044921875,-0.15339958664178846,-0.22179858460724353,0.05396422989964485
1761478522251746300,1.197746337890625,-0.2237941423386335,-0.2634303524825722,-0.0074514850497245785
1761478522261782500,1.207782470703125,-0.2706482479721308,-0.26821320284493266,-0.03013502602279186
1761478522271818500,1.217818603515625,-0.2703191621482372,-0.2679953953757882,-0.05081833308935165
1761478522281854500,1.2278544921875,-0.2332411851197481,-0.21564934126250446,-0.030070728614926337
1761478522291890400,1.237890380859375,-0.18880875367522237,-0.217469030970335,0.029453765760362148
1761478522301925400,1.24792529296875,-0.13449673325121403,-0.2576555319407955,0.07827946372777222
1761478522311961300,1.25796142578125,-0.03448503792583942,-0.31445662923417983,0.09660305592566729
1761478522321997300,1.267997314453125,0.05133505043983459,-0.3684323303759098,-0.00950228009968996
1761478522332033300,1.278033203125,0.12789455850720405,-0.43649435147196053,-0.16860972299426794
1761478522342069500,1.288069580078125,0.19429449160993098,-0.5360476720379665,-0.27616145843565465
1761478522352105500,1.29810546875,0.21665537649989128,-0.5973715074528009,-0.32129531614780427
1761478522362140400,1.308140380859375,0.1880231562554836,-0.6246065011851489,-0.30136721136271954
1761478522372176400,1.31817626953125,0.1527320626437664,-0.5616488174907863,-0.24462416439950466
1761478522382212400,1.32821240234375,0.11537234606444835,-0.5146407268719747,-0.12411679353415965
1761478522392248300,1.338248291015625,0.04196574907004833,-0.5163505995297805,-0.002274666933715343
1761478522402284300,1.3482841796875,-0.030993688678741454,-0.5099113237299024,0.05518588064908981
1761478522412320300,1.3583203125,-0.046644262275099754,-0.573670240804553,0.08719897550344467
1761478522422355500,1.36835546875,-0.0524152468919754,-0.6086556294679641,0.05732756885290145
1761478522432391400,1.378391357421875,-0.005580430480837822,-0.5947657819338142,-0.002398293313384056
1761478522442427400,1.388427490234375,0.0230225636690855,-0.5712659561417996,-0.05480944855213165
1761478522452463400,1.39846337890625,0.08296352989077567,-0.5261910986078903,-0.08521481594890355
1761478522462499300,1.408499267578125,0.08791910647153854,-0.4872094433825463,0.06966624142229556
1761478522472535300,1.418535400390625,0.06306698928773403,-0.44076519719157364,0.34184622900635003
1761478522482570500,1.428570556640625,0.05432663347125053,-0.33580300331935287,0.5079299406543374
1761478522492606500,1.4386064453125,0.020138532665371894,-0.27051987235210834,0.5291819875195622
1761478522502642400,1.448642333984375,0.005586275699734688,-0.32064532780647276,0.36442952447533605
1761478522512678400,1.458678466796875,-0.018111410751938818,-0.4033184964485466,0.10419015005379914
1761478522522714400,1.46871435546875,-0.0168704707801342,-0.5388622545346617,-0.09296937559843063
1761478522532750300,1.478750244140625,-0.008980594313144684,-0.5861354988956824,-0.24979455277472734
1761478522542785300,1.488785400390625,-0.080723057487607,-0.5874212278572842,-0.3487649223536253
1761478522552821500,1.498821533203125,-0.16880232295691966,-0.5971345568917691,-0.3369853449717164
1761478522562857500,1.508857421875,-0.24642741442918775,-0.6011319559648632,-0.31142829438894987
1761478522572893400,1.5188935546875,-0.18911504314541816,-0.5438543272009119,-0.28094343201518057
1761478522582929400,1.528929443359375,-0.06660977646112441,-0.5165280384559184,-0.1868652183920145
1761478522592965400,1.53896533203125,0.030207506737112998,-0.5429131373606622,-0.10822802726775407
1761478522603000300,1.549000244140625,0.10637538513839244,-0.5689879282072187,-0.11556465376615524
1761478522613036300,1.559036376953125,0.05909983922243118,-0.5623957634005695,-0.1501397080630064
1761478522623072500,1.569072509765625,0.027444471764564514,-0.615415113665536,-0.14480886842906474
1761478522633108500,1.5791083984375,-0.03365209423303604,-0.68688160944283,-0.1316127022475004
1761478522643144400,1.58914453125,-0.09274725728034973,-0.7469858034022152,-0.25745968057513235
1761478522653180400,1.599180419921875,-0.1390203481554985,-0.8113705972902476,-0.49569852785170077
1761478522663215400,1.60921533203125,-0.16664368361830711,-0.863888062447682,-0.6974436277285218
1761478522673251300,1.619251220703125,-0.14783143112063407,-0.8692305194541812,-0.7748340336620807
1761478522683287300,1.629287353515625,-0.038403088152408595,-0.8414234979875386,-0.7597396326437592
1761478522693323300,1.6393232421875,0.013332359781861305,-0.7747540272284299,-0.6084057463601231
1761478522703359500,1.649359375,0.05140110141336918,-0.7777585428066551,-0.35871027004569767
1761478522713395500,1.6593955078125,0.1439490367293358,-0.7376570532385259,-0.25105916588306426
1761478522723430400,1.669430419921875,0.2732131300240755,-0.6584303717885166,-0.2759787953451276
1761478522733466400,1.67946630859375,0.33125966080129143,-0.5713082609135657,-0.2816673623755574
1761478522743502300,1.68950244140625,0.22849778998494147,-0.36969380167908966,-0.1855211103066802
1761478522753538300,1.699538330078125,0.13967851980328558,-0.0973694371882826,0.0386110318146646
1761478522763574300,1.70957421875,-0.13566753059625625,0.14704729500561953,0.3483865905605256
1761478522773610200,1.7196103515625,-0.6691536450505257,0.2927555234272033,0.3775172618463635
1761478522783645400,1.7296455078125,-1.2810270675212143,0.39216472281478343,0.12505202855765818
1761478522793681400,1.739681396484375,-1.8110154029875993,0.4501391016712412,-0.20729732717648147
1761478522803717400,1.74971728515625,-2.0915151828885077,0.4748838494904339,-0.3997781934931874
1761478522813753300,1.75975341796875,-2.143869054982066,0.44359727881234134,-0.5110189927108586
1761478522823789300,1.769789306640625,-1.9810195029497146,0.3471048071216792,-0.5401332973837852
1761478522833825300,1.7798251953125,-1.6156407149255274,0.19090857549868523,-0.4375619807034731
1761478522843861200,1.789861328125,-1.1394248861789702,0.07755019960515201,-0.2943511951208114
1761478522853896400,1.799896484375,-0.6304822613507509,-0.012550196428224443,-0.1412988144814968
1761478522863932400,1.809932373046875,-0.15934826591312884,-0.0026780601028352975,-0.06500394869968294
1761478522873968400,1.819968505859375,0.18394260894358158,0.09750621531046927,-0.014449234982579946
1761478522884004400,1.83000439453125,0.37405484643280507,0.20625848564803598,0.037540918365120884
1761478522894040300,1.840040283203125,0.44783261482715603,0.32924123365096747,0.05950155189111828
1761478522904076300,1.850076171875,0.5211585478007793,0.4625674618180841,0.04700052836686373
1761478522914111500,1.860111572265625,0.572114828056097,0.5616151344168931,-0.009587620295584201
1761478522924147500,1.8701474609375,0.5757137293308973,0.6700706137649715,-0.07932400434464215
1761478522934183400,1.880183349609375,0.6608546032607555,0.7476417100276798,-0.07318652450293302
1761478522944219400,1.890219482421875,0.7365829212009907,0.7878847269583493,-0.007810673750936984
1761478522954255400,1.90025537109375,0.754262370276451,0.7774608019690961,0.09252689252793789
1761478522964291300,1.910291259765625,0.6364262644469738,0.7962129948426038,0.1650099449366331
1761478522974326300,1.920326171875,0.5064601603627205,0.8205969830580055,0.10718640926033257
1761478522984362200,1.9303623046875,0.3089478757500648,0.8798325774893164,0.0748012662231922
1761478522994398500,1.9403984375,0.16052373943328857,0.8225265628810972,0.06789689366221427
1761478523004434400,1.950434326171875,0.038676059874892234,0.695703579128161,-0.11741232745945453
1761478523014470400,1.960470458984375,-0.009079378512501715,0.6360162954065949,-0.3661532795280218
1761478523024506400,1.97050634765625,0.027228783187270164,0.5774691216308623,-0.45307402261197566
1761478523034541300,1.980541259765625,0.011551321583986281,0.5336893819414079,-0.3408420203998685
1761478523044577300,1.990577392578125,-0.06957973218262195,0.5255534948240965,-0.19431231952756642
1761478523054613200,2.00061328125,-0.1682037725418806,0.6441125081006437,-0.0936085502848029
1761478523064649000,2.01064892578125,-0.32849370321929455,0.789555436649546,-0.01930646575540304
1761478523074685000,2.020684814453125,-0.4711655596196651,0.8860656997252255,0.14394962125122546
1761478523084721000,2.030720947265625,-0.5779547862559556,0.9456771417316049,0.3787476804241538
1761478523094755800,2.040755859375,-0.5495324093699455,1.0059156295951455,0.5855909802228212
1761478523104791800,2.050791748046875,-0.46859015617370603,1.0323065737187862,0.711833679869771
1761478523114827800,2.060827880859375,-0.3803741125822067,0.9870831380270421,0.675107877279818
1761478523124863700,2.07086376953125,-0.25284955643117424,0.8928879469607025,0.533399312953651
1761478523134900000,2.08089990234375,-0.12177695240974426,0.7974025699533521,0.4075213549658656
1761478523144936000,2.09093603515625,0.06778817259073257,0.7558120839364826,0.28299890324026344
1761478523154972000,2.100971923828125,0.11603168675601482,0.7958437231387943,0.2295620582155883
1761478523165006800,2.1110068359375,0.10016074840724468,0.8014120247904211,0.33157544875219463
1761478523175042800,2.121042724609375,0.04552899450957775,0.8461263419162481,0.47417467830777166
1761478523185078800,2.131078857421875,-0.003542202651500702,0.919852087862417,0.6243411282472312
1761478523195114800,2.14111474609375,0.02382745031118393,0.9637162909649312,0.70392319900617
1761478523205150700,2.151150634765625,0.013953122028708458,0.954271805467084,0.6755448073923588
1761478523215187000,2.16118701171875,-0.06446633469164371,0.8886666029386222,0.505030712081492
1761478523225222000,2.171221923828125,-0.1667693558245897,0.8210654042873531,0.2620553378023207
1761478523235257900,2.1812578125,-0.2682020238637924,0.758189699788019,0.01705430291444063
1761478523245293800,2.1912939453125,-0.31519816831648345,0.7850755147565156,-0.2066723271459341
1761478523255329800,2.201329833984375,-0.33402971003651616,0.8246871749810873,-0.25736922581270333
1761478523265365800,2.21136572265625,-0.335971491754055,0.7607922835018486,-0.11900237312987447
1761478523275401700,2.221401611328125,-0.4104284745842218,0.7334726802259683,0.04876753803938627
1761478523285437000,2.23143701171875,-0.46845863874852656,0.6034210898153484,0.16467296806722878
1761478523295473000,2.241472900390625,-0.4734697449088096,0.4257360068965703,0.14114946913868187
1761478523305508900,2.2515087890625,-0.4853717796266079,0.2465093936242163,-0.0708282709389925
1761478523315544800,2.261544921875,-0.43377194077074527,0.14730536141991615,-0.33504078677520155
1761478523325580800,2.271580810546875,-0.37779754009246824,0.0927592399790883,-0.41620881155133244
1761478523335616800,2.28161669921875,-0.2914852842956781,0.10913505911007523,-0.19659838463813065
1761478523345652700,2.29165283203125,-0.1349941613793373,0.14580219031535088,0.2632623755045235
1761478523355688000,2.30168798828125,-0.048532852500677105,0.2042184311877936,0.637945729099214
1761478523365724000,2.311723876953125,-0.10036007037162781,0.26495785431079566,0.768115831322968
1761478523375760000,2.321759765625,-0.17779110057651995,0.2912009874615818,0.7366933958381414
1761478523385795800,2.3317958984375,-0.22740999474823473,0.21953845765553415,0.6685977647334337
1761478523395831800,2.341831787109375,-0.3131879975378513,0.117215635843575,0.5980854278758168
1761478523405867800,2.35186767578125,-0.419796022388339,0.03695347386598587,0.5080668649069965
1761478523415903000,2.361903076171875,-0.4544412193119526,-0.06395502416864036,0.4588493911430239
1761478523425939000,2.37193896484375,-0.49955461875796314,-0.10541286024916917,0.3800196000561118
1761478523435975000,2.381974853515625,-0.4359007694929838,-0.11998648879639803,0.3498758062049746
1761478523446011000,2.392010986328125,-0.29123861605823037,-0.12303794878888874,0.42962461183294653
1761478523456046800,2.402046875,-0.1560918944656849,-0.09415135192461312,0.47938685999810693
1761478523466082800,2.412082763671875,-0.07611059525609017,-0.05621843856722116,0.5010702840179204
1761478523476117800,2.42211767578125,-0.06860065801739693,-0.04319711749590933,0.5301642765551805
1761478523486153700,2.43215380859375,-0.10228197834491728,-0.06423391417525709,0.5682685278914869
1761478523496190000,2.44218994140625,-0.225559398445487,-0.052046413579583166,0.5797784945517778
1761478523506226000,2.452225830078125,-0.3191571350753307,-0.010894611240923405,0.5156606810368597
1761478523516262000,2.462261962890625,-0.3416752563536167,-0.009766995450481772,0.43289720376282925
1761478523526297900,2.4722978515625,-0.2990373071104288,0.0017163754638284444,0.39500031156688925
1761478523536333800,2.482333740234375,-0.1439876151740551,-0.010715729276370257,0.41718496310710906
1761478523546368800,2.49236865234375,0.02818915265202522,-0.05394260258972645,0.44422056180983777
1761478523556404700,2.50240478515625,0.12280804902315139,-0.10120733485072851,0.39073154820650813
1761478523566440700,2.512440673828125,0.1190086567401886,-0.12826660668998957,0.2758019774734974
1761478523576477000,2.522476806640625,0.08886018671393393,-0.176641199889034,0.2205845326423645
1761478523586513000,2.532512939453125,-0.04581950188875198,-0.24818543707765636,0.20428411683514713
1761478523596548900,2.542548828125,-0.18363748851716516,-0.2859880020536482,0.13391045779585836
1761478523606583800,2.552583740234375,-0.345333778861165,-0.3144084061782807,0.03780190738886594
1761478523616619800,2.562619873046875,-0.4556739759773016,-0.3309893194273114,-0.07896203916445374
1761478523626655700,2.57265576171875,-0.446422748029232,-0.37521132299154997,-0.1355186236448586
1761478523636691700,2.582691650390625,-0.30706571526527404,-0.41891050825808196,-0.14716653747111558
1761478523646727700,2.592727783203125,-0.12884966727495192,-0.40802521283477544,-0.15637436466887591
1761478523656764000,2.602763916015625,-0.05070142871141434,-0.35393278997819866,-0.1324598205961287
1761478523666798800,2.612798828125,-0.06686871965825557,-0.3139448437871411,-0.05947407936230301
1761478523676834800,2.622834716796875,-0.12837737358808518,-0.26193905447889115,0.015079203449189662
1761478523686870800,2.632870849609375,-0.23795769224762914,-0.1950237557325512,0.10540288684442639
1761478523696906800,2.64290673828125,-0.3547527645915746,-0.15717024602061136,0.2124322058469057
1761478523706942700,2.652942626953125,-0.3818313256531954,-0.18667882897444069,0.24767434575036168
1761478523716978700,2.662978759765625,-0.36528292643427845,-0.2122189284224063,0.10504325975179672
1761478523727014700,2.6730146484375,-0.40061902823150153,-0.25613358307052403,-0.1821693156607449
1761478523737049900,2.6830498046875,-0.4111082735419273,-0.2835305441652424,-0.4106754350826144
1761478523747085800,2.6930859375,-0.3316805165618658,-0.24276386868664993,-0.42668285929262634
1761478523757121800,2.703121826171875,-0.17260639141499995,-0.2588140543261543,-0.1599772114664316
1761478523767157800,2.71315771484375,0.028414193579554554,-0.3011880919361487,0.19709435146152973
1761478523777193700,2.72319384765625,0.16904314597547054,-0.2932549791156314,0.32956030953750015
1761478523787229700,2.733229736328125,0.15784779822230338,-0.3027670134243555,0.24315789123922585
1761478523797265000,2.743264892578125,0.05004150349795818,-0.3134141709765419,0.0656321636006236
1761478523807300900,2.75330078125,-0.09838906255960464,-0.34231826696489004,-0.04179170767739415
1761478523817336800,2.7633369140625,-0.1563087520867586,-0.4423986070796847,-0.04444558318704366
1761478523827372800,2.773372802734375,-0.18379004873037338,-0.5417975042689591,-0.018688187726587056
1761478523837408800,2.78340869140625,-0.17929975157380104,-0.6095369423471391,-0.011650690305233
1761478523847444700,2.79344482421875,-0.14792261653542518,-0.5822415967296809,0.020271949786692858
1761478523857480000,2.80347998046875,-0.10279694212973117,-0.49881826730743045,0.08237535473927855
1761478523867516000,2.813515869140625,-0.09682546650469302,-0.43618535858802493,0.16345365540534257
1761478523877551900,2.8235517578125,-0.1946206548243761,-0.4530667891535908,0.22046499791592358
1761478523887587800,2.833587890625,-0.3094885584980249,-0.4572317268133163,0.2251800437390804
1761478523897623800,2.843623779296875,-0.3903758666366339,-0.4620125313490629,0.2195104736700654
1761478523907660000,2.853659912109375,-0.46095103959739203,-0.506576114892587,0.2701237857066095
1761478523917694700,2.86369482421875,-0.45240240696072576,-0.5063800808638333,0.2943456421628594
1761478523927730700,2.873730712890625,-0.3390127591460943,-0.5559778226496651,0.36814737595468755
1761478523937767000,2.883766845703125,-0.2397895838499069,-0.67306658071056,0.44759778315797444
1761478523947803000,2.893802978515625,-0.21797522692680357,-0.683468220802769,0.4037072035051882
1761478523957838800,2.9038388671875,-0.3201519913315773,-0.59974386260733,0.32022154943645
1761478523967875000,2.913875,-0.45070086373984813,-0.47111850560754537,0.3074908088095486
1761478523977911000,2.9239111328125,-0.4800274959892034,-0.2932359273552894,0.35937370239049193
1761478523987945700,2.93394580078125,-0.5272574491977692,-0.03904471052419394,0.4142864651866257
1761478523997981700,2.943981689453125,-0.46920624224543567,0.2925274137597531,0.5116572906143964
1761478524008017700,2.954017578125,-0.5022369897097348,0.3908246698500588,0.8374275602191686
1761478524018054000,2.964053955078125,-0.6653834788620472,0.2768686568569392,1.1360812748394906
1761478524028090000,2.974090087890625,-0.8309814528197049,0.24743681066744028,1.1338961858853698
1761478524038126000,2.9841259765625,-1.2289309695810078,0.3354196300249547,0.790584414371103
1761478524048160800,2.994160888671875,-1.469184663811326,0.3720907798182219,0.3067151482619345
1761478524058196700,3.00419677734375,-1.6375807440549135,0.32004761764165013,-0.04789455459713936
1761478524068233500,3.0142333984375,-1.577696476456523,0.27947847402915355,-0.21236790843904016
1761478524078269400,3.02426953125,-1.2424807715058326,0.2575822109762579,-0.38471594117879865
1761478524088305700,3.0343056640625,-0.7198375381052493,0.16715601705461738,-0.43339463189095256
1761478524098341600,3.044341552734375,-0.23878186811208724,0.10304770202040672,-0.37559593839496375
1761478524108376600,3.05437646484375,0.11855039157867431,0.14771302890535443,-0.33248306511640546
1761478524118412500,3.06441259765625,0.37828386230468747,0.16733948386274278,-0.3254882377929985
1761478524128448500,3.074448486328125,0.5232160648524761,0.17379406682960688,-0.31067367662936446
1761478524138484500,3.084484375,0.4756763150423765,0.22812829908542334,-0.2611085584715009
1761478524148520700,3.094520751953125,0.3595966974914074,0.2352077359523624,-0.1567130951039493
1761478524158556700,3.104556640625,0.1999795515090227,0.24484613658711313,-0.05459639032334089
1761478524168592600,3.114592529296875,0.032735563910007474,0.24976379231028256,-0.016783084757626056
1761478524178627600,3.124627685546875,-0.017018354818224907,0.2344792755473405,-0.003771335232257843
1761478524188663600,3.13466357421875,-0.049130233871936796,0.19032076567336917,0.007477496273815632
1761478524198699800,3.14469970703125,0.04082826947271823,0.22656769870519636,-0.028347558084130284
1761478524208735700,3.15473583984375,0.09034019613862038,0.29034378611035644,0.0105178868830204
1761478524218771700,3.164771728515625,0.11703589536249637,0.32431236241403966,0.10712211185246705
1761478524228807700,3.1748076171875,0.0834849234163761,0.3502694086324423,0.19196166474819182
1761478524238842400,3.18484228515625,-0.05240881715118885,0.34957415637727823,0.19909020145386455
1761478524248878600,3.194878662109375,-0.21886603828668594,0.3906280878320336,0.00826397047638893
1761478524258914800,3.204914794921875,-0.36543899377882477,0.41775286265555767,-0.28283143771886826
1761478524268950800,3.21495068359375,-0.4547358183443546,0.42249391970280553,-0.5204324254833161
1761478524278986800,3.22498681640625,-0.3683224402606487,0.4835310105981305,-0.5985901625275611
1761478524289022700,3.235022705078125,-0.26340368367135525,0.4699001062611118,-0.3558637945733964
1761478524299058700,3.24505859375,-0.14392448680996894,0.46646713613774626,-0.04519230990111828
1761478524309093600,3.25509375,0.010203998628258704,0.567839196563512,0.1605840913183987
1761478524319129600,3.265129638671875,0.14679273572266102,0.6409311746507883,0.2762396382384002
1761478524329165800,3.275165771484375,0.23091011182367802,0.6247605227030814,0.2798426311664283
1761478524339201800,3.285201904296875,0.2677536955744028,0.5968841988598927,0.08229556750133633
1761478524349237800,3.29523779296875,0.27724107036590573,0.5405522169156,-0.19198972179889678
1761478524359273700,3.305273681640625,0.2670423324346542,0.4240758551320061,-0.3643669806331396
1761478524369308700,3.31530859375,0.22327041072547435,0.3589257394272834,-0.41602059550285336
1761478524379344600,3.3253447265625,0.15143500857055187,0.38558132583647964,-0.41162294506579633
1761478524389380600,3.335380615234375,0.06709025345444679,0.4277594755481928,-0.3994510073654353
1761478524399416600,3.34541650390625,0.096238022005558,0.4618229270610958,-0.3771291393116116
1761478524409452800,3.355452880859375,0.08035539321899414,0.45704011323135346,-0.3290241568341851
1761478524419488800,3.36548876953125,0.008894669595360755,0.4331989266557619,-0.23829452298656104
1761478524429523700,3.375523681640625,-0.0393354005664587,0.3885121551239863,-0.19576982485949992
1761478524439559700,3.3855595703125,-0.10861819562911987,0.33273882997576143,-0.3992671752311289
1761478524449595600,3.395595703125,-0.1319312666773796,0.2841469042316079,-0.7530775444060563
1761478524459631600,3.405631591796875,-0.154334821665287,0.22228618546109646,-1.0487937442697584
1761478524469667600,3.41566748046875,-0.12532850741147994,0.19571349156238138,-1.1355815086238086
1761478524479703600,3.42570361328125,-0.17340192570686339,0.1825014336919412,-0.9763356801718472
1761478524489738800,3.43573876953125,-0.286806186568737,0.20769345035459846,-0.7534012234024703
1761478524499774700,3.445774658203125,-0.3808329622656107,0.3387278047248721,-0.5703779212608933
1761478524509810700,3.455810791015625,-0.45095279267430305,0.4910096393831074,-0.45541853991150855
1761478524519846700,3.4658466796875,-0.40199966893494127,0.5678573898073286,-0.41863983809053895
1761478524529882600,3.475882568359375,-0.2699976751089096,0.5614842745788395,-0.3846379075065255
1761478524539918600,3.485918701171875,-0.15822832197248934,0.602630450894311,-0.2639778302974999
1761478524549954600,3.49595458984375,-0.07154372573196888,0.5794478012926876,-0.17398644759654996
1761478524559989800,3.50598974609375,-0.02699146730005741,0.5688928703349083,-0.23898718142583966
1761478524570025700,3.516025634765625,-0.08831248970329761,0.5752370517298578,-0.39380262621492146
1761478524580061700,3.526061767578125,-0.0850625479966402,0.5112574411092325,-0.5327645221814513
1761478524590097700,3.53609765625,-0.04485620981454849,0.4839785351699218,-0.5896697739690542
1761478524600133600,3.546133544921875,-0.1129781444042921,0.5388993716746568,-0.5437713616251946
1761478524610169600,3.556169677734375,-0.1546978097587824,0.6089209293406457,-0.4232938013762235
1761478524620204800,3.566204833984375,-0.15626783555448054,0.6590783873684704,-0.24837884075790642
1761478524630240800,3.57624072265625,-0.052801031339168546,0.674056030139327,-0.12789865016043186
1761478524640276700,3.58627685546875,0.19772446605861185,0.6419171169482171,-0.053474985077977176
1761478524650312700,3.596312744140625,0.4836626376211643,0.45935566016472873,0.029373686261475084
1761478524660348700,3.6063486328125,0.7401713010817765,0.24227365575060247,-0.06037555824667215
1761478524670384600,3.616384521484375,0.9241045576751231,0.05992416121736169,-0.36112142284065485
1761478524680419600,3.626419677734375,1.0704179854482412,-0.06560052635334432,-0.6595476123154163
1761478524690455600,3.63645556640625,1.0355793117791414,-0.05364420416504145,-0.9812272516056895
1761478524700491800,3.64649169921875,0.4918833534777164,0.08500212304629386,-1.3085837674885987
1761478524710527700,3.65652783203125,0.031654198414087294,0.1397736507408321,-1.016124085202813
1761478524720563700,3.666563720703125,-0.38445875154733655,0.09240224323496223,-0.30706717656999827
1761478524730599700,3.676599609375,-0.49293198574781416,0.18315861895903943,0.0379670348227024
1761478524740635600,3.6866357421875,-0.553429416808486,0.18161803845353425,0.05521218413412571
1761478524750670600,3.696670654296875,-0.7267232059657573,0.08107705855704843,-0.08559621648192405
1761478524760706600,3.70670654296875,-0.6214706873774528,0.012811112386733292,-0.29137393287569285
1761478524770742500,3.716742431640625,-0.44493455529808995,-0.19392770412415264,-0.2879351905986666
1761478524780778800,3.72677880859375,-0.16561960126757622,-0.43229426943361754,-0.23807781149595975
1761478524790814700,3.736814697265625,0.12303192090690135,-0.5788979853902012,-0.18449352082461118
1761478524800850700,3.7468505859375,0.2612958977371454,-0.6567812163420021,-0.039544659402966496
1761478524810885600,3.7568857421875,0.24551322219371793,-0.6252372003041208,0.117812432692945
1761478524820921600,3.766921630859375,0.11823474975824355,-0.523700231640227,0.26643618323504925
1761478524830957600,3.77695751953125,0.04795709843933582,-0.421521238745749,0.3720493518292904
1761478524840993500,3.78699365234375,0.020495675539970396,-0.3304550664201379,0.38248043721169234
1761478524851029800,3.79702978515625,0.019988310539722443,-0.33097678873930125,0.3534340832084417
1761478524861065700,3.807065673828125,-0.03131459119617939,-0.3897058584205806,0.26937135990411043
1761478524871100700,3.8171005859375,-0.11825111637115478,-0.399263047045283,0.15108195734918117
1761478524881136600,3.82713671875,-0.11037468390762806,-0.4773484860382974,0.1262578972160816
1761478524891172600,3.837172607421875,-0.05918225680887699,-0.5211824766656383,0.11721914297491311
1761478524901208600,3.84720849609375,0.037241058635711664,-0.509663742177002,0.09779840319007635
1761478524911244500,3.85724462890625,0.2069154882520437,-0.5444197059987113,0.08543430391848086
1761478524921280500,3.867280517578125,0.2909785038173199,-0.5340600053520873,0.054769993324577805
1761478524931316700,3.877316650390625,0.2442512394338846,-0.48692861714716995,-0.041596623496711255
1761478524941351700,3.8873515625,0.15025485887527465,-0.5352565216602757,-0.09832067349851131
1761478524951387600,3.8973876953125,0.0338888255983591,-0.5706097572553902,-0.17185381948202846
1761478524961423600,3.907423583984375,-0.13018179266154764,-0.5549756964024156,-0.30201135448515415
1761478524971459600,3.91745947265625,-0.25086393557190895,-0.5513619628846645,-0.37805662942007184
1761478524981495600,3.92749560546875,-0.261078455594182,-0.5937471429431811,-0.2883338345274329
1761478524991531500,3.937531494140625,-0.11650164235532283,-0.6183152920864522,-0.16975275554955005
1761478525001566700,3.947566650390625,0.09703355629742146,-0.6998994233828038,-0.0557994825027883
1761478525011602700,3.957602783203125,0.2713765622466802,-0.7942492204889655,-0.012486264346539974
1761478525021638700,3.967638671875,0.3387456326425075,-0.8540292970605194,-0.004735504089295864
1761478525031674600,3.977674560546875,0.330053792142868,-0.8966253068581223,0.06579772942587733
1761478525041710600,3.987710693359375,0.1651274338364601,-0.9143960874788463,0.07541165320649743
1761478525051746600,3.99774658203125,-0.05835282024741172,-0.9094139882173389,-0.03402721115574241
1761478525061781800,4.00778173828125,-0.27188509629070756,-0.8720509837023913,-0.12255582782775162
1761478525071817700,4.017817626953125,-0.33779169291853905,-0.7742468083586543,-0.0729655752286315
1761478525081853700,4.027853759765625,-0.2520850017994642,-0.714502972144261,0.14268296231627464
1761478525091889700,4.0378896484375,-0.13010288220643995,-0.7360422384530305,0.3521817450597882
1761478525101925600,4.047925537109375,-0.028437574455142018,-0.7793833675295114,0.4647055698253214
1761478525111961600,4.057961669921875,-0.010362988582253456,-0.7749820638306438,0.3638533320225775
1761478525121996500,4.06799658203125,0.03312310192286968,-0.6795240132216364,0.07816241321936249
1761478525132032500,4.078032470703125,0.09376841702163219,-0.6776831345953047,-0.1463559517405927
1761478525142068700,4.08806884765625,0.21110417211353777,-0.7734031971413642,-0.32699630426838994
1761478525152104700,4.098104736328125,0.35436522657871244,-0.8423851826265454,-0.4295692283838987
1761478525162140700,4.108140625,0.3149748809546232,-0.8709855464279651,-0.4708592701494693
1761478525172177000,4.118177001953125,0.11908698267340659,-0.780303039657697,-0.4976359256550669
1761478525182211600,4.128211669921875,-0.1335556530088186,-0.45024405988305805,-0.4299121966026723
1761478525192247600,4.13824755859375,-0.32617958105802536,0.056177887361124154,-0.16072554561570285
1761478525202283500,4.148283447265625,-0.5335293690741062,0.38574068111665544,0.2903177018210292
1761478525212319500,4.158319580078125,-0.7486953837990761,0.5263947679538279,0.522983132879436
1761478525222355700,4.168355712890625,-1.0522703343391417,0.5879497452434153,0.3907392931215465
1761478525232392000,4.178391845703125,-1.5038076489031313,0.5256217377547174,-0.13052607605457306
1761478525242428000,4.188427978515625,-1.9532886154592035,0.4867614438867196,-0.7491444427408278
1761478525252462600,4.198462646484375,-2.215313996514678,0.41439456520359963,-1.1363447480812667
1761478525262498600,4.20849853515625,-2.1048498807579277,0.3635391880394891,-1.2874161840364335
1761478525272534500,4.218534423828125,-1.7539976307362317,0.30296069109924134,-1.164828792026639
1761478525282570800,4.22857080078125,-1.3693202680021523,0.22883162504918872,-0.8116096667431294
1761478525292606700,4.238606689453125,-0.9033183747559785,0.20347828034497797,-0.49574894286468624
1761478525302643000,4.248642822265625,-0.4626929148286581,0.16259192400947212,-0.24233576120138167
1761478525312677600,4.258677734375,-0.12278875980079174,0.2115133374363184,-0.14424568158835172
1761478525322713600,4.268713623046875,0.20796002886891363,0.25372107856869697,-0.18098945822641252
1761478525332749600,4.27874951171875,0.4495230521321296,0.215330338441208,-0.23620295753479004
1761478525342785800,4.288785888671875,0.6279074424266815,0.24994302133470772,-0.26670740139186383
1761478525352821800,4.29882177734375,0.7825771951347589,0.2934396332338452,-0.2865175788857043
1761478525362857700,4.308857666015625,0.8041255945980549,0.4413311239786446,-0.3134264824688434
1761478525372892700,4.318892578125,0.8740899421840905,0.6124857091501354,-0.27735198339447376
1761478525382928600,4.3289287109375,0.905309256312251,0.7189134820628911,-0.15070041068568824
1761478525392964900,4.33896484375,0.8748474825531244,0.730962377905473,0.03036576603874564
1761478525403000800,4.349000732421875,0.8087742971867322,0.741481141571328,0.1924481330908835
1761478525413036800,4.359036865234375,0.679531831201911,0.7378343825668097,0.19639701684713362
1761478525423072800,4.36907275390625,0.52251873023808,0.722346598316729,0.009759908122569322
1761478525433107700,4.379107666015625,0.38567864873111246,0.6607589608665555,-0.15994637793675065
1761478525443143700,4.389143798828125,0.2950052751153707,0.6165522279366851,-0.1377457981750369
1761478525453180000,4.399179931640625,0.09923194312453269,0.5660244752917438,-0.06266966053321957
1761478525463215900,4.4092158203125,-0.09717910224795341,0.503180042713508,-0.10704495496302842
1761478525473251800,4.419251953125,-0.2727256387680769,0.40293855722025035,-0.2583192200139165
1761478525483287800,4.429287841796875,-0.40099370676279067,0.3554607667304575,-0.5000266201838851
1761478525493323800,4.43932373046875,-0.5180582436978817,0.45448228197470303,-0.6411071157395839
1761478525503358700,4.449358642578125,-0.6078355452567339,0.5971751080978661,-0.4636914243467152
1761478525513395000,4.45939501953125,-0.6298620836257934,0.7337991357013582,-0.11881021155864
1761478525523431000,4.469430908203125,-0.5897551141649484,0.9093681763142347,0.24242358561530708
1761478525533467000,4.479466796875,-0.49155076052248475,1.0102774780664592,0.507068209258467
1761478525543502800,4.4895029296875,-0.4661275654524564,1.0062982722371816,0.5738055576220155
1761478525553538800,4.499538818359375,-0.3333312063783407,0.9574421791315079,0.4746013792872429
1761478525563573800,4.50957373046875,-0.15927812328636645,0.9453898492228239,0.37366467807143927
1761478525573609700,4.519609619140625,-0.001174304476380348,0.9770917592361569,0.35504999397248027
1761478525583645700,4.529645751953125,0.0407207174450159,0.954596872702986,0.5069222249165177
1761478525593682000,4.539681884765625,-0.007268529698252677,0.9072375209610909,0.7122618421539664
1761478525603718000,4.5497177734375,-0.08158347370922565,0.8800634636357426,0.7540006506003439
1761478525613753900,4.55975390625,-0.22712591710984706,0.8357309123691171,0.5772651965565979
1761478525623788800,4.569788818359375,-0.32139059321582314,0.7916730133254081,0.18602306847944855
1761478525633824800,4.57982470703125,-0.32999417091012,0.7176144552282988,-0.2483583824917674
1761478525643860700,4.58986083984375,-0.2745464244544506,0.6421031410396099,-0.5121592487871647
1761478525653896700,4.599896728515625,-0.21916005279719827,0.6127811119001358,-0.5450985185757279
1761478525663933000,4.609932861328125,-0.14191139342188835,0.5820205013249069,-0.42512203971669077
1761478525673969000,4.619968994140625,-0.1403922210305929,0.5658022108431905,-0.3365856781296432
1761478525684003800,4.63000390625,-0.27039047381877895,0.6777464090898633,-0.3390142204508185
1761478525694039800,4.640039794921875,-0.541692801785469,0.84780370054394,-0.3261851340159774
1761478525704075800,4.65007568359375,-0.7594231140404939,1.01779421037212,-0.16931933256834744
1761478525714111700,4.66011181640625,-0.805352506044507,1.0951272600952535,0.0800979113265872
1761478525724147700,4.670147705078125,-0.6374006624370813,1.132137067258358,0.28709727846980093
1761478525734183700,4.68018359375,-0.36933132504224775,1.1137145447306334,0.4804987667627632
1761478525744219000,4.690218994140625,-0.0515220974445343,0.9969986751027404,0.6572703150331973
1761478525754254800,4.7002548828125,0.37944004660248754,0.809647938216105,0.7854754007942975
1761478525764290800,4.710290771484375,0.7421499076783656,0.6392537429578602,0.8003102740935981
1761478525774326800,4.720326904296875,0.9342354910671711,0.45888395099975166,0.6761005415789783
1761478525784362800,4.73036279296875,0.8727987333297729,0.31407464417926967,0.46018063974678514
1761478525794398700,4.740398681640625,0.6084802729010581,0.188868228777498,0.2338637009322643
1761478525804434700,4.7504345703125,0.2602069334566593,0.06884900675527751,0.08025237123593687
1761478525814470000,4.760469970703125,-0.011450783818960189,0.007403408124297857,-0.02439049102142453
1761478525824505900,4.770505859375,-0.22836744160354136,0.010635083521902561,-0.14974121026471257
1761478525834541800,4.780541748046875,-0.28032091620266436,0.08388648995459079,-0.2571735571101308
1761478525844577800,4.790577880859375,-0.17843933535218237,0.18501023817509413,-0.22677783432453869
1761478525854613800,4.80061376953125,-0.04917874918878078,0.2754774216942489,-0.09000906448811292
1761478525864649700,4.810649658203125,0.038353403791785236,0.2963267329774797,0.11548428200632332
1761478525874685000,4.820684814453125,0.05573182409405708,0.29513255475684996,0.3631885845035314
1761478525884721000,4.830720947265625,-0.09301321474015713,0.2501142862483859,0.5071269537083805
1761478525894756900,4.8407568359375,-0.31334874105751515,0.11545154878050089,0.44336438337191936
1761478525904792800,4.850792724609375,-0.48070144972801204,-0.02276486258096993,0.19825024349838494
1761478525914828800,4.860828857421875,-0.6186082836836576,-0.13037943412549793,-0.16155162117630242
1761478525924864800,4.87086474609375,-0.6442424911558627,-0.20675423327572642,-0.4301223322220146
1761478525934899700,4.880899658203125,-0.6106447574585676,-0.24486060350388286,-0.3938121246956289
1761478525944935700,4.890935791015625,-0.5959072070538998,-0.187532888520509,-0.06935878290832043
1761478525954972000,4.900971923828125,-0.4457949715197086,-0.07760273350998759,0.33855653981119394
1761478525965008000,4.9110078125,-0.27296763083040715,0.01819558190405369,0.641886575679481
1761478525975043800,4.9210439453125,-0.10539981810450554,0.1278334759697318,0.7272231183119118
1761478525985079800,4.931079833984375,0.020968553748726842,0.1819601298894733,0.6703178665243089
1761478525995115800,4.94111572265625,-0.009973697003722191,0.042264732016623015,0.5496273941770196
1761478526005150700,4.951150634765625,-0.07448620892465115,-0.02490983872041106,0.34251872144043444
1761478526015186700,4.961186767578125,-0.11274667373597622,-0.0382505279392004,0.14699951034113765
1761478526025222700,4.97122265625,-0.2137304289638996,-0.11945347789824008,-0.03538827037587762
1761478526035259000,4.9812587890625,-0.2339998945325613,-0.20959939357377588,-0.2201229064799845
1761478526045294800,4.991294921875,-0.24498481440544126,-0.303893880296126,-0.34037381836622954
1761478526055330800,5.001330810546875,-0.25437574308514593,-0.39242812299132346,-0.43003801493942734
1761478526065365000,5.011364990234375,-0.1924105775594711,-0.3890951061110943,-0.42120647370815273
1761478526075401000,5.02140087890625,-0.13494038536548614,-0.2972471357580274,-0.3004359218619764
1761478526085437200,5.031437255859375,-0.07183598667681217,-0.1933446435391903,-0.08289762504771352
1761478526095473200,5.04147314453125,0.018874796339869496,-0.1169800735220313,0.08820259958803653
1761478526105509000,5.051509033203125,0.039086394241452216,-0.03552344106286764,0.1783497573725879
1761478526115545000,5.061545166015625,0.014865560698509216,-0.030151319570466874,0.24070801386907695
1761478526125580000,5.071580078125,-0.005727729997038841,-0.11213329107798635,0.2417661446198821
1761478526135616000,5.081615966796875,0.019438859963417054,-0.20464535136297343,0.20430442897081375
1761478526145652000,5.09165185546875,0.10768997486829757,-0.2841566949732601,0.1711728514805436
1761478526155688000,5.10168798828125,0.13483166429400442,-0.2892629320710897,0.03164601510763168
1761478526165724200,5.11172412109375,0.05213116925358772,-0.20926438946574924,-0.13224734688922762
1761478526175760100,5.121760009765625,-0.08206161261498927,-0.20429211747851223,-0.17667247181013226
1761478526185795000,5.131795166015625,-0.23886311665475368,-0.2275940460782498,-0.07307181208208204
1761478526195831000,5.1418310546875,-0.36234219680726526,-0.23608685687445102,0.09230404355749487
1761478526205867000,5.151866943359375,-0.41775136481821534,-0.2183405531078577,0.24078765497654675
1761478526215903000,5.161903076171875,-0.4904974520772695,-0.2374396597228944,0.2784749960750341
1761478526225939000,5.17193896484375,-0.4054366576462984,-0.23201295849904416,0.19005583112686872
1761478526235975000,5.181974853515625,-0.19568740727305411,-0.2080056215763092,-0.0033067864604294298
1761478526246010000,5.192010009765625,0.025464111602306366,-0.16628727139607072,-0.0593275104984641
1761478526256046000,5.202046142578125,0.13640461269915102,-0.1587925317265093,0.08104045287370681
1761478526266082000,5.21208203125,0.14868600212335586,-0.19209500880427657,0.2598455527983606
1761478526276118000,5.222117919921875,0.017719196563959122,-0.23083244347758589,0.4039515336550772
1761478526286154000,5.232154052734375,-0.06248305191993713,-0.23072459918893873,0.37379692614898086
1761478526296190000,5.24218994140625,-0.14088731107115746,-0.23800737660825252,0.18080694126635788
1761478526306226000,5.252225830078125,-0.25887656163573264,-0.30731106832847,-0.012389087582379579
1761478526316261000,5.26226123046875,-0.37339609026312826,-0.3884162570014596,-0.10892331605553626
1761478526326297000,5.272297119140625,-0.4102940345495939,-0.430783718740195,-0.09703326403647661
1761478526336333000,5.2823330078125,-0.4249474138021469,-0.4255305474523455,-0.022923341078311205
1761478526346369000,5.292369140625,-0.529521886998415,-0.4152569176539778,0.05225552628561854
1761478526356405000,5.302405029296875,-0.6972837609916925,-0.49787704093456264,0.11055983121618627
1761478526366441000,5.31244091796875,-0.8298580017477274,-0.5633919348310679,0.043689357992261646
1761478526376476200,5.32247607421875,-0.8813356755286454,-0.6628573213852942,-0.06205883515849709
1761478526386512100,5.33251220703125,-0.8450093936502933,-0.6302090704325586,-0.10989610661044716
1761478526396548000,5.342548095703125,-0.5913450137048959,-0.4128257449842989,0.026277035420387982
1761478526406584000,5.352583984375,-0.1602607045829296,-0.04847732292115688,0.47004561567902564
1761478526416620000,5.3626201171875,0.11687456732094287,0.1658043832499534,1.0649242103375494
1761478526426656000,5.372656005859375,0.09798223532438277,0.33443142270520326,1.3706202446848152
1761478526436691000,5.38269091796875,-0.2239215681105852,0.49458340621665114,1.3856031481526792
1761478526446727000,5.392726806640625,-0.6501011540561914,0.5716898075770587,1.2073498368918896
1761478526456763100,5.40276318359375,-1.1478028384238481,0.533490498368442,0.8489118079163134
1761478526466799000,5.412799072265625,-1.5775082604080437,0.5546228643767536,0.21280381563827394
1761478526476835000,5.4228349609375,-1.587709336426854,0.4960439072232693,-0.3368113035790622
1761478526486871000,5.43287109375,-1.2595517332941293,0.2796853217128664,-0.43311523042768235
1761478526496906000,5.442906005859375,-0.7954185565292835,0.12227872791942208,-0.3199531077586114
1761478526506942000,5.45294189453125,-0.4650497070878744,0.012508330047875642,-0.17010668355375527
1761478526516978000,5.46297802734375,-0.3107879506587982,-0.12249606046453118,-0.09202128109335898
1761478526527014100,5.47301416015625,-0.287764802467823,-0.2611241578994319,-0.08927622016891837
1761478526537050000,5.483050048828125,-0.38371407065987584,-0.2622449786229059,-0.16194997284412382
1761478526547086000,5.493086181640625,-0.6368406904667615,-0.05478895375337452,-0.26193536468446255
1761478526557121000,5.50312109375,-0.8660381531536578,0.1424661046952009,-0.27244784474000333
1761478526567157000,5.513156982421875,-0.907801073127985,0.25603205892480907,-0.13752338759601115
1761478526577193000,5.52319287109375,-0.6976566859573126,0.3419993737414479,0.10539762614741921
1761478526587229000,5.53322900390625,-0.36781039908528324,0.40124980041570957,0.38958267043232914
1761478526597265000,5.543264892578125,-0.0731114134401083,0.379568787548691,0.5893582238018512
1761478526607301000,5.553301025390625,0.23211948761343953,0.34104587240889667,0.6447559936359525
1761478526617336000,5.563336181640625,0.4949602767050266,0.24387319990172981,0.5851603337205946
1761478526627372000,5.5733720703125,0.7046838081151247,0.09934789765439928,0.45252793303653593
1761478526637408000,5.583407958984375,0.7195072832375764,0.007662789712846279,0.25450945246741175
1761478526647444000,5.59344384765625,0.5761760861456394,0.0009855039060115813,0.05762392145097255
1761478526657480000,5.60347998046875,0.36942835567593574,0.03989201153591275,-0.04260843088775873
1761478526667516000,5.613515869140625,0.114315530487895,0.056680430055782195,-0.050679363010078665
1761478526677551900,5.6235517578125,-0.10227964025735854,0.14333200080953537,-0.08005465670675038
1761478526687587000,5.633587158203125,-0.3253688491970301,0.28534079019129277,-0.18240443959087133
1761478526697623000,5.643623046875,-0.5238450104057788,0.42649975781068206,-0.253153069422394
1761478526707659000,5.653658935546875,-0.5833107603311538,0.5301582852058112,-0.24432123593017457
1761478526717695000,5.663695068359375,-0.5599024122148751,0.5765437504142522,-0.12407251600101589
1761478526727731000,5.67373095703125,-0.4166325899213552,0.6217009890019893,-0.05674903831258416
1761478526737767000,5.683766845703125,-0.15170155055224896,0.660384136204794,-0.004415039963275194
1761478526747802000,5.693802001953125,0.11176643052697181,0.5631691589258611,0.10914163498133421
1761478526757838000,5.703838134765625,0.2855868739068508,0.4550434229888022,0.13151157996058463
1761478526767874000,5.7138740234375,0.4136328235834837,0.38150245902501045,0.0308576412089169
1761478526777910000,5.723909912109375,0.38950902067422866,0.38274054945260283,-0.16302403181642294
1761478526787946000,5.733946044921875,0.25847441057562826,0.49745925391390916,-0.30274054554253815
1761478526797982000,5.74398193359375,0.0947305400520563,0.5914332034450024,-0.33628903327062726
1761478526808017000,5.754016845703125,-0.01393207924067974,0.7222894613020122,-0.3351544762827456
1761478526818053000,5.76405322265625,-0.08351765664219855,0.877777617720887,-0.26209084750711914
1761478526828089000,5.774089111328125,-0.1032008467555046,0.9494004731036723,-0.16321940825805067
1761478526838125000,5.784125,-0.12141864049136637,0.9830152310010045,-0.093594375628978
1761478526848161000,5.7941611328125,-0.134741063401103,1.0255084380112587,-0.034573885253071784
1761478526858197000,5.804197021484375,-0.1582517028480768,0.9853376095339655,0.004175532118976116
1761478526868232000,5.81423193359375,-0.16729659456908702,0.9264946676820516,-0.11321560642197727
1761478526878268000,5.824267822265625,-0.16095979276299477,0.9372782928291707,-0.290359933527559
1761478526888303900,5.834303955078125,-0.10892916127443313,0.9398639984734356,-0.3657347618550062
1761478526898340000,5.844340087890625,-0.008163432711362838,0.9417851027291267,-0.383113182157278
1761478526908376000,5.8543759765625,0.07072422604262829,0.9473866490632296,-0.3266132963001728
1761478526918412000,5.864412109375,0.19376725286543367,0.9500936429996043,-0.20515373927652836
1761478526928447000,5.874447021484375,0.1657762531340122,0.9539517066672444,-0.09218523948341607
1761478526938483000,5.88448291015625,0.16164309885203837,0.9710361855242401,-0.07709639142304658
1761478526948519000,5.894518798828125,0.22970599673092365,0.9097947311632335,-0.13494944545477627
1761478526958555000,5.904554931640625,0.20090894131362438,0.865472920486331,-0.276295021687448
1761478526968590800,5.9145908203125,0.18289163858592508,0.8424016223046928,-0.4318254828780889
1761478526978627000,5.924626953125,0.2217553299874067,0.7644116430427879,-0.5129626741245389
1761478526988663000,5.9346630859375,0.22814590780735014,0.7014839891605079,-0.5017945066392422
1761478526998698000,5.944697998046875,0.3362713514834642,0.5527572166353464,-0.41364743663072584
1761478527008734000,5.95473388671875,0.2615051565736532,0.3606898995555937,-0.5102002236738801
1761478527018770000,5.96477001953125,0.11909925763309001,0.10333660196438431,-0.9023413464173674
1761478527028806000,5.974805908203125,-0.12281097163259982,-0.05294307015836239,-1.466019477778673
1761478527038841900,5.984841796875,-0.45914837408959863,-0.06976356431692839,-1.8232386324837804
1761478527048878000,5.994878173828125,-0.8437982642948627,-0.06651362261027097,-1.7757815925210714
1761478527058913000,6.0049130859375,-1.0433750802218913,0.017804536759853364,-1.3403493173226713
1761478527068949500,6.014949462890625,-1.1031021114319561,0.08956760433092713,-0.6844283710718154
1761478527078985500,6.0249853515625,-1.1111971550822257,0.17742679730877278,-0.15944894980862737
1761478527089021400,6.035021484375,-1.128036061680317,0.19890045103542506,0.040542438268661496
1761478527099057400,6.045057373046875,-0.9187935917854309,0.17522928726449608,-0.01655965126529336
1761478527109093400,6.05509326171875,-0.5421995822638273,0.11618519681729375,-0.18967326155006883
1761478527119128600,6.065128662109375,-0.0625496874153614,0.007164119475707411,-0.2735261414960027
1761478527129164500,6.07516455078125,0.39574411567151546,-0.09375117362588643,-0.1080465332210064
1761478527139200500,6.085200439453125,0.6502677427947521,-0.12426117044091224,0.19040128356367347
1761478527149236500,6.095236572265625,0.649807139545679,-0.0657415422592312,0.43878450823575255
1761478527159272400,6.1052724609375,0.461036964315176,0.02822524687871337,0.48656712689101694
1761478527169308400,6.115308349609375,0.32140812887251374,0.1079440957598388,0.43484424617737527
1761478527179343400,6.12534326171875,0.22758476679325101,0.12616349693089723,0.37902299023419617
1761478527189379300,6.13537939453125,0.2528179922491312,0.07595788891240954,0.3755155666351318
1761478527199415600,6.14541552734375,0.3166366766870022,-0.0693201313983649,0.3728355337709188
1761478527209451500,6.155451416015625,0.4390945970982313,-0.16181027211248875,0.21379764898121356
1761478527219487500,6.165487548828125,0.5532610745042562,-0.23814583523087202,-0.026898236058652398
1761478527229523500,6.1755234375,0.6754501148462295,-0.3048976505111903,-0.25881781718581914
1761478527239559400,6.185559326171875,0.6880325330436229,-0.30363099157623946,-0.39421588319092987
1761478527249594400,6.195594482421875,0.5686924523919821,-0.24475034806244073,-0.3620318156838417
1761478527259630300,6.20563037109375,0.2694669292330742,-0.16316336722187696,-0.2268587906062603
1761478527269666600,6.21566650390625,-0.056312838852405546,-0.07856186086572706,-0.05543751732259988
1761478527279702500,6.22570263671875,-0.3458148403763771,0.02157631038352847,0.03863222073316574
1761478527289738500,6.235738525390625,-0.5496791243642568,0.0444930755905807,0.01168430031388998
1761478527299774500,6.2457744140625,-0.5859598135352134,-0.040058454144001006,-0.07147212180048226
1761478527309809400,6.255809326171875,-0.4722814119070768,-0.18465104947388172,-0.13314999481737613
1761478527319845400,6.265845458984375,-0.34049686022400855,-0.3800371357128024,-0.16230492376163602
1761478527329881300,6.27588134765625,-0.22990882582664487,-0.5422013358294964,-0.2589909817956388
1761478527339917300,6.285917236328125,-0.10644552776515483,-0.6688222211390733,-0.32340646308287974
1761478527349953500,6.29595361328125,-0.054282794329524035,-0.7428883780207485,-0.3667331252425909
1761478527359989500,6.305989501953125,-0.062606386038661,-0.7425619956105947,-0.3753635909438133
1761478527370024400,6.3160244140625,-0.10632336269021034,-0.7985046859763563,-0.2645215817853808
1761478527380060400,6.326060302734375,-0.11926467732787131,-0.78148172804825,-0.11388327655047177
1761478527390096400,6.336096435546875,-0.03634089492559433,-0.7249055620845407,0.017495032419264315
1761478527400132400,6.34613232421875,0.011535539492964745,-0.6860530496641993,0.14421850132048128
1761478527410168300,6.356168212890625,0.042889293655753134,-0.6114912912853062,0.28382454040944577
1761478527420204300,6.366204345703125,0.03856500071585178,-0.5601660315871239,0.3781754334941506
1761478527430239500,6.376239501953125,0.027163316735625265,-0.5206100470725447,0.471005400621891
1761478527440275500,6.386275390625,-0.0032739071041345594,-0.4517012729540467,0.5551803521290422
1761478527450311400,6.3963115234375,0.004382160606980323,-0.43280163443386555,0.5875663719490171
1761478527460347400,6.406347412109375,0.051478842824697495,-0.4877792791597545,0.49909021611660714
1761478527470383400,6.41638330078125,0.17166121951937674,-0.5425332711976021,0.33277386475652454
1761478527480419300,6.42641943359375,0.24337913277447223,-0.6486786469724029,0.08710866687148809
1761478527490454500,6.43645458984375,0.28259879800677296,-0.7744197537727654,-0.10051701449900866
1761478527500490500,6.446490478515625,0.27431787639558314,-0.843168661154434,-0.2752951969951391
1761478527510526500,6.4565263671875,0.18102818280160426,-0.8084700535431504,-0.4017360495626926
1761478527520562400,6.4665625,0.054100423499941826,-0.7243130760841071,-0.37734453562796116
1761478527530598400,6.476598388671875,-0.02521685884296894,-0.6283643193487077,-0.19711480972766876
1761478527540634600,6.486634521484375,-0.09533727377355099,-0.5681107069812714,0.040458851638436315
1761478527550670600,6.496670654296875,-0.19011632914245127,-0.4959587862230837,0.1706198937729001
1761478527560705500,6.50670556640625,-0.24411679939925668,-0.45189884135276076,0.18005466159433126
1761478527570741500,6.516741455078125,-0.28252923990190026,-0.4584097576167434,0.09578238719254732
1761478527580777500,6.526777587890625,-0.20368015959262847,-0.5000049198087304,0.021428864736855027
1761478527590813400,6.5368134765625,-0.12301906142532824,-0.6042878627125173,0.031059739652276038
1761478527600849700,6.546849609375,-0.09649930329024792,-0.6844461259242147,-0.0013315408647060394
1761478527610885600,6.5568857421875,-0.11254326011836528,-0.7429287100311368,-0.09299655586630105
1761478527620920300,6.56692041015625,-0.1227291385680437,-0.8434547115541994,-0.2569935243681073
1761478527630956300,6.576956298828125,-0.12138064656853675,-0.9276710910502821,-0.47421237996965643
1761478527640992500,6.586992431640625,-0.1791045212626457,-0.9728529526226222,-0.6431184555619954
1761478527651028500,6.597028564453125,-0.1598340036034584,-0.9645914663642644,-0.5716898806422949
1761478527661064700,6.607064697265625,-0.10050503180027008,-0.9069539547793567,-0.28929595755785703
1761478527671100700,6.6171005859375,-0.019746902999281883,-0.8055200446311384,-0.01832271541506052
1761478527681135400,6.62713525390625,0.09103343909978866,-0.6934724590752274,0.14098112683445213
1761478527691171300,6.63717138671875,0.18988252038657663,-0.4367669578682631,0.29009412219822406
1761478527701207300,6.647207275390625,0.26711948932409285,-0.016749036357551813,0.5802914125099777
1761478527711243500,6.657243408203125,0.32704233536720273,0.24713614722043276,0.9584943185329436
1761478527721279700,6.66727978515625,0.26333295652270317,0.32242358952537176,1.05602238034904
1761478527731315700,6.677315673828125,-0.11217793393731117,0.3868219004821032,0.6735036569535732
1761478527741350400,6.687350341796875,-1.0287211164474486,0.40715456748008727,-0.2059242852576077
1761478527751386400,6.697386474609375,-1.7517407917201517,-0.006582374064996838,-0.928154855979234
1761478527761422300,6.70742236328125,-1.637665499728918,-0.10223835839889943,-0.9024057899557053
1761478527771458600,6.71745849609375,-1.8615198478221893,0.39298962933160364,-0.8544115743763744
1761478527781494500,6.72749462890625,-2.2475082931548354,0.4754049142224714,-0.43482305725887416
1761478527791530500,6.737530517578125,-2.4792969413787125,0.48122368350382894,0.00912409443706274
1761478527801566700,6.747566650390625,-2.368009818801284,0.5044089269213378,0.21867869902104137
1761478527811601400,6.757601318359375,-1.9602812508255243,0.2304226205676794,0.29895971182957287
1761478527821637600,6.7676376953125,-1.3729291061490774,-0.009592296470701695,0.004234568829834461
1761478527831673600,6.777673583984375,-0.7151771450787783,-0.23942761866971848,-0.6244537948414683
1761478527841709600,6.78770947265625,0.20917992605268954,-0.4393626734498888,-1.020375459036976
1761478527851745500,6.79774560546875,0.8302326802790164,-0.3785316995859146,-1.2024895373791455
1761478527861781500,6.807781494140625,1.0941676943480967,-0.20258301200568674,-1.0981978266470134
1761478527871816400,6.81781640625,1.100982050538063,0.044823914980143306,-0.8366130289658904
1761478527881852700,6.827852783203125,1.0312257927447557,0.27772162042446435,-0.44883243951946494
1761478527891888600,6.837888671875,1.092570780545473,0.47991263743788,-0.07340323599353432
1761478527901924600,6.847924560546875,1.144248360812664,0.6078382486704736,0.16883929396644234
1761478527911960600,6.857960693359375,1.1650602626949549,0.6950540291782468,0.23918781856447457
1761478527921996500,6.86799658203125,1.1884516596764325,0.7142546234063804,0.1617161640882492
1761478527932031700,6.87803173828125,0.9442425058186054,0.588296585919708,-0.013152911561727524
1761478527942067700,6.888067626953125,0.5878004729658365,0.3565138559799641,-0.33338892791494723
1761478527952103700,6.898103759765625,0.31961423119306565,0.15713409699499606,-0.5911386774778365
1761478527962139600,6.9081396484375,0.14255261393487453,0.023162118270248173,-0.7506172917723656
1761478527972175600,6.918175537109375,0.07816460517644881,-0.002963087589293718,-0.7792220394879579
1761478527982211600,6.928211669921875,0.10034311923682689,-0.06345233534350991,-0.6908239173278212
1761478527992246500,6.93824658203125,0.07755377980172634,-0.16793467327691614,-0.6546037261724472
1761478528002282500,6.948282470703125,-0.042755438143014905,-0.17943711421787736,-0.6894514599308371
1761478528012318700,6.958318603515625,-0.2286182014942169,-0.05295322622619569,-0.6634142246156931
1761478528022354700,6.968354736328125,-0.4279045100420713,0.2079031841151416,-0.5269564204245806
1761478528032390700,6.978390625,-0.5336462734520435,0.41018202554248273,-0.2791172395013273
1761478528042426600,6.988426513671875,-0.48480128626227376,0.5212155386850238,0.015773907715082167
1761478528052461600,6.998461669921875,-0.2727420053809881,0.6288957228116691,0.23896014728844164
1761478528062497500,7.00849755859375,-0.0929401495039463,0.737320514760539,0.33382322767898437
1761478528072533200,7.018533203125,-0.04946282682716846,0.6767668234679848,0.3269301071643829
1761478528082569200,7.0285693359375,-0.07798106530308722,0.5229755340948701,0.2376495030812919
1761478528092605200,7.038605224609375,-0.14780220502614974,0.3727051853895187,-0.004965513452887535
1761478528102641200,7.04864111328125,-0.25383856746852396,0.22138094371706246,-0.3143988346323371
1761478528112677000,7.058677001953125,-0.38055882149934767,0.19189641749225556,-0.4913980541788041
1761478528122712000,7.068712158203125,-0.6123240888476371,0.3033146191034466,-0.4377260852240026
1761478528132748000,7.078748046875,-0.8300807045876979,0.5024429606106132,-0.2496519294336438
1761478528142784000,7.088783935546875,-0.8841840506970882,0.697846436375752,-0.08944368569031358
1761478528152820200,7.0988203125,-0.7160860766172409,0.9237642198048531,0.0982449779137969
1761478528162856200,7.108856201171875,-0.43591245993077754,1.0946464908409863,0.378281962608546
1761478528172892200,7.11889208984375,-0.16251169838011265,1.2239878140904008,0.586593873655051
1761478528182927000,7.128927001953125,0.039050153884291644,1.327358026063442,0.8203646356068551
1761478528192963000,7.138963134765625,0.20874445724487303,1.3797333793364464,1.0168659896112977
1761478528202999000,7.1489990234375,0.24792671307623385,1.4115581120118499,0.9636889645665884
1761478528213035000,7.159034912109375,0.1543611251503229,1.4322816049583256,0.7700538136482238
1761478528223071000,7.169071044921875,0.10000234297513962,1.3747002074748278,0.46094417146518823
1761478528233107200,7.179107177734375,0.1079892500758171,1.2354063030749558,0.20923311754465101
1761478528243142100,7.18914208984375,0.12205226221978664,1.0441504485085606,0.14754647669941187
1761478528253178000,7.19917822265625,0.136540806299448,0.9479780390851199,0.05307283401787281
1761478528263214000,7.209214111328125,0.1998795982658863,0.8529273271679878,-0.11219225472360848
1761478528273250000,7.21925,0.2643675602674484,0.728581401053071,-0.3507444057330489
1761478528283286000,7.2292861328125,0.18785890560448168,0.679455258834362,-0.5685930836707354
1761478528293322000,7.239322021484375,-0.04590191947519779,0.6531067656129598,-0.5945151681736112
1761478528303358000,7.24935791015625,-0.431993240660429,0.5689765300303697,-0.4206774813979864
1761478528313393200,7.25939306640625,-0.7407721895843744,0.6184830498687922,-0.320314780677855
1761478528323429000,7.26942919921875,-0.8273889812856912,0.6950405851747841,-0.3853542390823364
1761478528333465000,7.279465087890625,-0.8469184421420097,0.6465730529952793,-0.4774336801037192
1761478528343501000,7.2895009765625,-0.8242968604892492,0.5808250079300254,-0.5336442276254296
1761478528353537000,7.299537109375,-0.7711684968918562,0.5736507323864847,-0.470609971563518
1761478528363573000,7.309572998046875,-0.6984656642526388,0.5689208543203771,-0.19684300704896449
1761478528373608200,7.319608154296875,-0.5831488477677107,0.5763065075922758,0.09932488210499286
1761478528383644200,7.32964404296875,-0.35836101821660993,0.5064022926956415,0.2371452068209648
1761478528393680100,7.33968017578125,-0.14013970757424832,0.39524339960776267,0.2273287462055683
1761478528403716000,7.349716064453125,0.13220365387797356,0.19970285345949232,0.15000994420349598
1761478528413752000,7.359751953125,0.40098435441255564,-0.05041654735542833,0.053663201126456256
1761478528423788000,7.3697880859375,0.45299511215686794,-0.12502346005029977,-0.04811813421994447
1761478528433823200,7.3798232421875,0.49663084026575083,-0.12805793237537144,-0.09194353968203067
1761478528443859200,7.389859130859375,0.38092707028985023,-0.030782822407037017,-0.003390519221127033
1761478528453895200,7.399895263671875,0.21170330705046653,0.09778481305614113,0.21909283277988434
1761478528463931100,7.40993115234375,0.06643851154744625,0.16875307698771355,0.4342258220180869
1761478528473967000,7.419967041015625,0.005277648141980171,0.1731307075500488,0.4881602413013577
1761478528484003000,7.430003173828125,0.026049802535772323,0.05416859336532652,0.29973288815915583
1761478528494038000,7.4400380859375,0.05544073219299316,-0.054235448056459426,-0.009963467870652675
1761478528504074000,7.450073974609375,-0.011128127735853194,-0.13123385899774728,-0.32101474564075466
1761478528514110200,7.460110107421875,-0.13018997596800327,-0.18649821171052752,-0.47791474161893127
1761478528524146200,7.470146240234375,-0.21309563819169997,-0.13231909695118665,-0.49720337945669885
1761478528534182100,7.48018212890625,-0.33309681310057637,-0.05185724768303335,-0.4062196247175336
1761478528544218000,7.490218017578125,-0.40174364834725856,-0.013967735075950621,-0.22349399034827946
1761478528554254000,7.500254150390625,-0.30303952848911286,-0.007436798937246203,-0.13925737178176642
1761478528564289000,7.5102890625,-0.14357552724182604,-0.021233926686644554,-0.14333236613571643
1761478528574325000,7.520324951171875,-0.09025251785516739,-0.036421997337788344,-0.13722703499794006
1761478528584361000,7.53036083984375,-0.09808452665507793,-0.14360190379209817,-0.09600888942480086
1761478528594397200,7.540397216796875,-0.056904959526658055,-0.22150369331389663,0.029550504133105275
1761478528604433200,7.55043310546875,-0.09355798914134501,-0.21288805985562503,0.21973639138042925
1761478528614469000,7.56046923828125,-0.15703998897075652,-0.2361635753724724,0.32151831124871966
1761478528624504000,7.570504150390625,-0.20725392642617224,-0.2922240468990058,0.31510698290169237
1761478528634540000,7.5805400390625,-0.2639367676347494,-0.3401395712189376,0.33333091411739585
1761478528644576000,7.590575927734375,-0.3052712330639362,-0.27174926801659166,0.40050270837545393
1761478528654612000,7.600612060546875,-0.33137305804789063,-0.2556486125651747,0.5412614246308803
1761478528664648000,7.61064794921875,-0.38332653264701366,-0.2755016793526709,0.5977841068416834
1761478528674684200,7.62068408203125,-0.41413083623349667,-0.2931269870880991,0.4599658279523253
1761478528684719000,7.630718994140625,-0.36913492568731304,-0.36110191442258655,0.29076866045892236
1761478528694755000,7.640755126953125,-0.2848158895343542,-0.3075144819460809,0.22709756779819726
1761478528704791000,7.650791015625,-0.22702654838860034,-0.23077516033239662,0.17556261087208985
1761478528714827000,7.660826904296875,-0.12566460749804972,-0.14222783895991742,0.05593406866788864
1761478528724863000,7.670863037109375,-0.013495441389083861,-0.07872326197251676,-0.022985446529090403
1761478528734899000,7.68089892578125,0.1172913314282894,0.03076879388168454,-0.09507482344508171
1761478528744935000,7.690934814453125,0.1867348700106144,0.13480426483042537,-0.08932721970379352
1761478528754970000,7.70097021484375,0.3037567368477583,0.07961129685342311,0.02134001740962267
1761478528765006000,7.711006103515625,0.546778726747632,-0.05444828708954155,0.16340309426188468
1761478528775042000,7.7210419921875,0.76696519998312,-0.25688231907859443,0.11428162821829319
1761478528785078000,7.731078125,0.8268143962681292,-0.36394342145882547,-0.24273995808809995
1761478528795114000,7.741114013671875,0.5181494291126728,-0.4017367071498185,-0.6706459294348954
1761478528805150000,7.75114990234375,-0.018798223972320557,-0.4623723776374012,-0.9698363812804222
1761478528815185200,7.76118505859375,-0.5047580326199531,-0.19043518583327532,-1.2888070538729428
1761478528825221000,7.77122119140625,-0.5149164385408163,-0.5867805553335697,-0.8665867269471287
1761478528835257000,7.781257080078125,-0.008734510597586632,-0.5969327507093548,0.250259539937973
1761478528845293000,7.79129296875,-0.2767337053656578,-0.25545995812527833,0.6653425623297691
1761478528855329000,7.8013291015625,-0.17420915043652058,-0.6269977802358567,1.0038538016945122
1761478528865365000,7.811364990234375,0.01710194144845009,-0.7733283052742481,0.4396647982016206
1761478528875400200,7.821400146484375,0.16293313866257667,-0.8138377180561422,-0.12746230456978083
1761478528885436200,7.831436279296875,-0.17081600086688994,-0.8772923914872109,-0.22026976760476827
1761478528895472000,7.84147216796875,-0.6599567776381969,-0.8233186631068586,-0.08096914120316505
1761478528905508000,7.851508056640625,-0.9206056096434593,-0.868577900764346,0.1719268847182393
1761478528915544000,7.8615439453125,-1.0376403359621762,-0.9389231374267488,0.2890378911435604
1761478528925580000,7.871580078125,-0.9137252024799585,-0.8973767097473144,0.20803747801929712
1761478528935616000,7.881615966796875,-0.7553262001156806,-0.902003638895601,0.08748422218561172
1761478528945651000,7.89165087890625,-0.6292582725137472,-0.8616784966394305,0.0551844193443656
1761478528955687200,7.901687255859375,-0.40138358286321163,-0.5976897796217352,0.1465732477530837
1761478528965723100,7.91172314453125,-0.09301438378393649,-0.4256926061462611,0.5235933737322688
1761478528975759000,7.921759033203125,0.1610363651305437,-0.22993651755116878,1.0021972666591406
1761478528985795000,7.931795166015625,0.039457565641403194,-0.07401493815109134,1.1929241289153694
1761478528995831000,7.9418310546875,-0.37164135555028915,0.12350662574656307,1.0665426053196192
1761478529005866000,7.951865966796875,-0.8202057917833327,0.26103688147477805,0.8607567056193948
1761478529015902000,7.96190185546875,-1.2063035427093505,0.3312579072356224,0.6069450261577963
1761478529025938000,7.97193798828125,-1.4324147298187018,0.44920587594173844,0.36173195595443247
1761478529035974100,7.98197412109375,-1.531184900650382,0.4621706445202231,0.31646307368576526
1761478529046010000,7.992010009765625,-1.4678934549570082,0.3905240429356694,0.24043197340667247
1761478529056046000,8.002046142578125,-1.247739130425453,0.3035474780112505,0.08428396483957767
1761478529066080300,8.012080322265625,-0.6887982567191123,0.06750044169053435,-0.07540916898846625
1761478529076116200,8.0221162109375,-0.3354886766731739,-0.1883472005780786,-0.25242256319075823
1761478529086152200,8.032152099609375,-0.15098784932494164,-0.3349379839878529,-0.3311331118121743
1761478529096188400,8.0421884765625,-0.0672732088059187,-0.5175742595732212,-0.3637912265717983
1761478529106224400,8.052224365234375,-0.1530062034100294,-0.5421425183143467,-0.3661830901443958
1761478529116260400,8.06226025390625,-0.1457873580724001,-0.4192634498815983,-0.35641134545356035
1761478529126295300,8.07229541015625,-0.06446633469164371,-0.3589193096864968,-0.3163464615687728
1761478529136331300,8.082331298828125,0.08788286611437797,-0.26154877651967107,-0.39054859285503624
1761478529146367200,8.0923671875,0.08297346676290035,0.06720606185384094,-0.40865649647563695
1761478529156403200,8.1024033203125,0.026440263158082962,0.20625695127807556,0.08608633808642625
1761478529166439200,8.112439208984375,0.11098083310723304,0.07008607426956295,0.7262658175870775
1761478529176475400,8.122475341796875,0.2700269012033939,-0.06490048832520842,0.9405331299066543
1761478529186511400,8.132511474609375,0.39920390073657036,-0.21250607480071484,0.707055505682528
1761478529196546300,8.14254638671875,0.3963046721637249,-0.25047318268865343,0.3528866784587502
1761478529206582300,8.152582275390625,0.24749708948731422,-0.24867607013881204,0.22379443459957837
1761478529216618200,8.1626181640625,0.09744798231720923,-0.11812054879404604,0.2160980348780751
1761478529226654200,8.172654296875,-0.1956008980333805,0.24755481102392077,0.32806174154281614
1761478529236690200,8.182690185546875,-0.3624316286563873,0.6077611648462713,0.47641807332038877
1761478529246726400,8.192726318359375,-0.6105857207477092,0.7406351192012429,0.39069706141501664
1761478529256761300,8.20276123046875,-0.9621674540877342,0.8293153462383895,-0.04659428565353155
1761478529266797300,8.21279736328125,-1.252262160807848,1.0858461484655737,-0.32954408905506133
1761478529276833300,8.222833251953125,-1.2013801148325205,1.1591171363815664,0.04847732292115688
1761478529286869200,8.232869140625,-0.6815045925796032,1.0012344129763544,0.4438081816166639
1761478529296905200,8.2429052734375,-0.054154784035682677,0.9395729065723717,0.39168899506181476
1761478529306941200,8.252941162109375,0.2551362060636282,0.8619552677541971,-0.00684445906728506
1761478529316977400,8.262977294921875,0.2709229732602835,0.6768208917427808,-0.7538394686892628
1761478529327012400,8.273012451171875,0.039485038170218464,0.6138324475839734,-1.4717735112607477
1761478529337048300,8.28304833984375,0.1244715983211994,0.6826141612567007,-1.7312381019175052
1761478529347084300,8.293084228515625,1.1498849053949116,0.7733117925308645,-1.459195476977527
1761478529357120300,8.303120361328125,2.255899689403176,0.4296279728338122,-0.7874575145222246
1761478529367156500,8.313156494140625,3.1018741286933422,0.34064752074107524,-0.32974078067094087
1761478529377192400,8.3231923828125,3.032987639471888,0.10304295278005302,-0.23918080430179833
1761478529387227400,8.333227294921874,1.5321429320275783,-0.9909705008544027,-0.2913479216516018
1761478529397263400,8.343263427734374,0.09279109642207622,-0.00021349662020802497,-1.7248539538383483
1761478529407299300,8.35329931640625,-2.0628613353341816,0.6492291935272514,-2.1780827286206184
1761478529417335300,8.363335205078124,-2.651346867954731,0.5007395907588302,-1.876034549256414
1761478529427371500,8.37337158203125,-2.6924843495070934,0.8390617372922599,-1.2039008654817938
1761478529437407500,8.383407470703125,-2.1620126144379377,0.9719633833717555,-0.2877991431288421
1761478529447442200,8.393442138671874,-1.29532096581161,0.9854089942697435,0.4949444946140051
1761478529457478400,8.403478515625,-0.6385632764756679,0.8359378331180661,0.8249769517078995
