time,seconds_elapsed,z,y,x
1761478521128991200,0.0749912109375,-1.060821533203125,0.0057525634765625,-0.232940673828125
1761478521139027200,0.085027099609375,-1.03607177734375,0.0066070556640625,-0.19952392578125
1761478521149063200,0.095063232421875,-1.0096282958984375,0.000946044921875,-0.18499755859375
1761478521159098000,0.10509814453125,-0.9861907958984375,-0.009613037109375,-0.20172119140625
1761478521169134000,0.115134033203125,-0.9717864990234375,-0.02001953125,-0.2313079833984375
1761478521179170000,0.125170166015625,-0.957489013671875,-0.0285491943359375,-0.2472991943359375
1761478521189206000,0.1352060546875,-0.940582275390625,-0.0360565185546875,-0.2448272705078125
1761478521199242200,0.1452421875,-0.935394287109375,-0.0296478271484375,-0.241912841796875
1761478521209277200,0.155277099609375,-0.9414520263671875,-0.024261474609375,-0.2286529541015625
1761478521219313200,0.165313232421875,-0.943695068359375,-0.0251312255859375,-0.212127685546875
1761478521229349000,0.17534912109375,-0.9482574462890625,-0.0210418701171875,-0.2078857421875
1761478521239385000,0.185385009765625,-0.9704742431640625,-0.011077880859375,-0.231719970703125
1761478521249421000,0.195421142578125,-0.9859619140625,-0.012939453125,-0.2551422119140625
1761478521259457000,0.20545703125,-0.99591064453125,-0.0135650634765625,-0.26171875
1761478521269492200,0.2154921875,-0.9923095703125,-0.0081634521484375,-0.2599639892578125
1761478521279528200,0.225528076171875,-0.995849609375,-0.0077056884765625,-0.246673583984375
1761478521289564200,0.235564208984375,-0.9998931884765625,-0.016021728515625,-0.2205352783203125
1761478521299600100,0.24560009765625,-1.0027923583984375,-0.0241851806640625,-0.2067413330078125
1761478521309636000,0.255635986328125,-1.0114593505859375,-0.02496337890625,-0.2098541259765625
1761478521319671000,0.265671142578125,-1.0103607177734375,-0.023284912109375,-0.21929931640625
1761478521329707300,0.275707275390625,-1.005096435546875,-0.01593017578125,-0.226226806640625
1761478521339743200,0.2857431640625,-1.0037841796875,-0.016326904296875,-0.2193145751953125
1761478521349779200,0.295779296875,-1.01177978515625,-0.0206298828125,-0.2091827392578125
1761478521359815200,0.305815185546875,-1.019134521484375,-0.0264434814453125,-0.1970367431640625
1761478521369850000,0.31585009765625,-1.0155181884765625,-0.02886962890625,-0.1997528076171875
1761478521379886000,0.325885986328125,-1.0050811767578125,-0.024658203125,-0.2052459716796875
1761478521389922000,0.335922119140625,-1.0052947998046875,-0.0272674560546875,-0.2000274658203125
1761478521399958000,0.3459580078125,-1.0162353515625,-0.02130126953125,-0.1990966796875
1761478521409994200,0.355994140625,-1.0259552001953125,-0.0122833251953125,-0.2020111083984375
1761478521420029200,0.366029296875,-1.0331268310546875,-0.0014801025390625,-0.2091827392578125
1761478521430065200,0.376065185546875,-1.0225067138671875,0.0072784423828125,-0.2113494873046875
1761478521440101000,0.38610107421875,-1.012786865234375,-0.0001220703125,-0.2123565673828125
1761478521450137000,0.39613720703125,-0.999298095703125,-0.008819580078125,-0.2153778076171875
1761478521460173000,0.406173095703125,-0.9779815673828125,-0.01251220703125,-0.2366943359375
1761478521470208300,0.416208251953125,-0.961090087890625,-0.00628662109375,-0.268798828125
1761478521480244200,0.426244140625,-0.9560699462890625,-0.005035400390625,-0.285491943359375
1761478521490280200,0.4362802734375,-0.9638519287109375,-0.0031280517578125,-0.2885589599609375
1761478521500316200,0.446316162109375,-0.9752960205078125,-0.006072998046875,-0.2644195556640625
1761478521510352100,0.45635205078125,-0.9704742431640625,-0.0030059814453125,-0.255126953125
1761478521520387000,0.466386962890625,-0.9595947265625,-0.00274658203125,-0.258544921875
1761478521530423000,0.476423095703125,-0.9457244873046875,-0.01531982421875,-0.2588653564453125
1761478521540459300,0.486459228515625,-0.931304931640625,-0.030731201171875,-0.2586822509765625
1761478521550495200,0.4964951171875,-0.9223175048828125,-0.042236328125,-0.2487030029296875
1761478521560531200,0.50653125,-0.91900634765625,-0.05133056640625,-0.2337799072265625
1761478521570567200,0.516567138671875,-0.9263763427734375,-0.050262451171875,-0.2187347412109375
1761478521580602000,0.52660205078125,-0.948638916015625,-0.0406646728515625,-0.2073974609375
1761478521590638000,0.53663818359375,-0.983245849609375,-0.029815673828125,-0.2085418701171875
1761478521600674000,0.546674072265625,-1.0202484130859375,-0.015777587890625,-0.224456787109375
1761478521610710300,0.556710205078125,-1.0413970947265625,-0.0036773681640625,-0.2423248291015625
1761478521620746200,0.566746337890625,-1.0502777099609375,-0.0095062255859375,-0.2396087646484375
1761478521630781200,0.57678125,-1.04693603515625,-0.0191497802734375,-0.232391357421875
1761478521640817200,0.586817138671875,-1.018707275390625,-0.024749755859375,-0.227325439453125
1761478521650853000,0.59685302734375,-0.9931640625,-0.03125,-0.222900390625
1761478521660889000,0.60688916015625,-0.9673919677734375,-0.03759765625,-0.2119140625
1761478521670925000,0.616925048828125,-0.9543304443359375,-0.0432891845703125,-0.1882781982421875
1761478521680960300,0.626960205078125,-0.95849609375,-0.042388916015625,-0.1719818115234375
1761478521690996200,0.636996337890625,-0.9632415771484375,-0.0347747802734375,-0.1745452880859375
1761478521701032200,0.6470322265625,-0.9714813232421875,-0.0405120849609375,-0.1823272705078125
1761478521711068200,0.657068115234375,-0.990753173828125,-0.049560546875,-0.1998138427734375
1761478521721104100,0.667104248046875,-1.0163116455078125,-0.05377197265625,-0.226226806640625
1761478521731139000,0.67713916015625,-1.0352325439453125,-0.0603179931640625,-0.2466583251953125
1761478521741175300,0.68717529296875,-1.051300048828125,-0.054473876953125,-0.256103515625
1761478521751211300,0.697211181640625,-1.0482330322265625,-0.04351806640625,-0.2600250244140625
1761478521761247200,0.707247314453125,-1.0371856689453125,-0.03125,-0.25732421875
1761478521771283200,0.717283203125,-1.023651123046875,-0.0206146240234375,-0.2539825439453125
1761478521781319200,0.727319091796875,-1.0157318115234375,-0.0150146484375,-0.2519989013671875
1761478521791354000,0.73735400390625,-1.0148468017578125,-0.01513671875,-0.253265380859375
1761478521801390000,0.74739013671875,-1.01617431640625,-0.0160369873046875,-0.2536468505859375
1761478521811426000,0.757426025390625,-1.014617919921875,-0.017730712890625,-0.25048828125
1761478521821462300,0.767462158203125,-1.005706787109375,-0.020294189453125,-0.2565765380859375
1761478521831498200,0.777498291015625,-0.9889984130859375,-0.022247314453125,-0.27410888671875
1761478521841533200,0.787533203125,-0.9694061279296875,-0.0264434814453125,-0.2892303466796875
1761478521851569200,0.797569091796875,-0.94775390625,-0.0261993408203125,-0.290771484375
1761478521861605000,0.807605224609375,-0.923980712890625,-0.0350189208984375,-0.270751953125
1761478521871641000,0.81764111328125,-0.919830322265625,-0.0501708984375,-0.245758056640625
1761478521881677000,0.827677001953125,-0.9270172119140625,-0.063018798828125,-0.2388458251953125
1761478521891712300,0.837712158203125,-0.9429779052734375,-0.07623291015625,-0.254302978515625
1761478521901748200,0.847748291015625,-0.96307373046875,-0.086517333984375,-0.286590576171875
1761478521911784200,0.8577841796875,-0.977264404296875,-0.0935516357421875,-0.3133544921875
1761478521921820200,0.867820068359375,-0.985321044921875,-0.0919952392578125,-0.3245849609375
1761478521931856100,0.877856201171875,-0.99078369140625,-0.0834503173828125,-0.33245849609375
1761478521941892000,0.88789208984375,-0.9913177490234375,-0.069183349609375,-0.3314056396484375
1761478521951927300,0.89792724609375,-0.9904937744140625,-0.06048583984375,-0.3107757568359375
1761478521961963300,0.90796337890625,-1.00146484375,-0.0593719482421875,-0.2822265625
1761478521971999200,0.917999267578125,-1.006561279296875,-0.0571136474609375,-0.2580718994140625
1761478521982035200,0.92803515625,-1.0020751953125,-0.0594482421875,-0.2354888916015625
1761478521992071200,0.9380712890625,-0.98663330078125,-0.06597900390625,-0.2245025634765625
1761478522002107100,0.948107177734375,-0.9795989990234375,-0.0816802978515625,-0.235076904296875
1761478522012142000,0.95814208984375,-0.9725341796875,-0.084259033203125,-0.2708587646484375
1761478522022178000,0.968177978515625,-0.958282470703125,-0.071624755859375,-0.30908203125
1761478522032214300,0.97821435546875,-0.9437103271484375,-0.071807861328125,-0.3245086669921875
1761478522042250200,0.988250244140625,-0.939178466796875,-0.07855224609375,-0.319366455078125
1761478522052286200,0.9982861328125,-0.93780517578125,-0.0753021240234375,-0.3156890869140625
1761478522062321400,1.0083212890625,-0.9311981201171875,-0.0655670166015625,-0.3164215087890625
1761478522072357400,1.018357421875,-0.928253173828125,-0.0625,-0.3123626708984375
1761478522082393300,1.028393310546875,-0.932464599609375,-0.0678558349609375,-0.309967041015625
1761478522092429300,1.03842919921875,-0.9466400146484375,-0.0641021728515625,-0.3099212646484375
1761478522102465300,1.04846533203125,-0.9504547119140625,-0.0610809326171875,-0.3018341064453125
1761478522112501500,1.05850146484375,-0.9478912353515625,-0.06146240234375,-0.2924346923828125
1761478522122536400,1.068536376953125,-0.940399169921875,-0.0623779296875,-0.292266845703125
1761478522132572400,1.078572509765625,-0.9358062744140625,-0.0673675537109375,-0.2957763671875
1761478522142608400,1.0886083984375,-0.933319091796875,-0.0713348388671875,-0.2929534912109375
1761478522152644400,1.098644287109375,-0.9326934814453125,-0.0712432861328125,-0.2838134765625
1761478522162680300,1.108680419921875,-0.9390106201171875,-0.0698089599609375,-0.2734527587890625
1761478522172716300,1.11871630859375,-0.953521728515625,-0.070556640625,-0.2701873779296875
1761478522182751500,1.12875146484375,-0.9662933349609375,-0.0695648193359375,-0.27001953125
1761478522192787500,1.138787353515625,-0.9724884033203125,-0.0660858154296875,-0.2736663818359375
1761478522202823400,1.148823486328125,-0.9719696044921875,-0.063262939453125,-0.2707977294921875
1761478522212859400,1.158859375,-0.9701385498046875,-0.069061279296875,-0.2625274658203125
1761478522222895400,1.168895263671875,-0.9764556884765625,-0.074798583984375,-0.2598114013671875
1761478522232931300,1.178931396484375,-0.9771881103515625,-0.0770416259765625,-0.2599639892578125
1761478522242966500,1.188966552734375,-0.9779205322265625,-0.0831146240234375,-0.26263427734375
1761478522253002500,1.19900244140625,-0.9855194091796875,-0.086090087890625,-0.268890380859375
1761478522263038500,1.20903857421875,-0.989501953125,-0.0862274169921875,-0.2709503173828125
1761478522273074400,1.219074462890625,-0.9886932373046875,-0.08551025390625,-0.2737884521484375
1761478522283110400,1.2291103515625,-0.9845123291015625,-0.0799407958984375,-0.2708282470703125
1761478522293146400,1.239146484375,-0.9803619384765625,-0.081207275390625,-0.2647552490234375
1761478522303181300,1.249181396484375,-0.9743194580078125,-0.085723876953125,-0.259246826171875
1761478522313217300,1.25921728515625,-0.964141845703125,-0.0919647216796875,-0.25830078125
1761478522323253500,1.26925341796875,-0.95562744140625,-0.09771728515625,-0.270538330078125
1761478522333289500,1.27928955078125,-0.948028564453125,-0.1048431396484375,-0.2860107421875
1761478522343325400,1.289325439453125,-0.9412689208984375,-0.11468505859375,-0.296417236328125
1761478522353360400,1.2993603515625,-0.9402008056640625,-0.1201171875,-0.2997894287109375
1761478522363396400,1.309396240234375,-0.94317626953125,-0.1216583251953125,-0.297119140625
1761478522373432300,1.319432373046875,-0.9470062255859375,-0.1138763427734375,-0.2903289794921875
1761478522383468300,1.32946826171875,-0.9510498046875,-0.1097259521484375,-0.2768402099609375
1761478522393504300,1.339504150390625,-0.959320068359375,-0.1093292236328125,-0.2649688720703125
1761478522403540500,1.34954052734375,-0.9658966064453125,-0.10919189453125,-0.259307861328125
1761478522413575400,1.359575439453125,-0.967529296875,-0.1167755126953125,-0.25628662109375
1761478522423611400,1.369611328125,-0.9672698974609375,-0.1195831298828125,-0.26043701171875
1761478522433647400,1.3796474609375,-0.962371826171875,-0.1187591552734375,-0.26617431640625
1761478522443683300,1.389683349609375,-0.959564208984375,-0.1164703369140625,-0.271759033203125
1761478522453719300,1.39971923828125,-0.953399658203125,-0.1121826171875,-0.27294921875
1761478522463755300,1.40975537109375,-0.9540863037109375,-0.1084442138671875,-0.25408935546875
1761478522473790500,1.41979052734375,-0.9563446044921875,-0.103240966796875,-0.225677490234375
1761478522483826400,1.429826416015625,-0.9580535888671875,-0.091827392578125,-0.2099456787109375
1761478522493862400,1.4398623046875,-0.961517333984375,-0.0864105224609375,-0.2090301513671875
1761478522503898400,1.4498984375,-0.963134765625,-0.0919036865234375,-0.2277069091796875
1761478522513934300,1.459934326171875,-0.9660491943359375,-0.100677490234375,-0.2530517578125
1761478522523970300,1.46997021484375,-0.9649810791015625,-0.1139373779296875,-0.2718963623046875
1761478522534005500,1.480005615234375,-0.9656829833984375,-0.11712646484375,-0.2868804931640625
1761478522544041500,1.49004150390625,-0.9735260009765625,-0.11688232421875,-0.2942657470703125
1761478522554077400,1.500077392578125,-0.9827880859375,-0.1179351806640625,-0.2913970947265625
1761478522564113400,1.510113525390625,-0.9904937744140625,-0.1173248291015625,-0.2873992919921875
1761478522574149400,1.5201494140625,-0.9828948974609375,-0.111419677734375,-0.2827301025390625
1761478522584185300,1.530185302734375,-0.971405029296875,-0.1096038818359375,-0.2712554931640625
1761478522594220300,1.54022021484375,-0.9613037109375,-0.1129913330078125,-0.2636566162109375
1761478522604256500,1.550256591796875,-0.955108642578125,-0.114990234375,-0.264251708984375
1761478522614292500,1.56029248046875,-0.960540771484375,-0.1150360107421875,-0.26739501953125
1761478522624328400,1.570328369140625,-0.963714599609375,-0.1214599609375,-0.2660980224609375
1761478522634364400,1.580364501953125,-0.97027587890625,-0.1289520263671875,-0.266021728515625
1761478522644400400,1.590400390625,-0.9755706787109375,-0.1358642578125,-0.2816619873046875
1761478522654436400,1.600436279296875,-0.980377197265625,-0.1432342529296875,-0.3067779541015625
1761478522664471300,1.61047119140625,-0.982574462890625,-0.149627685546875,-0.3263702392578125
1761478522674507300,1.62050732421875,-0.979156494140625,-0.1515655517578125,-0.333251953125
1761478522684543500,1.63054345703125,-0.9677734375,-0.149993896484375,-0.3303985595703125
1761478522694579500,1.640579345703125,-0.963226318359375,-0.1457672119140625,-0.313446044921875
1761478522704615400,1.650615478515625,-0.9583282470703125,-0.148223876953125,-0.2892913818359375
1761478522714651400,1.6606513671875,-0.9479217529296875,-0.1447601318359375,-0.280670166015625
1761478522724686300,1.670686279296875,-0.934906005859375,-0.1379241943359375,-0.2838287353515625
1761478522734722300,1.680722412109375,-0.93133544921875,-0.12841796875,-0.2819976806640625
1761478522744758300,1.69075830078125,-0.9430389404296875,-0.105224609375,-0.268798828125
1761478522754794200,1.700794189453125,-0.9538421630859375,-0.075653076171875,-0.240631103515625
1761478522764830500,1.71083056640625,-0.9871368408203125,-0.04815673828125,-0.20648193359375
1761478522774866400,1.720866455078125,-1.0445709228515625,-0.03070068359375,-0.2037506103515625
1761478522784901400,1.7309013671875,-1.1077880859375,-0.017120361328125,-0.22894287109375
1761478522794937300,1.740937255859375,-1.160491943359375,-0.0089111328125,-0.2598419189453125
1761478522804973300,1.750973388671875,-1.1855010986328125,-0.00531005859375,-0.27691650390625
1761478522815009300,1.76100927734375,-1.1887969970703125,-0.00933837890625,-0.287811279296875
1761478522825045200,1.771045166015625,-1.168304443359375,-0.0214996337890625,-0.289215087890625
1761478522835081200,1.781081298828125,-1.1291961669921875,-0.0403900146484375,-0.278717041015625
1761478522845116400,1.791116455078125,-1.0795440673828125,-0.0548553466796875,-0.26470947265625
1761478522855152400,1.80115234375,-1.0271453857421875,-0.0677032470703125,-0.2510986328125
1761478522865188400,1.811188232421875,-0.9792327880859375,-0.0687255859375,-0.24615478515625
1761478522875224300,1.821224365234375,-0.9456024169921875,-0.0622711181640625,-0.243011474609375
1761478522885260300,1.83126025390625,-0.9267120361328125,-0.0545806884765625,-0.2401580810546875
1761478522895296300,1.841296142578125,-0.9193572998046875,-0.0446624755859375,-0.240875244140625
1761478522905331500,1.85133154296875,-0.9104766845703125,-0.0339813232421875,-0.244537353515625
1761478522915367400,1.861367431640625,-0.906036376953125,-0.0267486572265625,-0.2526092529296875
1761478522925403400,1.8714033203125,-0.9045867919921875,-0.0176544189453125,-0.260284423828125
1761478522935439400,1.881439453125,-0.89495849609375,-0.0120391845703125,-0.2594757080078125
1761478522945475300,1.891475341796875,-0.88702392578125,-0.0097198486328125,-0.25299072265625
1761478522955511300,1.90151123046875,-0.8870697021484375,-0.01153564453125,-0.243255615234375
1761478522965547300,1.91154736328125,-0.899322509765625,-0.0094146728515625,-0.2384185791015625
1761478522975582500,1.92158251953125,-0.912872314453125,-0.006195068359375,-0.245880126953125
1761478522985618400,1.931618408203125,-0.9331207275390625,0.00006103515625,-0.249114990234375
1761478522995654400,1.941654296875,-0.94744873046875,-0.00701904296875,-0.2514801025390625
1761478523005690400,1.9516904296875,-0.959320068359375,-0.0184783935546875,-0.273223876953125
1761478523015726300,1.961726318359375,-0.962982177734375,-0.02374267578125,-0.2974090576171875
1761478523025762300,1.97176220703125,-0.9590911865234375,-0.028961181640625,-0.3031768798828125
1761478523035797200,1.98179736328125,-0.962371826171875,-0.0322418212890625,-0.2898406982421875
1761478523045833500,1.99183349609375,-0.9710540771484375,-0.0304107666015625,-0.2750091552734375
1761478523055869400,2.001869384765625,-0.9819183349609375,-0.0160369873046875,-0.2645111083984375
1761478523065905000,2.01190478515625,-0.9987335205078125,-0.0004425048828125,-0.255767822265625
1761478523075940900,2.02194091796875,-1.013641357421875,0.0095672607421875,-0.23687744140625
1761478523085976800,2.031976806640625,-1.0229644775390625,0.016204833984375,-0.2126007080078125
1761478523096011800,2.04201171875,-1.018890380859375,0.0225067138671875,-0.1913909912109375
1761478523106047700,2.0520478515625,-1.011077880859375,0.0243072509765625,-0.1799468994140625
1761478523116084000,2.062083984375,-1.0017547607421875,0.0189361572265625,-0.18487548828125
1761478523126120000,2.072119873046875,-0.98858642578125,0.00872802734375,-0.198944091796875
1761478523136156000,2.082156005859375,-0.974700927734375,-0.0006256103515625,-0.2107696533203125
1761478523146192000,2.09219189453125,-0.95635986328125,-0.0033721923828125,-0.22296142578125
1761478523156226800,2.102226806640625,-0.95330810546875,0.00146484375,-0.2254638671875
1761478523166262800,2.1122626953125,-0.955322265625,0.0022735595703125,-0.2131805419921875
1761478523176298800,2.122298828125,-0.9619903564453125,0.0088653564453125,-0.1974639892578125
1761478523186335000,2.1323349609375,-0.9660491943359375,0.0174713134765625,-0.181854248046875
1761478523196371000,2.142370849609375,-0.9637603759765625,0.022979736328125,-0.173492431640625
1761478523206407000,2.152406982421875,-0.9660797119140625,0.0230712890625,-0.177215576171875
1761478523216441900,2.16244189453125,-0.974884033203125,0.0180206298828125,-0.195281982421875
1761478523226477800,2.172477783203125,-0.98614501953125,0.0132904052734375,-0.2193450927734375
1761478523236513800,2.182513671875,-0.9958343505859375,0.00982666015625,-0.2437896728515625
1761478523246549800,2.1925498046875,-1.000579833984375,0.0159759521484375,-0.2646942138671875
1761478523256585700,2.202585693359375,-1.002349853515625,0.0208587646484375,-0.2662353515625
1761478523266622000,2.2126220703125,-1.0037994384765625,0.0163726806640625,-0.25006103515625
1761478523276658000,2.222657958984375,-1.0121002197265625,0.01593017578125,-0.232391357421875
1761478523286692900,2.23269287109375,-1.0177154541015625,0.003387451171875,-0.2205810546875
1761478523296728800,2.242728759765625,-1.0185089111328125,-0.012786865234375,-0.2242279052734375
1761478523306764800,2.252764892578125,-1.019500732421875,-0.028533935546875,-0.24761962890625
1761478523316800800,2.26280078125,-1.01373291015625,-0.036346435546875,-0.2726593017578125
1761478523326836700,2.272836669921875,-1.0085601806640625,-0.0394744873046875,-0.2772674560546875
1761478523336872700,2.282872802734375,-0.9986572265625,-0.036407470703125,-0.250213623046875
1761478523346908000,2.292907958984375,-0.98284912109375,-0.0306549072265625,-0.20233154296875
1761478523356944000,2.30294384765625,-0.9761199951171875,-0.0226898193359375,-0.1662139892578125
1761478523366979800,2.312979736328125,-0.9828338623046875,-0.014862060546875,-0.155426025390625
1761478523377015800,2.323015869140625,-0.990447998046875,-0.011016845703125,-0.159088134765625
1761478523387051800,2.3330517578125,-0.9956512451171875,-0.0174713134765625,-0.1654815673828125
1761478523397087700,2.343087646484375,-1.00531005859375,-0.02593994140625,-0.173095703125
1761478523407123000,2.353123046875,-1.0153961181640625,-0.0328521728515625,-0.181793212890625
1761478523417159000,2.363158935546875,-1.0189056396484375,-0.04180908203125,-0.186614990234375
1761478523427195000,2.37319482421875,-1.023101806640625,-0.044219970703125,-0.1947479248046875
1761478523437230800,2.38323095703125,-1.0148773193359375,-0.04534912109375,-0.195953369140625
1761478523447266800,2.393266845703125,-0.9997711181640625,-0.04473876953125,-0.187347412109375
1761478523457302800,2.403302734375,-0.98699951171875,-0.0409698486328125,-0.1825103759765625
1761478523467338800,2.4133388671875,-0.9794921875,-0.036407470703125,-0.1797332763671875
1761478523477374000,2.4233740234375,-0.9798583984375,-0.0350799560546875,-0.1759796142578125
1761478523487410000,2.433409912109375,-0.9843902587890625,-0.03594970703125,-0.170989990234375
1761478523497446000,2.44344580078125,-0.99786376953125,-0.032989501953125,-0.1701202392578125
1761478523507481900,2.45348193359375,-1.0060577392578125,-0.028472900390625,-0.17657470703125
1761478523517517800,2.463517822265625,-1.0082244873046875,-0.02764892578125,-0.18414306640625
1761478523527553800,2.4735537109375,-1.002685546875,-0.0263214111328125,-0.1861419677734375
1761478523537588700,2.483588623046875,-0.9863739013671875,-0.0274200439453125,-0.182220458984375
1761478523547624700,2.493624755859375,-0.9694976806640625,-0.031158447265625,-0.1784515380859375
1761478523557661000,2.503660888671875,-0.96209716796875,-0.035064697265625,-0.18353271484375
1761478523567697000,2.51369677734375,-0.9632568359375,-0.0364837646484375,-0.19317626953125
1761478523577732900,2.52373291015625,-0.9676361083984375,-0.0405426025390625,-0.1959228515625
1761478523587768800,2.533768798828125,-0.982666015625,-0.0460662841796875,-0.1965789794921875
1761478523597803800,2.5438037109375,-0.997039794921875,-0.0482025146484375,-0.202667236328125
1761478523607839700,2.55383984375,-1.013824462890625,-0.049407958984375,-0.2116241455078125
1761478523617875700,2.563875732421875,-1.0241851806640625,-0.05078125,-0.2215728759765625
1761478523627911700,2.57391162109375,-1.0217742919921875,-0.05548095703125,-0.22503662109375
1761478523637948000,2.583947998046875,-1.006683349609375,-0.0596160888671875,-0.224273681640625
1761478523647983900,2.59398388671875,-0.98919677734375,-0.0576171875,-0.2244415283203125
1761478523658019800,2.604019775390625,-0.9829864501953125,-0.051910400390625,-0.2203521728515625
1761478523668054800,2.6140546875,-0.985626220703125,-0.0479736328125,-0.21240234375
1761478523678090800,2.6240908203125,-0.9923553466796875,-0.04205322265625,-0.204498291015625
1761478523688126700,2.634126708984375,-1.0039825439453125,-0.03509521484375,-0.194976806640625
1761478523698162700,2.64416259765625,-1.015289306640625,-0.03167724609375,-0.18505859375
1761478523708199000,2.654198974609375,-1.016448974609375,-0.035247802734375,-0.1838226318359375
1761478523718235000,2.66423486328125,-1.0149993896484375,-0.0374298095703125,-0.2020721435546875
1761478523728269800,2.674269775390625,-1.0187530517578125,-0.04266357421875,-0.232574462890625
1761478523738305800,2.684305908203125,-1.01849365234375,-0.04486083984375,-0.2548980712890625
1761478523748341800,2.694341796875,-1.0091705322265625,-0.0416717529296875,-0.253936767578125
1761478523758377700,2.704377685546875,-0.992034912109375,-0.0452423095703125,-0.224365234375
1761478523768413700,2.71441357421875,-0.971405029296875,-0.0499725341796875,-0.1904296875
1761478523778449700,2.72444970703125,-0.958282470703125,-0.0493621826171875,-0.1816558837890625
1761478523788486000,2.73448583984375,-0.960968017578125,-0.0511016845703125,-0.1934051513671875
1761478523798520800,2.744520751953125,-0.972747802734375,-0.0521240234375,-0.2128448486328125
1761478523808556800,2.754556884765625,-0.9870452880859375,-0.056640625,-0.223602294921875
1761478523818592800,2.7645927734375,-0.9913482666015625,-0.067718505859375,-0.22454833984375
1761478523828628700,2.774628662109375,-0.9940032958984375,-0.078369140625,-0.2232666015625
1761478523838664700,2.784664794921875,-0.992584228515625,-0.08514404296875,-0.2237091064453125
1761478523848701000,2.794700927734375,-0.9888763427734375,-0.08221435546875,-0.221099853515625
1761478523858735900,2.80473583984375,-0.9840850830078125,-0.0743255615234375,-0.215179443359375
1761478523868771800,2.814771728515625,-0.9844512939453125,-0.06964111328125,-0.2081298828125
1761478523878807800,2.824807861328125,-0.9949493408203125,-0.072662353515625,-0.2041778564453125
1761478523888843800,2.83484375,-1.0060272216796875,-0.0738525390625,-0.20562744140625
1761478523898880000,2.8448798828125,-1.013427734375,-0.07598876953125,-0.2069091796875
1761478523908916000,2.854916015625,-1.0200347900390625,-0.0821380615234375,-0.202850341796875
1761478523918951000,2.864950927734375,-1.01727294921875,-0.0836029052734375,-0.201446533203125
1761478523928987000,2.87498681640625,-1.005035400390625,-0.0923309326171875,-0.19403076171875
1761478523939022800,2.88502294921875,-0.9947967529296875,-0.1055145263671875,-0.1882171630859375
1761478523949058800,2.895058837890625,-0.9940032958984375,-0.106536865234375,-0.1957550048828125
1761478523959095000,2.905094970703125,-1.0051422119140625,-0.098968505859375,-0.205535888671875
1761478523969131000,2.915131103515625,-1.016998291015625,-0.08673095703125,-0.2074127197265625
1761478523979165700,2.925165771484375,-1.019012451171875,-0.06988525390625,-0.203887939453125
1761478523989201700,2.93520166015625,-1.023101806640625,-0.043609619140625,-0.199737548828125
1761478523999238000,2.94523779296875,-1.0161285400390625,-0.0123748779296875,-0.187255859375
1761478524009274000,2.955274169921875,-1.022247314453125,-0.0068206787109375,-0.151885986328125
1761478524019310000,2.96531005859375,-1.0394134521484375,-0.018402099609375,-0.123687744140625
1761478524029346000,2.975345947265625,-1.05792236328125,-0.0186767578125,-0.129058837890625
1761478524039382000,2.985382080078125,-1.0990447998046875,-0.0077362060546875,-0.16796875
1761478524049416700,2.995416748046875,-1.120635986328125,-0.0049285888671875,-0.2188262939453125
1761478524059453400,3.005453369140625,-1.136993408203125,-0.010528564453125,-0.253021240234375
1761478524069489400,3.015489501953125,-1.1255950927734375,-0.014495849609375,-0.269622802734375
1761478524079525600,3.025525634765625,-1.089080810546875,-0.0190582275390625,-0.2875518798828125
1761478524089561600,3.0355615234375,-1.0343170166015625,-0.031036376953125,-0.2900848388671875
1761478524099597600,3.04559765625,-0.98712158203125,-0.0384521484375,-0.2838134765625
1761478524109632500,3.055632568359375,-0.9517669677734375,-0.035186767578125,-0.2800750732421875
1761478524119668500,3.06566845703125,-0.9264373779296875,-0.03558349609375,-0.279754638671875
1761478524129704700,3.07570458984375,-0.9138946533203125,-0.034515380859375,-0.278594970703125
1761478524139740700,3.08574072265625,-0.9200439453125,-0.029449462890625,-0.2736358642578125
1761478524149776600,3.095776611328125,-0.9322357177734375,-0.028717041015625,-0.2638092041015625
1761478524159812600,3.1058125,-0.948883056640625,-0.027374267578125,-0.2548065185546875
1761478524169847600,3.11584765625,-0.964324951171875,-0.0264892578125,-0.2529449462890625
1761478524179883500,3.125883544921875,-0.968963623046875,-0.0287322998046875,-0.2516937255859375
1761478524189919700,3.135919677734375,-0.9707794189453125,-0.032623291015625,-0.251434326171875
1761478524199955700,3.145955810546875,-0.9612579345703125,-0.027862548828125,-0.2545013427734375
1761478524209991700,3.15599169921875,-0.9570770263671875,-0.02203369140625,-0.248748779296875
1761478524220027600,3.166027587890625,-0.954681396484375,-0.0184173583984375,-0.2385101318359375
1761478524230063600,3.176063720703125,-0.959259033203125,-0.016204833984375,-0.2299041748046875
1761478524240098800,3.186098876953125,-0.974609375,-0.0152130126953125,-0.2311248779296875
1761478524250134800,3.196134765625,-0.9910125732421875,-0.01019287109375,-0.2530975341796875
1761478524260170800,3.206170654296875,-1.00634765625,-0.007720947265625,-0.2818756103515625
1761478524270206700,3.216206787109375,-1.013214111328125,-0.006744384765625,-0.3042449951171875
1761478524280242700,3.22624267578125,-1.00372314453125,-0.0011444091796875,-0.307098388671875
1761478524290278700,3.236278564453125,-0.993255615234375,-0.0044708251953125,-0.278228759765625
1761478524300313600,3.246313720703125,-0.980987548828125,-0.004241943359375,-0.2464447021484375
1761478524310349800,3.256349853515625,-0.96514892578125,0.005767822265625,-0.2257843017578125
1761478524320385800,3.2663857421875,-0.9519805908203125,0.010955810546875,-0.2147979736328125
1761478524330421800,3.276421875,-0.9437408447265625,0.0077972412109375,-0.216644287109375
1761478524340457700,3.286457763671875,-0.9406890869140625,0.0040130615234375,-0.2393951416015625
1761478524350493700,3.29649365234375,-0.939849853515625,-0.0030364990234375,-0.2671356201171875
1761478524360528600,3.306528564453125,-0.9410247802734375,-0.0156402587890625,-0.283477783203125
1761478524370564600,3.316564697265625,-0.945465087890625,-0.02142333984375,-0.288421630859375
1761478524380600600,3.3266005859375,-0.9532470703125,-0.0188140869140625,-0.2880401611328125
1761478524390636800,3.33663671875,-0.960784912109375,-0.01507568359375,-0.287017822265625
1761478524400672800,3.3466728515625,-0.9567718505859375,-0.0126190185546875,-0.2843780517578125
1761478524410708700,3.356708740234375,-0.96014404296875,-0.0139007568359375,-0.27935791015625
1761478524420744700,3.36674462890625,-0.966583251953125,-0.017242431640625,-0.270538330078125
1761478524430779600,3.376779541015625,-0.971649169921875,-0.0223388671875,-0.269439697265625
1761478524440815600,3.386815673828125,-0.9777984619140625,-0.0283355712890625,-0.2942047119140625
1761478524450851600,3.3968515625,-0.98004150390625,-0.033721923828125,-0.3307647705078125
1761478524460887600,3.406887451171875,-0.982330322265625,-0.0399169921875,-0.3587646484375
1761478524470923800,3.416923828125,-0.9792327880859375,-0.042144775390625,-0.363250732421875
1761478524480959700,3.426959716796875,-0.986175537109375,-0.0430450439453125,-0.3446044921875
1761478524490994700,3.43699462890625,-0.99737548828125,-0.0387725830078125,-0.321746826171875
1761478524501030700,3.44703076171875,-1.00689697265625,-0.024017333984375,-0.303497314453125
1761478524511066600,3.457066650390625,-1.0133056640625,-0.0087127685546875,-0.292694091796875
1761478524521102600,3.4671025390625,-1.0064544677734375,-0.003143310546875,-0.2893524169921875
1761478524531138600,3.477138671875,-0.992889404296875,-0.00347900390625,-0.285247802734375
1761478524541174500,3.487174560546875,-0.9818572998046875,0.000091552734375,-0.272796630859375
1761478524551209700,3.497209716796875,-0.9730987548828125,-0.0033111572265625,-0.2657623291015625
1761478524561245700,3.50724560546875,-0.9696807861328125,-0.003143310546875,-0.2749176025390625
1761478524571281700,3.51728173828125,-0.9759368896484375,-0.00372314453125,-0.2917327880859375
1761478524581317600,3.527317626953125,-0.9740753173828125,-0.01031494140625,-0.3061676025390625
1761478524591353600,3.537353515625,-0.9708251953125,-0.0122833251953125,-0.31146240234375
1761478524601389600,3.5473896484375,-0.9781951904296875,-0.006317138671875,-0.3070068359375
1761478524611425500,3.557425537109375,-0.980926513671875,-0.0000762939453125,-0.2951507568359375
1761478524621460700,3.567460693359375,-0.9803619384765625,0.00347900390625,-0.2783966064453125
1761478524631496700,3.57749658203125,-0.9674530029296875,0.0036773681640625,-0.2682037353515625
1761478524641532700,3.58753271484375,-0.940277099609375,-0.002410888671875,-0.2605743408203125
1761478524651568600,3.597568603515625,-0.91156005859375,-0.0230865478515625,-0.2540130615234375
1761478524661604600,3.6076044921875,-0.8852081298828125,-0.04461669921875,-0.267425537109375
1761478524671640600,3.617640625,-0.8675689697265625,-0.062164306640625,-0.300537109375
1761478524681675800,3.62767578125,-0.852081298828125,-0.0712890625,-0.332550048828125
1761478524691711700,3.637711669921875,-0.8621368408203125,-0.0654449462890625,-0.367706298828125
1761478524701747700,3.647747802734375,-0.919464111328125,-0.047637939453125,-0.3987274169921875
1761478524711783700,3.65778369140625,-0.965301513671875,-0.0418243408203125,-0.359588623046875
1761478524721819600,3.667819580078125,-1.005523681640625,-0.0431365966796875,-0.2894134521484375
1761478524731855600,3.677855712890625,-1.0126953125,-0.0308990478515625,-0.260406494140625
1761478524741890600,3.687890625,-1.021942138671875,-0.032257080078125,-0.2602386474609375
1761478524751926800,3.6979267578125,-1.03753662109375,-0.04119873046875,-0.27642822265625
1761478524761962800,3.707962646484375,-1.024658203125,-0.048614501953125,-0.294586181640625
1761478524771998700,3.717998779296875,-1.006072998046875,-0.0715484619140625,-0.2916259765625
1761478524782034700,3.72803466796875,-0.9765777587890625,-0.0950775146484375,-0.28631591796875
1761478524792070700,3.738070556640625,-0.9485931396484375,-0.1091156005859375,-0.2796783447265625
1761478524802106600,3.748106689453125,-0.9365997314453125,-0.115325927734375,-0.2634429931640625
1761478524812141600,3.7581416015625,-0.9405670166015625,-0.110076904296875,-0.24774169921875
1761478524822177500,3.768177490234375,-0.9534912109375,-0.0985870361328125,-0.2318572998046875
1761478524832213800,3.7782138671875,-0.960113525390625,-0.087158203125,-0.221771240234375
1761478524842249700,3.788249755859375,-0.962738037109375,-0.0778350830078125,-0.22100830078125
1761478524852285700,3.79828564453125,-0.962799072265625,-0.078460693359375,-0.2237701416015625
1761478524862321700,3.80832177734375,-0.9696807861328125,-0.0836334228515625,-0.2326812744140625
1761478524872356600,3.818356689453125,-0.9775543212890625,-0.084625244140625,-0.2435302734375
1761478524882392600,3.828392578125,-0.97613525390625,-0.0933074951171875,-0.24420166015625
1761478524892428500,3.838428466796875,-0.970794677734375,-0.0970001220703125,-0.244110107421875
1761478524902464500,3.848464599609375,-0.9603424072265625,-0.0962982177734375,-0.244598388671875
1761478524912500700,3.858500732421875,-0.94342041015625,-0.09991455078125,-0.243896484375
1761478524922536700,3.86853662109375,-0.93768310546875,-0.0979766845703125,-0.2462158203125
1761478524932571600,3.878571533203125,-0.9434051513671875,-0.093475341796875,-0.2545013427734375
1761478524942607600,3.888607666015625,-0.954071044921875,-0.098724365234375,-0.2589263916015625
1761478524952643600,3.8986435546875,-0.96624755859375,-0.101348876953125,-0.265838623046875
1761478524962679600,3.908679443359375,-0.9835357666015625,-0.09942626953125,-0.279083251953125
1761478524972715500,3.918715576171875,-0.9949188232421875,-0.100738525390625,-0.2832489013671875
1761478524982751500,3.92875146484375,-0.9943084716796875,-0.10589599609375,-0.27166748046875
1761478524992786700,3.93878662109375,-0.9782867431640625,-0.1102752685546875,-0.25872802734375
1761478525002822700,3.94882275390625,-0.956573486328125,-0.120635986328125,-0.246063232421875
1761478525012858600,3.958858642578125,-0.9400634765625,-0.1313323974609375,-0.241943359375
1761478525022894600,3.96889453125,-0.934539794921875,-0.13787841796875,-0.2407379150390625
1761478525032930600,3.9789306640625,-0.936614990234375,-0.142852783203125,-0.2333221435546875
1761478525042966500,3.988966552734375,-0.9550628662109375,-0.14483642578125,-0.23480224609375
1761478525053002500,3.99900244140625,-0.97772216796875,-0.144439697265625,-0.2469024658203125
1761478525063037700,4.00903759765625,-0.9988250732421875,-0.1409454345703125,-0.254730224609375
1761478525073073700,4.01907373046875,-1.0024871826171875,-0.131683349609375,-0.2469940185546875
1761478525083109600,4.029109619140625,-0.993408203125,-0.128814697265625,-0.2232666015625
1761478525093145600,4.0391455078125,-0.9799346923828125,-0.1334381103515625,-0.2028350830078125
1761478525103181800,4.049181884765625,-0.971282958984375,-0.1400146484375,-0.193115234375
1761478525113217800,4.0592177734375,-0.96929931640625,-0.14019775390625,-0.2064971923828125
1761478525123252700,4.069252685546875,-0.9644012451171875,-0.132659912109375,-0.2353057861328125
1761478525133288700,4.079288818359375,-0.95843505859375,-0.13702392578125,-0.2566680908203125
1761478525143324700,4.08932470703125,-0.944488525390625,-0.1494140625,-0.274322509765625
1761478525153360600,4.099360595703125,-0.9317626953125,-0.157745361328125,-0.28338623046875
1761478525163396900,4.10939697265625,-0.937957763671875,-0.160858154296875,-0.2874298095703125
1761478525173432800,4.119432861328125,-0.959259033203125,-0.1498870849609375,-0.2901153564453125
1761478525183467500,4.129467529296875,-0.9847412109375,-0.1136322021484375,-0.2807159423828125
1761478525193503700,4.139503662109375,-1.0040740966796875,-0.06182861328125,-0.248748779296875
1761478525203539700,4.149539794921875,-1.0266876220703125,-0.0302276611328125,-0.1997222900390625
1761478525213576000,4.159575927734375,-1.0500640869140625,-0.014404296875,-0.1761474609375
1761478525223612000,4.16961181640625,-1.0845489501953125,-0.00689697265625,-0.1890869140625
1761478525233647900,4.17964794921875,-1.1332550048828125,-0.010589599609375,-0.240478515625
1761478525243682600,4.1896826171875,-1.178131103515625,-0.0126953125,-0.298095703125
1761478525253718500,4.199718505859375,-1.2025604248046875,-0.01983642578125,-0.331329345703125
1761478525263754500,4.20975439453125,-1.185791015625,-0.0257568359375,-0.34234619140625
1761478525273790700,4.219790771484375,-1.1497955322265625,-0.0349578857421875,-0.3261566162109375
1761478525283827000,4.229826904296875,-1.1088409423828125,-0.0452423095703125,-0.289825439453125
1761478525293863000,4.23986279296875,-1.060516357421875,-0.0515899658203125,-0.260772705078125
1761478525303899000,4.24989892578125,-1.01580810546875,-0.059844970703125,-0.237396240234375
1761478525313933600,4.25993359375,-0.98114013671875,-0.0576629638671875,-0.23236083984375
1761478525323969800,4.2699697265625,-0.946929931640625,-0.05889892578125,-0.2389068603515625
1761478525334005800,4.280005859375,-0.9228057861328125,-0.0659637451171875,-0.2462615966796875
1761478525344041700,4.290041748046875,-0.9043731689453125,-0.065093994140625,-0.2511138916015625
1761478525354077700,4.30007763671875,-0.8888397216796875,-0.0627288818359375,-0.2546844482421875
1761478525364114000,4.310114013671875,-0.8869476318359375,-0.0484161376953125,-0.258697509765625
1761478525374148600,4.320148681640625,-0.8788299560546875,-0.0332489013671875,-0.2548370361328125
1761478525384184800,4.330184814453125,-0.87640380859375,-0.0250244140625,-0.2416229248046875
1761478525394220800,4.340220703125,-0.879669189453125,-0.0248260498046875,-0.223388671875
1761478525404256800,4.3502568359375,-0.88702392578125,-0.0232391357421875,-0.208282470703125
1761478525414292700,4.360292724609375,-0.9010467529296875,-0.02288818359375,-0.2108917236328125
1761478525424328700,4.37032861328125,-0.91741943359375,-0.0243682861328125,-0.23040771484375
1761478525434363600,4.38036376953125,-0.9308624267578125,-0.028594970703125,-0.245880126953125
1761478525444399900,4.39039990234375,-0.940704345703125,-0.0316925048828125,-0.2405853271484375
1761478525454435800,4.400435791015625,-0.9623565673828125,-0.033966064453125,-0.2336578369140625
1761478525464471800,4.410471923828125,-0.98223876953125,-0.0394287109375,-0.2386016845703125
1761478525474507800,4.4205078125,-0.9998321533203125,-0.0471954345703125,-0.254669189453125
1761478525484543700,4.430543701171875,-1.013336181640625,-0.048980712890625,-0.278717041015625
1761478525494579000,4.440578857421875,-1.0250396728515625,-0.0357818603515625,-0.288177490234375
1761478525504615000,4.450614990234375,-1.0342559814453125,-0.0208740234375,-0.26556396484375
1761478525514651000,4.46065087890625,-1.03594970703125,-0.0058441162109375,-0.2283477783203125
1761478525524686800,4.470686767578125,-1.031005859375,0.011932373046875,-0.1910552978515625
1761478525534722800,4.480722900390625,-1.0218658447265625,0.020538330078125,-0.164642333984375
1761478525544758800,4.4907587890625,-1.0193023681640625,0.019287109375,-0.1597900390625
1761478525554793700,4.500793701171875,-1.004364013671875,0.013885498046875,-0.170166015625
1761478525564830000,4.510829833984375,-0.9866943359375,0.0131988525390625,-0.1793060302734375
1761478525574866000,4.520865966796875,-0.9716033935546875,0.016265869140625,-0.1784210205078125
1761478525584902000,4.53090185546875,-0.9694366455078125,0.0137786865234375,-0.1597900390625
1761478525594937900,4.540937744140625,-0.9749603271484375,0.010040283203125,-0.13836669921875
1761478525604973800,4.550973876953125,-0.98388671875,0.0087890625,-0.13531494140625
1761478525615009800,4.561009765625,-0.999298095703125,0.0049896240234375,-0.1551513671875
1761478525625044700,4.571044677734375,-1.0080413818359375,0.001708984375,-0.1954498291015625
1761478525635080700,4.581080810546875,-1.0081787109375,-0.00604248046875,-0.237640380859375
1761478525645117000,4.591116943359375,-1.0025634765625,-0.013092041015625,-0.2609710693359375
1761478525655153000,4.60115283203125,-0.996673583984375,-0.015960693359375,-0.261566162109375
1761478525665188900,4.61118896484375,-0.9887847900390625,-0.019927978515625,-0.249420166015625
1761478525675224800,4.621224853515625,-0.9901275634765625,-0.0201416015625,-0.242340087890625
1761478525685259800,4.631259765625,-1.0050506591796875,-0.0074005126953125,-0.2441558837890625
1761478525695295700,4.641295654296875,-1.033294677734375,0.0102691650390625,-0.242950439453125
1761478525705331700,4.651331787109375,-1.05328369140625,0.0267333984375,-0.2256317138671875
1761478525715367700,4.66136767578125,-1.0551605224609375,0.0326385498046875,-0.2013702392578125
1761478525725404000,4.67140380859375,-1.035308837890625,0.0347747802734375,-0.181549072265625
1761478525735440000,4.68143994140625,-1.00775146484375,0.0305938720703125,-0.1620025634765625
1761478525745474800,4.691474853515625,-0.9732513427734375,0.0155792236328125,-0.1448211669921875
1761478525755510800,4.7015107421875,-0.92919921875,-0.00457763671875,-0.133331298828125
1761478525765546800,4.711546630859375,-0.893463134765625,-0.02227783203125,-0.13348388671875
1761478525775582700,4.721582763671875,-0.87713623046875,-0.0399627685546875,-0.1480712890625
1761478525785618700,4.73161865234375,-0.8866119384765625,-0.0528717041015625,-0.1707916259765625
1761478525795654700,4.741654541015625,-0.9153594970703125,-0.06390380859375,-0.1930694580078125
1761478525805689900,4.75168994140625,-0.951019287109375,-0.073272705078125,-0.207672119140625
1761478525815725800,4.761725830078125,-0.977783203125,-0.0771484375,-0.2176513671875
1761478525825761800,4.77176171875,-0.99920654296875,-0.074005126953125,-0.23089599609375
1761478525835797800,4.7817978515625,-1.0018310546875,-0.0652618408203125,-0.2400665283203125
1761478525845833700,4.791833740234375,-0.9909515380859375,-0.0537872314453125,-0.234954833984375
1761478525855869700,4.80186962890625,-0.977813720703125,-0.0449066162109375,-0.21917724609375
1761478525865905000,4.81190478515625,-0.9703216552734375,-0.042327880859375,-0.1965484619140625
1761478525875940900,4.82194091796875,-0.970123291015625,-0.0412750244140625,-0.17047119140625
1761478525885976800,4.831976806640625,-0.987579345703125,-0.0453033447265625,-0.1573486328125
1761478525896012800,4.8420126953125,-1.00994873046875,-0.0583343505859375,-0.1657867431640625
1761478525906048800,4.852048828125,-1.0264434814453125,-0.0702667236328125,-0.1929931640625
1761478525916084700,4.862084716796875,-1.0397491455078125,-0.0799102783203125,-0.22991943359375
1761478525926120700,4.87212060546875,-1.0410614013671875,-0.0863494873046875,-0.2548370361328125
1761478525936156000,4.882156005859375,-1.0380706787109375,-0.08935546875,-0.2467803955078125
1761478525946192000,4.89219189453125,-1.03509521484375,-0.082427978515625,-0.211669921875
1761478525956227800,4.902227783203125,-1.0189208984375,-0.0718536376953125,-0.170257568359375
1761478525966263800,4.912263916015625,-1.0012359619140625,-0.0625,-0.1412811279296875
1761478525976299800,4.9222998046875,-0.9844512939453125,-0.0513153076171875,-0.1343536376953125
1761478525986335700,4.932335693359375,-0.9730682373046875,-0.0483856201171875,-0.1406707763671875
1761478525996370700,4.94237060546875,-0.978302001953125,-0.063018798828125,-0.1539306640625
1761478526006407000,4.952406982421875,-0.9838104248046875,-0.067962646484375,-0.17572021484375
1761478526016443000,4.96244287109375,-0.9886322021484375,-0.069305419921875,-0.195098876953125
1761478526026478800,4.972478759765625,-0.998809814453125,-0.077178955078125,-0.2139739990234375
1761478526036514800,4.982514892578125,-0.9998016357421875,-0.0858612060546875,-0.2319793701171875
1761478526046550800,4.99255078125,-1.00152587890625,-0.0950469970703125,-0.243560791015625
1761478526056585700,5.002585693359375,-1.001678466796875,-0.1034088134765625,-0.252410888671875
1761478526066621200,5.01262109375,-0.994873046875,-0.1017608642578125,-0.250274658203125
1761478526076657200,5.0226572265625,-0.9889984130859375,-0.0921478271484375,-0.2369232177734375
1761478526086693000,5.032693115234375,-0.9817047119140625,-0.0821380615234375,-0.2150726318359375
1761478526096729000,5.04272900390625,-0.97314453125,-0.07440185546875,-0.1995849609375
1761478526106765000,5.05276513671875,-0.971527099609375,-0.0665283203125,-0.1916656494140625
1761478526116800000,5.062800048828125,-0.974395751953125,-0.0674591064453125,-0.186553955078125
1761478526126836000,5.0728359375,-0.9758453369140625,-0.076416015625,-0.187957763671875
1761478526136872000,5.082871826171875,-0.97216796875,-0.0858917236328125,-0.1923065185546875
1761478526146908200,5.092908203125,-0.962677001953125,-0.0932769775390625,-0.196807861328125
1761478526156944100,5.102944091796875,-0.961578369140625,-0.0919952392578125,-0.2129669189453125
1761478526166980000,5.11297998046875,-0.9711761474609375,-0.0832672119140625,-0.228729248046875
1761478526177016000,5.12301611328125,-0.9848785400390625,-0.083160400390625,-0.231109619140625
1761478526187051000,5.133051025390625,-1.001556396484375,-0.0847320556640625,-0.2192535400390625
1761478526197087000,5.1430869140625,-1.0124053955078125,-0.0849609375,-0.2026519775390625
1761478526207123000,5.153123046875,-1.01849365234375,-0.0836029052734375,-0.1885833740234375
1761478526217159000,5.163158935546875,-1.0247955322265625,-0.086669921875,-0.1867828369140625
1761478526227195100,5.173195068359375,-1.01361083984375,-0.0867462158203125,-0.197601318359375
1761478526237231000,5.183231201171875,-0.99127197265625,-0.085662841796875,-0.2171783447265625
1761478526247266000,5.19326611328125,-0.9696197509765625,-0.0822296142578125,-0.2198944091796875
1761478526257302000,5.203302001953125,-0.9595184326171875,-0.083648681640625,-0.2046966552734375
1761478526267338000,5.213337890625,-0.959869384765625,-0.087066650390625,-0.1877593994140625
1761478526277374000,5.2233740234375,-0.973358154296875,-0.0915374755859375,-0.175201416015625
1761478526287410000,5.233409912109375,-0.980804443359375,-0.090972900390625,-0.182098388671875
1761478526297446000,5.24344580078125,-0.988861083984375,-0.092864990234375,-0.2030181884765625
1761478526307481000,5.253481201171875,-1.0013885498046875,-0.10040283203125,-0.222564697265625
1761478526317517000,5.26351708984375,-1.0122222900390625,-0.10882568359375,-0.231353759765625
1761478526327553000,5.273552978515625,-1.0146636962890625,-0.1129608154296875,-0.23028564453125
1761478526337589000,5.283589111328125,-1.0166778564453125,-0.111968994140625,-0.223480224609375
1761478526347625000,5.293625,-1.0280609130859375,-0.1129150390625,-0.2176055908203125
1761478526357661000,5.303660888671875,-1.0447235107421875,-0.1221771240234375,-0.215118408203125
1761478526367696100,5.313696044921875,-1.056549072265625,-0.1304168701171875,-0.2252197265625
1761478526377732000,5.323732177734375,-1.060577392578125,-0.1416015625,-0.238067626953125
1761478526387768000,5.33376806640625,-1.0535430908203125,-0.13787841796875,-0.243499755859375
1761478526397804000,5.343803955078125,-1.025909423828125,-0.11529541015625,-0.2274169921875
1761478526407840000,5.353840087890625,-0.9789581298828125,-0.0803680419921875,-0.178802490234375
1761478526417876000,5.3638759765625,-0.956878662109375,-0.0604400634765625,-0.11871337890625
1761478526427911200,5.3739111328125,-0.9613800048828125,-0.0417938232421875,-0.091552734375
1761478526437947100,5.383947021484375,-0.9981536865234375,-0.0231781005859375,-0.0913848876953125
1761478526447983000,5.393983154296875,-1.04254150390625,-0.013427734375,-0.1103668212890625
1761478526458019000,5.40401904296875,-1.0951080322265625,-0.01318359375,-0.1485137939453125
1761478526468055000,5.414054931640625,-1.13525390625,-0.0074462890625,-0.213958740234375
1761478526478091000,5.424091064453125,-1.131683349609375,-0.0138397216796875,-0.2624664306640625
1761478526488127000,5.434126953125,-1.0958709716796875,-0.034759521484375,-0.26495361328125
1761478526498162000,5.444161865234375,-1.049957275390625,-0.048675537109375,-0.2491912841796875
1761478526508198100,5.4541982421875,-1.0194091796875,-0.05963134765625,-0.231414794921875
1761478526518234000,5.464234130859375,-1.00579833984375,-0.0733489990234375,-0.223388671875
1761478526528270000,5.47427001953125,-1.0046844482421875,-0.0862579345703125,-0.2249908447265625
1761478526538306000,5.48430615234375,-1.015869140625,-0.083343505859375,-0.2356109619140625
1761478526548342000,5.494342041015625,-1.0419921875,-0.061004638671875,-0.248504638671875
1761478526558377000,5.504376953125,-1.0628662109375,-0.04339599609375,-0.2509002685546875
1761478526568413000,5.514412841796875,-1.0635528564453125,-0.034515380859375,-0.2377166748046875
1761478526578449000,5.524448974609375,-1.038330078125,-0.0287933349609375,-0.2145843505859375
1761478526588485000,5.534485107421875,-1.0044097900390625,-0.0269927978515625,-0.18792724609375
1761478526598521000,5.54452099609375,-0.9733428955078125,-0.03314208984375,-0.1710052490234375
1761478526608557000,5.55455712890625,-0.941925048828125,-0.0402069091796875,-0.169097900390625
1761478526618592000,5.564592041015625,-0.9151153564453125,-0.054107666015625,-0.1779022216796875
1761478526628628000,5.5746279296875,-0.894805908203125,-0.0700225830078125,-0.1940155029296875
1761478526638664000,5.584663818359375,-0.89569091796875,-0.0792694091796875,-0.2160186767578125
1761478526648700000,5.594699951171875,-0.9109039306640625,-0.079315185546875,-0.2361602783203125
1761478526658735900,5.60473583984375,-0.9327850341796875,-0.07501220703125,-0.2451324462890625
1761478526668772000,5.614772216796875,-0.95867919921875,-0.072845458984375,-0.2460784912109375
1761478526678807000,5.62480712890625,-0.98052978515625,-0.0623321533203125,-0.250244140625
1761478526688843000,5.634843017578125,-1.0036468505859375,-0.047607421875,-0.2610626220703125
1761478526698879000,5.64487890625,-1.022247314453125,-0.033660888671875,-0.2675323486328125
1761478526708915000,5.6549150390625,-1.026885986328125,-0.02459716796875,-0.2647552490234375
1761478526718951000,5.664950927734375,-1.023193359375,-0.02227783203125,-0.2517852783203125
1761478526728987000,5.67498681640625,-1.0068817138671875,-0.01885986328125,-0.2454833984375
1761478526739022800,5.68502294921875,-0.978912353515625,-0.01873779296875,-0.2385406494140625
1761478526749058000,5.69505810546875,-0.9528961181640625,-0.031646728515625,-0.2265777587890625
1761478526759094000,5.705093994140625,-0.93572998046875,-0.0440216064453125,-0.2265167236328125
1761478526769130000,5.7151298828125,-0.9237518310546875,-0.0525360107421875,-0.239044189453125
1761478526779166000,5.725166015625,-0.9277496337890625,-0.0514678955078125,-0.26043701171875
1761478526789202000,5.735201904296875,-0.9415283203125,-0.039947509765625,-0.2739410400390625
1761478526799237000,5.745237060546875,-0.9577178955078125,-0.0312652587890625,-0.277618408203125
1761478526809273000,5.755273193359375,-0.968109130859375,-0.017181396484375,-0.2768096923828125
1761478526819309000,5.76530908203125,-0.9744873046875,-0.0024871826171875,-0.2685546875
1761478526829345000,5.775344970703125,-0.97625732421875,0.0029754638671875,-0.258544921875
1761478526839381000,5.785381103515625,-0.9778594970703125,0.0062713623046875,-0.2523651123046875
1761478526849417000,5.7954169921875,-0.9791717529296875,0.0089874267578125,-0.2462158203125
1761478526859453000,5.805452880859375,-0.981475830078125,0.00347900390625,-0.24444580078125
1761478526869488000,5.815488037109375,-0.981109619140625,-0.002685546875,-0.2601165771484375
1761478526879524000,5.825524169921875,-0.980224609375,-0.001373291015625,-0.2790374755859375
1761478526889560000,5.83556005859375,-0.973114013671875,-0.0018463134765625,-0.2878570556640625
1761478526899596000,5.845595947265625,-0.9627532958984375,-0.001251220703125,-0.2901458740234375
1761478526909632000,5.855632080078125,-0.9539337158203125,-0.000579833984375,-0.28497314453125
1761478526919668000,5.86566796875,-0.941864013671875,0.0001373291015625,-0.2728729248046875
1761478526929703000,5.875702880859375,-0.946136474609375,0.0019683837890625,-0.2631683349609375
1761478526939739000,5.88573876953125,-0.944793701171875,0.003875732421875,-0.26324462890625
1761478526949775000,5.895775146484375,-0.9382476806640625,-0.0023193359375,-0.2710723876953125
1761478526959811000,5.90581103515625,-0.94189453125,-0.0048675537109375,-0.287506103515625
1761478526969847000,5.915846923828125,-0.9425811767578125,-0.0064239501953125,-0.303985595703125
1761478526979883000,5.925883056640625,-0.938629150390625,-0.013092041015625,-0.31231689453125
1761478526989918000,5.93591796875,-0.9376068115234375,-0.0175323486328125,-0.31024169921875
1761478526999954000,5.945953857421875,-0.92657470703125,-0.031219482421875,-0.3018341064453125
1761478527009990000,5.955989990234375,-0.937713623046875,-0.0472412109375,-0.314239501953125
1761478527020025900,5.96602587890625,-0.953521728515625,-0.0697479248046875,-0.35626220703125
1761478527030062000,5.97606201171875,-0.98028564453125,-0.079437255859375,-0.411163330078125
1761478527040098000,5.98609814453125,-1.016998291015625,-0.0774993896484375,-0.44085693359375
1761478527050133000,5.996133056640625,-1.055328369140625,-0.0735321044921875,-0.42889404296875
1761478527060169500,6.00616943359375,-1.0738983154296875,-0.0628204345703125,-0.3785858154296875
1761478527070205400,6.016205322265625,-1.078887939453125,-0.0543670654296875,-0.3105316162109375
1761478527080241400,6.026241455078125,-1.0802154541015625,-0.0456390380859375,-0.26043701171875
1761478527090277400,6.03627734375,-1.080078125,-0.0454559326171875,-0.244415283203125
1761478527100313300,6.046313232421875,-1.055511474609375,-0.0500640869140625,-0.2533721923828125
1761478527110349300,6.056349365234375,-1.015167236328125,-0.05963134765625,-0.271759033203125
1761478527120384500,6.066384521484375,-0.9651031494140625,-0.0737152099609375,-0.2782440185546875
1761478527130420500,6.07642041015625,-0.9198150634765625,-0.086090087890625,-0.2588958740234375
1761478527140456400,6.08645654296875,-0.8967437744140625,-0.089813232421875,-0.229339599609375
1761478527150492400,6.096492431640625,-0.8995208740234375,-0.0840301513671875,-0.20660400390625
1761478527160528400,6.1065283203125,-0.91925048828125,-0.0750885009765625,-0.205230712890625
1761478527170564400,6.116564453125,-0.93206787109375,-0.06756591796875,-0.211334228515625
1761478527180599600,6.126599609375,-0.941162109375,-0.067047119140625,-0.216766357421875
1761478527190635500,6.136635498046875,-0.937042236328125,-0.0735931396484375,-0.2161102294921875
1761478527200671500,6.14667138671875,-0.9306182861328125,-0.0888519287109375,-0.2169189453125
1761478527210707500,6.15670751953125,-0.9180450439453125,-0.0972900390625,-0.2337799072265625
1761478527220743400,6.166743408203125,-0.90625,-0.10504150390625,-0.2581329345703125
1761478527230779400,6.176779296875,-0.894866943359375,-0.109832763671875,-0.280181884765625
1761478527240814300,6.186814453125,-0.8954620361328125,-0.1075592041015625,-0.2916259765625
1761478527250850600,6.1968505859375,-0.910064697265625,-0.0984649658203125,-0.286041259765625
1761478527260886500,6.206886474609375,-0.9423980712890625,-0.088348388671875,-0.2716064453125
1761478527270922500,6.216922607421875,-0.9752655029296875,-0.0770416259765625,-0.254364013671875
1761478527280958500,6.22695849609375,-1.0041351318359375,-0.0646820068359375,-0.2465972900390625
1761478527290994400,6.236994384765625,-1.0234527587890625,-0.0623321533203125,-0.250579833984375
1761478527301029400,6.247029296875,-1.0247039794921875,-0.0702972412109375,-0.25897216796875
1761478527311065300,6.2570654296875,-1.0123291015625,-0.0849609375,-0.2638092041015625
1761478527321101300,6.267101318359375,-0.9996185302734375,-0.1043701171875,-0.2671051025390625
1761478527331137500,6.277137451171875,-0.988311767578125,-0.119964599609375,-0.276824951171875
1761478527341173500,6.287173583984375,-0.9758758544921875,-0.13226318359375,-0.28289794921875
1761478527351209500,6.29720947265625,-0.9717559814453125,-0.138214111328125,-0.2875518798828125
1761478527361244400,6.307244384765625,-0.97308349609375,-0.1385650634765625,-0.2874908447265625
1761478527371280400,6.3172802734375,-0.9775543212890625,-0.14434814453125,-0.2754058837890625
1761478527381316400,6.32731640625,-0.9773712158203125,-0.141326904296875,-0.260467529296875
1761478527391352300,6.337352294921875,-0.9686737060546875,-0.136474609375,-0.24798583984375
1761478527401388300,6.34738818359375,-0.9641265869140625,-0.1329193115234375,-0.235443115234375
1761478527411424500,6.357424560546875,-0.9609375,-0.12591552734375,-0.2223358154296875
1761478527421460700,6.367460693359375,-0.9608917236328125,-0.1219482421875,-0.2141571044921875
1761478527431495400,6.377495361328125,-0.962432861328125,-0.1180267333984375,-0.2060394287109375
1761478527441531400,6.387531494140625,-0.9647674560546875,-0.111846923828125,-0.198699951171875
1761478527451567400,6.3975673828125,-0.9633636474609375,-0.112030029296875,-0.1975250244140625
1761478527461603300,6.407603271484375,-0.9573516845703125,-0.118499755859375,-0.207916259765625
1761478527471639300,6.417639404296875,-0.9454498291015625,-0.124969482421875,-0.2261505126953125
1761478527481675500,6.427675537109375,-0.9384765625,-0.1365966796875,-0.2503814697265625
1761478527491710500,6.43771044921875,-0.9354400634765625,-0.1495208740234375,-0.2682342529296875
1761478527501746400,6.447746337890625,-0.9372711181640625,-0.15496826171875,-0.2850341796875
1761478527511782400,6.457782470703125,-0.947967529296875,-0.150482177734375,-0.2960357666015625
1761478527521818400,6.467818359375,-0.9609832763671875,-0.14080810546875,-0.290252685546875
1761478527531854600,6.4778544921875,-0.9682464599609375,-0.1313323974609375,-0.2699127197265625
1761478527541890600,6.487890625,-0.9761962890625,-0.125579833984375,-0.24609375
1761478527551925500,6.497925537109375,-0.985595703125,-0.1181488037109375,-0.2345428466796875
1761478527561961500,6.50796142578125,-0.990692138671875,-0.1151123046875,-0.234649658203125
1761478527571997400,6.51799755859375,-0.9936065673828125,-0.1167755126953125,-0.2439117431640625
1761478527582033400,6.528033447265625,-0.9843902587890625,-0.1226348876953125,-0.2501373291015625
1761478527592069600,6.538069580078125,-0.9771881103515625,-0.1346282958984375,-0.248687744140625
1761478527602105600,6.548105712890625,-0.97454833984375,-0.1432647705078125,-0.2533111572265625
1761478527612140500,6.558140625,-0.976593017578125,-0.15093994140625,-0.263519287109375
1761478527622176500,6.568176513671875,-0.976348876953125,-0.1629638671875,-0.28179931640625
1761478527632212500,6.57821240234375,-0.97747802734375,-0.172698974609375,-0.304656982421875
1761478527642248700,6.588248779296875,-0.9823150634765625,-0.178253173828125,-0.3206024169921875
1761478527652284700,6.59828466796875,-0.97930908203125,-0.179046630859375,-0.3103790283203125
1761478527662320600,6.608320556640625,-0.9725799560546875,-0.1743927001953125,-0.2810821533203125
1761478527672356600,6.618356689453125,-0.9634552001953125,-0.1660614013671875,-0.2555389404296875
1761478527682391300,6.628391357421875,-0.951995849609375,-0.15570068359375,-0.240570068359375
1761478527692427500,6.638427490234375,-0.942596435546875,-0.1275482177734375,-0.223663330078125
1761478527702463700,6.648463623046875,-0.934661865234375,-0.0845794677734375,-0.189971923828125
1761478527712499700,6.658499755859375,-0.9310302734375,-0.0587921142578125,-0.14892578125
1761478527722535700,6.66853564453125,-0.9416961669921875,-0.0478668212890625,-0.1392059326171875
1761478527732571600,6.678571533203125,-0.9872283935546875,-0.0364532470703125,-0.17791748046875
1761478527742606300,6.6886064453125,-1.0894775390625,-0.031402587890625,-0.269287109375
1761478527752642600,6.698642578125,-1.1490478515625,-0.07550048828125,-0.3285369873046875
1761478527762678500,6.708678466796875,-1.13751220703125,-0.069915771484375,-0.325439453125
1761478527772714500,6.718714599609375,-1.164764404296875,-0.019195556640625,-0.3182373046875
1761478527782750700,6.728750732421875,-1.203521728515625,-0.01422119140625,-0.272979736328125
1761478527792786700,6.73878662109375,-1.2232666015625,-0.012054443359375,-0.2309112548828125
1761478527802821400,6.7488212890625,-1.20745849609375,-0.0147552490234375,-0.2116851806640625
1761478527812857600,6.758857666015625,-1.1620330810546875,-0.049407958984375,-0.2054290771484375
1761478527822893600,6.7688935546875,-1.1018218994140625,-0.0762481689453125,-0.24462890625
1761478527832929500,6.778929443359375,-1.02923583984375,-0.1074981689453125,-0.3090057373046875
1761478527842965500,6.788965576171875,-0.935150146484375,-0.1302337646484375,-0.3496246337890625
1761478527853001500,6.79900146484375,-0.8758392333984375,-0.126953125,-0.3665924072265625
1761478527863036700,6.80903662109375,-0.852020263671875,-0.1119384765625,-0.354736328125
1761478527873072600,6.81907275390625,-0.8531646728515625,-0.089935302734375,-0.3270416259765625
1761478527883108600,6.829108642578125,-0.858428955078125,-0.0691680908203125,-0.287078857421875
1761478527893144600,6.83914453125,-0.8512115478515625,-0.0522003173828125,-0.2508087158203125
1761478527903180500,6.8491806640625,-0.846405029296875,-0.041046142578125,-0.2288055419921875
1761478527913216500,6.859216552734375,-0.843475341796875,-0.0337677001953125,-0.224822998046875
1761478527923252500,6.86925244140625,-0.842681884765625,-0.0326995849609375,-0.23443603515625
1761478527933287700,6.87928759765625,-0.8713531494140625,-0.0470733642578125,-0.253997802734375
1761478527943323600,6.88932373046875,-0.9067230224609375,-0.0699462890625,-0.2869873046875
1761478527953359600,6.899359619140625,-0.9337921142578125,-0.0886688232421875,-0.31109619140625
1761478527963395600,6.9093955078125,-0.9501190185546875,-0.1005096435546875,-0.3248748779296875
1761478527973431600,6.919431640625,-0.9559326171875,-0.102081298828125,-0.3255767822265625
1761478527983467500,6.929467529296875,-0.9534454345703125,-0.109405517578125,-0.315643310546875
1761478527993502700,6.939502685546875,-0.957061767578125,-0.11920166015625,-0.313690185546875
1761478528003538700,6.94953857421875,-0.97015380859375,-0.1190948486328125,-0.3172454833984375
1761478528013574700,6.95957470703125,-0.989410400390625,-0.10394287109375,-0.31402587890625
1761478528023610600,6.969610595703125,-1.0093536376953125,-0.0775299072265625,-0.2983551025390625
1761478528033646600,6.979646484375,-1.018096923828125,-0.059478759765625,-0.271881103515625
1761478528043682600,6.9896826171875,-1.0110931396484375,-0.049896240234375,-0.24163818359375
1761478528053717500,6.999717529296875,-0.9882049560546875,-0.0394439697265625,-0.21990966796875
1761478528063753200,7.009753173828125,-0.971923828125,-0.0305023193359375,-0.211212158203125
1761478528073789200,7.0197890625,-0.9687652587890625,-0.0390625,-0.2117919921875
1761478528083825200,7.0298251953125,-0.9729461669921875,-0.054962158203125,-0.221649169921875
1761478528093861000,7.039861083984375,-0.9804840087890625,-0.0697021484375,-0.2473602294921875
1761478528103897000,7.04989697265625,-0.9915924072265625,-0.0839080810546875,-0.2779693603515625
1761478528113932000,7.05993212890625,-1.0056304931640625,-0.08453369140625,-0.2931976318359375
1761478528123968000,7.069968017578125,-1.0301666259765625,-0.071319580078125,-0.285308837890625
1761478528134004200,7.080004150390625,-1.051055908203125,-0.0508270263671875,-0.2651519775390625
1761478528144040200,7.090040283203125,-1.0535888671875,-0.031890869140625,-0.2492828369140625
1761478528154076200,7.100076171875,-1.0342864990234375,-0.0104827880859375,-0.227874755859375
1761478528164112100,7.110112060546875,-1.004974365234375,0.0035400390625,-0.1993408203125
1761478528174148000,7.120148193359375,-0.977752685546875,0.014923095703125,-0.1790618896484375
1761478528184183000,7.13018310546875,-0.95709228515625,0.022735595703125,-0.1558685302734375
1761478528194219000,7.140218994140625,-0.9401092529296875,0.0264739990234375,-0.1403350830078125
1761478528204255200,7.150255126953125,-0.93756103515625,0.0289306640625,-0.15057373046875
1761478528214291200,7.160291259765625,-0.9470977783203125,0.0299224853515625,-0.1733551025390625
1761478528224327200,7.1703271484375,-0.951019287109375,0.0230255126953125,-0.20697021484375
1761478528234363100,7.180363037109375,-0.9502410888671875,0.007476806640625,-0.230804443359375
1761478528244398000,7.190398193359375,-0.9483642578125,-0.0108184814453125,-0.2365875244140625
1761478528254434000,7.20043408203125,-0.946624755859375,-0.019561767578125,-0.248382568359375
1761478528264470000,7.210469970703125,-0.93878173828125,-0.029266357421875,-0.26739501953125
1761478528274506000,7.220506103515625,-0.933563232421875,-0.0405120849609375,-0.2929229736328125
1761478528284542200,7.230542236328125,-0.943359375,-0.0428314208984375,-0.3148956298828125
1761478528294578200,7.240578125,-0.969024658203125,-0.04498291015625,-0.3146514892578125
1761478528304613000,7.250613037109375,-1.0098114013671875,-0.0511932373046875,-0.29681396484375
1761478528314649000,7.260649169921875,-1.038299560546875,-0.0432891845703125,-0.2890167236328125
1761478528324685000,7.27068505859375,-1.045623779296875,-0.0356597900390625,-0.296722412109375
1761478528334721000,7.280720947265625,-1.0471343994140625,-0.0412445068359375,-0.306304931640625
1761478528344757000,7.290757080078125,-1.043975830078125,-0.04718017578125,-0.311737060546875
1761478528354793000,7.30079296875,-1.0380706787109375,-0.0474700927734375,-0.304107666015625
1761478528364828200,7.310828125,-1.0301666259765625,-0.0484619140625,-0.2751617431640625
1761478528374864100,7.320864013671875,-1.0164794921875,-0.04833984375,-0.2482452392578125
1761478528384900000,7.330900146484375,-0.99267578125,-0.0576171875,-0.2370758056640625
1761478528394936000,7.34093603515625,-0.9698638916015625,-0.0697479248046875,-0.24041748046875
1761478528404972000,7.350971923828125,-0.941070556640625,-0.0914459228515625,-0.24945068359375
1761478528415008000,7.361008056640625,-0.9152374267578125,-0.115966796875,-0.2612152099609375
1761478528425044000,7.3710439453125,-0.91107177734375,-0.120819091796875,-0.2730255126953125
1761478528435079200,7.3810791015625,-0.907012939453125,-0.1198577880859375,-0.2777099609375
1761478528445115100,7.391115234375,-0.9205474853515625,-0.1067962646484375,-0.26776123046875
1761478528455151000,7.401151123046875,-0.937652587890625,-0.0929718017578125,-0.2443389892578125
1761478528465187000,7.41118701171875,-0.9516448974609375,-0.0848846435546875,-0.2240447998046875
1761478528475223000,7.42122314453125,-0.9573516845703125,-0.0846099853515625,-0.2211761474609375
1761478528485259000,7.431259033203125,-0.9542083740234375,-0.095947265625,-0.242889404296875
1761478528495294200,7.441294189453125,-0.9522857666015625,-0.1050567626953125,-0.2752532958984375
1761478528505330200,7.451330078125,-0.9606170654296875,-0.111541748046875,-0.305999755859375
1761478528515366100,7.4613662109375,-0.972412109375,-0.1147308349609375,-0.3200836181640625
1761478528525402000,7.471402099609375,-0.981201171875,-0.1071929931640625,-0.3207244873046875
1761478528535438000,7.48143798828125,-0.9936676025390625,-0.098846435546875,-0.3097076416015625
1761478528545474000,7.49147412109375,-0.9987945556640625,-0.094696044921875,-0.2906341552734375
1761478528555509000,7.501509033203125,-0.987030029296875,-0.094146728515625,-0.2839202880859375
1761478528565545000,7.511544921875,-0.9716796875,-0.0953216552734375,-0.284515380859375
1761478528575581200,7.521581298828125,-0.967742919921875,-0.0971832275390625,-0.2837371826171875
1761478528585617200,7.5316171875,-0.9678497314453125,-0.108673095703125,-0.2793121337890625
1761478528595653000,7.541653076171875,-0.963897705078125,-0.1144561767578125,-0.2656707763671875
1761478528605689000,7.551689208984375,-0.9686737060546875,-0.11322021484375,-0.2465362548828125
1761478528615725000,7.56172509765625,-0.9749298095703125,-0.1158905029296875,-0.23785400390625
1761478528625760000,7.571760009765625,-0.9800567626953125,-0.1214752197265625,-0.2386932373046875
1761478528635796000,7.5817958984375,-0.9862823486328125,-0.1251373291015625,-0.236328125
1761478528645832000,7.59183203125,-0.989593505859375,-0.116943359375,-0.2283477783203125
1761478528655868200,7.6018681640625,-0.993072509765625,-0.1166229248046875,-0.213470458984375
1761478528665904000,7.611904052734375,-0.9983062744140625,-0.118377685546875,-0.2091827392578125
1761478528675940000,7.621940185546875,-1.0009307861328125,-0.12164306640625,-0.2247467041015625
1761478528685975000,7.63197509765625,-0.9956817626953125,-0.1284027099609375,-0.240386962890625
1761478528696011000,7.642010986328125,-0.986785888671875,-0.1228179931640625,-0.2458343505859375
1761478528706047000,7.652046875,-0.9808807373046875,-0.1164703369140625,-0.25250244140625
1761478528716083000,7.6620830078125,-0.9695587158203125,-0.10845947265625,-0.2655029296875
1761478528726119200,7.672119140625,-0.957550048828125,-0.10302734375,-0.2740325927734375
1761478528736155100,7.682155029296875,-0.9444732666015625,-0.092041015625,-0.281494140625
1761478528746190000,7.692190185546875,-0.937957763671875,-0.084381103515625,-0.2783355712890625
1761478528756226000,7.70222607421875,-0.9242706298828125,-0.0931549072265625,-0.2643585205078125
1761478528766262000,7.712261962890625,-0.8995513916015625,-0.108062744140625,-0.2499847412109375
1761478528776298000,7.722298095703125,-0.87799072265625,-0.12884521484375,-0.258056640625
1761478528786334000,7.732333984375,-0.8763580322265625,-0.1365966796875,-0.2963409423828125
1761478528796370000,7.742369873046875,-0.9127197265625,-0.1393585205078125,-0.3385772705078125
1761478528806406100,7.75240625,-0.96759033203125,-0.14239501953125,-0.366302490234375
1761478528816441000,7.762441162109375,-1.0174102783203125,-0.1135406494140625,-0.40228271484375
1761478528826477000,7.77247705078125,-1.0025177001953125,-0.164306640625,-0.33740234375
1761478528836513000,7.782512939453125,-0.9607086181640625,-0.151519775390625,-0.234832763671875
1761478528846549000,7.792549072265625,-0.9882354736328125,-0.1259613037109375,-0.1939239501953125
1761478528856585000,7.8025849609375,-0.9734039306640625,-0.16656494140625,-0.16851806640625
1761478528866621000,7.812620849609375,-0.953125,-0.1775970458984375,-0.2348785400390625
1761478528876656000,7.82265625,-0.9425201416015625,-0.1821136474609375,-0.2867889404296875
1761478528886692000,7.832692138671875,-0.981964111328125,-0.186492919921875,-0.292724609375
1761478528896728000,7.84272802734375,-1.0298919677734375,-0.1802825927734375,-0.2765655517578125
1761478528906764000,7.852763916015625,-1.0531463623046875,-0.1865234375,-0.25140380859375
1761478528916800000,7.862800048828125,-1.063262939453125,-0.193450927734375,-0.2429656982421875
1761478528926836000,7.8728359375,-1.0472259521484375,-0.1899261474609375,-0.2543182373046875
1761478528936871200,7.88287109375,-1.03155517578125,-0.1937103271484375,-0.2681427001953125
1761478528946907100,7.8929072265625,-1.0166015625,-0.188507080078125,-0.2728271484375
1761478528956943000,7.902943115234375,-0.990966796875,-0.1640472412109375,-0.263885498046875
1761478528966979000,7.91297900390625,-0.9581146240234375,-0.1489715576171875,-0.223968505859375
1761478528977015000,7.92301513671875,-0.9346923828125,-0.1297760009765625,-0.1783905029296875
1761478528987051000,7.933051025390625,-0.9526824951171875,-0.113739013671875,-0.16412353515625
1761478528997087000,7.9430869140625,-0.995880126953125,-0.0913238525390625,-0.1788482666015625
1761478529007122000,7.953121826171875,-1.0426788330078125,-0.077117919921875,-0.1996612548828125
1761478529017158100,7.963158203125,-1.0797119140625,-0.066802978515625,-0.22576904296875
1761478529027194000,7.973194091796875,-1.101898193359375,-0.053131103515625,-0.248443603515625
1761478529037230000,7.98322998046875,-1.1099090576171875,-0.05218505859375,-0.2518310546875
1761478529047266000,7.99326611328125,-1.1024627685546875,-0.0579376220703125,-0.2606658935546875
1761478529057302000,8.003302001953125,-1.0756378173828125,-0.0679779052734375,-0.2762451171875
1761478529067336400,8.01333642578125,-1.018280029296875,-0.093414306640625,-0.2918548583984375
1761478529077372400,8.023372314453125,-0.9862518310546875,-0.1175994873046875,-0.3087158203125
1761478529087408400,8.033408447265625,-0.9680938720703125,-0.1321868896484375,-0.31500244140625
1761478529097444400,8.0434443359375,-0.962615966796875,-0.1498260498046875,-0.318084716796875
1761478529107480300,8.053480224609375,-0.9710235595703125,-0.1488189697265625,-0.318756103515625
1761478529117516300,8.063516357421875,-0.9685211181640625,-0.13641357421875,-0.3188018798828125
1761478529127551200,8.07355126953125,-0.9587249755859375,-0.1313018798828125,-0.3166351318359375
1761478529137587200,8.083587158203125,-0.94329833984375,-0.1190338134765625,-0.327239990234375
1761478529147623400,8.09362353515625,-0.94580078125,-0.0853271484375,-0.3244476318359375
1761478529157659400,8.103659423828125,-0.9505462646484375,-0.077239990234375,-0.2682342529296875
1761478529167695400,8.1136953125,-0.93994140625,-0.0927276611328125,-0.2052764892578125
1761478529177731300,8.1237314453125,-0.924713134765625,-0.1074371337890625,-0.1887969970703125
1761478529187767600,8.133767578125,-0.912384033203125,-0.1212005615234375,-0.2146453857421875
1761478529197802200,8.14380224609375,-0.9163055419921875,-0.123260498046875,-0.2472991943359375
1761478529207838200,8.153838134765625,-0.93170166015625,-0.1212310791015625,-0.256927490234375
1761478529217874200,8.163874267578125,-0.9492340087890625,-0.1030120849609375,-0.2551727294921875
1761478529227910400,8.173910400390625,-0.9796295166015625,-0.0618743896484375,-0.240875244140625
1761478529237946400,8.1839462890625,-0.995849609375,-0.0252685546875,-0.225250244140625
1761478529247982600,8.193982666015625,-1.02471923828125,-0.0123748779296875,-0.237152099609375
1761478529258017300,8.204017333984375,-1.0614013671875,-0.00054931640625,-0.2813568115234375
1761478529268053200,8.21405322265625,-1.08843994140625,0.02557373046875,-0.3007049560546875
1761478529278089200,8.224089111328125,-1.078155517578125,0.026763916015625,-0.2554779052734375
1761478529288125200,8.234125244140625,-1.0196075439453125,0.0081024169921875,-0.219268798828125
1761478529298161400,8.244161376953125,-0.9597625732421875,0.000457763671875,-0.2290191650390625
1761478529308197400,8.254197265625,-0.93072509765625,-0.01129150390625,-0.2734832763671875
1761478529318232300,8.264232421875,-0.934234619140625,-0.03155517578125,-0.352142333984375
1761478529328268300,8.274268310546875,-0.9580230712890625,-0.0377655029296875,-0.4182281494140625
1761478529338304300,8.28430419921875,-0.9399261474609375,-0.0317230224609375,-0.4349822998046875
1761478529348340200,8.29434033203125,-0.82830810546875,-0.02752685546875,-0.3951416015625
1761478529358376400,8.30437646484375,-0.7214813232421875,-0.0671844482421875,-0.3202667236328125
1761478529368412400,8.314412353515625,-0.6384124755859375,-0.0595855712890625,-0.275787353515625
1761478529378448400,8.324448486328125,-0.6738128662109375,-0.106170654296875,-0.2604217529296875
1761478529388483300,8.3344833984375,-0.8257293701171875,-0.185546875,-0.2818603515625
1761478529398519300,8.344519287109375,-0.9871978759765625,-0.0622711181640625,-0.426971435546875
1761478529408555500,8.354555419921875,-1.1965484619140625,-0.00714111328125,-0.455322265625
1761478529418591500,8.364591552734375,-1.2418212890625,-0.013519287109375,-0.41827392578125
1761478529428627500,8.37462744140625,-1.242767333984375,0.0253143310546875,-0.342926025390625
1761478529438663400,8.384663330078125,-1.18109130859375,0.0342254638671875,-0.244415283203125
1761478529448698400,8.394698486328124,-1.0938720703125,0.038299560546875,-0.1691131591796875
