time,seconds_elapsed,z,y,x
1761478521147807200,0.09380712890625,0.05365567281842232,-0.02452886290848255,0.1796836405992508
1761478521157843200,0.10384326171875,0.06434499472379684,-0.021333061158657074,0.1784750372171402
1761478521167878100,0.113878173828125,0.05330272763967514,-0.03396337106823921,0.16144944727420807
1761478521177914000,0.1239140625,0.04432142898440361,-0.07019239664077759,0.11426226794719696
1761478521187950000,0.1339501953125,0.033750277012586594,-0.0937134325504303,0.05998757854104042
1761478521197986000,0.143986083984375,0.021008113399147987,-0.0932326540350914,0.012665370479226112
1761478521208022000,0.15402197265625,0.020405439659953117,-0.0812593474984169,-0.02929140068590641
1761478521218057200,0.16405712890625,0.030116654932498932,-0.06019454449415207,-0.06677805632352829
1761478521228093200,0.17409326171875,0.042955487966537476,-0.03852866217494011,-0.08113569021224976
1761478521238129200,0.184129150390625,0.0361224040389061,0.0036032593343406916,-0.06477806717157364
1761478521248165000,0.1941650390625,0.015110861510038376,0.010992998257279396,-0.04775168374180794
1761478521258201000,0.204201171875,-0.0066302502527832985,0.012717489153146744,-0.033977825194597244
1761478521268236300,0.214236328125,-0.039798855781555176,0.024150438606739044,-0.032781533896923065
1761478521278272300,0.224272216796875,-0.06127903610467911,0.02151310443878174,-0.031473059207201004
1761478521288308200,0.23430810546875,-0.055065348744392395,0.039150420576334,-0.028224539011716843
1761478521298344200,0.24434423828125,-0.03036300465464592,0.04458292946219444,-0.01935204118490219
1761478521308380200,0.254380126953125,-0.010969866998493671,0.03842037543654442,-0.001249736058525741
1761478521318415000,0.2644150390625,-0.011498697102069855,0.04019251465797424,0.016114430502057076
1761478521328451000,0.274451171875,-0.018374713137745857,0.042183760553598404,0.024394463747739792
1761478521338487000,0.284487060546875,-0.009824049659073353,0.039033688604831696,0.03136124461889267
1761478521348523300,0.294523193359375,0.020928537473082542,2.6868656277656555e-7,0.04209351912140846
1761478521358559200,0.304559326171875,0.06180625036358833,-0.030884843319654465,0.06349167972803116
1761478521368595200,0.31459521484375,0.0844804048538208,-0.04139687120914459,0.07113175839185715
1761478521378630100,0.324630126953125,0.09597849100828171,-0.04677247628569603,0.06948923319578171
1761478521388666000,0.334666015625,0.11387253552675247,-0.06592566519975662,0.07241977751255035
1761478521398702000,0.3447021484375,0.13323278725147247,-0.09050212800502777,0.0843672975897789
1761478521408738000,0.354738037109375,0.14081799983978271,-0.10740760713815689,0.11200877279043198
1761478521418774000,0.36477392578125,0.13860397040843964,-0.07713109999895096,0.14960859715938568
1761478521428809200,0.374809326171875,0.14634472131729126,-0.04658304527401924,0.17683355510234833
1761478521438845200,0.38484521484375,0.1715223640203476,-0.060967911034822464,0.18356774747371674
1761478521448881200,0.394881103515625,0.19196158647537231,-0.09308802336454391,0.17468132078647614
1761478521458917000,0.404917236328125,0.18430908024311066,-0.10240039229393005,0.14990542829036713
1761478521468953000,0.414953125,0.13970139622688293,-0.0822589099407196,0.11308082938194275
1761478521478988300,0.42498828125,0.06833212822675705,-0.055455490946769714,0.08904830366373062
1761478521489024300,0.435024169921875,0.03733852133154869,-0.056057631969451904,0.07229888439178467
1761478521499060200,0.445060302734375,0.04353514686226845,-0.06407123804092407,0.06866487115621567
1761478521509096200,0.45509619140625,0.027267761528491974,-0.04391856864094734,0.06889310479164124
1761478521519132200,0.465132080078125,0.011140589602291584,-0.03055180236697197,0.046454090625047684
1761478521529167000,0.4751669921875,-0.010159105062484741,-0.0003723292611539364,0.019855504855513573
1761478521539203000,0.485203125,-0.03338354453444481,0.02606506645679474,-0.02636108361184597
1761478521549239000,0.495239013671875,-0.04590120166540146,0.022254079580307007,-0.08248534053564072
1761478521559275300,0.505275146484375,-0.04324386268854141,0.015021678060293198,-0.14736920595169067
1761478521569311200,0.515311279296875,-0.0337986946105957,0.0025852478574961424,-0.19914238154888153
1761478521579346200,0.52534619140625,-0.013606872409582138,-0.010197392664849758,-0.22620941698551178
1761478521589382100,0.535382080078125,-0.003734002821147442,-0.014320498332381248,-0.21291358768939972
1761478521599418000,0.545418212890625,-0.012066954746842384,0.002611073199659586,-0.15672722458839417
1761478521609454000,0.5554541015625,-0.04272047057747841,0.039298247545957565,-0.09006217867136002
1761478521619490000,0.565489990234375,-0.061733540147542953,0.04710410162806511,-0.02599182352423668
1761478521629525200,0.575525146484375,-0.07365704327821732,0.061236701905727386,0.027767544612288475
1761478521639561200,0.585561279296875,-0.0896565243601799,0.07585513591766357,0.052233509719371796
1761478521649597200,0.59559716796875,-0.10986032336950302,0.0511133074760437,0.049041178077459335
1761478521659633200,0.605633056640625,-0.11189962178468704,0.01557508297264576,0.02187441661953926
1761478521669669000,0.615669189453125,-0.06862698495388031,-0.023318519815802574,-0.019695131108164787
1761478521679705000,0.625705078125,-0.008041363209486008,-0.0423191674053669,-0.05047055706381798
1761478521689740300,0.635740234375,0.0450090691447258,-0.03235521540045738,-0.07678578794002533
1761478521699776300,0.6457763671875,0.10202988237142563,-0.00010424270294606686,-0.09975822269916534
1761478521709812200,0.655812255859375,0.14414137601852417,0.027362801134586334,-0.09906553477048874
1761478521719848200,0.66584814453125,0.16122084856033325,0.07946860045194626,-0.07918977737426758
1761478521729884200,0.67588427734375,0.1597108393907547,0.11036260426044464,-0.04825929179787636
1761478521739919000,0.685919189453125,0.14178666472434998,0.11818037182092667,-0.016450297087430954
1761478521749955000,0.695955078125,0.11678089946508408,0.11690178513526917,0.008343201130628586
1761478521759991300,0.7059912109375,0.09599118679761887,0.09799284487962723,0.0236535482108593
1761478521770027300,0.71602734375,0.082663394510746,0.06273871660232544,0.03558637201786041
1761478521780063200,0.726063232421875,0.0737432911992073,0.02304878458380699,0.05494697391986847
1761478521790098200,0.73609814453125,0.06883081793785095,-0.016720199957489967,0.0914384052157402
1761478521800134100,0.746134033203125,0.07509071379899979,-0.06896741688251495,0.13743247091770172
1761478521810170000,0.756170166015625,0.09247050434350967,-0.11640524119138718,0.19416660070419312
1761478521820206000,0.7662060546875,0.10619605332612991,-0.1351284384727478,0.24137502908706665
1761478521830242000,0.776241943359375,0.1009799912571907,-0.12414982914924622,0.26793473958969116
1761478521840278300,0.7862783203125,0.08570290356874466,-0.1139567568898201,0.273519903421402
1761478521850313200,0.796313232421875,0.07674908638000488,-0.10206521302461624,0.2472478300333023
1761478521860349200,0.80634912109375,0.07733361423015594,-0.10531286895275116,0.19396322965621948
1761478521870385200,0.81638525390625,0.09479276090860367,-0.12408550083637238,0.14636507630348206
1761478521880421000,0.826421142578125,0.1174953356385231,-0.13675962388515472,0.11284453421831131
1761478521890457000,0.83645703125,0.12656952440738678,-0.151547372341156,0.09864269196987152
1761478521900492300,0.8464921875,0.10715869069099426,-0.16269610822200775,0.09553292393684387
1761478521910528300,0.8565283203125,0.06445863842964172,-0.1669963151216507,0.09653107821941376
1761478521920564200,0.866564208984375,0.012561692856252193,-0.165786013007164,0.10932918637990952
1761478521930600200,0.87660009765625,-0.04616420343518257,-0.16641877591609955,0.11333031952381134
1761478521940636200,0.88663623046875,-0.09765657782554626,-0.15091924369335175,0.11388330161571503
1761478521950671000,0.896671142578125,-0.12812446057796478,-0.12186254560947418,0.12328772246837616
1761478521960707000,0.90670703125,-0.1322699338197708,-0.10562712699174881,0.14167232811450958
1761478521970743300,0.916743408203125,-0.11447470635175705,-0.08287334442138672,0.15555831789970398
1761478521980779300,0.926779296875,-0.0841449499130249,-0.05070902407169342,0.16766215860843658
1761478521990815200,0.936815185546875,-0.03851727768778801,-0.04275709018111229,0.16290415823459625
1761478522000851200,0.946851318359375,-0.002445734106004238,-0.0438968800008297,0.16740143299102783
1761478522010886100,0.95688623046875,-0.017970897257328033,-0.05734904110431671,0.16262586414813995
1761478522020922000,0.966922119140625,-0.06773371994495392,-0.04687349125742912,0.14200392365455627
1761478522030958000,0.9769580078125,-0.11665704846382141,-0.0243452787399292,0.11129074543714523
1761478522040994000,0.986994140625,-0.14520664513111115,-0.02427811734378338,0.08246384561061859
1761478522051030300,0.9970302734375,-0.15988093614578247,-0.012168988585472107,0.05430784076452255
1761478522061066500,1.00706640625,-0.1763603389263153,0.0037109653931111097,0.03517668694257736
1761478522071101400,1.017101318359375,-0.18448299169540405,0.009215453639626503,0.009493960067629814
1761478522081137400,1.027137451171875,-0.18476268649101257,-0.002734970999881625,-0.0038595437072217464
1761478522091173400,1.03717333984375,-0.1813189536333084,-0.004525148309767246,0.002672924194484949
1761478522101209300,1.047209228515625,-0.17374786734580994,-0.022813046351075172,0.010334671474993229
1761478522111245300,1.057245361328125,-0.16725242137908936,-0.04150523990392685,0.013437786139547825
1761478522121281300,1.06728125,-0.1666913628578186,-0.029140708968043327,0.0006979709141887724
1761478522131316500,1.07731640625,-0.17251062393188477,-0.020759209990501404,-0.019707435742020607
1761478522141352400,1.0873525390625,-0.1794467568397522,-0.013877874240279198,-0.04215703159570694
1761478522151388400,1.097388427734375,-0.1603814661502838,-0.024920672178268433,-0.06430733948945999
1761478522161424400,1.10742431640625,-0.13230837881565094,-0.039990585297346115,-0.07598281651735306
1761478522171460400,1.11746044921875,-0.10967656970024109,-0.04351953789591789,-0.07774742692708969
1761478522181495600,1.12749560546875,-0.09220915287733078,-0.04428402706980705,-0.076250821352005
1761478522191531500,1.137531494140625,-0.09579084068536758,-0.02500167489051819,-0.07390724122524261
1761478522201567500,1.1475673828125,-0.09468452632427216,-0.0018477574922144413,-0.07694162428379059
1761478522211603500,1.157603515625,-0.0935356393456459,0.009093306958675385,-0.0803251639008522
1761478522221639400,1.167639404296875,-0.08509767800569534,0.000410682987421751,-0.07967077940702438
1761478522231675400,1.17767529296875,-0.07732710242271423,-0.005013910122215748,-0.07994028925895691
1761478522241710300,1.18771044921875,-0.0668909028172493,-0.013365402817726135,-0.07890219241380692
1761478522251746300,1.197746337890625,-0.058264657855033875,-0.024630574509501457,-0.07043200731277466
1761478522261782500,1.207782470703125,-0.052864089608192444,-0.03759300336241722,-0.05276261270046234
1761478522271818500,1.217818603515625,-0.05584949627518654,-0.03450267016887665,-0.03784465044736862
1761478522281854500,1.2278544921875,-0.05692075192928314,-0.007702385541051626,-0.02398265339434147
1761478522291890400,1.237890380859375,-0.0528237447142601,0.007113311439752579,-0.013593928888440132
1761478522301925400,1.24792529296875,-0.043383028358221054,0.019185680896043777,-0.009609794244170189
1761478522311961300,1.25796142578125,-0.03284330293536186,0.020839769393205643,-0.014244494028389454
1761478522321997300,1.267997314453125,-0.03729350119829178,0.013611050322651863,-0.02496976964175701
1761478522332033300,1.278033203125,-0.060377784073352814,-0.0004523044917732477,-0.05131296068429947
1761478522342069500,1.288069580078125,-0.09254926443099976,-0.0021238692570477724,-0.07711003720760345
1761478522352105500,1.29810546875,-0.1237732321023941,0.0035475988406687975,-0.10018099844455719
1761478522362140400,1.308140380859375,-0.1428411900997162,0.0199749618768692,-0.11700822412967682
1761478522372176400,1.31817626953125,-0.14579570293426514,0.029942108318209648,-0.1236829087138176
1761478522382212400,1.32821240234375,-0.13182233273983002,0.023139193654060364,-0.11677996814250946
1761478522392248300,1.338248291015625,-0.10834150016307831,0.01433025486767292,-0.09303389489650726
1761478522402284300,1.3482841796875,-0.08779238164424896,0.0192104559391737,-0.06691547483205795
1761478522412320300,1.3583203125,-0.06651505827903748,0.029413824900984764,-0.0477585569024086
1761478522422355500,1.36835546875,-0.056828372180461884,0.046859875321388245,-0.035636886954307556
1761478522432391400,1.378391357421875,-0.05746673792600632,0.0485890656709671,-0.03799618408083916
1761478522442427400,1.388427490234375,-0.0839303582906723,0.053272586315870285,-0.049533240497112274
1761478522452463400,1.39846337890625,-0.10696696490049362,0.06631781905889511,-0.06354200094938278
1761478522462499300,1.408499267578125,-0.09880653023719788,0.07190443575382233,-0.07704674452543259
1761478522472535300,1.418535400390625,-0.057580798864364624,0.07364188879728317,-0.07644566893577576
1761478522482570500,1.428570556640625,0.005960375070571899,0.07262056320905685,-0.0703912302851677
1761478522492606500,1.4386064453125,0.06145505979657173,0.07167167961597443,-0.059139639139175415
1761478522502642400,1.448642333984375,0.09129873663187027,0.07506059855222702,-0.05254914611577988
1761478522512678400,1.458678466796875,0.09076796472072601,0.06396719813346863,-0.05618596076965332
1761478522522714400,1.46871435546875,0.07117146998643875,0.08256158977746964,-0.06474044173955917
1761478522532750300,1.478750244140625,0.0457870215177536,0.09751923382282257,-0.07636727392673492
1761478522542785300,1.488785400390625,0.025894466787576675,0.10636653006076813,-0.07172863185405731
1761478522552821500,1.498821533203125,0.012958427891135216,0.1024591401219368,-0.054046038538217545
1761478522562857500,1.508857421875,0.0034385770559310913,0.09846766293048859,-0.02940739132463932
1761478522572893400,1.5188935546875,-0.0029319701716303825,0.10903801769018173,-0.010056329891085625
1761478522582929400,1.528929443359375,-0.0022258893586695194,0.09526713937520981,-0.004214854910969734
1761478522592965400,1.53896533203125,0.0006828149780631065,0.07889056950807571,-0.007621836848556995
1761478522603000300,1.549000244140625,0.004138493444770575,0.06431914120912552,-0.011440884321928024
1761478522613036300,1.559036376953125,0.01550273410975933,0.04862566664814949,-0.009769750759005547
1761478522623072500,1.569072509765625,0.03743630275130272,0.026301581412553787,0.0025018518790602684
1761478522633108500,1.5791083984375,0.05568827688694,-0.008933104574680328,0.025442587211728096
1761478522643144400,1.58914453125,0.048771247267723083,-0.039238013327121735,0.051853425800800323
1761478522653180400,1.599180419921875,0.015488656237721443,-0.04293341562151909,0.08514932543039322
1761478522663215400,1.60921533203125,-0.03569050505757332,-0.04045482352375984,0.11627110093832016
1761478522673251300,1.619251220703125,-0.09874749928712845,-0.01956019550561905,0.142682746052742
1761478522683287300,1.629287353515625,-0.1500554233789444,-0.0172348041087389,0.15158458054065704
1761478522693323300,1.6393232421875,-0.16649778187274933,-0.05284899100661278,0.14103899896144867
1761478522703359500,1.649359375,-0.14644315838813782,-0.06625733524560928,0.1266602873802185
1761478522713395500,1.6593955078125,-0.10328157246112823,-0.026964526623487473,0.08998749405145645
1761478522723430400,1.669430419921875,-0.06274136900901794,0.06874661147594452,0.016117457300424576
1761478522733466400,1.67946630859375,-0.018992830067873,0.19008848071098328,-0.0721849724650383
1761478522743502300,1.68950244140625,0.04284316301345825,0.3288286328315735,-0.1777157336473465
1761478522753538300,1.699538330078125,0.13080763816833496,0.4513004720211029,-0.2811976373195648
1761478522763574300,1.70957421875,0.2153971940279007,0.4821239411830902,-0.35037460923194885
1761478522773610200,1.7196103515625,0.2434658408164978,0.41456276178359985,-0.37075790762901306
1761478522783645400,1.7296455078125,0.21610209345817566,0.28874456882476807,-0.32017460465431213
1761478522793681400,1.739681396484375,0.16008542478084564,0.15329568088054657,-0.2186405062675476
1761478522803717400,1.74971728515625,0.09082892537117004,0.057943426072597504,-0.08250855654478073
1761478522813753300,1.75975341796875,0.02294974774122238,-0.013957928866147995,0.07288476079702377
1761478522823789300,1.769789306640625,-0.026106910780072212,-0.061133041977882385,0.20517708361148834
1761478522833825300,1.7798251953125,-0.042302925139665604,-0.08734041452407837,0.3132452368736267
1761478522843861200,1.789861328125,-0.023073365911841393,-0.12817758321762085,0.3905165493488312
1761478522853896400,1.799896484375,0.031063904985785484,-0.16324102878570557,0.42925700545310974
1761478522863932400,1.809932373046875,0.09486261010169983,-0.1960085779428482,0.4341621994972229
1761478522873968400,1.819968505859375,0.155781090259552,-0.2248130738735199,0.4197249412536621
1761478522884004400,1.83000439453125,0.2111768275499344,-0.23023711144924164,0.39408472180366516
1761478522894040300,1.840040283203125,0.24291451275348663,-0.214105024933815,0.3713487982749939
1761478522904076300,1.850076171875,0.2577904164791107,-0.1763039529323578,0.3389049470424652
1761478522914111500,1.860111572265625,0.24808664619922638,-0.1255536824464798,0.3038193881511688
1761478522924147500,1.8701474609375,0.21959556639194489,-0.08130244165658951,0.265408456325531
1761478522934183400,1.880183349609375,0.18958361446857452,-0.062986820936203,0.20884102582931519
1761478522944219400,1.890219482421875,0.16295722126960754,-0.05574066564440727,0.14233523607254028
1761478522954255400,1.90025537109375,0.14664508402347565,-0.07118753343820572,0.08101195842027664
1761478522964291300,1.910291259765625,0.13312776386737823,-0.08750145137310028,0.023824401199817657
1761478522974326300,1.920326171875,0.1096607893705368,-0.08917498588562012,-0.015541379339993
1761478522984362200,1.9303623046875,0.10453268885612488,-0.0674389898777008,-0.04006979241967201
1761478522994398500,1.9403984375,0.0927085131406784,-0.04505724832415581,-0.04868538677692413
1761478523004434400,1.950434326171875,0.0546044260263443,-0.02242404595017433,-0.05889872834086418
1761478523014470400,1.960470458984375,0.004799052141606808,0.013997611589729786,-0.06650471687316895
1761478523024506400,1.97050634765625,-0.03727120906114578,0.03247547894716263,-0.087418332695961
1761478523034541300,1.980541259765625,-0.057450782507658005,0.041839685291051865,-0.10940965265035629
1761478523044577300,1.990577392578125,-0.07421424984931946,0.05651814490556717,-0.12131533026695251
1761478523054613200,2.00061328125,-0.08964087814092636,0.059075310826301575,-0.1266309916973114
1761478523064649000,2.01064892578125,-0.10405927896499634,0.06590363383293152,-0.11461228877305984
1761478523074685000,2.020684814453125,-0.10789183527231216,0.05811282619833946,-0.08343865722417831
1761478523084721000,2.030720947265625,-0.08894887566566467,0.055016860365867615,-0.05147620663046837
1761478523094755800,2.040755859375,-0.05518798530101776,0.06275679916143417,-0.018177639693021774
1761478523104791800,2.050791748046875,-0.017420899122953415,0.07541294395923615,0.009082211181521416
1761478523114827800,2.060827880859375,0.002706474158912897,0.08109186589717865,0.030005602166056633
1761478523124863700,2.07086376953125,0.013109765946865082,0.07807382196187973,0.03742155432701111
1761478523134900000,2.08089990234375,0.015048547647893429,0.07148382812738419,0.026997938752174377
1761478523144936000,2.09093603515625,-0.004878969397395849,0.0714484229683876,-0.00005480530671775341
1761478523154972000,2.100971923828125,-0.00977439247071743,0.06462061405181885,-0.032317403703927994
1761478523165006800,2.1110068359375,0.004201323725283146,0.06151246279478073,-0.049909088760614395
1761478523175042800,2.121042724609375,0.03464312106370926,0.05755633860826492,-0.058514561504125595
1761478523185078800,2.131078857421875,0.07781493663787842,0.0721738338470459,-0.06516700983047485
1761478523195114800,2.14111474609375,0.1293870508670807,0.08464808017015457,-0.07884261012077332
1761478523205150700,2.151150634765625,0.16040314733982086,0.09298495948314667,-0.09009440243244171
1761478523215187000,2.16118701171875,0.1677928864955902,0.07898152619600296,-0.101495660841465
1761478523225222000,2.171221923828125,0.14562354981899261,0.05791979655623436,-0.11968085169792175
1761478523235257900,2.1812578125,0.1044769138097763,0.052842747420072556,-0.13114656507968903
1761478523245293800,2.1912939453125,0.03656824678182602,0.0501597635447979,-0.15060852468013763
1761478523255329800,2.201329833984375,-0.02107268013060093,0.04699592664837837,-0.17842763662338257
1761478523265365800,2.21136572265625,-0.05318964272737503,0.05756412446498871,-0.19825686514377594
1761478523275401700,2.221401611328125,-0.07114068418741226,0.060743674635887146,-0.20389318466186523
1761478523285437000,2.23143701171875,-0.07560708373785019,0.06388551741838455,-0.19329071044921875
1761478523295473000,2.241472900390625,-0.0734320804476738,0.0567660853266716,-0.17617617547512054
1761478523305508900,2.2515087890625,-0.10065269470214844,0.04245547577738762,-0.1581626683473587
1761478523315544800,2.261544921875,-0.15722861886024475,0.02909652516245842,-0.14871937036514282
1761478523325580800,2.271580810546875,-0.2044304758310318,0.032617226243019104,-0.14262285828590393
1761478523335616800,2.28161669921875,-0.22697733342647552,0.04203283041715622,-0.1568467915058136
1761478523345652700,2.29165283203125,-0.21767587959766388,0.039787642657756805,-0.18896685540676117
1761478523355688000,2.30168798828125,-0.19113507866859436,0.03883529454469681,-0.22466333210468292
1761478523365724000,2.311723876953125,-0.17628265917301178,0.03873324394226074,-0.23355798423290253
1761478523375760000,2.321759765625,-0.17204689979553223,0.031952038407325745,-0.23503178358078003
1761478523385795800,2.3317958984375,-0.16129113733768463,0.029981132596731186,-0.22848527133464813
1761478523395831800,2.341831787109375,-0.14627596735954285,0.01379124540835619,-0.2081403285264969
1761478523405867800,2.35186767578125,-0.13546735048294067,0.008973593823611736,-0.1703149676322937
1761478523415903000,2.361903076171875,-0.11717221885919571,0.0004189882893115282,-0.13174866139888763
1761478523425939000,2.37193896484375,-0.11591644585132599,-0.0038266589399427176,-0.09178370982408524
1761478523435975000,2.381974853515625,-0.11509247124195099,-0.004575806669890881,-0.066752128303051
1761478523446011000,2.392010986328125,-0.10684237629175186,0.0039636846631765366,-0.06340545415878296
1761478523456046800,2.402046875,-0.09155023843050003,0.015644308179616928,-0.07350549101829529
1761478523466082800,2.412082763671875,-0.07865791767835617,0.028932474553585052,-0.09169549494981766
1761478523476117800,2.42211767578125,-0.06749420613050461,0.03151840344071388,-0.11550308763980865
1761478523486153700,2.43215380859375,-0.05558576434850693,0.027614224702119827,-0.1279582381248474
1761478523496190000,2.44218994140625,-0.04441646486520767,0.01721644401550293,-0.11604885756969452
1761478523506226000,2.452225830078125,-0.042569950222969055,0.023697763681411743,-0.10102427750825882
1761478523516262000,2.462261962890625,-0.04158191755414009,0.04587337747216225,-0.07896079123020172
1761478523526297900,2.4722978515625,-0.042478736490011215,0.07565293461084366,-0.07096521556377411
1761478523536333800,2.482333740234375,-0.03703736513853073,0.09884640574455261,-0.07581882178783417
1761478523546368800,2.49236865234375,-0.028071677312254906,0.12384466081857681,-0.09901203215122223
1761478523556404700,2.50240478515625,-0.02305508218705654,0.13134944438934326,-0.12586627900600433
1761478523566440700,2.512440673828125,-0.020583024248480797,0.12680941820144653,-0.14829988777637482
1761478523576477000,2.522476806640625,-0.014076922088861465,0.10427427291870117,-0.170719712972641
1761478523586513000,2.532512939453125,-0.012429355643689632,0.08977220207452774,-0.17507395148277283
1761478523596548900,2.542548828125,-0.005169045180082321,0.09131470322608948,-0.1579919159412384
1761478523606583800,2.552583740234375,-0.0004017953760921955,0.10265658050775528,-0.12133859843015671
1761478523616619800,2.562619873046875,-0.0006915475241839886,0.12062440067529678,-0.06807058304548264
1761478523626655700,2.57265576171875,-0.007680271286517382,0.11989165842533112,-0.02987838350236416
1761478523636691700,2.582691650390625,-0.01655179262161255,0.10832661390304565,-0.011708433739840984
1761478523646727700,2.592727783203125,-0.029968135058879852,0.08183038979768753,-0.01940792426466942
1761478523656764000,2.602763916015625,-0.04379979521036148,0.05011347308754921,-0.039183493703603745
1761478523666798800,2.612798828125,-0.059077151119709015,0.023300860077142715,-0.06219722703099251
1761478523676834800,2.622834716796875,-0.07117216289043427,-0.006125736981630325,-0.0756073147058487
1761478523686870800,2.632870849609375,-0.06870035082101822,-0.025789814069867134,-0.0772685632109642
1761478523696906800,2.64290673828125,-0.05655553564429283,-0.05421639233827591,-0.05857237055897713
1761478523706942700,2.652942626953125,-0.034992557018995285,-0.08199381828308105,-0.04032951965928078
1761478523716978700,2.662978759765625,-0.035292427986860275,-0.1034434512257576,-0.02300911769270897
1761478523727014700,2.6730146484375,-0.055550191551446915,-0.10328487306833267,0.0042896815575659275
1761478523737049900,2.6830498046875,-0.0997549369931221,-0.0881703644990921,0.03450803831219673
1761478523747085800,2.6930859375,-0.13113071024417877,-0.0781259834766388,0.06134045124053955
1761478523757121800,2.703121826171875,-0.13208146393299103,-0.08699245005846024,0.06805747747421265
1761478523767157800,2.71315771484375,-0.11015235632658005,-0.11365579068660736,0.048191845417022705
1761478523777193700,2.72319384765625,-0.09939238429069519,-0.14004984498023987,0.019135156646370888
1761478523787229700,2.733229736328125,-0.10096096992492676,-0.15061615407466888,-0.005791809409856796
1761478523797265000,2.743264892578125,-0.1176651120185852,-0.14098110795021057,-0.01237248070538044
1761478523807300900,2.75330078125,-0.13645529747009277,-0.13330578804016113,0.0009942585602402687
1761478523817336800,2.7633369140625,-0.14659127593040466,-0.1287887990474701,0.016042716801166534
1761478523827372800,2.773372802734375,-0.1564817875623703,-0.1270085871219635,0.03456267714500427
1761478523837408800,2.78340869140625,-0.16083206236362457,-0.13326087594032288,0.04169701784849167
1761478523847444700,2.79344482421875,-0.17127184569835663,-0.1305377334356308,0.03565360978245735
1761478523857480000,2.80347998046875,-0.19110333919525146,-0.12507052719593048,0.018716702237725258
1761478523867516000,2.813515869140625,-0.21948066353797913,-0.13382937014102936,0.00696133729070425
1761478523877551900,2.8235517578125,-0.250495582818985,-0.14530865848064423,0.005772768519818783
1761478523887587800,2.833587890625,-0.2761809229850769,-0.157382532954216,0.014008522033691406
1761478523897623800,2.843623779296875,-0.2944480776786804,-0.15674416720867157,0.03233213722705841
1761478523907660000,2.853659912109375,-0.3086761236190796,-0.13981901109218597,0.061923135071992874
1761478523917694700,2.86369482421875,-0.3081107437610626,-0.12391486018896103,0.0874580591917038
1761478523927730700,2.873730712890625,-0.30042707920074463,-0.12811148166656494,0.09772102534770966
1761478523937767000,2.883766845703125,-0.2943505346775055,-0.14783431589603424,0.09152624756097794
1761478523947803000,2.893802978515625,-0.29484736919403076,-0.1766619235277176,0.08742926269769669
1761478523957838800,2.9038388671875,-0.311527818441391,-0.20312175154685974,0.09171162545681
1761478523967875000,2.913875,-0.33452826738357544,-0.21417531371116638,0.09633094817399979
1761478523977911000,2.9239111328125,-0.3511410653591156,-0.19110727310180664,0.0889047235250473
1761478523987945700,2.93394580078125,-0.36379507184028625,-0.10721412301063538,0.06180240958929062
1761478523997981700,2.943981689453125,-0.3429635763168335,0.015313917770981789,0.0073910984210669994
1761478524008017700,2.954017578125,-0.29817602038383484,0.05498430132865906,-0.05352778732776642
1761478524018054000,2.964053955078125,-0.24238120019435883,0.011304731480777264,-0.11627372354269028
1761478524028090000,2.974090087890625,-0.17158709466457367,-0.07022539526224136,-0.1567237824201584
1761478524038126000,2.9841259765625,-0.11289820820093155,-0.134442999958992,-0.14951087534427643
1761478524048160800,2.994160888671875,-0.08297308534383774,-0.14055751264095306,-0.0979202389717102
1761478524058196700,3.00419677734375,-0.05356140434741974,-0.11814913898706436,0.0009624005178920925
1761478524068233500,3.0142333984375,-0.01953345537185669,-0.05460576340556145,0.11341413110494614
1761478524078269400,3.02426953125,0.017740147188305855,-0.008688605390489101,0.20578640699386597
1761478524088305700,3.0343056640625,0.04102446883916855,0.014355936087667942,0.2440268099308014
1761478524098341600,3.044341552734375,0.05341322720050812,0.013789481483399868,0.23462052643299103
1761478524108376600,3.05437646484375,0.03811704367399216,-0.0036124323960393667,0.18552368879318237
1761478524118412500,3.06441259765625,0.004612347111105919,-0.03694934770464897,0.12175934761762619
1761478524128448500,3.074448486328125,-0.03415340557694435,-0.08904195576906204,0.04248328506946564
1761478524138484500,3.084484375,-0.07108612358570099,-0.12672755122184753,-0.027216168120503426
1761478524148520700,3.094520751953125,-0.10882125794887543,-0.12557625770568848,-0.06380027532577515
1761478524158556700,3.104556640625,-0.12279725074768066,-0.11065936833620071,-0.07273198664188385
1761478524168592600,3.114592529296875,-0.13457387685775757,-0.07798532396554947,-0.06229231134057045
1761478524178627600,3.124627685546875,-0.14069941639900208,-0.04362974688410759,-0.04033774137496948
1761478524188663600,3.13466357421875,-0.1521187275648117,0.008126492612063885,-0.022893311455845833
1761478524198699800,3.14469970703125,-0.1680644005537033,0.04995916038751602,-0.019850915297865868
1761478524208735700,3.15473583984375,-0.1758575439453125,0.05344294384121895,-0.033436305820941925
1761478524218771700,3.164771728515625,-0.1734689623117447,0.03966028615832329,-0.051616109907627106
1761478524228807700,3.1748076171875,-0.16856107115745544,0.006561352871358395,-0.07429125159978867
1761478524238842400,3.18484228515625,-0.1627143770456314,-0.004925393499433994,-0.08815407007932663
1761478524248878600,3.194878662109375,-0.17801959812641144,0.019210971891880035,-0.07918589562177658
1761478524258914800,3.204914794921875,-0.2149648368358612,0.038756709545850754,-0.05591386556625366
1761478524268950800,3.21495068359375,-0.2708396017551422,0.09107323735952377,-0.021069681271910667
1761478524278986800,3.22498681640625,-0.32120370864868164,0.13187898695468903,0.012652861885726452
1761478524289022700,3.235022705078125,-0.3332419693470001,0.12413164228200912,0.037643663585186005
1761478524299058700,3.24505859375,-0.3017210364341736,0.08752675354480743,0.057689279317855835
1761478524309093600,3.25509375,-0.26049289107322693,0.0472986102104187,0.07384258508682251
1761478524319129600,3.265129638671875,-0.20970003306865692,0.005433454178273678,0.07958036661148071
1761478524329165800,3.275165771484375,-0.16599108278751373,-0.016986986622214317,0.08309013396501541
1761478524339201800,3.285201904296875,-0.1507234424352646,-0.02229653112590313,0.08114096522331238
1761478524349237800,3.29523779296875,-0.15758666396141052,-0.027816947549581528,0.0663907453417778
1761478524359273700,3.305273681640625,-0.17399412393569946,-0.04653150960803032,0.050001390278339386
1761478524369308700,3.31530859375,-0.18744976818561554,-0.052033040672540665,0.044023752212524414
1761478524379344600,3.3253447265625,-0.18883994221687317,-0.0538162924349308,0.04711994156241417
1761478524389380600,3.335380615234375,-0.18117932975292206,-0.04132023826241493,0.055999092757701874
1761478524399416600,3.34541650390625,-0.16780893504619598,-0.043791916221380234,0.061196520924568176
1761478524409452800,3.355452880859375,-0.13863591849803925,-0.07000181823968887,0.0663134902715683
1761478524419488800,3.36548876953125,-0.09791857749223709,-0.08959735929965973,0.07369870692491531
1761478524429523700,3.375523681640625,-0.05032678321003914,-0.08281468600034714,0.07360818237066269
1761478524439559700,3.3855595703125,-0.028656374663114548,-0.035487912595272064,0.06275712698698044
1761478524449595600,3.395595703125,-0.0375983789563179,0.019827954471111298,0.032212696969509125
1761478524459631600,3.405631591796875,-0.07526559382677078,0.06972414255142212,-0.001747136120684445
1761478524469667600,3.41566748046875,-0.1068451851606369,0.09067534655332565,-0.03664721921086311
1761478524479703600,3.42570361328125,-0.11309430003166199,0.057890236377716064,-0.055667515844106674
1761478524489738800,3.43573876953125,-0.10171681642532349,0.034852221608161926,-0.04910079389810562
1761478524499774700,3.445774658203125,-0.07317225635051727,0.02543528378009796,-0.018549542874097824
1761478524509810700,3.455810791015625,-0.04101141542196274,0.0329594612121582,0.021727869287133217
1761478524519846700,3.4658466796875,-0.014956912025809288,0.034828733652830124,0.04306165128946304
1761478524529882600,3.475882568359375,0.005903427489101887,0.015634261071681976,0.05127968266606331
1761478524539918600,3.485918701171875,0.027181552723050117,-0.017354581505060196,0.03728237375617027
1761478524549954600,3.49595458984375,0.04225490987300873,-0.03295794874429703,0.024727141484618187
1761478524559989800,3.50598974609375,0.04751438647508621,-0.048584312200546265,0.020192310214042664
1761478524570025700,3.516025634765625,0.04681062698364258,-0.059268977493047714,0.02505349926650524
1761478524580061700,3.526061767578125,0.03968534246087074,-0.0789787694811821,0.03361529856920242
1761478524590097700,3.53609765625,0.04113217815756798,-0.10497371852397919,0.045828890055418015
1761478524600133600,3.546133544921875,0.046218812465667725,-0.11543861031532288,0.07945156842470169
1761478524610169600,3.556169677734375,0.06399373710155487,-0.11417101323604584,0.12321598827838898
1761478524620204800,3.566204833984375,0.08810307085514069,-0.10109143704175949,0.16419750452041626
1761478524630240800,3.57624072265625,0.10892973095178604,-0.05771050602197647,0.19228380918502808
1761478524640276700,3.58627685546875,0.14570771157741547,-0.02291603945195675,0.18243543803691864
1761478524650312700,3.596312744140625,0.19919835031032562,-0.04574691504240036,0.14241530001163483
1761478524660348700,3.6063486328125,0.23855693638324738,-0.09159057587385178,0.061530839651823044
1761478524670384600,3.616384521484375,0.24200943112373352,-0.1426112949848175,-0.05034707486629486
1761478524680419600,3.626419677734375,0.19521556794643402,-0.15239575505256653,-0.18025153875350952
1761478524690455600,3.63645556640625,0.10925453901290894,-0.1385248899459839,-0.2661105990409851
1761478524700491800,3.64649169921875,0.006753468420356512,-0.0763363465666771,-0.289281964302063
1761478524710527700,3.65652783203125,-0.04045671224594116,-0.05588063597679138,-0.2827805280685425
1761478524720563700,3.666563720703125,-0.04055790603160858,-0.046807512640953064,-0.23673127591609955
1761478524730599700,3.676599609375,-0.04251999035477638,-0.0029714382253587246,-0.19409936666488647
1761478524740635600,3.6866357421875,-0.05455987527966499,0.032691750675439835,-0.14752255380153656
1761478524750670600,3.696670654296875,-0.08152063190937042,0.08498813211917877,-0.08790970593690872
1761478524760706600,3.70670654296875,-0.12100227177143097,0.10446888953447342,-0.039129115641117096
1761478524770742500,3.716742431640625,-0.14652827382087708,0.0842176228761673,-0.017177889123558998
1761478524780778800,3.72677880859375,-0.1706618368625641,0.06110776960849762,-0.034372322261333466
1761478524790814700,3.736814697265625,-0.178599551320076,0.04335260018706322,-0.06954941153526306
1761478524800850700,3.7468505859375,-0.17412064969539642,0.02621941827237606,-0.10944169759750366
1761478524810885600,3.7568857421875,-0.15471608936786652,0.025872280821204185,-0.12744364142417908
1761478524820921600,3.766921630859375,-0.12836171686649323,0.04363050311803818,-0.12640607357025146
1761478524830957600,3.77695751953125,-0.09568558633327484,0.05263436213135719,-0.11804840713739395
1761478524840993500,3.78699365234375,-0.06740254908800125,0.06257061660289764,-0.10584153980016708
1761478524851029800,3.79702978515625,-0.05722492188215256,0.0717376321554184,-0.09294155240058899
1761478524861065700,3.807065673828125,-0.0467698872089386,0.07115387171506882,-0.08020178973674774
1761478524871100700,3.8171005859375,-0.04281482473015785,0.08064404129981995,-0.05991516634821892
1761478524881136600,3.82713671875,-0.037485308945178986,0.1107577383518219,-0.04139075055718422
1761478524891172600,3.837172607421875,-0.01703782007098198,0.1330583244562149,-0.027216285467147827
1761478524901208600,3.84720849609375,0.007036089897155762,0.1454486846923828,-0.025398412719368935
1761478524911244500,3.85724462890625,0.030529867857694626,0.1427040696144104,-0.04001006484031677
1761478524921280500,3.867280517578125,0.0503389909863472,0.13514229655265808,-0.06052226573228836
1761478524931316700,3.877316650390625,0.0648239478468895,0.11803510040044785,-0.07289758324623108
1761478524941351700,3.8873515625,0.06753078103065491,0.08986258506774902,-0.0809834748506546
1761478524951387600,3.8973876953125,0.05318864807486534,0.07493691891431808,-0.07065799832344055
1761478524961423600,3.907423583984375,0.036667730659246445,0.10139276087284088,-0.03308931738138199
1761478524971459600,3.91745947265625,0.0271180160343647,0.12926967442035675,0.02191152796149254
1761478524981495600,3.92749560546875,0.022048424929380417,0.13716648519039154,0.06555834412574768
1761478524991531500,3.937531494140625,0.025051536038517952,0.14088808000087738,0.08624628186225891
1761478525001566700,3.947566650390625,0.036207783967256546,0.12528914213180542,0.08130558580160141
1761478525011602700,3.957602783203125,0.03447169065475464,0.08524609357118607,0.06303061544895172
1761478525021638700,3.967638671875,0.03581685200333595,0.025241881608963013,0.031272418797016144
1761478525031674600,3.977674560546875,0.04149632900953293,-0.010231719352304935,-0.0002736188471317291
1761478525041710600,3.987710693359375,0.040207888931035995,-0.0033897922839969397,-0.005882236175239086
1761478525051746600,3.99774658203125,0.025553274899721146,0.0096794618293643,0.0072555942460894585
1761478525061781800,4.00778173828125,0.0054253702983260155,0.033095572143793106,0.04554972052574158
1761478525071817700,4.017817626953125,0.009764458984136581,0.05488262698054314,0.0911150798201561
1761478525081853700,4.027853759765625,0.04435066506266594,0.04707689955830574,0.1253822296857834
1761478525091889700,4.0378896484375,0.08916221559047699,0.03733842819929123,0.14735041558742523
1761478525101925600,4.047925537109375,0.13984057307243347,0.027684733271598816,0.1628473550081253
1761478525111961600,4.057961669921875,0.1656414121389389,0.051697034388780594,0.1875939965248108
1761478525121996500,4.06799658203125,0.17272648215293884,0.07947326451539993,0.20343394577503204
1761478525132032500,4.078032470703125,0.16564282774925232,0.06871204078197479,0.2049989253282547
1761478525142068700,4.08806884765625,0.14998742938041687,0.04311160370707512,0.1899227648973465
1761478525152104700,4.098104736328125,0.1390002816915512,-0.006894195917993784,0.14820849895477295
1761478525162140700,4.108140625,0.13639011979103088,-0.04824882745742798,0.09910672903060913
1761478525172177000,4.118177001953125,0.14436358213424683,-0.03399031236767769,0.06501244008541107
1761478525182211600,4.128211669921875,0.18075141310691833,0.06021980941295624,0.02589247189462185
1761478525192247600,4.13824755859375,0.26631829142570496,0.22698743641376495,-0.032428279519081116
1761478525202283500,4.148283447265625,0.39662250876426697,0.41384759545326233,-0.09981930255889893
1761478525212319500,4.158319580078125,0.5194733142852783,0.5657916069030762,-0.1622503250837326
1761478525222355700,4.168355712890625,0.5940700173377991,0.6117393970489502,-0.195227712392807
1761478525232392000,4.178391845703125,0.5628387928009033,0.5396764874458313,-0.1549418419599533
1761478525242428000,4.188427978515625,0.44927525520324707,0.38881826400756836,-0.046941328793764114
1761478525252462600,4.198462646484375,0.30691465735435486,0.2357417792081833,0.08664986491203308
1761478525262498600,4.20849853515625,0.17229825258255005,0.09838738292455673,0.21184054017066956
1761478525272534500,4.218534423828125,0.0798615962266922,-0.03081018291413784,0.3065379559993744
1761478525282570800,4.22857080078125,0.04272142052650452,-0.12273265421390533,0.3829890489578247
1761478525292606700,4.238606689453125,0.05510083958506584,-0.17803680896759033,0.4307689666748047
1761478525302643000,4.248642822265625,0.09999054670333862,-0.20190300047397614,0.45720934867858887
1761478525312677600,4.258677734375,0.16068720817565918,-0.20278364419937134,0.4632840156555176
1761478525322713600,4.268713623046875,0.21442022919654846,-0.1927749514579773,0.44499313831329346
1761478525332749600,4.27874951171875,0.2517681121826172,-0.18803167343139648,0.40490880608558655
1761478525342785800,4.288785888671875,0.26832151412963867,-0.16537350416183472,0.36007341742515564
1761478525352821800,4.29882177734375,0.2650563418865204,-0.13884438574314117,0.31301000714302063
1761478525362857700,4.308857666015625,0.24520644545555115,-0.10358812659978867,0.262474924325943
1761478525372892700,4.318892578125,0.21967507898807526,-0.06372072547674179,0.21333472430706024
1761478525382928600,4.3289287109375,0.1996598243713379,-0.04346871003508568,0.1396876573562622
1761478525392964900,4.33896484375,0.1876712590456009,-0.03278292715549469,0.06861893087625504
1761478525403000800,4.349000732421875,0.18726672232151031,0.0000860709697008133,-0.0002264510840177536
1761478525413036800,4.359036865234375,0.18223652243614197,0.03502517566084862,-0.0530104786157608
1761478525423072800,4.36907275390625,0.16604450345039368,0.051325321197509766,-0.10008877515792847
1761478525433107700,4.379107666015625,0.1590493619441986,0.06211823970079422,-0.14254285395145416
1761478525443143700,4.389143798828125,0.1772874891757965,0.0707508772611618,-0.16942985355854034
1761478525453180000,4.399179931640625,0.2040989100933075,0.09328576922416687,-0.176890566945076
1761478525463215900,4.4092158203125,0.21100129187107086,0.10518743842840195,-0.16818523406982422
1761478525473251800,4.419251953125,0.196479931473732,0.11718800663948059,-0.14981216192245483
1761478525483287800,4.429287841796875,0.154241144657135,0.12510983645915985,-0.12250357121229172
1761478525493323800,4.43932373046875,0.1013343557715416,0.12512549757957458,-0.08982512354850769
1761478525503358700,4.449358642578125,0.0662035346031189,0.12514972686767578,-0.05244579538702965
1761478525513395000,4.45939501953125,0.05941789969801903,0.12935809791088104,-0.014797748066484928
1761478525523431000,4.469430908203125,0.09309384226799011,0.14565424621105194,0.01437185425311327
1761478525533467000,4.479466796875,0.13710492849349976,0.13634264469146729,0.04826028645038605
1761478525543502800,4.4895029296875,0.15694494545459747,0.1069519966840744,0.08031569421291351
1761478525553538800,4.499538818359375,0.15726648271083832,0.08414792269468307,0.08775496482849121
1761478525563573800,4.50957373046875,0.14195384085178375,0.08718685805797577,0.06394391506910324
1761478525573609700,4.519609619140625,0.14326511323451996,0.12697619199752808,0.023112710565328598
1761478525583645700,4.529645751953125,0.17598630487918854,0.1654258519411087,-0.017955362796783447
1761478525593682000,4.539681884765625,0.2377396821975708,0.18001723289489746,-0.04586641117930412
1761478525603718000,4.5497177734375,0.2965896725654602,0.16988816857337952,-0.04784886911511421
1761478525613753900,4.55975390625,0.34265631437301636,0.15504859387874603,-0.02401737868785858
1761478525623788800,4.569788818359375,0.34602946043014526,0.13116802275180817,0.021217208355665207
1761478525633824800,4.57982470703125,0.31994864344596863,0.10321544110774994,0.06917256861925125
1761478525643860700,4.58986083984375,0.279653400182724,0.05049922689795494,0.10636893659830093
1761478525653896700,4.599896728515625,0.24056363105773926,-0.015118698589503765,0.11987856030464172
1761478525663933000,4.609932861328125,0.19859327375888824,-0.0690852627158165,0.10043589770793915
1761478525673969000,4.619968994140625,0.14780348539352417,-0.10903999209403992,0.06119601055979729
1761478525684003800,4.63000390625,0.0902581587433815,-0.12252756208181381,0.02938242256641388
1761478525694039800,4.640039794921875,0.031237034127116203,-0.1155853122472763,0.034583963453769684
1761478525704075800,4.65007568359375,-0.008781488984823227,-0.09971872717142105,0.06950759142637253
1761478525714111700,4.66011181640625,-0.03387957811355591,-0.08134984225034714,0.11623786389827728
1761478525724147700,4.670147705078125,-0.04267892986536026,-0.046634476631879807,0.15160782635211945
1761478525734183700,4.68018359375,-0.03334570676088333,-0.02784557268023491,0.1750871241092682
1761478525744219000,4.690218994140625,-0.00855221040546894,-0.02044837549328804,0.16836637258529663
1761478525754254800,4.7002548828125,0.024228619411587715,-0.019989751279354095,0.11755973100662231
1761478525764290800,4.710290771484375,0.04882530868053436,-0.018677344545722008,0.036212947219610214
1761478525774326800,4.720326904296875,0.06282545626163483,-0.006707918364554644,-0.05641382932662964
1761478525784362800,4.73036279296875,0.06131890416145325,0.0038520481903105974,-0.13312910497188568
1761478525794398700,4.740398681640625,0.042680539190769196,0.013883160427212715,-0.18054033815860748
1761478525804434700,4.7504345703125,0.015215892344713211,0.02077062800526619,-0.18762461841106415
1761478525814470000,4.760469970703125,-0.011865716427564621,0.02559501677751541,-0.16375699639320374
1761478525824505900,4.770505859375,-0.05685396492481232,0.007998978719115257,-0.12455899268388748
1761478525834541800,4.780541748046875,-0.09930368512868881,0.004621556960046291,-0.0985228642821312
1761478525844577800,4.790577880859375,-0.13626383244991302,0.02311694622039795,-0.09171795099973679
1761478525854613800,4.80061376953125,-0.15716761350631714,0.05543036758899689,-0.10732381790876389
1761478525864649700,4.810649658203125,-0.16353122889995575,0.08768177777528763,-0.14221441745758057
1761478525874685000,4.820684814453125,-0.1402183324098587,0.0967673510313034,-0.17603564262390137
1761478525884721000,4.830720947265625,-0.10310027003288269,0.06987208873033524,-0.1889442503452301
1761478525894756900,4.8407568359375,-0.07414929568767548,0.03537560626864433,-0.18689638376235962
1761478525904792800,4.850792724609375,-0.07246696949005127,0.0004682210274040699,-0.16103948652744293
1761478525914828800,4.860828857421875,-0.10733313858509064,-0.024317201226949692,-0.12184092402458191
1761478525924864800,4.87086474609375,-0.15324550867080688,-0.030153784900903702,-0.07789051532745361
1761478525934899700,4.880899658203125,-0.17948396503925323,-0.035326261073350906,-0.03216831386089325
1761478525944935700,4.890935791015625,-0.16012385487556458,-0.020977683365345,0.014780017547309399
1761478525954972000,4.900971923828125,-0.10882290452718735,-0.00494102668017149,0.04087560623884201
1761478525965008000,4.9110078125,-0.03591727465391159,0.021759293973445892,0.04407406598329544
1761478525975043800,4.9210439453125,0.02622617967426777,0.04722250625491142,0.028186075389385223
1761478525985079800,4.931079833984375,0.06861065328121185,0.0400354340672493,0.0027089458890259266
1761478525995115800,4.94111572265625,0.08257798850536346,0.018590154126286507,-0.026060426607728004
1761478526005150700,4.951150634765625,0.0700097307562828,0.016048965975642204,-0.04837265610694885
1761478526015186700,4.961186767578125,0.058853764086961746,0.011720608919858932,-0.06153445690870285
1761478526025222700,4.97122265625,0.034061335027217865,0.0005531758069992065,-0.06166522204875946
1761478526035259000,4.9812587890625,0.011108552105724812,-0.008829587139189243,-0.05337958037853241
1761478526045294800,4.991294921875,-0.025294197723269463,-0.03785618022084236,-0.03567967936396599
1761478526055330800,5.001330810546875,-0.07402926683425903,-0.0613400898873806,-0.016200369223952293
1761478526065365000,5.011364990234375,-0.11375457048416138,-0.06814473122358322,-0.00312238372862339
1761478526075401000,5.02140087890625,-0.12879404425621033,-0.08434438705444336,0.002365597989410162
1761478526085437200,5.031437255859375,-0.12501022219657898,-0.09332190454006195,-0.008419672027230263
1761478526095473200,5.04147314453125,-0.12411844730377197,-0.08768667280673981,-0.019346261397004128
1761478526105509000,5.051509033203125,-0.12137699127197266,-0.0762806236743927,-0.02598339132964611
1761478526115545000,5.061545166015625,-0.11195921897888184,-0.06546033173799515,-0.03177627921104431
1761478526125580000,5.071580078125,-0.10752851516008377,-0.05890576168894768,-0.031609565019607544
1761478526135616000,5.081615966796875,-0.1037319153547287,-0.05137932300567627,-0.04618046432733536
1761478526145652000,5.09165185546875,-0.10045968741178513,-0.0333917997777462,-0.07873494178056717
1761478526155688000,5.10168798828125,-0.11391390860080719,-0.020271291956305504,-0.11184976249933243
1761478526165724200,5.11172412109375,-0.13528762757778168,-0.011521740816533566,-0.12734882533550262
1761478526175760100,5.121760009765625,-0.1538146436214447,-0.031324323266744614,-0.11762946844100952
1761478526185795000,5.131795166015625,-0.15806078910827637,-0.06668709963560104,-0.09085298329591751
1761478526195831000,5.1418310546875,-0.13880111277103424,-0.08519138395786285,-0.05258301645517349
1761478526205867000,5.151866943359375,-0.10167159885168076,-0.08059076964855194,-0.003314804285764694
1761478526215903000,5.161903076171875,-0.05902160704135895,-0.04958944767713547,0.046315066516399384
1761478526225939000,5.17193896484375,-0.04477928578853607,-0.011316892690956593,0.08519881218671799
1761478526235975000,5.181974853515625,-0.06295008957386017,0.010217593051493168,0.08751397579908371
1761478526246010000,5.192010009765625,-0.07822465151548386,-0.01112790871411562,0.07176004350185394
1761478526256046000,5.202046142578125,-0.08640816807746887,-0.06144805625081062,0.03486291691660881
1761478526266082000,5.21208203125,-0.07960458844900131,-0.11217434704303741,0.0071655092760920525
1761478526276118000,5.222117919921875,-0.060340799391269684,-0.14890246093273163,-0.0069097355008125305
1761478526286154000,5.232154052734375,-0.05098272114992142,-0.13571448624134064,-0.0191807821393013
1761478526296190000,5.24218994140625,-0.06156544014811516,-0.10121218860149384,-0.026347247883677483
1761478526306226000,5.252225830078125,-0.09580223262310028,-0.08276233822107315,-0.02091173641383648
1761478526316261000,5.26226123046875,-0.13781987130641937,-0.09156503528356552,-0.008018771186470985
1761478526326297000,5.272297119140625,-0.17332647740840912,-0.12406732141971588,-0.0019555529579520226
1761478526336333000,5.2823330078125,-0.20004062354564667,-0.17452207207679749,-0.006209037732332945
1761478526346369000,5.292369140625,-0.21532423794269562,-0.23338539898395538,0.002598834689706564
1761478526356405000,5.302405029296875,-0.23587541282176971,-0.2674201428890228,0.02608274109661579
1761478526366441000,5.31244091796875,-0.2651989459991455,-0.27008089423179626,0.06169746071100235
1761478526376476200,5.32247607421875,-0.30249857902526855,-0.2514241933822632,0.10514773428440094
1761478526386512100,5.33251220703125,-0.3375878632068634,-0.2046433836221695,0.1408705711364746
1761478526396548000,5.342548095703125,-0.34730592370033264,-0.13666841387748718,0.1335095763206482
1761478526406584000,5.352583984375,-0.31417885422706604,-0.0341297909617424,0.03245300054550171
1761478526416620000,5.3626201171875,-0.24868732690811157,0.05562466382980347,-0.10646425932645798
1761478526426656000,5.372656005859375,-0.19089727103710175,0.11100669205188751,-0.2516137361526489
1761478526436691000,5.38269091796875,-0.1412973701953888,0.12449865788221359,-0.36460304260253906
1761478526446727000,5.392726806640625,-0.09238949418067932,0.1364959329366684,-0.4215070903301239
1761478526456763100,5.40276318359375,-0.05560891702771187,0.15416434407234192,-0.4016410708427429
1761478526466799000,5.412799072265625,-0.07861596345901489,0.1986316740512848,-0.3163650333881378
1761478526476835000,5.4228349609375,-0.11666242778301239,0.25691142678260803,-0.21985135972499847
1761478526486871000,5.43287109375,-0.1146397590637207,0.3105786442756653,-0.14413556456565857
1761478526496906000,5.442906005859375,-0.06288404017686844,0.317087322473526,-0.0857674777507782
1761478526506942000,5.45294189453125,0.035506173968315125,0.22493210434913635,-0.0354158952832222
1761478526516978000,5.46297802734375,0.11964317411184311,0.04731478542089462,-0.01593027263879776
1761478526527014100,5.47301416015625,0.14834804832935333,-0.15106941759586334,-0.003466147929430008
1761478526537050000,5.483050048828125,0.13579286634922028,-0.27389365434646606,0.01933707483112812
1761478526547086000,5.493086181640625,0.09881887584924698,-0.3114902973175049,0.0830814316868782
1761478526557121000,5.50312109375,0.03931129723787308,-0.29831841588020325,0.16559812426567078
1761478526567157000,5.513156982421875,-0.018650002777576447,-0.2630262076854706,0.24434061348438263
1761478526577193000,5.52319287109375,-0.06770265102386475,-0.22407300770282745,0.30001649260520935
1761478526587229000,5.53322900390625,-0.08919569104909897,-0.20290060341358185,0.3244238495826721
1761478526597265000,5.543264892578125,-0.07360769808292389,-0.1909106820821762,0.3240024149417877
1761478526607301000,5.553301025390625,-0.04455234482884407,-0.19130270183086395,0.2927747368812561
1761478526617336000,5.563336181640625,-0.025681795552372932,-0.18849173188209534,0.22601400315761566
1761478526627372000,5.5733720703125,-0.0183759443461895,-0.15542112290859222,0.13928736746311188
1761478526637408000,5.583407958984375,-0.016315001994371414,-0.1087629571557045,0.0595090426504612
1761478526647444000,5.59344384765625,-0.02260938286781311,-0.06499151140451431,-0.0012086313217878342
1761478526657480000,5.60347998046875,-0.018909567967057228,-0.0468614436686039,-0.03556353226304054
1761478526667516000,5.613515869140625,-0.017738576978445053,-0.0478430837392807,-0.04829610511660576
1761478526677551900,5.6235517578125,-0.029173806309700012,-0.04650118201971054,-0.04365382716059685
1761478526687587000,5.633587158203125,-0.05850133299827576,-0.036845091730356216,-0.013902855105698109
1761478526697623000,5.643623046875,-0.09982206672430038,-0.008467440493404865,0.03643231838941574
1761478526707659000,5.653658935546875,-0.1394059658050537,0.019559666514396667,0.09048197418451309
1761478526717695000,5.663695068359375,-0.16531945765018463,0.04399657994508743,0.13820253312587738
1761478526727731000,5.67373095703125,-0.17798598110675812,0.06268531084060669,0.17834436893463135
1761478526737767000,5.683766845703125,-0.16585971415042877,0.0495709665119648,0.1875520497560501
1761478526747802000,5.693802001953125,-0.12600605189800262,-0.00029539340175688267,0.1784549504518509
1761478526757838000,5.703838134765625,-0.08077660202980042,-0.05863003432750702,0.15610654652118683
1761478526767874000,5.7138740234375,-0.04886634275317192,-0.10726787894964218,0.1238788366317749
1761478526777910000,5.723909912109375,-0.032718725502491,-0.11703591048717499,0.0969872996211052
1761478526787946000,5.733946044921875,-0.02869495563209057,-0.10808662325143814,0.0835130363702774
1761478526797982000,5.74398193359375,-0.03157016262412071,-0.05968589708209038,0.07861953973770142
1761478526808017000,5.754016845703125,-0.029721662402153015,-0.013605224899947643,0.08184702694416046
1761478526818053000,5.76405322265625,-0.013163132593035698,0.009184876456856728,0.08983511477708817
1761478526828089000,5.774089111328125,0.009469208307564259,-0.001361241564154625,0.09966244548559189
1761478526838125000,5.784125,0.03949271887540817,-0.015157703310251236,0.11115611344575882
1761478526848161000,5.7941611328125,0.07822280377149582,-0.03745688498020172,0.12399947643280029
1761478526858197000,5.804197021484375,0.10622049868106842,-0.08575822412967682,0.13893361389636993
1761478526868232000,5.81423193359375,0.10752571374177933,-0.12566836178302765,0.15634803473949432
1761478526878268000,5.824267822265625,0.09855206310749054,-0.14600682258605957,0.17213842272758484
1761478526888303900,5.834303955078125,0.08051794022321701,-0.14094148576259613,0.1757344901561737
1761478526898340000,5.844340087890625,0.06367762386798859,-0.13162609934806824,0.16314083337783813
1761478526908376000,5.8543759765625,0.05755634978413582,-0.1145392507314682,0.13639657199382782
1761478526918412000,5.864412109375,0.06303312629461288,-0.08819648623466492,0.11552605032920837
1761478526928447000,5.874447021484375,0.07704747468233109,-0.08535942435264587,0.10946788638830185
1761478526938483000,5.88448291015625,0.09409758448600769,-0.07674659788608551,0.0930299162864685
1761478526948519000,5.894518798828125,0.10558353364467621,-0.07460222393274307,0.06852830201387405
1761478526958555000,5.904554931640625,0.1001666784286499,-0.08126156777143478,0.05006339028477669
1761478526968590800,5.9145908203125,0.08226490765810013,-0.07006776332855225,0.018743816763162613
1761478526978627000,5.924626953125,0.062274593859910965,-0.043932799249887466,-0.024162322282791138
1761478526988663000,5.9346630859375,0.05581909418106079,-0.003168591996654868,-0.09190355241298676
1761478526998698000,5.944697998046875,0.08033058047294617,0.08599960058927536,-0.1827981323003769
1761478527008734000,5.95473388671875,0.0728931725025177,0.1440000683069229,-0.27141720056533813
1761478527018770000,5.96477001953125,0.01498031709343195,0.1961333304643631,-0.33906885981559753
1761478527028806000,5.974805908203125,-0.0898190587759018,0.2268848419189453,-0.38260677456855774
1761478527038841900,5.984841796875,-0.20700621604919434,0.20981045067310333,-0.3725193440914154
1761478527048878000,5.994878173828125,-0.31529489159584045,0.168142631649971,-0.3220764100551605
1761478527058913000,6.0049130859375,-0.3696652948856354,0.12329407781362534,-0.2471255213022232
1761478527068949500,6.014949462890625,-0.3592241108417511,0.06682627648115158,-0.15461796522140503
1761478527078985500,6.0249853515625,-0.3166865110397339,-0.021121738478541374,-0.04301709681749344
1761478527089021400,6.035021484375,-0.27780595421791077,-0.07939516752958298,0.07787763327360153
1761478527099057400,6.045057373046875,-0.2648504674434662,-0.09676989167928696,0.17593415081501007
1761478527109093400,6.05509326171875,-0.2844998240470886,-0.09388808906078339,0.22089524567127228
1761478527119128600,6.065128662109375,-0.314017653465271,-0.07942841202020645,0.20481960475444794
1761478527129164500,6.07516455078125,-0.32093310356140137,-0.08834920078516006,0.1455690562725067
1761478527139200500,6.085200439453125,-0.2867945432662964,-0.11319281905889511,0.07061900198459625
1761478527149236500,6.095236572265625,-0.22687020897865295,-0.13067620992660522,0.026233959943056107
1761478527159272400,6.1052724609375,-0.16444313526153564,-0.1005609855055809,0.010542517527937889
1761478527169308400,6.115308349609375,-0.1116400957107544,-0.05255484580993652,0.003856917843222618
1761478527179343400,6.12534326171875,-0.06786610186100006,0.00943686906248331,0.012345031835138798
1761478527189379300,6.13537939453125,-0.01339779794216156,0.06350836157798767,0.01775551028549671
1761478527199415600,6.14541552734375,0.045204855501651764,0.0956585630774498,0.017024774104356766
1761478527209451500,6.155451416015625,0.08963996917009354,0.09052479267120361,0.0008042594417929649
1761478527219487500,6.165487548828125,0.10198909789323807,0.07832415401935577,-0.04281359910964966
1761478527229523500,6.1755234375,0.08199089020490646,0.07095412164926529,-0.10117890685796738
1761478527239559400,6.185559326171875,0.04966000095009804,0.051930882036685944,-0.1636057049036026
1761478527249594400,6.195594482421875,0.02306886948645115,0.018413133919239044,-0.22065646946430206
1761478527259630300,6.20563037109375,0.016030173748731613,-0.011738169007003307,-0.249037966132164
1761478527269666600,6.21566650390625,0.015504200011491776,-0.025707248598337173,-0.24813169240951538
1761478527279702500,6.22570263671875,0.010985957458615303,-0.024024324491620064,-0.2203473597764969
1761478527289738500,6.235738525390625,-0.0017902911640703678,0.002648032968863845,-0.17923001945018768
1761478527299774500,6.2457744140625,-0.014852205291390419,0.049702778458595276,-0.13556361198425293
1761478527309809400,6.255809326171875,-0.01888209953904152,0.07732268422842026,-0.1021430641412735
1761478527319845400,6.265845458984375,-0.022755227982997894,0.06243991479277611,-0.07062743604183197
1761478527329881300,6.27588134765625,-0.03230559080839157,0.02092203125357628,-0.051217783242464066
1761478527339917300,6.285917236328125,-0.03764747083187103,-0.020368272438645363,-0.04910171031951904
1761478527349953500,6.29595361328125,-0.05436493456363678,-0.034759990870952606,-0.038104716688394547
1761478527359989500,6.305989501953125,-0.0709780603647232,-0.04340817779302597,-0.026584342122077942
1761478527370024400,6.3160244140625,-0.0781821757555008,-0.053790509700775146,-0.005635651759803295
1761478527380060400,6.326060302734375,-0.07878781110048294,-0.043884214013814926,0.014731647446751595
1761478527390096400,6.336096435546875,-0.07656141370534897,-0.04957113042473793,0.027477536350488663
1761478527400132400,6.34613232421875,-0.06164657324552536,-0.07357349246740341,0.027462616562843323
1761478527410168300,6.356168212890625,-0.0348501093685627,-0.09790333360433578,0.031195303425192833
1761478527420204300,6.366204345703125,-0.010721584782004356,-0.11215739697217941,0.028441233560442924
1761478527430239500,6.376239501953125,0.019780397415161133,-0.10496446490287781,0.029417281970381737
1761478527440275500,6.386275390625,0.06930893659591675,-0.07776470482349396,0.041262462735176086
1761478527450311400,6.3963115234375,0.12446539849042892,-0.046878427267074585,0.05975332483649254
1761478527460347400,6.406347412109375,0.168731689453125,-0.003178567858412862,0.07120992988348007
1761478527470383400,6.41638330078125,0.1957329362630844,0.04192312806844711,0.0644092857837677
1761478527480419300,6.42641943359375,0.19533346593379974,0.0662633627653122,0.03923016041517258
1761478527490454500,6.43645458984375,0.18599456548690796,0.06425134092569351,0.00956201646476984
1761478527500490500,6.446490478515625,0.16359534859657288,0.06329488009214401,-0.018391422927379608
1761478527510526500,6.4565263671875,0.13742952048778534,0.05414639413356781,-0.0268379058688879
1761478527520562400,6.4665625,0.12295040488243103,0.046332016587257385,-0.018977606669068336
1761478527530598400,6.476598388671875,0.123231902718544,0.025261083617806435,0.0027580480091273785
1761478527540634600,6.486634521484375,0.14083167910575867,0.005080952309072018,0.012812984175980091
1761478527550670600,6.496670654296875,0.15688255429267883,0.00970473326742649,0.035021085292100906
1761478527560705500,6.50670556640625,0.1689544916152954,0.03273206576704979,0.05856316164135933
1761478527570741500,6.516741455078125,0.17378254234790802,0.05848563089966774,0.0723934918642044
1761478527580777500,6.526777587890625,0.16636353731155396,0.06292597204446793,0.07756932079792023
1761478527590813400,6.5368134765625,0.16406948864459991,0.04385347664356232,0.07794695347547531
1761478527600849700,6.546849609375,0.1576823741197586,0.014804866164922714,0.09256957471370697
1761478527610885600,6.5568857421875,0.14950859546661377,-0.026637114584445953,0.10818208754062653
1761478527620920300,6.56692041015625,0.12941838800907135,-0.057732466608285904,0.13217246532440186
1761478527630956300,6.576956298828125,0.08836895227432251,-0.08078611642122269,0.15612547099590302
1761478527640992500,6.586992431640625,0.03589358925819397,-0.08513057231903076,0.18126912415027618
1761478527651028500,6.597028564453125,-0.0013192943297326565,-0.0741916373372078,0.1925867646932602
1761478527661064700,6.607064697265625,-0.011683326214551926,-0.08125797659158707,0.19736286997795105
1761478527671100700,6.6171005859375,0.01260390318930149,-0.06527607887983322,0.18179775774478912
1761478527681135400,6.62713525390625,0.06445633620023727,-0.01067597046494484,0.14176763594150543
1761478527691171300,6.63717138671875,0.16201111674308777,0.11147923022508621,0.06281182914972305
1761478527701207300,6.647207275390625,0.30457642674446106,0.3112771809101105,-0.04984767735004425
1761478527711243500,6.657243408203125,0.48377546668052673,0.524595320224762,-0.1898292750120163
1761478527721279700,6.66727978515625,0.6562183499336243,0.6967998743057251,-0.3307974338531494
1761478527731315700,6.677315673828125,0.7041842937469482,0.6891248822212219,-0.4157216548919678
1761478527741350400,6.687350341796875,0.40480518341064453,0.35592904686927795,-0.3117401897907257
1761478527751386400,6.697386474609375,0.185688778758049,0.06190355494618416,-0.2611049711704254
1761478527761422300,6.70742236328125,0.05621727555990219,-0.09077679365873337,-0.2594115138053894
1761478527771458600,6.71745849609375,-0.024401670321822166,-0.12718194723129272,-0.2222183346748352
1761478527781494500,6.72749462890625,-0.05070217326283455,-0.08790557086467743,-0.08629609644412994
1761478527791530500,6.737530517578125,-0.0008014594204723835,-0.0102778859436512,0.11479626595973969
1761478527801566700,6.747566650390625,0.1358625441789627,0.028687579557299614,0.33338454365730286
1761478527811601400,6.757601318359375,0.348696768283844,-0.005921263713389635,0.5225496292114258
1761478527821637600,6.7676376953125,0.42117437720298767,-0.14978529512882233,0.6746344566345215
1761478527831673600,6.777673583984375,0.44131773710250854,-0.23324690759181976,0.7245551347732544
1761478527841709600,6.78770947265625,0.4211376905441284,-0.22367753088474274,0.6722268462181091
1761478527851745500,6.79774560546875,0.3694470524787903,-0.1626988649368286,0.5742102861404419
1761478527861781500,6.807781494140625,0.31214436888694763,-0.07860984653234482,0.48263314366340637
1761478527871816400,6.81781640625,0.28178563714027405,-0.03345169126987457,0.4109043776988983
1761478527881852700,6.827852783203125,0.2850069999694824,-0.02320842631161213,0.35134759545326233
1761478527891888600,6.837888671875,0.29716381430625916,-0.03826780244708061,0.2863025367259979
1761478527901924600,6.847924560546875,0.3126456141471863,-0.05874360352754593,0.2115955352783203
1761478527911960600,6.857960693359375,0.31093987822532654,-0.03938188776373863,0.11955375969409943
1761478527921996500,6.86799658203125,0.2956809103488922,-0.0003755695652216673,0.03130580484867096
1761478527932031700,6.87803173828125,0.2465895265340805,0.04164085537195206,-0.022951576858758926
1761478527942067700,6.888067626953125,0.1806606948375702,0.08318211138248444,-0.052539970725774765
1761478527952103700,6.898103759765625,0.11342012882232666,0.0999581590294838,-0.049775611609220505
1761478527962139600,6.9081396484375,0.06809131801128387,0.0929296463727951,-0.031657133251428604
1761478527972175600,6.918175537109375,0.04038485884666443,0.0580182708799839,-0.014313298277556896
1761478527982211600,6.928211669921875,0.028943955898284912,0.00971486046910286,-0.0060347868129611015
1761478527992246500,6.93824658203125,0.007234666496515274,-0.031474653631448746,-0.00741164106875658
1761478528002282500,6.948282470703125,-0.03874022513628006,-0.056982122361660004,-0.00523436488583684
1761478528012318700,6.958318603515625,-0.09203247725963593,-0.02488836832344532,0.010341932065784931
1761478528022354700,6.968354736328125,-0.12908749282360077,0.022417793050408363,0.04447999969124794
1761478528032390700,6.978390625,-0.14719165861606598,0.02836303412914276,0.07924836874008179
1761478528042426600,6.988426513671875,-0.15420658886432648,0.02831745706498623,0.08612087368965149
1761478528052461600,6.998461669921875,-0.1526411771774292,0.0595100000500679,0.0629740059375763
1761478528062497500,7.00849755859375,-0.13892872631549835,0.09239464998245239,0.016899844631552696
1761478528072533200,7.018533203125,-0.11520662158727646,0.11209405213594437,-0.022691240534186363
1761478528082569200,7.0285693359375,-0.0853356271982193,0.10516480356454849,-0.04613872617483139
1761478528092605200,7.038605224609375,-0.07232396304607391,0.07158847153186798,-0.058557845652103424
1761478528102641200,7.04864111328125,-0.09601899981498718,0.025654755532741547,-0.06908612698316574
1761478528112677000,7.058677001953125,-0.1198127493262291,-0.004409934859722853,-0.05855598673224449
1761478528122712000,7.068712158203125,-0.11906809359788895,-0.015596946701407433,-0.017369382083415985
1761478528132748000,7.078748046875,-0.0977175310254097,-0.0016148181166499853,0.06446396559476852
1761478528142784000,7.088783935546875,-0.06729187071323395,0.03328024968504906,0.15602409839630127
1761478528152820200,7.0988203125,-0.02667279914021492,0.04294672608375549,0.21455904841423035
1761478528162856200,7.108856201171875,0.02757682278752327,0.018951063975691795,0.2406492829322815
1761478528172892200,7.11889208984375,0.09060265868902206,-0.0594385489821434,0.24166899919509888
1761478528182927000,7.128927001953125,0.17060011625289917,-0.1419483721256256,0.21773217618465424
1761478528192963000,7.138963134765625,0.2438351809978485,-0.18184040486812592,0.18555347621440887
1761478528202999000,7.1489990234375,0.30969104170799255,-0.1682821810245514,0.16208450496196747
1761478528213035000,7.159034912109375,0.355721116065979,-0.1204797700047493,0.1536971479654312
1761478528223071000,7.169071044921875,0.36991673707962036,-0.0633082166314125,0.13710880279541016
1761478528233107200,7.179107177734375,0.36651214957237244,-0.02920404262840748,0.1110638752579689
1761478528243142100,7.18914208984375,0.36999747157096863,-0.027255918830633163,0.08396662026643753
1761478528253178000,7.19917822265625,0.37159910798072815,-0.05547770485281944,0.053352516144514084
1761478528263214000,7.209214111328125,0.3562876284122467,-0.07879960536956787,0.010337259620428085
1761478528273250000,7.21925,0.3181825876235962,-0.07876471430063248,-0.044358208775520325
1761478528283286000,7.2292861328125,0.26065319776535034,-0.05593220144510269,-0.09538323432207108
1761478528293322000,7.239322021484375,0.21894517540931702,-0.020351840183138847,-0.11695404350757599
1761478528303358000,7.24935791015625,0.1994667947292328,-0.006132344715297222,-0.10337746143341064
1761478528313393200,7.25939306640625,0.18226173520088196,0.01079310942441225,-0.0645778700709343
1761478528323429000,7.26942919921875,0.14601126313209534,0.0027575313579291105,-0.04020421579480171
1761478528333465000,7.279465087890625,0.09268652647733688,-0.03646150976419449,-0.014091123826801777
1761478528343501000,7.2895009765625,0.030705824494361877,-0.08057257533073425,-0.0021922641899436712
1761478528353537000,7.299537109375,-0.03245556727051735,-0.12249152362346649,0.015551579184830189
1761478528363573000,7.309572998046875,-0.06820646673440933,-0.13546161353588104,0.03685745224356651
1761478528373608200,7.319608154296875,-0.0875314325094223,-0.10878261178731918,0.06127224490046501
1761478528383644200,7.32964404296875,-0.08281219005584717,-0.08743389695882797,0.07865273952484131
1761478528393680100,7.33968017578125,-0.07690796256065369,-0.09676720947027206,0.07334718853235245
1761478528403716000,7.349716064453125,-0.08226925134658813,-0.13934215903282166,0.03594539314508438
1761478528413752000,7.359751953125,-0.10225041210651398,-0.19035102427005768,-0.026242345571517944
1761478528423788000,7.3697880859375,-0.1314859241247177,-0.20193597674369812,-0.09727669507265091
1761478528433823200,7.3798232421875,-0.16665855050086975,-0.1605198234319687,-0.15726280212402344
1761478528443859200,7.389859130859375,-0.18569190800189972,-0.09960488975048065,-0.19260966777801514
1761478528453895200,7.399895263671875,-0.17344988882541656,-0.047822657972574234,-0.19088606536388397
1761478528463931100,7.40993115234375,-0.13334691524505615,-0.010068114846944809,-0.1706884801387787
1761478528473967000,7.419967041015625,-0.09493055194616318,-0.0071271867491304874,-0.1605447679758072
1761478528484003000,7.430003173828125,-0.08284173905849457,-0.019559960812330246,-0.17237861454486847
1761478528494038000,7.4400380859375,-0.1020314171910286,-0.02025770954787731,-0.18462224304676056
1761478528504074000,7.450073974609375,-0.13987621665000916,-0.03626469522714615,-0.19236797094345093
1761478528514110200,7.460110107421875,-0.1948808878660202,-0.0297724399715662,-0.19255146384239197
1761478528524146200,7.470146240234375,-0.2451913058757782,-0.015444490127265453,-0.17740851640701294
1761478528534182100,7.48018212890625,-0.27053555846214294,-0.01000817958265543,-0.14310699701309204
1761478528544218000,7.490218017578125,-0.2832801640033722,-0.03172001615166664,-0.11756425350904465
1761478528554254000,7.500254150390625,-0.3050967752933502,-0.050705160945653915,-0.11292635649442673
1761478528564289000,7.5102890625,-0.32905909419059753,-0.048836980015039444,-0.11764077842235565
1761478528574325000,7.520324951171875,-0.3502030074596405,-0.07361823320388794,-0.13180693984031677
1761478528584361000,7.53036083984375,-0.3772691488265991,-0.08497843146324158,-0.14477437734603882
1761478528594397200,7.540397216796875,-0.3858431875705719,-0.06820105016231537,-0.15407946705818176
1761478528604433200,7.55043310546875,-0.3685853183269501,-0.041641965508461,-0.14661544561386108
1761478528614469000,7.56046923828125,-0.34753888845443726,-0.026731988415122032,-0.13870692253112793
1761478528624504000,7.570504150390625,-0.3287546634674072,-0.026872431859374046,-0.1318705677986145
1761478528634540000,7.5805400390625,-0.3087625801563263,-0.015136146917939186,-0.11220311373472214
1761478528644576000,7.590575927734375,-0.2817818224430084,0.006498732604086399,-0.09705547243356705
1761478528654612000,7.600612060546875,-0.24035421013832092,0.025462571531534195,-0.07099804282188416
1761478528664648000,7.61064794921875,-0.1971023827791214,0.04872683063149452,-0.02574876695871353
1761478528674684200,7.62068408203125,-0.16187141835689545,0.046818144619464874,0.0160165224224329
1761478528684719000,7.630718994140625,-0.13775628805160522,0.018846141174435616,0.05335549637675285
1761478528694755000,7.640755126953125,-0.10958483815193176,-0.028491545468568802,0.07683099061250687
1761478528704791000,7.650791015625,-0.0974961668252945,-0.07944578677415848,0.09248360246419907
1761478528714827000,7.660826904296875,-0.10912032425403595,-0.11894712597131729,0.08843693137168884
1761478528724863000,7.670863037109375,-0.13297688961029053,-0.08791165798902512,0.07740500569343567
1761478528734899000,7.68089892578125,-0.16266635060310364,-0.03571503236889839,0.06948821991682053
1761478528744935000,7.690934814453125,-0.16179685294628143,0.00791921280324459,0.06428338587284088
1761478528754970000,7.70097021484375,-0.1252361685037613,0.05654960125684738,0.05108875781297684
1761478528765006000,7.711006103515625,-0.07313434034585953,0.07264358550310135,0.0022699895780533552
1761478528775042000,7.7210419921875,-0.05515960231423378,0.07628865540027618,-0.09058991074562073
1761478528785078000,7.731078125,-0.11626650393009186,0.05865702033042908,-0.1922641098499298
1761478528795114000,7.741114013671875,-0.22426673769950867,0.018321052193641663,-0.23652318120002747
1761478528805150000,7.75114990234375,-0.3662028908729553,-0.014819079078733921,-0.21721406280994415
1761478528815185200,7.76118505859375,-0.7329960465431213,-0.17759574949741364,-0.1127726137638092
1761478528825221000,7.77122119140625,-0.7215920090675354,-0.13211289048194885,-0.12759774923324585
1761478528835257000,7.781257080078125,-0.5979171991348267,-0.12949685752391815,-0.1255958527326584
1761478528845293000,7.79129296875,-0.38802841305732727,-0.13867637515068054,-0.060174524784088135
1761478528855329000,7.8013291015625,-0.24675412476062775,-0.1352696567773819,-0.03169334679841995
1761478528865365000,7.811364990234375,-0.2449846863746643,-0.12344546616077423,-0.08107300847768784
1761478528875400200,7.821400146484375,-0.29814162850379944,-0.07813311368227005,-0.14727839827537537
1761478528885436200,7.831436279296875,-0.33775097131729126,-0.07057187706232071,-0.1776774823665619
1761478528895472000,7.84147216796875,-0.3499666154384613,-0.06735771149396896,-0.13520193099975586
1761478528905508000,7.851508056640625,-0.3295610547065735,-0.07125723361968994,-0.06162019446492195
1761478528915544000,7.8615439453125,-0.2923012971878052,-0.1395270973443985,0.02383345551788807
1761478528925580000,7.871580078125,-0.2693251669406891,-0.21469353139400482,0.09910453855991364
1761478528935616000,7.881615966796875,-0.25741976499557495,-0.29641345143318176,0.16029758751392365
1761478528945651000,7.89165087890625,-0.261087030172348,-0.3400113582611084,0.18684472143650055
1761478528955687200,7.901687255859375,-0.24796433746814728,-0.30079230666160583,0.184291273355484
1761478528965723100,7.91172314453125,-0.18218488991260529,-0.2084471434354782,0.1147586852312088
1761478528975759000,7.921759033203125,-0.10938312113285065,-0.10448560118675232,-0.009972596541047096
1761478528985795000,7.931795166015625,-0.06247694790363312,-0.007514042779803276,-0.12467099726200104
1761478528995831000,7.9418310546875,-0.03726586326956749,0.05244676396250725,-0.2060079276561737
1761478529005866000,7.951865966796875,-0.02315489575266838,0.05159551277756691,-0.24487802386283875
1761478529015902000,7.96190185546875,-0.019375339150428772,0.03384847566485405,-0.24535205960273743
1761478529025938000,7.97193798828125,-0.017561061307787895,0.018042974174022675,-0.21225911378860474
1761478529035974100,7.98197412109375,0.008611953817307949,0.025753891095519066,-0.15203173458576202
1761478529046010000,7.992010009765625,0.04486790671944618,0.033689290285110474,-0.07392454892396927
1761478529056046000,8.002046142578125,0.08222566545009613,0.07097087800502777,-0.01123080961406231
1761478529066080300,8.012080322265625,0.10501261055469513,0.09021532535552979,0.01077544316649437
1761478529076116200,8.0221162109375,0.1179899275302887,0.07206268608570099,0.003912744112312794
1761478529086152200,8.032152099609375,0.11967108398675919,0.025242939591407776,-0.01000147219747305
1761478529096188400,8.0421884765625,0.09497825056314468,-0.04737880080938339,-0.013182352297008038
1761478529106224400,8.052224365234375,0.05238175019621849,-0.10784547030925751,-0.002402164973318577
1761478529116260400,8.06226025390625,-0.01158551312983036,-0.1636056751012802,0.004057066049426794
1761478529126295300,8.07229541015625,-0.10375051200389862,-0.18642863631248474,0.002940501319244504
1761478529136331300,8.082331298828125,-0.19569481909275055,-0.13032780587673187,0.008459636010229588
1761478529146367200,8.0923671875,-0.24787800014019012,-0.051055632531642914,0.026510097086429596
1761478529156403200,8.1024033203125,-0.24354982376098633,0.025794940069317818,0.03441489115357399
1761478529166439200,8.112439208984375,-0.19993728399276733,0.10797331482172012,0.016341770067811012
1761478529176475400,8.122475341796875,-0.14539174735546112,0.1577768325805664,-0.02916472777724266
1761478529186511400,8.132511474609375,-0.11892972141504288,0.17871035635471344,-0.08937226235866547
1761478529196546300,8.14254638671875,-0.11139404028654099,0.13306084275245667,-0.15428096055984497
1761478529206582300,8.152582275390625,-0.11642944812774658,0.11976144462823868,-0.2083083540201187
1761478529216618200,8.1626181640625,-0.11434925347566605,0.14242734014987946,-0.24040824174880981
1761478529226654200,8.172654296875,-0.09078343212604523,0.16798989474773407,-0.24639201164245605
1761478529236690200,8.182690185546875,-0.04678721725940704,0.1825437992811203,-0.23368367552757263
1761478529246726400,8.192726318359375,-0.026234082877635956,0.19083867967128754,-0.17634217441082
1761478529256761300,8.20276123046875,-0.03842789679765701,0.2013874650001526,-0.059009164571762085
1761478529266797300,8.21279736328125,-0.04236918315291405,0.1693645566701889,0.08452265709638596
1761478529276833300,8.222833251953125,-0.011626185849308968,0.11909925937652588,0.20939108729362488
1761478529286869200,8.232869140625,0.03632928058505058,0.09259415417909622,0.27754905819892883
1761478529296905200,8.2429052734375,0.08935654163360596,0.0528201088309288,0.2804260551929474
1761478529306941200,8.252941162109375,0.12035136669874191,0.05440182238817215,0.2390127331018448
1761478529316977400,8.262977294921875,0.09889933466911316,0.12803024053573608,0.2293339967727661
1761478529327012400,8.273012451171875,0.030155958607792854,0.2565906345844269,0.2379850149154663
1761478529337048300,8.28304833984375,-0.017309295013546944,0.45064106583595276,0.2438221275806427
1761478529347084300,8.293084228515625,-0.0018717856146395206,0.5514322519302368,0.11503031104803085
1761478529357120300,8.303120361328125,0.030670709908008575,0.5044207572937012,-0.14921386539936066
1761478529367156500,8.313156494140625,0.005372221581637859,0.5528976917266846,-0.2551276981830597
1761478529377192400,8.3231923828125,0.08534988015890121,0.1355941891670227,-0.8009337782859802
1761478529387227400,8.333227294921874,0.06035294383764267,0.24273552000522614,-0.9369335174560547
1761478529397263400,8.343263427734374,-0.05753693729639053,0.1550416201353073,-0.8904438018798828
1761478529407299300,8.35329931640625,-0.20199096202850342,0.1167222410440445,-0.7087584137916565
1761478529417335300,8.363335205078124,-0.30885642766952515,0.20767877995967865,-0.4503649175167084
1761478529427371500,8.37337158203125,-0.34279754757881165,0.27546384930610657,-0.2470262050628662
1761478529437407500,8.383407470703125,-0.28143274784088135,0.29077064990997314,-0.0725175142288208
1761478529447442200,8.393442138671874,-0.16493192315101624,0.259439617395401,0.039584700018167496
1761478529457478400,8.403478515625,-0.0692373514175415,0.09363491088151932,0.07200974971055984
