time,seconds_elapsed,z,y,x
1761478521128991200,0.0749912109375,0.0011257182341068983,-0.03003299981355667,0.14174196124076843
1761478521139027200,0.085027099609375,0.025788720697164536,-0.02544703707098961,0.17103353142738342
1761478521149063200,0.095063232421875,0.04913904890418053,-0.03033180721104145,0.17949679493904114
1761478521159098000,0.10509814453125,0.057975683361291885,-0.02437032014131546,0.17389003932476044
1761478521169134000,0.115134033203125,0.043784499168395996,-0.042159438133239746,0.15566202998161316
1761478521179170000,0.125170166015625,0.03729064762592316,-0.07813741266727448,0.10510537773370743
1761478521189206000,0.1352060546875,0.02779567800462246,-0.0984879583120346,0.05365630239248276
1761478521199242200,0.1452421875,0.014841796830296516,-0.09461572021245956,0.004232828039675951
1761478521209277200,0.155277099609375,0.011443869210779667,-0.08098272979259491,-0.03639742359519005
1761478521219313200,0.165313232421875,0.025511484593153,-0.0604095496237278,-0.07281694561243057
1761478521229349000,0.17534912109375,0.03651620075106621,-0.03610873594880104,-0.08257690072059631
1761478521239385000,0.185385009765625,0.03080904483795166,0.005049619823694229,-0.06488658487796783
1761478521249421000,0.195421142578125,0.008901349268853664,0.007779892534017563,-0.04938299581408501
1761478521259457000,0.20545703125,-0.01635979861021042,0.01079911831766367,-0.03514786809682846
1761478521269492200,0.2154921875,-0.047024499624967575,0.016887636855244637,-0.03355849161744118
1761478521279528200,0.225528076171875,-0.06877107173204422,0.018693260848522186,-0.03437075763940811
1761478521289564200,0.235564208984375,-0.058405786752700806,0.034456245601177216,-0.028315261006355286
1761478521299600100,0.24560009765625,-0.034754250198602676,0.03965020552277565,-0.017894843593239784
1761478521309636000,0.255635986328125,-0.015806926414370537,0.03519420698285103,-0.0005986785981804132
1761478521319671000,0.265671142578125,-0.0159483402967453,0.03750636428594589,0.014523282647132874
1761478521329707300,0.275707275390625,-0.022938605397939682,0.04069150239229202,0.022710638120770454
1761478521339743200,0.2857431640625,-0.01146650593727827,0.03170653060078621,0.0345475897192955
1761478521349779200,0.295779296875,0.019727366045117378,-0.007077616639435291,0.04502420127391815
1761478521359815200,0.305815185546875,0.05926971510052681,-0.037148166447877884,0.06192834675312042
1761478521369850000,0.31585009765625,0.08079737424850464,-0.04529397934675217,0.0697050467133522
1761478521379886000,0.325885986328125,0.09388468414545059,-0.048700425773859024,0.06731165945529938
1761478521389922000,0.335922119140625,0.11042051762342453,-0.07358873635530472,0.07181879878044128
1761478521399958000,0.3459580078125,0.12988902628421783,-0.09712335467338562,0.08423978090286255
1761478521409994200,0.355994140625,0.13376152515411377,-0.1103062704205513,0.11506932973861694
1761478521420029200,0.366029296875,0.13163898885250092,-0.07347209006547928,0.1542484313249588
1761478521430065200,0.376065185546875,0.14326076209545135,-0.048535045236349106,0.1760258972644806
1761478521440101000,0.38610107421875,0.16717754304409027,-0.06703309714794159,0.1822715401649475
1761478521450137000,0.39613720703125,0.18786470592021942,-0.09947146475315094,0.17118853330612183
1761478521460173000,0.406173095703125,0.17270785570144653,-0.10209387540817261,0.14491485059261322
1761478521470208300,0.416208251953125,0.12576831877231598,-0.08278702199459076,0.1089368686079979
1761478521480244200,0.426244140625,0.05230501666665077,-0.057431336492300034,0.08524645119905472
1761478521490280200,0.4362802734375,0.03278617560863495,-0.06640645116567612,0.06856867671012878
1761478521500316200,0.446316162109375,0.03555373474955559,-0.06653295457363129,0.06632629036903381
1761478521510352100,0.45635205078125,0.020794760435819626,-0.048895105719566345,0.06501361727714539
1761478521520387000,0.466386962890625,0.005261607468128204,-0.03242478519678116,0.0436987429857254
1761478521530423000,0.476423095703125,-0.02088450826704502,0.0016460998449474573,0.011406851932406425
1761478521540459300,0.486459228515625,-0.040104277431964874,0.02762310579419136,-0.03524240851402283
1761478521550495200,0.4964951171875,-0.051289018243551254,0.017677530646324158,-0.09223245829343796
1761478521560531200,0.50653125,-0.048659149557352066,0.010908307507634163,-0.1545269936323166
1761478521570567200,0.516567138671875,-0.03738811984658241,-0.0012037487467750907,-0.20474755764007568
1761478521580602000,0.52660205078125,-0.015591209754347801,-0.015173892490565777,-0.22785472869873047
1761478521590638000,0.53663818359375,-0.007873103022575378,-0.016803747043013573,-0.2069403976202011
1761478521600674000,0.546674072265625,-0.022658707574009895,0.006412093061953783,-0.1505892425775528
1761478521610710300,0.556710205078125,-0.05138462781906128,0.03646613284945488,-0.08262217789888382
1761478521620746200,0.566746337890625,-0.06936895102262497,0.044013530015945435,-0.019168633967638016
1761478521630781200,0.57678125,-0.08020668476819992,0.061164818704128265,0.028858546167612076
1761478521640817200,0.586817138671875,-0.09774413704872131,0.0722036212682724,0.05307946354150772
1761478521650853000,0.59685302734375,-0.1175074577331543,0.04460901394486427,0.04698295518755913
1761478521660889000,0.60688916015625,-0.11417477577924728,0.005050152540206909,0.015626629814505577
1761478521670925000,0.616925048828125,-0.06758037209510803,-0.029202094301581383,-0.022536201402544975
1761478521680960300,0.626960205078125,-0.010002300143241882,-0.044675856828689575,-0.055565256625413895
1761478521690996200,0.636996337890625,0.047016244381666183,-0.031451400369405746,-0.08091322332620621
1761478521701032200,0.6470322265625,0.10363105684518814,-0.0006000102148391306,-0.10191464424133301
1761478521711068200,0.657068115234375,0.1420583426952362,0.02997414395213127,-0.10222144424915314
1761478521721104100,0.667104248046875,0.15586256980895996,0.08274361491203308,-0.07705696672201157
1761478521731139000,0.67713916015625,0.15220046043395996,0.10818692296743393,-0.04388117045164108
1761478521741175300,0.68717529296875,0.13416366279125214,0.11569677293300629,-0.013848437927663326
1761478521751211300,0.697211181640625,0.10650167614221573,0.11244398355484009,0.007957791909575462
1761478521761247200,0.707247314453125,0.08864997327327728,0.08996450901031494,0.022911440581083298
1761478521771283200,0.717283203125,0.07476398348808289,0.054070424288511276,0.03213396668434143
1761478521781319200,0.727319091796875,0.06531056016683578,0.01450011320412159,0.05788061022758484
1761478521791354000,0.73735400390625,0.06312783807516098,-0.027064640074968338,0.09575795382261276
1761478521801390000,0.74739013671875,0.07110906392335892,-0.07787908613681793,0.14210893213748932
1761478521811426000,0.757426025390625,0.09036984294652939,-0.1225283145904541,0.20079141855239868
1761478521821462300,0.767462158203125,0.10182250291109085,-0.13919730484485626,0.24359242618083954
1761478521831498200,0.777498291015625,0.09376057982444763,-0.12516696751117706,0.26929593086242676
1761478521841533200,0.787533203125,0.0804855227470398,-0.11537452787160873,0.26993826031684875
1761478521851569200,0.797569091796875,0.07225661724805832,-0.10580819100141525,0.23907223343849182
1761478521861605000,0.807605224609375,0.07245981693267822,-0.1131553202867508,0.18544895946979523
1761478521871641000,0.81764111328125,0.09109316021203995,-0.13062937557697296,0.13967934250831604
1761478521881677000,0.827677001953125,0.11530688405036926,-0.14353692531585693,0.10694562643766403
1761478521891712300,0.837712158203125,0.11857804656028748,-0.1551954448223114,0.0973486602306366
1761478521901748200,0.847748291015625,0.09778621792793274,-0.16874773800373077,0.09297095239162445
1761478521911784200,0.8577841796875,0.052383046597242355,-0.17245087027549744,0.09662561118602753
1761478521921820200,0.867820068359375,-0.002425074577331543,-0.16940288245677948,0.10831502079963684
1761478521931856100,0.877856201171875,-0.06168466806411743,-0.16803960502147675,0.11260005086660385
1761478521941892000,0.88789208984375,-0.10954220592975616,-0.1508805900812149,0.11168525367975235
1761478521951927300,0.89792724609375,-0.1366712898015976,-0.12210966646671295,0.12398852407932281
1761478521961963300,0.90796337890625,-0.13679087162017822,-0.10498766601085663,0.14099334180355072
1761478521971999200,0.917999267578125,-0.11760252714157104,-0.07996993511915207,0.15612249076366425
1761478521982035200,0.92803515625,-0.08608561754226685,-0.048049550503492355,0.1652832329273224
1761478521992071200,0.9380712890625,-0.0389372780919075,-0.04862905666232109,0.16074201464653015
1761478522002107100,0.948107177734375,-0.008925850503146648,-0.049906838685274124,0.16638578474521637
1761478522012142000,0.95814208984375,-0.028500882908701897,-0.06037013232707977,0.160959854722023
1761478522022178000,0.968177978515625,-0.07997392863035202,-0.046616505831480026,0.13747742772102356
1761478522032214300,0.97821435546875,-0.12452994287014008,-0.027044134214520454,0.106349878013134
1761478522042250200,0.988250244140625,-0.15126781165599823,-0.026257170364260674,0.07641594111919403
1761478522052286200,0.9982861328125,-0.16795118153095245,-0.011728827841579914,0.054735951125621796
1761478522062321400,1.0083212890625,-0.18542897701263428,0.0015939018921926618,0.030226079747080803
1761478522072357400,1.018357421875,-0.18825966119766235,0.006750847212970257,0.0037768951151520014
1761478522082393300,1.028393310546875,-0.1904546320438385,-0.009097624570131302,-0.0065130265429615974
1761478522092429300,1.03842919921875,-0.18651795387268066,-0.009371397085487843,0.002754773711785674
1761478522102465300,1.04846533203125,-0.17737531661987305,-0.02802897058427334,0.009502158500254154
1761478522112501500,1.05850146484375,-0.17219413816928864,-0.04460262134671211,0.008931176736950874
1761478522122536400,1.068536376953125,-0.17213980853557587,-0.03205567225813866,-0.0030309436842799187
1761478522132572400,1.078572509765625,-0.18180441856384277,-0.021500231698155403,-0.02528325282037258
1761478522142608400,1.0886083984375,-0.18343320488929749,-0.017670074477791786,-0.044566936790943146
1761478522152644400,1.098644287109375,-0.16481851041316986,-0.030585072934627533,-0.06875323504209518
1761478522162680300,1.108680419921875,-0.13517087697982788,-0.043603137135505676,-0.07834593951702118
1761478522172716300,1.11871630859375,-0.11083650588989258,-0.04529957100749016,-0.07897444069385529
1761478522182751500,1.12875146484375,-0.09949276596307755,-0.04291630908846855,-0.0752023458480835
1761478522192787500,1.138787353515625,-0.10169760137796402,-0.022415826097130775,-0.07633951306343079
1761478522202823400,1.148823486328125,-0.10297325253486633,-0.000731836655177176,-0.07950680702924728
1761478522212859400,1.158859375,-0.09924083203077316,0.004012318328022957,-0.0804080218076706
1761478522222895400,1.168895263671875,-0.0902598574757576,-0.0034168355632573366,-0.08182349056005478
1761478522232931300,1.178931396484375,-0.08058352768421173,-0.008727178908884525,-0.08262057602405548
1761478522242966500,1.188966552734375,-0.07258179038763046,-0.02045227773487568,-0.078238345682621
1761478522253002500,1.19900244140625,-0.06406740099191666,-0.029931800439953804,-0.06965817511081696
1761478522263038500,1.20903857421875,-0.059671852737665176,-0.04419196397066116,-0.05428933724761009
1761478522273074400,1.219074462890625,-0.06460988521575928,-0.03573589399456978,-0.03765523433685303
1761478522283110400,1.2291103515625,-0.0631006732583046,-0.012341088615357876,-0.023694144561886787
1761478522293146400,1.239146484375,-0.05934108793735504,0.008637962862849236,-0.014888934791088104
1761478522303181300,1.249181396484375,-0.048827994614839554,0.018278606235980988,-0.008918127045035362
1761478522313217300,1.25921728515625,-0.03839079663157463,0.015296930447220802,-0.01721706986427307
1761478522323253500,1.26925341796875,-0.04764368385076523,0.010467021726071835,-0.030471356585621834
1761478522333289500,1.27928955078125,-0.06897533684968948,-0.005870938766747713,-0.054597463458776474
1761478522343325400,1.289325439453125,-0.10189919918775558,-0.005645901430398226,-0.08050975948572159
1761478522353360400,1.2993603515625,-0.13457804918289185,0.0019744676537811756,-0.10647477954626083
1761478522363396400,1.309396240234375,-0.14988642930984497,0.01937076821923256,-0.11917991936206818
1761478522373432300,1.319432373046875,-0.149155393242836,0.026669694110751152,-0.12449052929878235
1761478522383468300,1.32946826171875,-0.13399241864681244,0.017948374152183533,-0.11404987424612045
1761478522393504300,1.339504150390625,-0.11263706535100937,0.012012454681098461,-0.09180475771427155
1761478522403540500,1.34954052734375,-0.09115787595510483,0.0175185389816761,-0.06508445739746094
1761478522413575400,1.359575439453125,-0.0708635225892067,0.02869529463350773,-0.046496663242578506
1761478522423611400,1.369611328125,-0.062365371733903885,0.044084370136260986,-0.03640248253941536
1761478522433647400,1.3796474609375,-0.06667250394821167,0.046610113233327866,-0.04050055518746376
1761478522443683300,1.389683349609375,-0.09237466752529144,0.0531737394630909,-0.05116651579737663
1761478522453719300,1.39971923828125,-0.1150863766670227,0.06263967603445053,-0.06879743933677673
1761478522463755300,1.40975537109375,-0.09803521633148193,0.06876574456691742,-0.07697068154811859
1761478522473790500,1.41979052734375,-0.05545580014586449,0.07159029692411423,-0.08016753941774368
1761478522483826400,1.429826416015625,0.00794607400894165,0.06988773494958878,-0.06886108964681625
1761478522493862400,1.4398623046875,0.06173766776919365,0.06717637181282043,-0.05998823419213295
1761478522503898400,1.4498984375,0.08730561286211014,0.0697694942355156,-0.05447602644562721
1761478522513934300,1.459934326171875,0.0854235514998436,0.06417445838451385,-0.0581972599029541
1761478522523970300,1.46997021484375,0.06252915412187576,0.08060482889413834,-0.06831087917089462
1761478522534005500,1.480005615234375,0.03681766986846924,0.09567698836326599,-0.07782715559005737
1761478522544041500,1.49004150390625,0.01728018745779991,0.10600393265485764,-0.0738941952586174
1761478522554077400,1.500077392578125,0.006258694920688868,0.10043339431285858,-0.049542251974344254
1761478522564113400,1.510113525390625,-0.0028016455471515656,0.09480161219835281,-0.02845267951488495
1761478522574149400,1.5201494140625,-0.008360461331903934,0.10434930771589279,-0.008658203296363354
1761478522584185300,1.530185302734375,-0.007387608755379915,0.08824357390403748,-0.0051923650316894054
1761478522594220300,1.54022021484375,-0.004792890977114439,0.07203531265258789,-0.010349043644964695
1761478522604256500,1.550256591796875,-0.0009624664089642465,0.060451094061136246,-0.014308098703622818
1761478522614292500,1.56029248046875,0.011694739572703838,0.043846018612384796,-0.010202037170529366
1761478522624328400,1.570328369140625,0.03516251593828201,0.02209491655230522,0.00646615494042635
1761478522634364400,1.580364501953125,0.04928579181432724,-0.0158881526440382,0.028790902346372604
1761478522644400400,1.590400390625,0.04237249121069908,-0.042097121477127075,0.05287786200642586
1761478522654436400,1.600436279296875,0.0034730283077806234,-0.04362577572464943,0.08721080422401428
1761478522664471300,1.61047119140625,-0.048759814351797104,-0.041008953005075455,0.11873757094144821
1761478522674507300,1.62050732421875,-0.11388236284255981,-0.019706061109900475,0.14573588967323303
1761478522684543500,1.63054345703125,-0.1609737128019333,-0.02310585230588913,0.14905020594596863
1761478522694579500,1.640579345703125,-0.17219732701778412,-0.061413560062646866,0.1392468363046646
1761478522704615400,1.650615478515625,-0.14778760075569153,-0.06828185170888901,0.12072588503360748
1761478522714651400,1.6606513671875,-0.10533707588911057,-0.02160356193780899,0.08139046281576157
1761478522724686300,1.670686279296875,-0.060924336314201355,0.08189113438129425,0.0029531794134527445
1761478522734722300,1.680722412109375,-0.02034841477870941,0.20238426327705383,-0.0843963697552681
1761478522744758300,1.69075830078125,0.04531128704547882,0.3434332609176636,-0.19246745109558105
1761478522754794200,1.700794189453125,0.13597674667835236,0.45838674902915955,-0.29411259293556213
1761478522764830500,1.71083056640625,0.21582923829555511,0.4761500358581543,-0.3574334979057312
1761478522774866400,1.720866455078125,0.23581306636333466,0.39730554819107056,-0.3655761182308197
1761478522784901400,1.7309013671875,0.2032705694437027,0.26708629727363586,-0.31217706203460693
1761478522794937300,1.740937255859375,0.14614549279212952,0.13575676083564758,-0.20638060569763184
1761478522804973300,1.750973388671875,0.07682820409536362,0.04550596699118614,-0.06790794432163239
1761478522815009300,1.76100927734375,0.00939083844423294,-0.0240749754011631,0.08907954394817352
1761478522825045200,1.771045166015625,-0.034393925219774246,-0.06634333729743958,0.21705055236816406
1761478522835081200,1.781081298828125,-0.04748282954096794,-0.0960165411233902,0.32497650384902954
1761478522845116400,1.791116455078125,-0.023361248895525932,-0.13721324503421783,0.39472734928131104
1761478522855152400,1.80115234375,0.031254325062036514,-0.17259334027767181,0.43037933111190796
1761478522865188400,1.811188232421875,0.09680004417896271,-0.20616009831428528,0.4320446252822876
1761478522875224300,1.821224365234375,0.15818378329277039,-0.2298814058303833,0.413148432970047
1761478522885260300,1.83126025390625,0.2115173041820526,-0.23285189270973206,0.39121490716934204
1761478522895296300,1.841296142578125,0.23990820348262787,-0.21398977935314178,0.3636578321456909
1761478522905331500,1.85133154296875,0.24774055182933807,-0.17615212500095367,0.3320096433162689
1761478522915367400,1.861367431640625,0.23827648162841797,-0.12275761365890503,0.29942986369132996
1761478522925403400,1.8714033203125,0.21121050417423248,-0.07897230982780457,0.25638437271118164
1761478522935439400,1.881439453125,0.17899717390537262,-0.06386233866214752,0.1984555721282959
1761478522945475300,1.891475341796875,0.15482260286808014,-0.05801882967352867,0.1307806521654129
1761478522955511300,1.90151123046875,0.1400013118982315,-0.0787760391831398,0.07067044079303741
1761478522965547300,1.91154736328125,0.1257435530424118,-0.09217572957277298,0.016688432544469833
1761478522975582500,1.92158251953125,0.1025700494647026,-0.0895562469959259,-0.021625399589538574
1761478522985618400,1.931618408203125,0.09865174442529678,-0.07216154783964157,-0.043848149478435516
1761478522995654400,1.941654296875,0.08449677377939224,-0.04477545991539955,-0.050572361797094345
1761478523005690400,1.9516904296875,0.04409502446651459,-0.021204087883234024,-0.05979089438915253
1761478523015726300,1.961726318359375,-0.0073103769682347775,0.011544536799192429,-0.06879770755767822
1761478523025762300,1.97176220703125,-0.04454483091831207,0.03201785311102867,-0.09096319228410721
1761478523035797200,1.98179736328125,-0.06657583266496658,0.03989841416478157,-0.11216488480567932
1761478523045833500,1.99183349609375,-0.08122614771127701,0.0525825172662735,-0.12382101267576218
1761478523055869400,2.001869384765625,-0.09761230647563934,0.05817249417304993,-0.12753158807754517
1761478523065905000,2.01190478515625,-0.11101946234703064,0.0632343590259552,-0.11287808418273926
1761478523075940900,2.02194091796875,-0.11082292348146439,0.05523289367556572,-0.081311896443367
1761478523085976800,2.031976806640625,-0.09008088707923889,0.054668303579092026,-0.051232028752565384
1761478523096011800,2.04201171875,-0.05745290592312813,0.061460696160793304,-0.018486598506569862
1761478523106047700,2.0520478515625,-0.021635787561535835,0.07002009451389313,0.013652428984642029
1761478523116084000,2.062083984375,-0.0018937737913802266,0.08028072118759155,0.03405623883008957
1761478523126120000,2.072119873046875,0.009123989380896091,0.07185288518667221,0.03581605479121208
1761478523136156000,2.082156005859375,0.008840629830956459,0.06931941956281662,0.021254954859614372
1761478523146192000,2.09219189453125,-0.01347666047513485,0.06663388758897781,-0.006305033806711435
1761478523156226800,2.102226806640625,-0.015075089409947395,0.06210678070783615,-0.03724217787384987
1761478523166262800,2.1122626953125,0.00021305288828443736,0.060318734496831894,-0.0520581416785717
1761478523176298800,2.122298828125,0.034811511635780334,0.056645434349775314,-0.05807235836982727
1761478523186335000,2.1323349609375,0.07976380735635757,0.06892047822475433,-0.06798091530799866
1761478523196371000,2.142370849609375,0.1282152235507965,0.08523260802030563,-0.08097074925899506
1761478523206407000,2.152406982421875,0.15705886483192444,0.08751493692398071,-0.0961073562502861
1761478523216441900,2.16244189453125,0.16036143898963928,0.07407902181148529,-0.10683004558086395
1761478523226477800,2.172477783203125,0.13545769453048706,0.053224340081214905,-0.12289529293775558
1761478523236513800,2.182513671875,0.0902252346277237,0.05025012046098709,-0.13364700973033905
1761478523246549800,2.1925498046875,0.02358868345618248,0.04573766142129898,-0.15423111617565155
1761478523256585700,2.202585693359375,-0.030734477564692497,0.04579545184969902,-0.18547771871089935
1761478523266622000,2.2126220703125,-0.061885736882686615,0.05392767861485481,-0.20130781829357147
1761478523276658000,2.222657958984375,-0.07935260981321335,0.057252902537584305,-0.2058815211057663
1761478523286692900,2.23269287109375,-0.0804237350821495,0.06459017843008041,-0.1910082995891571
1761478523296728800,2.242728759765625,-0.08059950172901154,0.05295562744140625,-0.17545756697654724
1761478523306764800,2.252764892578125,-0.11371910572052002,0.034558508545160294,-0.15984691679477692
1761478523316800800,2.26280078125,-0.16768807172775269,0.024101873859763145,-0.14721715450286865
1761478523326836700,2.272836669921875,-0.21749849617481232,0.03146897628903389,-0.14425517618656158
1761478523336872700,2.282872802734375,-0.23233310878276825,0.03652472048997879,-0.15806633234024048
1761478523346908000,2.292907958984375,-0.22169670462608337,0.036063726991415024,-0.19494764506816864
1761478523356944000,2.30294384765625,-0.19558601081371307,0.034328944981098175,-0.22490768134593964
1761478523366979800,2.312979736328125,-0.18265236914157867,0.034384604543447495,-0.23566019535064697
1761478523377015800,2.323015869140625,-0.17745546996593475,0.029516080394387245,-0.2358977496623993
1761478523387051800,2.3330517578125,-0.1667967140674591,0.024573786184191704,-0.22962413728237152
1761478523397087700,2.343087646484375,-0.15237143635749817,0.009612945839762688,-0.20552732050418854
1761478523407123000,2.353123046875,-0.13867372274398804,0.005878661759197712,-0.16875731945037842
1761478523417159000,2.363158935546875,-0.12215466797351837,0.00014194648247212172,-0.12894172966480255
1761478523427195000,2.37319482421875,-0.12225773185491562,-0.008825981989502907,-0.08971044421195984
1761478523437230800,2.38323095703125,-0.11982946842908859,-0.010212424211204052,-0.06434863060712814
1761478523447266800,2.393266845703125,-0.11175529658794403,0.0013235911028459668,-0.0673457533121109
1761478523457302800,2.403302734375,-0.09682774543762207,0.0128172617405653,-0.07388514280319214
1761478523467338800,2.4133388671875,-0.08170684427022934,0.026509106159210205,-0.09642667323350906
1761478523477374000,2.4233740234375,-0.0700315460562706,0.029157618060708046,-0.11900175362825394
1761478523487410000,2.433409912109375,-0.05947398021817207,0.023627564311027527,-0.12796249985694885
1761478523497446000,2.44344580078125,-0.04904477298259735,0.013409548439085484,-0.11539184302091599
1761478523507481900,2.45348193359375,-0.04629186540842056,0.021798240020871162,-0.10146057605743408
1761478523517517800,2.463517822265625,-0.04759175330400467,0.04626736417412758,-0.07774326205253601
1761478523527553800,2.4735537109375,-0.04743435978889465,0.07507158070802689,-0.07126432657241821
1761478523537588700,2.483588623046875,-0.04201855510473251,0.0979372188448906,-0.08087380975484848
1761478523547624700,2.493624755859375,-0.032276980578899384,0.12068141251802444,-0.10341800004243851
1761478523557661000,2.503660888671875,-0.02888970449566841,0.12731029093265533,-0.12916117906570435
1761478523567697000,2.51369677734375,-0.02695731446146965,0.12218289822340012,-0.15303802490234375
1761478523577732900,2.52373291015625,-0.020185163244605064,0.09914149343967438,-0.17271451652050018
1761478523587768800,2.533768798828125,-0.017296697944402695,0.08731173723936081,-0.17679128050804138
1761478523597803800,2.5438037109375,-0.01088833436369896,0.09121885895729065,-0.1563725620508194
1761478523607839700,2.55383984375,-0.005307147279381752,0.1001146137714386,-0.11632288247346878
1761478523617875700,2.563875732421875,-0.008718656376004219,0.12033573538064957,-0.06370893865823746
1761478523627911700,2.57391162109375,-0.013846573419868946,0.11500701308250427,-0.02869662642478943
1761478523637948000,2.583947998046875,-0.024515729397535324,0.10199800133705139,-0.012135492637753487
1761478523647983900,2.59398388671875,-0.038353513926267624,0.07284890860319138,-0.021982796490192413
1761478523658019800,2.604019775390625,-0.05223923549056053,0.04115196317434311,-0.042700059711933136
1761478523668054800,2.6140546875,-0.0651923194527626,0.01672012358903885,-0.0666557252407074
1761478523678090800,2.6240908203125,-0.07797016203403473,-0.009748500771820545,-0.07791237533092499
1761478523688126700,2.634126708984375,-0.0730382576584816,-0.033785395324230194,-0.0760207325220108
1761478523698162700,2.64416259765625,-0.05879993364214897,-0.06390441209077835,-0.05933869257569313
1761478523708199000,2.654198974609375,-0.039507195353507996,-0.08871575444936752,-0.0374285988509655
1761478523718235000,2.66423486328125,-0.04165583476424217,-0.10935711860656738,-0.02159876935184002
1761478523728269800,2.674269775390625,-0.06646664440631866,-0.10385528951883316,0.008609200827777386
1761478523738305800,2.684305908203125,-0.10979973524808884,-0.08932667970657349,0.03861397132277489
1761478523748341800,2.694341796875,-0.14158110320568085,-0.08074171841144562,0.06224340200424194
1761478523758377700,2.704377685546875,-0.1357479840517044,-0.09335950762033463,0.06725972890853882
1761478523768413700,2.71441357421875,-0.11474256217479706,-0.11880308389663696,0.044743768870830536
1761478523778449700,2.72444970703125,-0.1031000167131424,-0.14377528429031372,0.014724617823958397
1761478523788486000,2.73448583984375,-0.11003142595291138,-0.15622422099113464,-0.011069162748754025
1761478523798520800,2.744520751953125,-0.12702852487564087,-0.14514440298080444,-0.01410782989114523
1761478523808556800,2.754556884765625,-0.14461497962474823,-0.13518178462982178,0.0018724685069173574
1761478523818592800,2.7645927734375,-0.15349288284778595,-0.13342197239398956,0.017765413969755173
1761478523828628700,2.774628662109375,-0.16090260446071625,-0.13331598043441772,0.033740121871232986
1761478523838664700,2.784664794921875,-0.16946013271808624,-0.1374950110912323,0.03939853981137276
1761478523848701000,2.794700927734375,-0.1797977238893509,-0.13285471498966217,0.03278431296348572
1761478523858735900,2.80473583984375,-0.19953760504722595,-0.12663863599300385,0.016874320805072784
1761478523868771800,2.814771728515625,-0.22798283398151398,-0.1393914520740509,0.003507383167743683
1761478523878807800,2.824807861328125,-0.26042041182518005,-0.15128353238105774,0.00612313998863101
1761478523888843800,2.83484375,-0.28294888138771057,-0.15890708565711975,0.0140758715569973
1761478523898880000,2.8448798828125,-0.3025611937046051,-0.15949618816375732,0.033603500574827194
1761478523908916000,2.854916015625,-0.31244444847106934,-0.14417262375354767,0.06404529511928558
1761478523918951000,2.864950927734375,-0.3152570128440857,-0.12504632771015167,0.08666379004716873
1761478523928987000,2.87498681640625,-0.30456310510635376,-0.1315910518169403,0.09478935599327087
1761478523939022800,2.88502294921875,-0.2996780574321747,-0.15689267218112946,0.08892561495304108
1761478523949058800,2.895058837890625,-0.3024592101573944,-0.18396078050136566,0.08689308911561966
1761478523959095000,2.905094970703125,-0.319009929895401,-0.2108163684606552,0.09132751822471619
1761478523969131000,2.915131103515625,-0.3432614803314209,-0.21573549509048462,0.09496565908193588
1761478523979165700,2.925165771484375,-0.3608340919017792,-0.18801811337471008,0.08583581447601318
1761478523989201700,2.93520166015625,-0.3685183823108673,-0.09419387578964233,0.05399612337350845
1761478523999238000,2.94523779296875,-0.3445501923561096,0.022278940305113792,0.0007741809240542352
1761478524009274000,2.955274169921875,-0.297714501619339,0.047315582633018494,-0.06312517076730728
1761478524019310000,2.96531005859375,-0.23769937455654144,0.004252802114933729,-0.1253075897693634
1761478524029346000,2.975345947265625,-0.16924868524074554,-0.08471222221851349,-0.1598128378391266
1761478524039382000,2.985382080078125,-0.11344267427921295,-0.1412399411201477,-0.14649435877799988
1761478524049416700,2.995416748046875,-0.08528613299131393,-0.14439445734024048,-0.08722171932458878
1761478524059453400,3.005453369140625,-0.05506192147731781,-0.11500541865825653,0.013648700900375843
1761478524069489400,3.015489501953125,-0.020426444709300995,-0.052028581500053406,0.12586311995983124
1761478524079525600,3.025525634765625,0.01561011839658022,-0.007845672778785229,0.21411655843257904
1761478524089561600,3.0355615234375,0.0374179445207119,0.013365606777369976,0.24235138297080994
1761478524099597600,3.04559765625,0.04535443335771561,0.008403604850172997,0.22740678489208221
1761478524109632500,3.055632568359375,0.02894616313278675,-0.010941331274807453,0.17718543112277985
1761478524119668500,3.06566845703125,-0.004838431254029274,-0.045456696301698685,0.10926896333694458
1761478524129704700,3.07570458984375,-0.043958667665719986,-0.10047440975904465,0.030422620475292206
1761478524139740700,3.08574072265625,-0.08256465196609497,-0.13228213787078857,-0.03386262431740761
1761478524149776600,3.095776611328125,-0.11745312809944153,-0.12607218325138092,-0.0698094442486763
1761478524159812600,3.1058125,-0.13277243077754974,-0.11205729842185974,-0.07562312483787537
1761478524169847600,3.11584765625,-0.13924497365951538,-0.07469607889652252,-0.06166629493236542
1761478524179883500,3.125883544921875,-0.147660031914711,-0.043907005339860916,-0.0394776351749897
1761478524189919700,3.135919677734375,-0.1594487726688385,0.010657171718776226,-0.025105886161327362
1761478524199955700,3.145955810546875,-0.17640326917171478,0.05131298676133156,-0.022855248302221298
1761478524209991700,3.15599169921875,-0.18310244381427765,0.05013507232069969,-0.03798573091626167
1761478524220027600,3.166027587890625,-0.17827945947647095,0.029460420832037926,-0.054916512221097946
1761478524230063600,3.176063720703125,-0.17314940690994263,0.0007084008539095521,-0.07914355397224426
1761478524240098800,3.186098876953125,-0.16700176894664764,-0.004454403184354305,-0.09046412259340286
1761478524250134800,3.196134765625,-0.18896831572055817,0.019650666043162346,-0.07917391508817673
1761478524260170800,3.206170654296875,-0.22790853679180145,0.040098417550325394,-0.05378706380724907
1761478524270206700,3.216206787109375,-0.28282690048217773,0.09566847234964371,-0.016566192731261253
1761478524280242700,3.22624267578125,-0.3323614299297333,0.12911909818649292,0.01654382236301899
1761478524290278700,3.236278564453125,-0.33633488416671753,0.11856766045093536,0.0382203571498394
1761478524300313600,3.246313720703125,-0.3068491518497467,0.08128127455711365,0.0582963302731514
1761478524310349800,3.256349853515625,-0.26069602370262146,0.039136748760938644,0.0727066919207573
1761478524320385800,3.2663857421875,-0.20866160094738007,-0.0009329052991233766,0.07898669689893723
1761478524330421800,3.276421875,-0.16826596856117249,-0.022403841838240623,0.08206051588058472
1761478524340457700,3.286457763671875,-0.15504337847232819,-0.02599857747554779,0.07809080928564072
1761478524350493700,3.29649365234375,-0.16576845943927765,-0.03262186050415039,0.06484238058328629
1761478524360528600,3.306528564453125,-0.18230828642845154,-0.05012708157300949,0.04920669272542
1761478524370564600,3.316564697265625,-0.19632157683372498,-0.05656128004193306,0.042687274515628815
1761478524380600600,3.3266005859375,-0.1945662796497345,-0.058105647563934326,0.04777071624994278
1761478524390636800,3.33663671875,-0.185899555683136,-0.0388757586479187,0.054904259741306305
1761478524400672800,3.3466728515625,-0.1701597422361374,-0.049624279141426086,0.05986626446247101
1761478524410708700,3.356708740234375,-0.140935018658638,-0.07768680155277252,0.06656677275896072
1761478524420744700,3.36674462890625,-0.0959387794137001,-0.09122871607542038,0.0739208310842514
1761478524430779600,3.376779541015625,-0.051419515162706375,-0.08236491680145264,0.07087790220975876
1761478524440815600,3.386815673828125,-0.033240243792533875,-0.03322240337729454,0.05799326300621033
1761478524450851600,3.3968515625,-0.044915277510881424,0.020830446854233742,0.025354892015457153
1761478524460887600,3.406887451171875,-0.08596097677946091,0.0716659277677536,-0.008130364120006561
1761478524470923800,3.416923828125,-0.1170712262392044,0.084543377161026,-0.04136049002408981
1761478524480959700,3.426959716796875,-0.11872132122516632,0.05065358802676201,-0.05643584579229355
1761478524490994700,3.43699462890625,-0.10465636849403381,0.030521158128976822,-0.04700133204460144
1761478524501030700,3.44703076171875,-0.07532644271850586,0.024269653484225273,-0.014554974623024464
1761478524511066600,3.457066650390625,-0.03916551172733307,0.02912512794137001,0.023121031001210213
1761478524521102600,3.4671025390625,-0.018805645406246185,0.03260161727666855,0.04508651793003082
1761478524531138600,3.477138671875,0.0028272117488086224,0.007185208611190319,0.04784581810235977
1761478524541174500,3.487174560546875,0.02520362287759781,-0.024766866117715836,0.034274615347385406
1761478524551209700,3.497209716796875,0.038716237992048264,-0.03674975782632828,0.02232794277369976
1761478524561245700,3.50724560546875,0.04458744078874588,-0.055699482560157776,0.018189389258623123
1761478524571281700,3.51728173828125,0.04068910703063011,-0.06514065712690353,0.024080568924546242
1761478524581317600,3.527317626953125,0.03388446196913719,-0.08402832597494125,0.031808529049158096
1761478524591353600,3.537353515625,0.03500139340758324,-0.11002157628536224,0.046175483614206314
1761478524601389600,3.5473896484375,0.04261856526136398,-0.11883397400379181,0.08244241029024124
1761478524611425500,3.557425537109375,0.06132780387997627,-0.11739054322242737,0.1275867223739624
1761478524621460700,3.567460693359375,0.08470290154218674,-0.10330028831958771,0.16682866215705872
1761478524631496700,3.57749658203125,0.10522176325321198,-0.057322945445775986,0.19096516072750092
1761478524641532700,3.58753271484375,0.14569461345672607,-0.02635357715189457,0.17706425487995148
1761478524651568600,3.597568603515625,0.19945745170116425,-0.052321795374155045,0.1339799016714096
1761478524661604600,3.6076044921875,0.23473501205444336,-0.10218122601509094,0.04604658856987953
1761478524671640600,3.617640625,0.2312105894088745,-0.1491767019033432,-0.06574572622776031
1761478524681675800,3.62767578125,0.18112558126449585,-0.15571555495262146,-0.19501422345638275
1761478524691711700,3.637711669921875,0.0905381590127945,-0.13596369326114655,-0.2740078568458557
1761478524701747700,3.647747802734375,-0.010479005984961987,-0.07195354998111725,-0.2927865982055664
1761478524711783700,3.65778369140625,-0.04861147701740265,-0.059966664761304855,-0.27946358919143677
1761478524721819600,3.667819580078125,-0.046058837324380875,-0.04499756917357445,-0.23108194768428802
1761478524731855600,3.677855712890625,-0.04987195134162903,-0.0009595369338057935,-0.18940001726150513
1761478524741890600,3.687890625,-0.06130117550492287,0.03473454341292381,-0.13921727240085602
1761478524751926800,3.6979267578125,-0.09091019630432129,0.08722038567066193,-0.08309382200241089
1761478524761962800,3.707962646484375,-0.13011938333511353,0.09677181392908096,-0.037043239921331406
1761478524771998700,3.717998779296875,-0.15542741119861603,0.0793299749493599,-0.020249078050255775
1761478524782034700,3.72803466796875,-0.17717690765857697,0.05528749153017998,-0.03897056728601456
1761478524792070700,3.738070556640625,-0.18291255831718445,0.03658464178442955,-0.0782676413655281
1761478524802106600,3.748106689453125,-0.1778797209262848,0.02208080142736435,-0.11446399241685867
1761478524812141600,3.7581416015625,-0.1590423882007599,0.024762338027358055,-0.1295313537120819
1761478524822177500,3.768177490234375,-0.12980645895004272,0.04242708534002304,-0.12487749010324478
1761478524832213800,3.7782138671875,-0.09529908746480942,0.050159573554992676,-0.12087582051753998
1761478524842249700,3.788249755859375,-0.07206061482429504,0.05914001911878586,-0.10683643817901611
1761478524852285700,3.79828564453125,-0.062074288725852966,0.06892766803503036,-0.0933709591627121
1761478524862321700,3.80832177734375,-0.05252685770392418,0.06846587359905243,-0.07976087182760239
1761478524872356600,3.818356689453125,-0.04924025014042854,0.08077873289585114,-0.05835864692926407
1761478524882392600,3.828392578125,-0.03898148611187935,0.11201202124357224,-0.040219057351350784
1761478524892428500,3.838428466796875,-0.018509235233068466,0.13279186189174652,-0.02725851908326149
1761478524902464500,3.848464599609375,0.004079164005815983,0.14559927582740784,-0.02684226632118225
1761478524912500700,3.858500732421875,0.028812207281589508,0.141159787774086,-0.04324760660529137
1761478524922536700,3.86853662109375,0.04590277746319771,0.13076093792915344,-0.0635874941945076
1761478524932571600,3.878571533203125,0.061562430113554,0.11272548139095306,-0.07646707445383072
1761478524942607600,3.888607666015625,0.060260944068431854,0.08615432679653168,-0.08340167999267578
1761478524952643600,3.8986435546875,0.04589478671550751,0.071112260222435,-0.07062570005655289
1761478524962679600,3.908679443359375,0.030596258118748665,0.10396980494260788,-0.026601517572999
1761478524972715500,3.918715576171875,0.018576880916953087,0.12754490971565247,0.024563400074839592
1761478524982751500,3.92875146484375,0.015965649858117104,0.1336030662059784,0.0670677199959755
1761478524992786700,3.93878662109375,0.021289842203259468,0.13661590218544006,0.0859559178352356
1761478525002822700,3.94882275390625,0.028657210990786552,0.1175367459654808,0.07947138696908951
1761478525012858600,3.958858642578125,0.030013026669621468,0.07529927790164948,0.0584808848798275
1761478525022894600,3.96889453125,0.029035912826657295,0.01913055032491684,0.024451280012726784
1761478525032930600,3.9789306640625,0.03563496097922325,-0.015014369040727615,-0.004762530792504549
1761478525042966500,3.988966552734375,0.033300966024398804,-0.00529676117002964,-0.007796670310199261
1761478525053002500,3.99900244140625,0.015508651733398438,0.009854494594037533,0.010701113380491734
1761478525063037700,4.00903759765625,0.00034115093876607716,0.0339992456138134,0.05284377187490463
1761478525073073700,4.01907373046875,0.008415056392550468,0.05115266516804695,0.09538377821445465
1761478525083109600,4.029109619140625,0.041673678904771805,0.04355759546160698,0.12937822937965393
1761478525093145600,4.0391455078125,0.09073629230260849,0.031205855309963226,0.14818094670772552
1761478525103181800,4.049181884765625,0.1393488347530365,0.026742398738861084,0.1644326150417328
1761478525113217800,4.0592177734375,0.16176359355449677,0.05255402252078056,0.18766391277313232
1761478525123252700,4.069252685546875,0.16650402545928955,0.07516559213399887,0.20397523045539856
1761478525133288700,4.079288818359375,0.1576111912727356,0.06424636393785477,0.20371584594249725
1761478525143324700,4.08932470703125,0.1405334174633026,0.03537636622786522,0.1849490851163864
1761478525153360600,4.099360595703125,0.13233166933059692,-0.014788799919188023,0.13739700615406036
1761478525163396900,4.10939697265625,0.12630866467952728,-0.0548187755048275,0.09359173476696014
1761478525173432800,4.119432861328125,0.14178802073001862,-0.02961195446550846,0.05970540642738342
1761478525183467500,4.129467529296875,0.18385079503059387,0.07718799263238907,0.018432004377245903
1761478525193503700,4.139503662109375,0.2748944163322449,0.24450908601284027,-0.042220957577228546
1761478525203539700,4.149539794921875,0.4085020124912262,0.4356936812400818,-0.111440509557724
1761478525213576000,4.159575927734375,0.5267317295074463,0.5752313137054443,-0.17107321321964264
1761478525223612000,4.16961181640625,0.5896790027618408,0.6095077991485596,-0.19521556794643402
1761478525233647900,4.17964794921875,0.5471059679985046,0.5208844542503357,-0.14578835666179657
1761478525243682600,4.1896826171875,0.4279542565345764,0.364546537399292,-0.03177444264292717
1761478525253718500,4.199718505859375,0.28153952956199646,0.21350455284118652,0.10242171585559845
1761478525263754500,4.20975439453125,0.15366093814373016,0.07721542567014694,0.22479476034641266
1761478525273790700,4.219790771484375,0.06682616472244263,-0.05024559423327446,0.3180248439311981
1761478525283827000,4.229826904296875,0.03752953186631203,-0.1323753446340561,0.3886822462081909
1761478525293863000,4.23986279296875,0.05079633370041847,-0.18258951604366302,0.4364500343799591
1761478525303899000,4.24989892578125,0.1013047844171524,-0.20635077357292175,0.4585966169834137
1761478525313933600,4.25993359375,0.16172444820404053,-0.20386818051338196,0.46258309483528137
1761478525323969800,4.2699697265625,0.21648356318473816,-0.19238142669200897,0.43813207745552063
1761478525334005800,4.280005859375,0.24766652286052704,-0.18919523060321808,0.39784935116767883
1761478525344041700,4.290041748046875,0.26515284180641174,-0.16540227830410004,0.3525727093219757
1761478525354077700,4.30007763671875,0.25947844982147217,-0.13947586715221405,0.3053428828716278
1761478525364114000,4.310114013671875,0.23694810271263123,-0.10237430781126022,0.2556205987930298
1761478525374148600,4.320148681640625,0.21169094741344452,-0.06208467483520508,0.202705979347229
1761478525384184800,4.330184814453125,0.19231805205345154,-0.046422094106674194,0.12879446148872375
1761478525394220800,4.340220703125,0.18201081454753876,-0.03326794132590294,0.05730403587222099
1761478525404256800,4.3502568359375,0.18155381083488464,0.0015848471084609628,-0.007985754869878292
1761478525414292700,4.360292724609375,0.1743140071630478,0.03380962833762169,-0.06010914221405983
1761478525424328700,4.37032861328125,0.15731479227542877,0.05048953741788864,-0.10824871063232422
1761478525434363600,4.38036376953125,0.1549413800239563,0.059475578367710114,-0.14783793687820435
1761478525444399900,4.39039990234375,0.17418219149112701,0.06671538203954697,-0.17374277114868164
1761478525454435800,4.400435791015625,0.19941429793834686,0.09397070109844208,-0.17965684831142426
1761478525464471800,4.410471923828125,0.20693346858024597,0.10487714409828186,-0.1674928516149521
1761478525474507800,4.4205078125,0.18855100870132446,0.11550875008106232,-0.1479407250881195
1761478525484543700,4.430543701171875,0.14141571521759033,0.12386628240346909,-0.1194068193435669
1761478525494579000,4.440578857421875,0.08996611088514328,0.12260101735591888,-0.08598627895116806
1761478525504615000,4.450614990234375,0.05741482228040695,0.12081323564052582,-0.04766738787293434
1761478525514651000,4.46065087890625,0.056524794548749924,0.12730735540390015,-0.013626063242554665
1761478525524686800,4.470686767578125,0.09306816011667252,0.14387407898902893,0.017765680328011513
1761478525534722800,4.480722900390625,0.1350395828485489,0.1295662522315979,0.05062349513173103
1761478525544758800,4.4907587890625,0.15404441952705383,0.10035590082406998,0.08454631268978119
1761478525554793700,4.500793701171875,0.14818307757377625,0.07793448120355606,0.08564513176679611
1761478525564830000,4.510829833984375,0.13590750098228455,0.08858046680688858,0.05822468921542168
1761478525574866000,4.520865966796875,0.13973233103752136,0.1279904544353485,0.015443936921656132
1761478525584902000,4.53090185546875,0.1773121953010559,0.16558656096458435,-0.024168718606233597
1761478525594937900,4.540937744140625,0.23892655968666077,0.17929784953594208,-0.04748895391821861
1761478525604973800,4.550973876953125,0.2969813346862793,0.16731974482536316,-0.04784395545721054
1761478525615009800,4.561009765625,0.3399019241333008,0.14843687415122986,-0.020670657977461815
1761478525625044700,4.571044677734375,0.3380752503871918,0.12501384317874908,0.025800438597798347
1761478525635080700,4.581080810546875,0.30974000692367554,0.09304551780223846,0.07507158070802689
1761478525645117000,4.591116943359375,0.26941895484924316,0.0387527234852314,0.10800955444574356
1761478525655153000,4.60115283203125,0.22955863177776337,-0.0234637800604105,0.11864009499549866
1761478525665188900,4.61118896484375,0.1893363744020462,-0.07843515276908875,0.09404899924993515
1761478525675224800,4.621224853515625,0.13600869476795197,-0.1143374964594841,0.05415777862071991
1761478525685259800,4.631259765625,0.07497144490480423,-0.12780749797821045,0.026427611708641052
1761478525695295700,4.641295654296875,0.019298063591122627,-0.1181735098361969,0.03532763198018074
1761478525705331700,4.651331787109375,-0.01805809698998928,-0.10531017929315567,0.07186966389417648
1761478525715367700,4.66136767578125,-0.04230751097202301,-0.0829116627573967,0.12045957148075104
1761478525725404000,4.67140380859375,-0.04685831815004349,-0.04858165234327316,0.15430888533592224
1761478525735440000,4.68143994140625,-0.03702379763126373,-0.03069506213068962,0.17551909387111664
1761478525745474800,4.691474853515625,-0.010092315264046192,-0.024645958095788956,0.16473382711410522
1761478525755510800,4.7015107421875,0.022892000153660774,-0.025405224412679672,0.10791128873825073
1761478525765546800,4.711546630859375,0.04633660614490509,-0.02178945206105709,0.023077888414263725
1761478525775582700,4.721582763671875,0.059006329625844955,-0.01124999113380909,-0.0676533430814743
1761478525785618700,4.73161865234375,0.054249390959739685,0.0023518374655395746,-0.14157336950302124
1761478525795654700,4.741654541015625,0.03377234563231468,0.01179194450378418,-0.1845559924840927
1761478525805689900,4.75168994140625,0.005852030124515295,0.021328458562493324,-0.18515974283218384
1761478525815725800,4.761725830078125,-0.021922608837485313,0.021287444978952408,-0.16177931427955627
1761478525825761800,4.77176171875,-0.06714867800474167,0.004317250568419695,-0.121883824467659
1761478525835797800,4.7817978515625,-0.11096726357936859,0.002889263443648815,-0.09671828895807266
1761478525845833700,4.791833740234375,-0.14569061994552612,0.023428360000252724,-0.09328866750001907
1761478525855869700,4.80186962890625,-0.16525287926197052,0.05483341962099075,-0.110450878739357
1761478525865905000,4.81190478515625,-0.16558177769184113,0.08634447306394577,-0.14777295291423798
1761478525875940900,4.82194091796875,-0.14143915474414825,0.09105774015188217,-0.17879079282283783
1761478525885976800,4.831976806640625,-0.10387153923511505,0.06269826740026474,-0.1908160299062729
1761478525896012800,4.8420126953125,-0.07761170715093613,0.028916336596012115,-0.1864819973707199
1761478525906048800,4.852048828125,-0.08125463873147964,-0.006121275946497917,-0.1594061702489853
1761478525916084700,4.862084716796875,-0.1195967048406601,-0.02798156626522541,-0.11599185317754745
1761478525926120700,4.87212060546875,-0.16334284842014313,-0.034562237560749054,-0.07358314096927643
1761478525936156000,4.882156005859375,-0.18311282992362976,-0.03750929236412048,-0.030004238709807396
1761478525946192000,4.89219189453125,-0.16098062694072723,-0.021225925534963608,0.016277506947517395
1761478525956227800,4.902227783203125,-0.10666785389184952,-0.004322843160480261,0.04303188994526863
1761478525966263800,4.912263916015625,-0.032953422516584396,0.024520257487893105,0.041917890310287476
1761478525976299800,4.9222998046875,0.026262495666742325,0.04446413740515709,0.025528263300657272
1761478525986335700,4.932335693359375,0.06299600750207901,0.03599688410758972,-0.0014966964954510331
1761478525996370700,4.94237060546875,0.07602552324533463,0.012893161736428738,-0.03104713186621666
1761478526006407000,4.952406982421875,0.06310147047042847,0.015154452063143253,-0.05329624563455582
1761478526016443000,4.96244287109375,0.049911901354789734,0.006442985497415066,-0.06523440033197403
1761478526026478800,4.972478759765625,0.02604704722762108,-0.0008876316132955253,-0.0633653923869133
1761478526036514800,4.982514892578125,0.0019478360190987587,-0.014848721213638783,-0.052134573459625244
1761478526046550800,4.99255078125,-0.037581730633974075,-0.04566069692373276,-0.03537103906273842
1761478526056585700,5.002585693359375,-0.08462407439947128,-0.06571616232395172,-0.016415724530816078
1761478526066621200,5.01262109375,-0.12245534360408783,-0.07441803812980652,-0.0018820558907464147
1761478526076657200,5.0226572265625,-0.13532187044620514,-0.08828059583902359,0.0013483584625646472
1761478526086693000,5.032693115234375,-0.1325620412826538,-0.09642720222473145,-0.010148507542908192
1761478526096729000,5.04272900390625,-0.1307699978351593,-0.08606298267841339,-0.02256176806986332
1761478526106765000,5.05276513671875,-0.12479626387357712,-0.07645562291145325,-0.028734974563121796
1761478526116800000,5.062800048828125,-0.11623073369264603,-0.07039480656385422,-0.03284662961959839
1761478526126836000,5.0728359375,-0.11076246947050095,-0.06127720698714256,-0.034563835710287094
1761478526136872000,5.082871826171875,-0.1082383245229721,-0.053890127688646317,-0.0514615923166275
1761478526146908200,5.092908203125,-0.10747266560792923,-0.03392041474580765,-0.08722171932458878
1761478526156944100,5.102944091796875,-0.12256399542093277,-0.021940452978014946,-0.11591914296150208
1761478526166980000,5.11297998046875,-0.1424599438905716,-0.01619281806051731,-0.12925545871257782
1761478526177016000,5.12301611328125,-0.16375510394573212,-0.03448474034667015,-0.11482725292444229
1761478526187051000,5.133051025390625,-0.16259397566318512,-0.07409553229808807,-0.08812559396028519
1761478526197087000,5.1430869140625,-0.13998746871948242,-0.09108303487300873,-0.04711557924747467
1761478526207123000,5.153123046875,-0.10248669236898422,-0.08046048879623413,0.0004423510399647057
1761478526217159000,5.163158935546875,-0.06195817515254021,-0.04963173344731331,0.050151582807302475
1761478526227195100,5.173195068359375,-0.052512478083372116,-0.012402340769767761,0.08414097875356674
1761478526237231000,5.183231201171875,-0.0726558268070221,0.004719920456409454,0.08699429035186768
1761478526247266000,5.19326611328125,-0.0864265039563179,-0.01896463707089424,0.06349002569913864
1761478526257302000,5.203302001953125,-0.09171873331069946,-0.07310190796852112,0.030498521402478218
1761478526267338000,5.213337890625,-0.08100403845310211,-0.12333578616380692,0.0034794199746102095
1761478526277374000,5.2233740234375,-0.0666932761669159,-0.15208327770233154,-0.011830294504761696
1761478526287410000,5.233409912109375,-0.05660788714885712,-0.13352397084236145,-0.020021645352244377
1761478526297446000,5.24344580078125,-0.07117271423339844,-0.09959503263235092,-0.028272384777665138
1761478526307481000,5.253481201171875,-0.10771341621875763,-0.084029920399189,-0.019957995042204857
1761478526317517000,5.26351708984375,-0.14947763085365295,-0.09676915407180786,-0.009345032274723053
1761478526327553000,5.273552978515625,-0.18313786387443542,-0.13098758459091187,-0.005238703917711973
1761478526337589000,5.283589111328125,-0.2077670395374298,-0.18426810204982758,-0.007632086984813213
1761478526347625000,5.293625,-0.22452312707901,-0.2449338585138321,0.0025856629945337772
1761478526357661000,5.303660888671875,-0.24452371895313263,-0.2720714509487152,0.02738768234848976
1761478526367696100,5.313696044921875,-0.2766081690788269,-0.2711537480354309,0.06602296233177185
1761478526377732000,5.323732177734375,-0.31077438592910767,-0.2532746195793152,0.10921783000230789
1761478526387768000,5.33376806640625,-0.3456258475780487,-0.20008595287799835,0.14198963344097137
1761478526397804000,5.343803955078125,-0.35351598262786865,-0.12551957368850708,0.12094852328300476
1761478526407840000,5.353840087890625,-0.31204259395599365,-0.02684386447072029,0.015910256654024124
1761478526417876000,5.3638759765625,-0.24743562936782837,0.06378377228975296,-0.12726767361164093
1761478526427911200,5.3739111328125,-0.190454363822937,0.11130069196224213,-0.26845595240592957
1761478526437947100,5.383947021484375,-0.14115819334983826,0.12098287791013718,-0.37377065420150757
1761478526447983000,5.393983154296875,-0.09212939441204071,0.13122060894966125,-0.4241779148578644
1761478526458019000,5.40401904296875,-0.06217522174119949,0.15667137503623962,-0.39273157715797424
1761478526468055000,5.414054931640625,-0.09035519510507584,0.20437657833099365,-0.30682572722435
1761478526478091000,5.424091064453125,-0.12599441409111023,0.2622462511062622,-0.21069945394992828
1761478526488127000,5.434126953125,-0.11793169379234314,0.31226176023483276,-0.13627953827381134
1761478526498162000,5.444161865234375,-0.05793121084570885,0.30572235584259033,-0.07973983883857727
1761478526508198100,5.4541982421875,0.045521680265665054,0.20370759069919586,-0.03345729410648346
1761478526518234000,5.464234130859375,0.12014265358448029,0.017470337450504303,-0.01555552426725626
1761478526528270000,5.47427001953125,0.14482562243938446,-0.17508180439472198,-0.004857872147113085
1761478526538306000,5.48430615234375,0.1278064250946045,-0.2865622639656067,0.022582806646823883
1761478526548342000,5.494342041015625,0.08479584753513336,-0.316834419965744,0.09203192591667175
1761478526558377000,5.504376953125,0.027889687567949295,-0.2977946698665619,0.1757420003414154
1761478526568413000,5.514412841796875,-0.032647158950567245,-0.26206836104393005,0.24966362118721008
1761478526578449000,5.524448974609375,-0.07687587291002274,-0.22415080666542053,0.3037511110305786
1761478526588485000,5.534485107421875,-0.09490680694580078,-0.20669245719909668,0.32516583800315857
1761478526598521000,5.54452099609375,-0.075595423579216,-0.19433192908763885,0.3221924304962158
1761478526608557000,5.55455712890625,-0.04554644599556923,-0.19457906484603882,0.2864251136779785
1761478526618592000,5.564592041015625,-0.031858861446380615,-0.18757282197475433,0.21542389690876007
1761478526628628000,5.5746279296875,-0.024463264271616936,-0.154571995139122,0.1271132081747055
1761478526638664000,5.584663818359375,-0.025080319494009018,-0.10453253239393234,0.04936275631189346
1761478526648700000,5.594699951171875,-0.02533305250108242,-0.06505889445543289,-0.008153799921274185
1761478526658735900,5.60473583984375,-0.023869913071393967,-0.05128129571676254,-0.03917216882109642
1761478526668772000,5.614772216796875,-0.024585504084825516,-0.05140460282564163,-0.05217558518052101
1761478526678807000,5.62480712890625,-0.03844219818711281,-0.05004985257983208,-0.0432681106030941
1761478526688843000,5.634843017578125,-0.06800434738397598,-0.0380224846303463,-0.007541805971413851
1761478526698879000,5.64487890625,-0.111282579600811,-0.009582586586475372,0.04321857541799545
1761478526708915000,5.6549150390625,-0.14977698028087616,0.020614730194211006,0.09560695290565491
1761478526718951000,5.664950927734375,-0.17266204953193665,0.04406093433499336,0.1411627233028412
1761478526728987000,5.67498681640625,-0.1849011480808258,0.06191103905439377,0.17908266186714172
1761478526739022800,5.68502294921875,-0.1687472015619278,0.04300925135612488,0.18636082112789154
1761478526749058000,5.69505810546875,-0.1267150640487671,-0.012852149084210396,0.17620672285556793
1761478526759094000,5.705093994140625,-0.08063119649887085,-0.06800515204668045,0.15246330201625824
1761478526769130000,5.7151298828125,-0.05423154681921005,-0.11176913976669312,0.11604510992765427
1761478526779166000,5.725166015625,-0.03873248025774956,-0.12191765010356903,0.09296748787164688
1761478526789202000,5.735201904296875,-0.03425038233399391,-0.10809451341629028,0.08104424923658371
1761478526799237000,5.745237060546875,-0.038294658064842224,-0.054424893110990524,0.07639171183109283
1761478526809273000,5.755273193359375,-0.03478061780333519,-0.012890231795608997,0.08222376555204391
1761478526819309000,5.76530908203125,-0.016157664358615875,0.004894357640296221,0.08798445016145706
1761478526829345000,5.775344970703125,0.00501047121360898,-0.005878928117454052,0.09809567034244537
1761478526839381000,5.785381103515625,0.037511687725782394,-0.021570006385445595,0.11051985621452332
1761478526849417000,5.7954169921875,0.07482470571994781,-0.04689320549368858,0.12419891357421875
1761478526859453000,5.805452880859375,0.10200253129005432,-0.09638991951942444,0.13833683729171753
1761478526869488000,5.815488037109375,0.10122036188840866,-0.13376525044441223,0.157429039478302
1761478526879524000,5.825524169921875,0.0903935432434082,-0.1514347940683365,0.17177948355674744
1761478526889560000,5.83556005859375,0.07434426993131638,-0.14193396270275116,0.17270146310329437
1761478526899596000,5.845595947265625,0.0561588779091835,-0.13439908623695374,0.15987221896648407
1761478526909632000,5.855632080078125,0.05053934082388878,-0.11221655458211899,0.13069729506969452
1761478526919668000,5.86566796875,0.058518968522548676,-0.09065613150596619,0.1137113869190216
1761478526929703000,5.875702880859375,0.07431657612323761,-0.09010858833789825,0.10730168968439102
1761478526939739000,5.88573876953125,0.0912817120552063,-0.08003837615251541,0.08764489740133286
1761478526949775000,5.895775146484375,0.0998765304684639,-0.07890040427446365,0.06387245655059814
1761478526959811000,5.90581103515625,0.09077198058366776,-0.08354256302118301,0.04579012468457222
1761478526969847000,5.915846923828125,0.07372348755598068,-0.07042942196130753,0.013556022197008133
1761478526979883000,5.925883056640625,0.051843490451574326,-0.04604179412126541,-0.029799707233905792
1761478526989918000,5.93591796875,0.05217265710234642,0.003979295492172241,-0.10374024510383606
1761478526999954000,5.945953857421875,0.07364865392446518,0.08774449676275253,-0.19619295001029968
1761478527009990000,5.955989990234375,0.0631030723452568,0.14880013465881348,-0.2817171812057495
1761478527020025900,5.96602587890625,-0.0022101574577391148,0.1983189433813095,-0.3482666313648224
1761478527030062000,5.97606201171875,-0.10928920656442642,0.2231832891702652,-0.38587820529937744
1761478527040098000,5.98609814453125,-0.22673115134239197,0.20327802002429962,-0.36967551708221436
1761478527050133000,5.996133056640625,-0.3278582990169525,0.1588282585144043,-0.3172384202480316
1761478527060169500,6.00616943359375,-0.376536101102829,0.11480061709880829,-0.2348143756389618
1761478527070205400,6.016205322265625,-0.3610796332359314,0.05355323851108551,-0.1419864296913147
1761478527080241400,6.026241455078125,-0.3169960677623749,-0.03164208307862282,-0.03110385686159134
1761478527090277400,6.03627734375,-0.27990514039993286,-0.0900001972913742,0.0907600000500679
1761478527100313300,6.046313232421875,-0.2720744013786316,-0.10286646336317062,0.1820739358663559
1761478527110349300,6.056349365234375,-0.2937445342540741,-0.0968591645359993,0.22179551422595978
1761478527120384500,6.066384521484375,-0.32418525218963623,-0.08336253464221954,0.19898739457130432
1761478527130420500,6.07642041015625,-0.3235833942890167,-0.09363114833831787,0.1345950961112976
1761478527140456400,6.08645654296875,-0.28732872009277344,-0.1205514445900917,0.06205404922366142
1761478527150492400,6.096492431640625,-0.2236621230840683,-0.13421399891376495,0.019276492297649384
1761478527160528400,6.1065283203125,-0.1612733155488968,-0.09806131571531296,0.008680307306349277
1761478527170564400,6.116564453125,-0.11269139498472214,-0.04776858910918236,0.0030714236199855804
1761478527180599600,6.126599609375,-0.06731592118740082,0.01498374342918396,0.011096326634287834
1761478527190635500,6.136635498046875,-0.010144513100385666,0.06444183737039566,0.01624688133597374
1761478527200671500,6.14667138671875,0.04760826379060745,0.09330730885267258,0.013600231148302555
1761478527210707500,6.15670751953125,0.08771387487649918,0.08519691973924637,-0.004801945760846138
1761478527220743400,6.166743408203125,0.09476832300424576,0.07517997175455093,-0.04984398931264877
1761478527230779400,6.176779296875,0.07292480766773224,0.06419523060321808,-0.11002690345048904
1761478527240814300,6.186814453125,0.03765470162034035,0.046357378363609314,-0.17534492909908295
1761478527250850600,6.1968505859375,0.016504941508173943,0.0107708889991045,-0.2263292819261551
1761478527260886500,6.206886474609375,0.007955661043524742,-0.013709953054785728,-0.24987055361270905
1761478527270922500,6.216922607421875,0.009069128893315792,-0.029559755697846413,-0.24716877937316895
1761478527280958500,6.22695849609375,0.0036272252909839153,-0.026444390416145325,-0.2193792313337326
1761478527290994400,6.236994384765625,-0.010783671401441097,0.0026706180069595575,-0.17439496517181396
1761478527301029400,6.247029296875,-0.021391840651631355,0.04996596276760101,-0.13303528726100922
1761478527311065300,6.2570654296875,-0.02570296637713909,0.07491019368171692,-0.09868822991847992
1761478527321101300,6.267101318359375,-0.028671326115727425,0.05518016591668129,-0.07007122784852982
1761478527331137500,6.277137451171875,-0.04122386872768402,0.010548780672252178,-0.052437376230955124
1761478527341173500,6.287173583984375,-0.047445278614759445,-0.023851536214351654,-0.0483907014131546
1761478527351209500,6.29720947265625,-0.06353236734867096,-0.04111387953162193,-0.037524737417697906
1761478527361244400,6.307244384765625,-0.0765048936009407,-0.04968872666358948,-0.026624953374266624
1761478527371280400,6.3172802734375,-0.08577588945627213,-0.054909322410821915,-0.0032232238445430994
1761478527381316400,6.32731640625,-0.08414576947689056,-0.04779655113816261,0.015928899869322777
1761478527391352300,6.337352294921875,-0.08185917884111404,-0.05488375574350357,0.02694852650165558
1761478527401388300,6.34738818359375,-0.0637773796916008,-0.081394724547863,0.028625253587961197
1761478527411424500,6.357424560546875,-0.03696334362030029,-0.10532721877098083,0.02888171561062336
1761478527421460700,6.367460693359375,-0.0119091235101223,-0.11649039387702942,0.026975424960255623
1761478527431495400,6.377495361328125,0.019712718203663826,-0.10635706782341003,0.028846828266978264
1761478527441531400,6.387531494140625,0.07078362256288528,-0.07800532132387161,0.04121428355574608
1761478527451567400,6.3975673828125,0.12481410056352615,-0.04319300875067711,0.06272409856319427
1761478527461603300,6.407603271484375,0.16796183586120605,-0.00021012341312598437,0.06964273005723953
1761478527471639300,6.417639404296875,0.19256465137004852,0.04254665970802307,0.06169505417346954
1761478527481675500,6.427675537109375,0.18972785770893097,0.06479471176862717,0.03454013541340828
1761478527491710500,6.43771044921875,0.1762506663799286,0.06156482547521591,0.002282329136505723
1761478527501746400,6.447746337890625,0.1528441458940506,0.059246279299259186,-0.02088850364089012
1761478527511782400,6.457782470703125,0.1307516247034073,0.04870229214429855,-0.026251310482621193
1761478527521818400,6.467818359375,0.11624617874622345,0.039383091032505035,-0.016696421429514885
1761478527531854600,6.4778544921875,0.12028859555721283,0.020869595929980278,0.0004191815387457609
1761478527541890600,6.487890625,0.1390034258365631,-0.0013459615875035524,0.013907826505601406
1761478527551925500,6.497925537109375,0.1519533097743988,0.009296828880906105,0.034761443734169006
1761478527561961500,6.50796142578125,0.1641726940870285,0.035714589059352875,0.058572232723236084
1761478527571997400,6.51799755859375,0.1663634181022644,0.05742707476019859,0.07216474413871765
1761478527582033400,6.528033447265625,0.16084960103034973,0.05905266851186752,0.07659783959388733
1761478527592069600,6.538069580078125,0.1565970629453659,0.037274666130542755,0.07719998061656952
1761478527602105600,6.548105712890625,0.15299567580223083,0.005603556986898184,0.09171447157859802
1761478527612140500,6.558140625,0.14178483188152313,-0.03641686215996742,0.11295344680547714
1761478527622176500,6.568176513671875,0.11710904538631439,-0.06396513432264328,0.13141608238220215
1761478527632212500,6.57821240234375,0.0748303011059761,-0.08475244045257568,0.15794169902801514
1761478527642248700,6.588248779296875,0.023805996403098106,-0.08672983199357986,0.17991304397583008
1761478527652284700,6.59828466796875,-0.010418286547064781,-0.0771256759762764,0.19379903376102448
1761478527662320600,6.608320556640625,-0.01483753602951765,-0.08213135600090027,0.1951463222503662
1761478527672356600,6.618356689453125,0.009985256008803844,-0.06449936330318451,0.17881529033184052
1761478527682391300,6.628391357421875,0.07113675773143768,-0.0007147924043238163,0.13032791018486023
1761478527692427500,6.638427490234375,0.17321732640266418,0.12924666702747345,0.04848524555563927
1761478527702463700,6.648463623046875,0.31844907999038696,0.33571383357048035,-0.06798384338617325
1761478527712499700,6.658499755859375,0.5015416741371155,0.5461165904998779,-0.2079356163740158
1761478527722535700,6.66853564453125,0.6665090322494507,0.7044638991355896,-0.3461081385612488
1761478527732571600,6.678571533203125,0.6687397360801697,0.6514092087745667,-0.4101766049861908
1761478527742606300,6.6886064453125,0.3630141615867615,0.3077314496040344,-0.2975408732891083
1761478527752642600,6.698642578125,0.1619340479373932,0.033967021852731705,-0.2622617185115814
1761478527762678500,6.708678466796875,0.036740437150001526,-0.1020699068903923,-0.26004889607429504
1761478527772714500,6.718714599609375,-0.04079696536064148,-0.12892229855060577,-0.2110091745853424
1761478527782750700,6.728750732421875,-0.056295763701200485,-0.08185891062021255,-0.06618594378232956
1761478527792786700,6.73878662109375,0.006976416800171137,-0.007236607372760773,0.1402692198753357
1761478527802821400,6.7488212890625,0.15603327751159668,0.024750620126724243,0.36034485697746277
1761478527812857600,6.758857666015625,0.361555278301239,-0.019769443199038506,0.5400168895721436
1761478527822893600,6.7688935546875,0.42196720838546753,-0.17218828201293945,0.6864089965820312
1761478527832929500,6.778929443359375,0.4378710985183716,-0.2404211312532425,0.7229307889938354
1761478527842965500,6.788965576171875,0.40872278809547424,-0.22001305222511292,0.6597307920455933
1761478527853001500,6.79900146484375,0.35404783487319946,-0.1567392796278,0.5607829093933105
1761478527863036700,6.80903662109375,0.29832249879837036,-0.07422789186239243,0.4687834680080414
1761478527873072600,6.81907275390625,0.2766276001930237,-0.0368962325155735,0.4006265103816986
1761478527883108600,6.829108642578125,0.2806210219860077,-0.02822391502559185,0.3421677350997925
1761478527893144600,6.83914453125,0.29497039318084717,-0.04223986342549324,0.27698206901550293
1761478527903180500,6.8491806640625,0.3061034679412842,-0.06179891899228096,0.19977836310863495
1761478527913216500,6.859216552734375,0.3018155097961426,-0.039623577147722244,0.10744470357894897
1761478527923252500,6.86925244140625,0.28466448187828064,-0.0001728391507640481,0.01986158825457096
1761478527933287700,6.87928759765625,0.23461224138736725,0.041674740612506866,-0.02803962305188179
1761478527943323600,6.88932373046875,0.16542544960975647,0.08144345879554749,-0.053288254886865616
1761478527953359600,6.899359619140625,0.10167629271745682,0.09877610951662064,-0.05125732719898224
1761478527963395600,6.9093955078125,0.05740869790315628,0.08748190850019455,-0.030376547947525978
1761478527973431600,6.919431640625,0.03183995559811592,0.04632914811372757,-0.01398612279444933
1761478527983467500,6.929467529296875,0.021931396797299385,-0.0025981799699366093,-0.008982841856777668
1761478527993502700,6.939502685546875,-0.004772917367517948,-0.039983902126550674,-0.008167115971446037
1761478528003538700,6.94953857421875,-0.05290742218494415,-0.05813281238079071,-0.005844839382916689
1761478528013574700,6.95957470703125,-0.10449258983135223,-0.024153273552656174,0.014696122147142887
1761478528023610600,6.969610595703125,-0.13784441351890564,0.021146297454833984,0.048594433814287186
1761478528033646600,6.979646484375,-0.15289899706840515,0.02364088036119938,0.08094678074121475
1761478528043682600,6.9896826171875,-0.16022402048110962,0.028503280133008957,0.08429756760597229
1761478528053717500,6.999717529296875,-0.15893211960792542,0.05940846726298332,0.05621400475502014
1761478528063753200,7.009753173828125,-0.1417539417743683,0.09383035451173782,0.009862218052148819
1761478528073789200,7.0197890625,-0.11606881767511368,0.10971211642026901,-0.026858245953917503
1761478528083825200,7.0298251953125,-0.08996930718421936,0.09848875552415848,-0.051358263939619064
1761478528093861000,7.039861083984375,-0.08059417456388474,0.06112673878669739,-0.06058984249830246
1761478528103897000,7.04989697265625,-0.10522202402353287,0.019658656790852547,-0.07056578248739243
1761478528113932000,7.05993212890625,-0.12564314901828766,-0.010075803846120834,-0.0553431510925293
1761478528123968000,7.069968017578125,-0.12020576745271683,-0.020081566646695137,-0.008186024613678455
1761478528134004200,7.080004150390625,-0.09867171198129654,0.0010663296561688185,0.07380631566047668
1761478528144040200,7.090040283203125,-0.07130134105682373,0.031441811472177505,0.16264377534389496
1761478528154076200,7.100076171875,-0.027825506404042244,0.03875485435128212,0.21809931099414825
1761478528164112100,7.110112060546875,0.02827824279665947,0.008856342174112797,0.24057266116142273
1761478528174148000,7.120148193359375,0.09445380419492722,-0.07341323047876358,0.24051140248775482
1761478528184183000,7.13018310546875,0.17542001605033875,-0.1539379060268402,0.21237431466579437
1761478528194219000,7.140218994140625,0.24549897015094757,-0.18599729239940643,0.17693722248077393
1761478528204255200,7.150255126953125,0.31083032488822937,-0.16692587733268738,0.15873771905899048
1761478528214291200,7.160291259765625,0.35155269503593445,-0.11451485753059387,0.15238447487354279
1761478528224327200,7.1703271484375,0.3647060692310333,-0.06034163758158684,0.13194924592971802
1761478528234363100,7.180363037109375,0.36048442125320435,-0.02900209091603756,0.10708357393741608
1761478528244398000,7.190398193359375,0.364734023809433,-0.03344743698835373,0.07900826632976532
1761478528254434000,7.20043408203125,0.36458274722099304,-0.06114324927330017,0.047566987574100494
1761478528264470000,7.210469970703125,0.3491976857185364,-0.08370714634656906,0.0031313446816056967
1761478528274506000,7.220506103515625,0.30650028586387634,-0.08151163905858994,-0.05248983949422836
1761478528284542200,7.230542236328125,0.2464158982038498,-0.054663512855768204,-0.102803073823452
1761478528294578200,7.240578125,0.20930634438991547,-0.02250051498413086,-0.12082015722990036
1761478528304613000,7.250613037109375,0.19225412607192993,-0.007472030818462372,-0.1016794890165329
1761478528314649000,7.260649169921875,0.1748112291097641,0.007949535734951496,-0.06131422519683838
1761478528324685000,7.27068505859375,0.1331055909395218,-0.004456267226487398,-0.038659512996673584
1761478528334721000,7.280720947265625,0.08007912337779999,-0.03935246542096138,-0.013904097490012646
1761478528344757000,7.290757080078125,0.01762400008738041,-0.0883098915219307,-0.00011052118497900665
1761478528354793000,7.30079296875,-0.04415334761142731,-0.1314437836408615,0.015061773359775543
1761478528364828200,7.310828125,-0.07764898985624313,-0.13663561642169952,0.0408739298582077
1761478528374864100,7.320864013671875,-0.09426338225603104,-0.11052384972572327,0.0621081106364727
1761478528384900000,7.330900146484375,-0.0874725878238678,-0.08807633072137833,0.07881651818752289
1761478528394936000,7.34093603515625,-0.08160458505153656,-0.10521270334720612,0.06986403465270996
1761478528404972000,7.350971923828125,-0.0928172916173935,-0.14826057851314545,0.02652987837791443
1761478528415008000,7.361008056640625,-0.11043862998485565,-0.19850590825080872,-0.03618596866726875
1761478528425044000,7.3710439453125,-0.14315955340862274,-0.20111046731472015,-0.10784044861793518
1761478528435079200,7.3810791015625,-0.17469404637813568,-0.1550164818763733,-0.16468802094459534
1761478528445115100,7.391115234375,-0.19154439866542816,-0.09634118527173996,-0.19611038267612457
1761478528455151000,7.401151123046875,-0.1761329472064972,-0.04379062354564667,-0.19101469218730927
1761478528465187000,7.41118701171875,-0.13374128937721252,-0.010636664927005768,-0.17004869878292084
1761478528475223000,7.42122314453125,-0.09825626015663147,-0.011954396963119507,-0.16205920279026031
1761478528485259000,7.431259033203125,-0.09264897555112839,-0.02346111834049225,-0.17323729395866394
1761478528495294200,7.441294189453125,-0.11108444631099701,-0.024816399440169334,-0.1864479035139084
1761478528505330200,7.451330078125,-0.15384042263031006,-0.04003024101257324,-0.19666005671024323
1761478528515366100,7.4613662109375,-0.20871299505233765,-0.030184267088770866,-0.19247198104858398
1761478528525402000,7.471402099609375,-0.2570829391479492,-0.014064153656363487,-0.17432253062725067
1761478528535438000,7.48143798828125,-0.2795964777469635,-0.016520919278264046,-0.14184288680553436
1761478528545474000,7.49147412109375,-0.29018867015838623,-0.038958851248025894,-0.11738015711307526
1761478528555509000,7.501509033203125,-0.31423383951187134,-0.05431889742612839,-0.11636868864297867
1761478528565545000,7.511544921875,-0.33689600229263306,-0.053170278668403625,-0.12126677483320236
1761478528575581200,7.521581298828125,-0.3590526878833771,-0.08133480697870255,-0.13465741276741028
1761478528585617200,7.5316171875,-0.38505926728248596,-0.08808298408985138,-0.1496097296476364
1761478528595653000,7.541653076171875,-0.390060693025589,-0.070831298828125,-0.15514111518859863
1761478528605689000,7.551689208984375,-0.3734138011932373,-0.04054662585258484,-0.15018443763256073
1761478528615725000,7.56172509765625,-0.35017693042755127,-0.02690937928855419,-0.1393003612756729
1761478528625760000,7.571760009765625,-0.3330850303173065,-0.0285810437053442,-0.13381026685237885
1761478528635796000,7.5817958984375,-0.3116372525691986,-0.013925403356552124,-0.1129838079214096
1761478528645832000,7.59183203125,-0.2823408842086792,0.004239486064761877,-0.09641867876052856
1761478528655868200,7.6018681640625,-0.23928901553153992,0.02659432590007782,-0.0679023489356041
1761478528665904000,7.611904052734375,-0.1986616998910904,0.048591237515211105,-0.022173745557665825
1761478528675940000,7.621940185546875,-0.16443102061748505,0.04037005826830864,0.01925145834684372
1761478528685975000,7.63197509765625,-0.1404750943183899,0.009343700483441353,0.05664090812206268
1761478528696011000,7.642010986328125,-0.11343122273683548,-0.03742353990674019,0.07987139374017715
1761478528706047000,7.652046875,-0.10550139099359512,-0.089502714574337,0.09145481884479523
1761478528716083000,7.6620830078125,-0.11663207411766052,-0.1213301569223404,0.08455350250005722
1761478528726119200,7.672119140625,-0.14207804203033447,-0.0878843143582344,0.07627320289611816
1761478528736155100,7.682155029296875,-0.16865399479866028,-0.03255341574549675,0.06707410514354706
1761478528746190000,7.692190185546875,-0.16568218171596527,0.012722453102469444,0.061707839369773865
1761478528756226000,7.70222607421875,-0.12406975030899048,0.059546418488025665,0.04627295583486557
1761478528766262000,7.712261962890625,-0.07298659533262253,0.07397782057523727,-0.00782436691224575
1761478528776298000,7.722298095703125,-0.06560537219047546,0.07401137799024582,-0.10506729781627655
1761478528786334000,7.732333984375,-0.13452239334583282,0.050820834934711456,-0.20232008397579193
1761478528796370000,7.742369873046875,-0.24242009222507477,0.009465673007071018,-0.23916997015476227
1761478528806406100,7.75240625,-0.43051251769065857,-0.030129140242934227,-0.21250800788402557
1761478528816441000,7.762441162109375,-0.7532322406768799,-0.18615469336509705,-0.10992597043514252
1761478528826477000,7.77247705078125,-0.7159024477005005,-0.1283542364835739,-0.1333324909210205
1761478528836513000,7.782512939453125,-0.5845896601676941,-0.1357671469449997,-0.11973545700311661
1761478528846549000,7.792549072265625,-0.3671300709247589,-0.13734880089759827,-0.055096808820962906
1761478528856585000,7.8025849609375,-0.24915309250354767,-0.141494020819664,-0.03711327910423279
1761478528866621000,7.812620849609375,-0.2570038437843323,-0.12279516458511353,-0.08975891768932343
1761478528876656000,7.82265625,-0.3093234896659851,-0.07695657014846802,-0.15242736041545868
1761478528886692000,7.832692138671875,-0.3460271954536438,-0.0724044218659401,-0.18057191371917725
1761478528896728000,7.84272802734375,-0.35499536991119385,-0.06674440950155258,-0.1278301328420639
1761478528906764000,7.852763916015625,-0.33012837171554565,-0.08121363073587418,-0.05288984626531601
1761478528916800000,7.862800048828125,-0.2958734631538391,-0.15218287706375122,0.03039226122200489
1761478528926836000,7.8728359375,-0.2757415771484375,-0.22471779584884644,0.10619781166315079
1761478528936871200,7.88287109375,-0.2618965804576874,-0.30910590291023254,0.1630437821149826
1761478528946907100,7.8929072265625,-0.27063441276550293,-0.34650522470474243,0.1878495216369629
1761478528956943000,7.902943115234375,-0.24792005121707916,-0.2934987246990204,0.17808876931667328
1761478528966979000,7.91297900390625,-0.18184277415275574,-0.19809576869010925,0.10080543905496597
1761478528977015000,7.92301513671875,-0.10818053036928177,-0.09605249762535095,-0.027348533272743225
1761478528987051000,7.933051025390625,-0.06197362393140793,-0.00043595946044661105,-0.1376609206199646
1761478528997087000,7.9430869140625,-0.03935086727142334,0.05350743234157562,-0.21559780836105347
1761478529007122000,7.953121826171875,-0.028132036328315735,0.04615497961640358,-0.24866867065429688
1761478529017158100,7.963158203125,-0.025048628449440002,0.02684413082897663,-0.24488565325737
1761478529027194000,7.973194091796875,-0.02009647898375988,0.01489292923361063,-0.20722030103206635
1761478529037230000,7.98322998046875,0.00523790530860424,0.025800172239542007,-0.1440807431936264
1761478529047266000,7.99326611328125,0.044685713946819305,0.034746263176202774,-0.06700513511896133
1761478529057302000,8.003302001953125,0.0800279900431633,0.07323852926492691,-0.005317800212651491
1761478529067336400,8.01333642578125,0.1023910865187645,0.08594659715890884,0.009958358481526375
1761478529077372400,8.023372314453125,0.11347116529941559,0.06306605041027069,0.0008141283178701997
1761478529087408400,8.033408447265625,0.11196781694889069,0.015621303580701351,-0.014794392511248589
1761478529097444400,8.0434443359375,0.08302751183509827,-0.05969369038939476,-0.015735819935798645
1761478529107480300,8.053480224609375,0.03936444967985153,-0.11794288456439972,-0.0024429175537079573
1761478529117516300,8.063516357421875,-0.026501381769776344,-0.17186203598976135,0.002517486223950982
1761478529127551200,8.07355126953125,-0.12192137539386749,-0.18577438592910767,-0.0007757788407616317
1761478529137587200,8.083587158203125,-0.20933857560157776,-0.12463540583848953,0.00939137116074562
1761478529147623400,8.09362353515625,-0.2577255368232727,-0.04698348790407181,0.025006815791130066
1761478529157659400,8.103659423828125,-0.24533678591251373,0.03435877338051796,0.0306394025683403
1761478529167695400,8.1136953125,-0.196486696600914,0.11285491287708282,0.009837983176112175
1761478529177731300,8.1237314453125,-0.14614735543727875,0.16183070838451385,-0.039079759269952774
1761478529187767600,8.133767578125,-0.12366761267185211,0.172127828001976,-0.0982368215918541
1761478529197802200,8.14380224609375,-0.11715725064277649,0.12248783558607101,-0.16300515830516815
1761478529207838200,8.153838134765625,-0.12400024384260178,0.117828369140625,-0.21705108880996704
1761478529217874200,8.163874267578125,-0.12273097783327103,0.14409032464027405,-0.24306511878967285
1761478529227910400,8.173910400390625,-0.09162339568138123,0.16930539906024933,-0.24830222129821777
1761478529237946400,8.1839462890625,-0.047870587557554245,0.17964886128902435,-0.23222072422504425
1761478529247982600,8.193982666015625,-0.03274782747030258,0.19031988084316254,-0.1661873757839203
1761478529258017300,8.204017333984375,-0.04585510492324829,0.1971367746591568,-0.04181216284632683
1761478529268053200,8.21405322265625,-0.04523512348532677,0.15873904526233673,0.09911885857582092
1761478529278089200,8.224089111328125,-0.012703810818493366,0.11179044842720032,0.2220117598772049
1761478529288125200,8.234125244140625,0.038248587399721146,0.08664088696241379,0.27718526124954224
1761478529298161400,8.244161376953125,0.08852134644985199,0.04596855863928795,0.27326563000679016
1761478529308197400,8.254197265625,0.11533325165510178,0.058818574994802475,0.2323610633611679
1761478529318232300,8.264232421875,0.08645659685134888,0.1353445053100586,0.2280118614435196
1761478529328268300,8.274268310546875,0.014670022763311863,0.2734898626804352,0.23968742787837982
1761478529338304300,8.28430419921875,-0.0222653578966856,0.47160935401916504,0.23758858442306519
1761478529348340200,8.29434033203125,-0.004032824654132128,0.549701988697052,0.08324988186359406
1761478529358376400,8.30437646484375,0.028255606070160866,0.5022678971290588,-0.16278278827667236
1761478529368412400,8.314412353515625,-0.0007901599165052176,0.5118603706359863,-0.32062700390815735
1761478529378448400,8.324448486328125,0.08562089502811432,0.10858799517154694,-0.8484692573547363
1761478529388483300,8.3344833984375,0.044015660881996155,0.25642699003219604,-0.933597981929779
1761478529398519300,8.344519287109375,-0.08325494080781937,0.12909646332263947,-0.8780167698860168
1761478529408555500,8.354555419921875,-0.22357982397079468,0.12631426751613617,-0.6766093373298645
1761478529418591500,8.364591552734375,-0.3238736689090729,0.21243369579315186,-0.4250490367412567
1761478529428627500,8.37462744140625,-0.34612253308296204,0.2751767039299011,-0.2253204733133316
1761478529438663400,8.384663330078125,-0.2746339440345764,0.2859393358230591,-0.05510026961565018
1761478529448698400,8.394698486328124,-0.1563669741153717,0.244379922747612,0.048525989055633545
