time,seconds_elapsed,z,y,x
1761505719152094700,0.0670947265625,0.2304617017507553,0.0016053534345701337,-0.15066993236541748
1761505719162131000,0.077130859375,0.18321776390075684,-0.021144699305295944,-0.13081127405166626
1761505719172168000,0.08716796875,0.12141750752925873,-0.05633943900465965,-0.08795621991157532
1761505719182204000,0.097203857421875,0.06638195365667343,-0.1264849752187729,-0.027416443452239037
1761505719192239900,0.107239990234375,0.04198846220970154,-0.1917332112789154,0.028269721195101738
1761505719202276000,0.117276123046875,0.047580037266016006,-0.23049525916576385,0.07914142310619354
1761505719212312000,0.12731201171875,0.06284581124782562,-0.20324578881263733,0.134134903550148
1761505719222349000,0.13734912109375,0.0768151506781578,-0.163295179605484,0.18750864267349243
1761505719232385000,0.147385009765625,0.10611045360565186,-0.139889195561409,0.24127227067947388
1761505719242421000,0.1574208984375,0.16227252781391144,-0.1183633953332901,0.30370181798934937
1761505719252457000,0.16745703125,0.25328153371810913,-0.07435093075037003,0.3603920042514801
1761505719262493000,0.177492919921875,0.3591917157173157,-0.02117772400379181,0.3978397846221924
1761505719272530000,0.187530029296875,0.44539985060691833,0.006826480850577354,0.4216782748699188
1761505719282566000,0.19756591796875,0.48672276735305786,-0.003087668912485242,0.46191781759262085
1761505719292601900,0.207601806640625,0.4765276610851288,-0.022111160680651665,0.5458646416664124
1761505719302637800,0.217637939453125,0.4355698525905609,-0.039148468524217606,0.6694667339324951
1761505719312673800,0.227673828125,0.3939659297466278,-0.07471205294132233,0.7950683832168579
1761505719322711000,0.2377109375,0.37403884530067444,-0.17311106622219086,0.8811145424842834
1761505719332747000,0.2477470703125,0.38339105248451233,-0.273090124130249,0.8955965638160706
1761505719342783000,0.257782958984375,0.4005759060382843,-0.29552513360977173,0.8122316598892212
1761505719352819000,0.26781884765625,0.4074157178401947,-0.18120121955871582,0.6329255104064941
1761505719362855000,0.27785498046875,0.3885203003883362,0.010903513990342617,0.3810381591320038
1761505719372892000,0.287891845703125,0.3458484709262848,0.23998090624809265,0.14188656210899353
1761505719382928000,0.297927978515625,0.2683430314064026,0.37263721227645874,0.013790646567940712
1761505719392963800,0.3079638671875,0.13180837035179138,0.37626391649246216,0.04573472961783409
1761505719402999800,0.317999755859375,-0.0474143885076046,0.33639878034591675,0.16028980910778046
1761505719413035800,0.328035888671875,-0.24368509650230408,0.28070488572120667,0.28915935754776
1761505719423071700,0.33807177734375,-0.43904685974121094,0.09328094124794006,0.39274168014526367
1761505719433108700,0.348108642578125,-0.5452052354812622,-0.19269594550132751,0.45841658115386963
1761505719443144700,0.358144775390625,-0.5300287008285522,-0.473111093044281,0.5003978610038757
1761505719453181000,0.368180908203125,-0.4120429456233978,-0.5457890033721924,0.4996851682662964
1761505719463217000,0.378216796875,-0.247258260846138,-0.22108204662799835,0.45842111110687256
1761505719473253000,0.388253173828125,-0.1085139587521553,0.47693300247192383,0.44681450724601746
1761505719483289900,0.398289794921875,-0.02473091334104538,1.1526658535003662,0.4956057667732239
1761505719493325800,0.408325927734375,0.016078568994998932,1.5185693502426147,0.5771855711936951
1761505719503362000,0.418362060546875,0.05308292433619499,1.4734138250350952,0.6484408378601074
1761505719513398000,0.42839794921875,0.0977446660399437,0.9745864272117615,0.6684872508049011
1761505719523434000,0.43843408203125,0.17416301369667053,0.30717724561691284,0.6389000415802002
1761505719533471000,0.448470947265625,0.24926255643367767,-0.3392923176288605,0.588401198387146
1761505719543507000,0.4585068359375,0.2457706183195114,-0.7238775491714478,0.5747935175895691
1761505719553543000,0.46854296875,0.10545345395803452,-0.676045298576355,0.575410008430481
1761505719563579000,0.478578857421875,-0.09079381823539734,-0.4701384902000427,0.5000572204589844
1761505719573614800,0.48861474609375,-0.23413632810115814,-0.25021517276763916,0.33101946115493774
1761505719583652000,0.498652099609375,-0.240345761179924,-0.08465070277452469,0.12892629206180573
1761505719593688000,0.50868798828125,-0.1332206428050995,-0.0777943953871727,-0.08536762744188309
1761505719603724000,0.51872412109375,0.031268440186977386,-0.13183605670928955,-0.28347912430763245
1761505719613760000,0.528760009765625,0.16937145590782166,-0.2449631541967392,-0.44412392377853394
1761505719623796000,0.5387958984375,0.23150832951068878,-0.3178330957889557,-0.5442132353782654
1761505719633833000,0.5488330078125,0.2509555220603943,-0.2803778648376465,-0.6186041235923767
1761505719643869000,0.558868896484375,0.3067343831062317,-0.29127365350723267,-0.6821974515914917
1761505719653905000,0.56890478515625,0.3770495355129242,-0.36553964018821716,-0.7579697370529175
1761505719663940900,0.57894091796875,0.43152689933776855,-0.4919643998146057,-0.8293938636779785
1761505719673976800,0.588976806640625,0.44455188512802124,-0.6209229230880737,-0.8532589673995972
1761505719684013800,0.599013916015625,0.43346861004829407,-0.6729927659034729,-0.8114710450172424
1761505719694049800,0.6090498046875,0.39884379506111145,-0.5961105227470398,-0.7159171104431152
1761505719704085800,0.619085693359375,0.3268015682697296,-0.3521047830581665,-0.5888286232948303
1761505719714121700,0.629121826171875,0.19835543632507324,0.02208373136818409,-0.461603581905365
1761505719724157700,0.63915771484375,0.026312563568353653,0.3906164765357971,-0.3773379623889923
1761505719734195000,0.64919482421875,-0.14409911632537842,0.6097900867462158,-0.3207031786441803
1761505719744231000,0.65923095703125,-0.2586989402770996,0.7440198063850403,-0.2723231315612793
1761505719754267000,0.669266845703125,-0.3419395089149475,0.7939021587371826,-0.21682631969451904
1761505719764302800,0.679302734375,-0.4349866211414337,0.8027755618095398,-0.1295452117919922
1761505719774339000,0.689339111328125,-0.5483691096305847,0.9076495170593262,-0.010634801350533962
1761505719784375800,0.699375732421875,-0.6657804250717163,1.154752492904663,0.10305794328451157
1761505719794411800,0.709411865234375,-0.7508013248443604,1.4176744222640991,0.19792160391807556
1761505719804448000,0.719447998046875,-0.7876884937286377,1.6111078262329102,0.26774144172668457
1761505719814484000,0.72948388671875,-0.7556623816490173,1.6987332105636597,0.30452555418014526
1761505719824519700,0.739519775390625,-0.6533458232879639,1.6635444164276123,0.31397977471351624
1761505719834556700,0.749556640625,-0.5065342783927917,1.5343003273010254,0.3072584867477417
1761505719844592600,0.759592529296875,-0.3457243740558624,1.2452592849731445,0.3003750145435333
1761505719854628600,0.769628662109375,-0.19986838102340698,0.7062774896621704,0.2551287114620209
1761505719864664600,0.77966455078125,-0.15472672879695892,-0.046371493488550186,0.17739449441432953
1761505719874700500,0.789700439453125,-0.20092618465423584,-0.7017224431037903,0.14304158091545105
1761505719884737800,0.79973779296875,-0.26078152656555176,-1.209097981452942,0.17305806279182434
1761505719894773800,0.809773681640625,-0.28327885270118713,-1.6446436643600464,0.19072414934635162
1761505719904809700,0.819809814453125,-0.2023879885673523,-1.9619734287261963,0.07926925271749496
1761505719914845700,0.829845703125,0.041071005165576935,-1.743151307106018,-0.2466617077589035
1761505719924881700,0.839881591796875,0.36726030707359314,-0.9528401494026184,-0.626348078250885
1761505719934918700,0.849918701171875,0.5881987810134888,0.07434240728616714,-0.8481582403182983
1761505719944954600,0.85995458984375,0.6035361886024475,0.8326790928840637,-0.7609207630157471
1761505719954990600,0.869990478515625,0.4942485988140106,1.0826082229614258,-0.39524105191230774
1761505719965026600,0.880026611328125,0.4348803460597992,0.8676804900169373,0.09649138897657394
1761505719975062500,0.8900625,0.4752331078052521,0.3348030149936676,0.6076201796531677
1761505719985099500,0.900099609375,0.500678300857544,-0.14428368210792542,1.0301560163497925
1761505719995135500,0.910135498046875,0.3991979956626892,-0.512039303779602,1.2734568119049072
1761505720005171500,0.92017138671875,0.1717938631772995,-0.7625815272331238,1.2679802179336548
1761505720015207400,0.93020751953125,-0.04408729821443558,-0.8866984248161316,1.016219973564148
1761505720025243600,0.94024365234375,-0.08475963026285172,-0.8839489817619324,0.6330746412277222
1761505720035280600,0.95028076171875,0.011837217956781387,-0.8040192723274231,0.3028775751590729
1761505720045316600,0.960316650390625,0.05874693766236305,-0.690758228302002,0.11831332743167877
1761505720055352600,0.9703525390625,0.019302325323224068,-0.5760806202888489,0.03116803988814354
1761505720065388800,0.980388916015625,-0.049916427582502365,-0.19540837407112122,0.013451360166072845
1761505720075424800,0.9904248046875,-0.09642161428928375,0.499115526676178,-0.0006791060441173613
1761505720085461500,1.00046142578125,-0.07636374980211258,1.2849550247192383,-0.06963153928518295
1761505720095497700,1.010497802734375,0.04873291775584221,1.867266297340393,-0.21853606402873993
1761505720105533700,1.02053369140625,0.25980547070503235,1.8914891481399536,-0.44966062903404236
1761505720115569700,1.030569580078125,0.43119561672210693,1.292239785194397,-0.7093252539634705
1761505720125605600,1.040605712890625,0.45198318362236023,0.39409270882606506,-0.9033753871917725
1761505720135642600,1.050642578125,0.345419704914093,-0.4032454490661621,-0.9689735770225525
1761505720145678600,1.0606787109375,0.16506965458393097,-0.9856159090995789,-0.9275720715522766
1761505720155714600,1.070714599609375,-0.01581970974802971,-1.2998631000518799,-0.8315571546554565
1761505720165750800,1.080750732421875,-0.1542058140039444,-1.3784245252609253,-0.7208945155143738
1761505720175786800,1.090786865234375,-0.24355167150497437,-1.2795740365982056,-0.5990930199623108
1761505720185823700,1.10082373046875,-0.31944429874420166,-0.9615614414215088,-0.4802584946155548
1761505720195859700,1.110859619140625,-0.39397794008255005,-0.5039986968040466,-0.3555256128311157
1761505720205895700,1.120895751953125,-0.47040772438049316,-0.049673814326524734,-0.26504072546958923
1761505720215931600,1.130931640625,-0.5048123002052307,0.390587717294693,-0.21775203943252563
1761505720225967600,1.140967529296875,-0.4875504970550537,0.7468031048774719,-0.18152105808258057
1761505720236004600,1.151004638671875,-0.4548761546611786,0.9686779379844666,-0.12316081672906876
1761505720246040600,1.16104052734375,-0.4265824854373932,1.1051175594329834,-0.03202025219798088
1761505720256076500,1.17107666015625,-0.3778596818447113,1.1794970035552979,0.07020145654678345
1761505720266112500,1.181112548828125,-0.31116825342178345,1.1186195611953735,0.16171592473983765
1761505720276148500,1.1911484375,-0.2432083934545517,0.923955500125885,0.23314696550369263
1761505720286185700,1.201185791015625,-0.1869906634092331,0.6829239726066589,0.28183966875076294
1761505720296221700,1.2112216796875,-0.15765567123889923,0.4142983853816986,0.308355450630188
1761505720306257700,1.221257568359375,-0.12724050879478455,0.12650227546691895,0.31866320967674255
1761505720316293600,1.231293701171875,-0.09795772284269333,-0.18947859108448029,0.32690489292144775
1761505720326329600,1.24132958984375,-0.09185215830802917,-0.4565853774547577,0.35808998346328735
1761505720336366600,1.25136669921875,-0.11366584151983261,-0.6219421029090881,0.43652138113975525
1761505720346402600,1.261402587890625,-0.16608111560344696,-0.6759872436523438,0.5836091041564941
1761505720356438500,1.2714384765625,-0.19315987825393677,-0.6403828859329224,0.7692497968673706
1761505720366474800,1.281474853515625,-0.16474340856075287,-0.5672069787979126,0.8841848969459534
1761505720376511500,1.291511474609375,-0.05037182569503784,-0.43992331624031067,0.8251000046730042
1761505720386547500,1.30154736328125,0.12888075411319733,-0.3003196120262146,0.6075607538223267
1761505720396583700,1.311583740234375,0.26021480560302734,-0.14261893928050995,0.38719406723976135
1761505720406619600,1.32161962890625,0.2305285483598709,0.0029196233954280615,0.3018871545791626
1761505720416655600,1.331655517578125,0.050758518278598785,0.135146364569664,0.36009079217910767
1761505720426692600,1.341692626953125,-0.18467716872692108,0.14676786959171295,0.45757314562797546
1761505720436728800,1.351728759765625,-0.30121657252311707,0.07942691445350647,0.4557856321334839
1761505720446764800,1.361764892578125,-0.2109239548444748,0.07990574836730957,0.3628295958042145
1761505720456800800,1.37180078125,-0.03460245206952095,0.23660267889499664,0.32212451100349426
1761505720466836700,1.381836669921875,0.08686912059783936,0.48855796456336975,0.4010254442691803
1761505720476873700,1.391873779296875,0.11338035762310028,0.7771194577217102,0.5860666632652283
1761505720486909700,1.40190966796875,0.08764836192131042,1.0091947317123413,0.7809094190597534
1761505720496945700,1.411945556640625,0.045090511441230774,1.0789728164672852,0.8435986042022705
1761505720506981600,1.421981689453125,-0.015191202983260155,0.9296419024467468,0.7101808786392212
1761505720517017600,1.432017578125,-0.0649036318063736,0.5143088698387146,0.4191163182258606
1761505720527054600,1.4420546875,-0.103669673204422,-0.10145898163318634,0.04416852816939354
1761505720537090600,1.452090576171875,-0.12934866547584534,-0.8223180770874023,-0.3162738084793091
1761505720547126500,1.46212646484375,-0.1372755616903305,-1.4357887506484985,-0.5683113932609558
1761505720557162500,1.47216259765625,-0.1773337721824646,-1.794920802116394,-0.6283845901489258
1761505720567198500,1.482198486328125,-0.259981244802475,-1.8385587930679321,-0.49373966455459595
1761505720577235700,1.492235595703125,-0.3423805236816406,-1.553307294845581,-0.2445644736289978
1761505720587271700,1.502271728515625,-0.4008060097694397,-1.0163980722427368,0.04555443674325943
1761505720597307600,1.5123076171875,-0.3983455002307892,-0.4305900037288666,0.2971477806568146
1761505720607343600,1.522343505859375,-0.3020123243331909,0.023393206298351288,0.4520319104194641
1761505720617379600,1.532379638671875,-0.15505962073802948,0.34681016206741333,0.4433992803096771
1761505720627416600,1.54241650390625,-0.029980536550283432,0.3674539029598236,0.2447194755077362
1761505720637452500,1.55245263671875,0.07083422690629959,-0.0036195022985339165,-0.15464603900909424
1761505720647488500,1.562488525390625,0.19968807697296143,-0.5988362431526184,-0.7040103673934937
1761505720657524500,1.5725244140625,0.3323896527290344,-1.1334072351455688,-1.224983811378479
1761505720667560700,1.582560791015625,0.40380632877349854,-1.4945966005325317,-1.4994443655014038
1761505720677597400,1.592597412109375,0.37238261103630066,-1.6045500040054321,-1.4635095596313477
1761505720687633400,1.60263330078125,0.25356996059417725,-1.4674121141433716,-1.1966426372528076
1761505720697669600,1.612669677734375,0.097701795399189,-1.0655262470245361,-0.7985355257987976
1761505720707705900,1.622705810546875,-0.05892030894756317,-0.39979055523872375,-0.37076181173324585
1761505720717741800,1.632741943359375,-0.19730854034423828,0.32512643933296204,-0.028668928891420364
1761505720727778600,1.642778564453125,-0.2909993529319763,0.869636058807373,0.16531120240688324
1761505720737814800,1.652814697265625,-0.3162005841732025,1.144755244255066,0.2104874551296234
1761505720747850800,1.662850830078125,-0.31525328755378723,1.1220781803131104,0.15335732698440552
1761505720757886700,1.67288671875,-0.2879130244255066,0.9153228402137756,0.058514442294836044
1761505720767922700,1.682922607421875,-0.25397634506225586,0.6725214123725891,-0.03489353507757187
1761505720777959700,1.692959716796875,-0.2114643156528473,0.5383742451667786,-0.09881871938705444
1761505720787995600,1.70299560546875,-0.16705316305160522,0.5494101047515869,-0.11425040662288666
1761505720798031600,1.713031494140625,-0.12146171927452087,0.643846333026886,-0.08530344814062119
1761505720808067600,1.723067626953125,-0.07889534533023834,0.7838029265403748,-0.009610815905034542
1761505720818103600,1.733103515625,-0.0521651990711689,0.924187183380127,0.06247109919786453
1761505720828140500,1.743140625,-0.043538421392440796,0.9482557773590088,0.13146960735321045
1761505720838176500,1.753176513671875,-0.05758233740925789,0.8127821087837219,0.20330810546875
1761505720848212500,1.76321240234375,-0.0802500993013382,0.5354183912277222,0.29792410135269165
1761505720858248400,1.77324853515625,-0.08125624060630798,0.20887944102287292,0.43070292472839355
1761505720868284400,1.783284423828125,-0.07057749480009079,-0.06078345701098442,0.5688506960868835
1761505720878321400,1.7933212890625,-0.09875107556581497,-0.21699170768260956,0.6555978059768677
1761505720888357400,1.803357421875,-0.18452642858028412,-0.09012137353420258,0.6293113231658936
1761505720898393300,1.813393310546875,-0.31707409024238586,0.28702831268310547,0.44266796112060547
1761505720908429300,1.82342919921875,-0.4351642429828644,0.8030037879943848,0.13817252218723297
1761505720918465500,1.833465576171875,-0.5192573070526123,1.2118405103683472,-0.11593379080295563
1761505720928502500,1.84350244140625,-0.5395175218582153,1.3290982246398926,-0.19951790571212769
1761505720938538500,1.85353857421875,-0.5072546601295471,1.1402026414871216,-0.10626758635044098
1761505720948574500,1.863574462890625,-0.38618871569633484,0.7752493619918823,0.09169343113899231
1761505720958610400,1.8736103515625,-0.2044101357460022,0.310380756855011,0.33455854654312134
1761505720968646400,1.883646484375,-0.045996252447366714,-0.17814576625823975,0.5839568972587585
1761505720978683400,1.893683349609375,0.06341572105884552,-0.5781027674674988,0.8105184435844421
1761505720988719400,1.90371923828125,0.10773232579231262,-0.7479908466339111,0.9546002149581909
1761505720998755300,1.91375537109375,0.11883451044559479,-0.6316496133804321,0.9553009271621704
1761505721008791600,1.92379150390625,0.1166834756731987,-0.2593202590942383,0.8164783120155334
1761505721018827500,1.93382763671875,0.08788564801216125,0.09518057852983475,0.5696767568588257
1761505721028864300,1.9438642578125,0.04318928346037865,0.2928744852542877,0.24426433444023132
1761505721038900700,1.953900634765625,0.05053827539086342,0.3299214541912079,-0.13867425918579102
1761505721048936700,1.963936767578125,0.13264912366867065,0.19511276483535767,-0.4860846996307373
1761505721058972700,1.97397265625,0.23814891278743744,0.026427345350384712,-0.6822752356529236
1761505721069008600,1.984008544921875,0.25578463077545166,0.047696683555841446,-0.6861258745193481
1761505721079045600,1.994045654296875,0.21879678964614868,0.22948884963989258,-0.5861777067184448
1761505721089081600,2.00408154296875,0.1944269984960556,0.4660760760307312,-0.49414366483688354
1761505721099117600,2.01411767578125,0.21244461834430695,0.5496863126754761,-0.4852391183376312
1761505721109153500,2.024153564453125,0.29853901267051697,0.3150029480457306,-0.554556131362915
1761505721119189500,2.034189453125,0.4652523696422577,-0.3340680003166199,-0.6566026210784912
1761505721129226500,2.0442265625,0.707497775554657,-1.278395652770996,-0.7378271818161011
1761505721139262500,2.054262451171875,0.9618600010871887,-2.175353527069092,-0.7701773643493652
1761505721149298400,2.06429833984375,1.1047133207321167,-2.6421570777893066,-0.7414048910140991
1761505721159334400,2.07433447265625,1.1052405834197998,-2.751673936843872,-0.6998254656791687
1761505721169370400,2.084370361328125,1.0168588161468506,-2.694319009780884,-0.6569232940673828
1761505721179407600,2.09440771484375,0.9081986546516418,-2.5156264305114746,-0.5668942928314209
1761505721189443600,2.104443603515625,0.8131893277168274,-2.1117403507232666,-0.42307722568511963
1761505721199479600,2.1144794921875,0.7436081171035767,-1.592583417892456,-0.2568890452384949
1761505721209515500,2.124515625,0.6610099077224731,-1.034162163734436,-0.10840769857168198
1761505721219551500,2.134551513671875,0.5314137935638428,-0.4164632558822632,0.011839881539344788
1761505721229588500,2.14458837890625,0.3221556842327118,0.1567712426185608,0.07627346366643906
1761505721239624400,2.15462451171875,0.056355152279138565,0.602523684501648,0.06491827964782715
1761505721249660400,2.164660400390625,-0.2069593071937561,0.948168158531189,-0.020832311362028122
1761505721259696400,2.1746962890625,-0.4251116216182709,1.1174757480621338,-0.14348739385604858
1761505721269732400,2.184732421875,-0.5863702893257141,1.0677646398544312,-0.24381372332572937
1761505721279769300,2.194769287109375,-0.672073483467102,0.9072028994560242,-0.27720150351524353
1761505721289805300,2.204805419921875,-0.6853221654891968,0.6975558996200562,-0.2458726167678833
1761505721299841300,2.21484130859375,-0.6324400305747986,0.4373512268066406,-0.15830469131469727
1761505721309877500,2.22487744140625,-0.5103750824928284,0.16086025536060333,-0.03399658203125
1761505721319913500,2.23491357421875,-0.3523399233818054,-0.0816463902592659,0.11037977039813995
1761505721329950500,2.244950439453125,-0.22000665962696075,-0.279109925031662,0.2767288088798523
1761505721339986700,2.254986572265625,-0.13081127405166626,-0.4080098569393158,0.45973271131515503
1761505721350022700,2.265022705078125,-0.08563314378261566,-0.4575800597667694,0.6431006789207458
1761505721360058600,2.27505859375,-0.09915001690387726,-0.4123462736606598,0.7886024713516235
1761505721370094600,2.285094482421875,-0.19126316905021667,-0.2403889000415802,0.8508711457252502
1761505721380131600,2.295131591796875,-0.3022597134113312,-0.028014058247208595,0.7880322933197021
1761505721390167600,2.30516748046875,-0.37697792053222656,0.2073526531457901,0.6459481120109558
1761505721400203500,2.31520361328125,-0.39593589305877686,0.47936367988586426,0.5187646150588989
1761505721410239500,2.325239501953125,-0.4102594256401062,0.7336564064025879,0.4719177484512329
1761505721420275500,2.335275390625,-0.43844205141067505,1.0576235055923462,0.44496628642082214
1761505721430311400,2.3453115234375,-0.4687142074108124,1.2983520030975342,0.3717288076877594
1761505721440348400,2.355348388671875,-0.4607953131198883,1.3050743341445923,0.21454691886901855
1761505721450384600,2.365384521484375,-0.419795423746109,1.0277775526046753,0.07558877021074295
1761505721460420600,2.375420654296875,-0.3639254868030548,0.6090404391288757,0.03532576560974121
1761505721470456600,2.38545654296875,-0.3006612956523895,0.27657246589660645,0.14720968902111053
1761505721480493600,2.39549365234375,-0.19690454006195068,0.20014427602291107,0.39618727564811707
1761505721490529500,2.405529541015625,-0.11553352326154709,0.2683771252632141,0.6680305004119873
1761505721500565500,2.4155654296875,-0.09744692593812943,0.32358473539352417,0.840411365032196
1761505721510601500,2.4256015625,-0.14819985628128052,0.18283453583717346,0.8193164467811584
1761505721520637400,2.435637451171875,-0.23426522314548492,-0.1604762226343155,0.5829667448997498
1761505721530673400,2.44567333984375,-0.2740432620048523,-0.6988744735717773,0.16353300213813782
1761505721540710400,2.45571044921875,-0.20673160254955292,-1.2777618169784546,-0.37621811032295227
1761505721550746400,2.465746337890625,-0.1067725196480751,-1.756165862083435,-0.8341901898384094
1761505721560782300,2.4757822265625,-0.0830828994512558,-2.028146743774414,-1.0446316003799438
1761505721570818300,2.485818359375,-0.1960134506225586,-1.897818684577942,-0.9675434827804565
1761505721580854500,2.4958544921875,-0.37492993474006653,-1.4102532863616943,-0.7135058641433716
1761505721590891500,2.5058916015625,-0.509722113609314,-0.7422469854354858,-0.45416030287742615
1761505721600927500,2.515927490234375,-0.5341326594352722,-0.03236087039113045,-0.3014514446258545
1761505721610963500,2.52596337890625,-0.4439984858036041,0.5449495911598206,-0.31725066900253296
1761505721620999700,2.535999755859375,-0.2498852014541626,0.9451870322227478,-0.4943287670612335
1761505721631035600,2.54603564453125,-0.021379057317972183,1.1235271692276,-0.772792637348175
1761505721641072400,2.556072265625,0.15465056896209717,1.011745810508728,-1.0697771310806274
1761505721651108600,2.566108642578125,0.2155141830444336,0.7508987784385681,-1.334511399269104
1761505721661144600,2.57614453125,0.15850494801998138,0.4082282483577728,-1.552187442779541
1761505721671180500,2.5861806640625,0.019025888293981552,-0.05337507277727127,-1.6982243061065674
1761505721681216500,2.596216552734375,-0.14557504653930664,-0.6420679092407227,-1.7429752349853516
1761505721691252500,2.60625244140625,-0.26347026228904724,-1.2388591766357422,-1.650595784187317
1761505721701289500,2.61628955078125,-0.31043535470962524,-1.6352375745773315,-1.399975061416626
1761505721711325400,2.626325439453125,-0.31244605779647827,-1.7396239042282104,-0.9996907711029053
1761505721721361400,2.636361328125,-0.2654191553592682,-1.4514931440353394,-0.5055870413780212
1761505721731397400,2.6463974609375,-0.1937558799982071,-0.8224794864654541,-0.0044200485572218895
1761505721741433300,2.656433349609375,-0.0837889090180397,-0.08126955479383469,0.4527139365673065
1761505721751470600,2.666470703125,0.03874526545405388,0.6686539649963379,0.8039689064025879
1761505721761506600,2.676506591796875,0.1633678823709488,1.2056995630264282,0.9996592998504639
1761505721771542500,2.68654248046875,0.2750094532966614,1.3816628456115723,1.0364208221435547
1761505721781578500,2.69657861328125,0.387818306684494,1.3051478862762451,0.9509708881378174
1761505721791614500,2.706614501953125,0.48094743490219116,1.0602939128875732,0.8001810908317566
1761505721801651500,2.7166513671875,0.5227388143539429,0.7348758578300476,0.6122181415557861
1761505721811687400,2.7266875,0.49914348125457764,0.5170795917510986,0.4496622383594513
1761505721821723400,2.736723388671875,0.4170619547367096,0.3969667851924896,0.33968618512153625
1761505721831759400,2.74675927734375,0.2736331522464752,0.3408638536930084,0.2847158908843994
1761505721841795300,2.75679541015625,0.11257075518369675,0.33921030163764954,0.27195507287979126
1761505721851831600,2.76683154296875,-0.02292955107986927,0.28923261165618896,0.3052555024623871
1761505721861868500,2.77686865234375,-0.1416279673576355,0.1489492654800415,0.3839018642902374
1761505721871904500,2.786904541015625,-0.22780360281467438,0.029743248596787453,0.49846944212913513
1761505721881940500,2.7969404296875,-0.31838810443878174,-0.042623359709978104,0.6197047829627991
1761505721891976700,2.806976806640625,-0.4330901801586151,-0.16953496634960175,0.6893496513366699
1761505721902012700,2.8170126953125,-0.5312108993530273,-0.3410388231277466,0.6610101461410522
1761505721912049400,2.82704931640625,-0.5602635741233826,-0.4001343548297882,0.5201025605201721
1761505721922085600,2.837085693359375,-0.551872193813324,-0.4043767750263214,0.3241131007671356
1761505721932121600,2.84712158203125,-0.5164351463317871,-0.3504445552825928,0.15220019221305847
1761505721942157600,2.857157470703125,-0.42901846766471863,-0.1920221745967865,0.060936588793992996
1761505721952193500,2.867193603515625,-0.3165307939052582,0.02895415388047695,0.09151952713727951
1761505721962230500,2.87723046875,-0.2504607141017914,0.31591349840164185,0.23091816902160645
1761505721972266500,2.8872666015625,-0.24740660190582275,0.6433848142623901,0.40971827507019043
1761505721982302500,2.897302490234375,-0.28145459294319153,0.9384406805038452,0.5616316199302673
1761505721992338700,2.907338623046875,-0.28277602791786194,1.1702436208724976,0.6432146430015564
1761505722002374700,2.917374755859375,-0.22280724346637726,1.2717288732528687,0.6457923054695129
1761505722012410600,2.92741064453125,-0.1264447569847107,1.1506578922271729,0.5995622277259827
1761505722022447600,2.937447509765625,-0.05447176471352577,0.8747943639755249,0.5097982883453369
1761505722032483600,2.947483642578125,-0.030971230939030647,0.46510934829711914,0.36848536133766174
1761505722042519600,2.95751953125,-0.003722300287336111,-0.05030045285820961,0.16488616168498993
1761505722052555500,2.967555419921875,0.06791060417890549,-0.5212927460670471,-0.08750534802675247
1761505722062591500,2.977591552734375,0.16537457704544067,-0.8712224960327148,-0.33632075786590576
1761505722072628500,2.98762841796875,0.22690558433532715,-1.0874160528182983,-0.5148921012878418
1761505722082664400,2.99766455078125,0.24556182324886322,-1.1413447856903076,-0.5867434144020081
1761505722092700400,3.007700439453125,0.20703120529651642,-1.0332790613174438,-0.5688061714172363
1761505722102736400,3.017736328125,0.15236397087574005,-0.689263641834259,-0.48849138617515564
1761505722112772400,3.0277724609375,0.11053583025932312,-0.19192443788051605,-0.39046522974967957
1761505722122808600,3.03780859375,0.1088591068983078,0.23810283839702606,-0.3127232789993286
1761505722132845600,3.047845458984375,0.15776805579662323,0.5311070084571838,-0.28954100608825684
1761505722142881500,3.057881591796875,0.23287665843963623,0.6235693097114563,-0.3255397379398346
1761505722152917500,3.06791748046875,0.29793688654899597,0.5486660599708557,-0.4143362045288086
1761505722162953700,3.07795361328125,0.3184296488761902,0.37684980034828186,-0.5289424061775208
1761505722172989700,3.08798974609375,0.27773013710975647,0.1848561316728592,-0.6588114500045776
1761505722183026400,3.0980263671875,0.1902058869600296,0.03153342381119728,-0.7757135629653931
1761505722193062700,3.108062744140625,0.06700246781110764,-0.04384734854102135,-0.837658703327179
1761505722203098600,3.1180986328125,-0.0765504315495491,-0.016597086563706398,-0.8201939463615417
1761505722213134600,3.128134521484375,-0.21118254959583282,0.08915597200393677,-0.7178720831871033
1761505722223170600,3.138170654296875,-0.2978953421115875,0.25969550013542175,-0.5513473153114319
1761505722233206500,3.14820654296875,-0.32295888662338257,0.44441312551498413,-0.36114808917045593
1761505722243243500,3.158243408203125,-0.2930656969547272,0.6035844087600708,-0.18596240878105164
1761505722253279500,3.168279541015625,-0.2283434271812439,0.7113960981369019,-0.030662039294838905
1761505722263315500,3.1783154296875,-0.16681614518165588,0.7475349307060242,0.11087991297245026
1761505722273351400,3.188351318359375,-0.11971548199653625,0.735069990158081,0.23116371035575867
1761505722283387400,3.198387451171875,-0.07712966948747635,0.6613081693649292,0.33818310499191284
1761505722293423600,3.208423583984375,-0.03419765084981918,0.5090107917785645,0.42513319849967957
1761505722303460600,3.218460693359375,0.02520495466887951,0.29294824600219727,0.47364187240600586
1761505722313496600,3.22849658203125,0.08407306671142578,0.08873067051172256,0.477597177028656
1761505722323532500,3.238532470703125,0.1188744530081749,-0.09653958678245544,0.42896679043769836
1761505722333568500,3.248568603515625,0.13623426854610443,-0.24223873019218445,0.33720892667770386
1761505722343604500,3.2586044921875,0.14962545037269592,-0.3463962972164154,0.16494421660900116
1761505722353641500,3.268641357421875,0.22133824229240417,-0.4351131021976471,-0.015001852996647358
1761505722363677400,3.278677490234375,0.34041881561279297,-0.43556079268455505,-0.12328571826219559
1761505722373713400,3.28871337890625,0.4646478295326233,-0.39607569575309753,-0.10221105813980103
1761505722383749400,3.298749267578125,0.5289400219917297,-0.28361228108406067,0.051056791096925735
1761505722393785600,3.30878564453125,0.4746863543987274,-0.13360174000263214,0.27620255947113037
1761505722403821600,3.318821533203125,0.35155776143074036,0.0764516294002533,0.4977293610572815
1761505722413858600,3.328858642578125,0.21421295404434204,0.5472175478935242,0.6690403819084167
1761505722423894500,3.33889453125,0.1265060156583786,1.1814861297607422,0.789086639881134
1761505722433930800,3.3489306640625,0.11418995261192322,1.7947865724563599,0.8873423933982849
1761505722443966700,3.358966796875,0.17419283092021942,2.0710742473602295,0.9685930013656616
1761505722454002700,3.369002685546875,0.27964577078819275,1.9296684265136719,0.9855011701583862
1761505722464038700,3.37903857421875,0.38139423727989197,1.3534845113754272,0.8835178017616272
1761505722474075600,3.38907568359375,0.4359445571899414,0.4161924123764038,0.6705200672149658
1761505722484111600,3.399111572265625,0.4095819294452667,-0.5397396683692932,0.4495501220226288
1761505722494147600,3.409147705078125,0.2875039577484131,-1.268029808998108,0.3596612215042114
1761505722504183600,3.41918359375,0.13560310006141663,-1.6691803932189941,0.39300188422203064
1761505722514219500,3.429219482421875,0.03640700876712799,-1.7095898389816284,0.4841879904270172
1761505722524256500,3.439256591796875,-0.021945511922240257,-1.489734172821045,0.5452699661254883
1761505722534292500,3.44929248046875,-0.06335607171058655,-1.1860339641571045,0.4605942368507385
1761505722544328400,3.459328369140625,-0.09403195977210999,-0.9308158159255981,0.17163540422916412
1761505722554364400,3.469364501953125,-0.10272078216075897,-0.7653874158859253,-0.29485881328582764
1761505722564400400,3.479400390625,-0.12145399302244186,-0.6723949313163757,-0.7566146850585938
1761505722574436400,3.489436279296875,-0.16435778141021729,-0.567173957824707,-1.0423849821090698
1761505722584473600,3.4994736328125,-0.21372613310813904,-0.3133920133113861,-1.091617465019226
1761505722594509600,3.509509521484375,-0.23134374618530273,0.0632316991686821,-0.9676800966262817
1761505722604545500,3.519545654296875,-0.16856904327869415,0.42804962396621704,-0.768915593624115
1761505722614581500,3.52958154296875,-0.02949663996696472,0.7129854559898376,-0.5686834454536438
1761505722624617500,3.539617431640625,0.1542140692472458,0.8083492517471313,-0.39230039715766907
1761505722634653700,3.54965380859375,0.3439198136329651,0.6948131322860718,-0.2541521191596985
1761505722644690400,3.5596904296875,0.4739433228969574,0.49190396070480347,-0.15687936544418335
1761505722654726400,3.569726318359375,0.49087652564048767,0.2703055143356323,-0.13169065117835999
1761505722664762600,3.5797626953125,0.4467966556549072,0.05028447508811951,-0.19504991173744202
1761505722674798600,3.589798583984375,0.38729792833328247,-0.09529749304056168,-0.3297171890735626
1761505722684834600,3.59983447265625,0.31741631031036377,-0.1279028356075287,-0.4680092930793762
1761505722694870500,3.60987060546875,0.24439163506031036,-0.08521635830402374,-0.5725692510604858
1761505722704907800,3.61990771484375,0.1917814165353775,-0.0054395063780248165,-0.6148072481155396
1761505722714943700,3.62994384765625,0.13920742273330688,0.09837131202220917,-0.603489339351654
1761505722724979700,3.639979736328125,0.1096000000834465,0.20747143030166626,-0.5567559003829956
1761505722735015700,3.650015625,0.1085222139954567,0.29369500279426575,-0.4767788052558899
1761505722745051600,3.6600517578125,0.12173335999250412,0.3476352095603943,-0.37555044889450073
1761505722755087600,3.670087646484375,0.1539251208305359,0.3400161564350128,-0.26218900084495544
1761505722765124600,3.68012451171875,0.20326709747314453,0.26478347182273865,-0.14883901178836823
1761505722775160600,3.69016064453125,0.24612641334533691,0.1607406735420227,-0.05342274531722069
1761505722785196500,3.700196533203125,0.2724405825138092,0.022771891206502914,0.01152642723172903
1761505722795232500,3.710232421875,0.2840240001678467,-0.19001413881778717,0.059661466628313065
1761505722805268500,3.7202685546875,0.28498512506484985,-0.4344390630722046,0.09763254970312119
1761505722815304400,3.730304443359375,0.287476509809494,-0.5954074263572693,0.151471808552742
1761505722825341400,3.740341552734375,0.2699268162250519,-0.7079009413719177,0.2178439050912857
1761505722835377200,3.750377197265625,0.22439342737197876,-0.7618675231933594,0.3017268180847168
1761505722845413000,3.7604130859375,0.1497277021408081,-0.6629228591918945,0.41344723105430603
1761505722855449000,3.770448974609375,0.05025704577565193,-0.4326867163181305,0.5420704483985901
1761505722865485300,3.7804853515625,-0.04231256991624832,-0.1738586127758026,0.651007354259491
1761505722875521300,3.790521240234375,-0.10274768620729446,0.06481814384460449,0.6690055131912231
1761505722885558000,3.80055810546875,-0.10236232727766037,0.1991351991891861,0.5866986513137817
1761505722895594200,3.81059423828125,-0.09893323481082916,0.16922125220298767,0.4681597352027893
1761505722905630200,3.820630126953125,-0.16228771209716797,0.14989203214645386,0.4153985381126404
1761505722915666200,3.830666259765625,-0.2881915867328644,0.2831614017486572,0.4526015520095825
1761505722925702100,3.8407021484375,-0.4536777436733246,0.45711296796798706,0.554695188999176
1761505722935738000,3.850738037109375,-0.5541843771934509,0.41836610436439514,0.6169516444206238
1761505722945775400,3.860775390625,-0.5036373138427734,0.1272016316652298,0.5469080805778503
1761505722955811300,3.870811279296875,-0.330399751663208,-0.18423855304718018,0.3504168689250946
1761505722965847300,3.880847412109375,-0.1177482008934021,-0.40329551696777344,0.15576429665088654
1761505722975883300,3.89088330078125,0.07279910892248154,-0.4135502874851227,0.12967251241207123
1761505722985919200,3.900919189453125,0.24010688066482544,-0.19405709207057953,0.3048288822174072
1761505722995955200,3.910955078125,0.3890569508075714,0.08787818998098373,0.5988373160362244
1761505723005992200,3.9209921875,0.4724687337875366,0.40175861120224,0.8793712854385376
1761505723016028200,3.931028076171875,0.41725289821624756,0.6512789726257324,1.018025279045105
1761505723026064100,3.941064208984375,0.2637892961502075,0.7035794854164124,0.9545275568962097
1761505723036100000,3.95110009765625,0.10627929866313934,0.60431307554245,0.6616154909133911
1761505723046136000,3.961135986328125,-0.013817545026540756,0.20466472208499908,0.1570814996957779
1761505723056172000,3.971172119140625,-0.06322317570447922,-0.4794400930404663,-0.44119736552238464
1761505723066209000,3.981208984375,-0.04211416468024254,-1.3293434381484985,-0.961312472820282
1761505723076245000,3.991244873046875,0.001654089312069118,-2.0257768630981445,-1.2177826166152954
1761505723086279200,4.001279052734375,0.03594521805644035,-2.3276469707489014,-1.1821750402450562
1761505723096316200,4.011316162109375,0.03964248299598694,-2.101562976837158,-0.9494630098342896
1761505723106352000,4.02135205078125,0.0170852430164814,-1.558687448501587,-0.6572353839874268
1761505723116388000,4.03138818359375,-0.02835174649953842,-0.8700605630874634,-0.37836754322052
1761505723126424000,4.041424072265625,-0.11107272654771805,-0.20147505402565002,-0.1395310014486313
1761505723136460000,4.0514599609375,-0.20568498969078064,0.2793930172920227,0.02641190029680729
1761505723146496000,4.06149609375,-0.24935975670814514,0.4020015001296997,0.06370308250188828
1761505723156532000,4.071531982421875,-0.2292230725288391,0.21588276326656342,-0.06619899719953537
1761505723166569200,4.0815693359375,-0.18058735132217407,-0.2536298632621765,-0.32855817675590515
1761505723176605200,4.091605224609375,-0.1262359619140625,-0.8536221981048584,-0.6585091948509216
1761505723186641200,4.10164111328125,-0.07248645275831223,-1.3714232444763184,-0.9542521834373474
1761505723196677000,4.111677001953125,-0.023361781612038612,-1.6660789251327515,-1.1251381635665894
1761505723206713000,4.121713134765625,0.004811533261090517,-1.6957627534866333,-1.1326520442962646
1761505723216750000,4.13175,0.008703210391104221,-1.5079363584518433,-1.0100733041763306
1761505723226786000,4.1417861328125,-0.017606956884264946,-1.151177167892456,-0.8284926414489746
1761505723236822000,4.151822021484375,-0.04097379744052887,-0.7444208860397339,-0.638827919960022
1761505723246858200,4.161858154296875,-0.021018998697400093,-0.31985336542129517,-0.49862125515937805
1761505723256894200,4.171894287109375,0.050636012107133865,0.07201773673295975,-0.3966703712940216
1761505723266930200,4.18193017578125,0.12571504712104797,0.4431939423084259,-0.31423649191856384
1761505723276966100,4.191966064453125,0.18028375506401062,0.7188811898231506,-0.21818320453166962
1761505723287003400,4.20200341796875,0.21309016644954681,0.8584561347961426,-0.12190140783786774
1761505723297039400,4.212039306640625,0.2175629436969757,0.9056318998336792,-0.02129303850233555
1761505723307075300,4.222075439453125,0.2047446221113205,0.8754891753196716,0.0767296627163887
1761505723317111300,4.232111328125,0.1743246614933014,0.7864543795585632,0.16243897378444672
1761505723327147300,4.242147216796875,0.12190939486026764,0.6890503168106079,0.21642231941223145
1761505723337183200,4.252183349609375,0.05788647010922432,0.5874432921409607,0.2199597954750061
1761505723347220200,4.26222021484375,-0.001882854849100113,0.4420016407966614,0.17363597452640533
1761505723357256200,4.272256103515625,-0.023190008476376534,0.2401694506406784,0.10415303707122803
1761505723367292200,4.282292236328125,-0.006689594127237797,0.16466964781284332,0.07229310274124146
1761505723377328000,4.292328125,0.009580988436937332,0.21661752462387085,0.12211951613426208
1761505723387364000,4.302364013671875,-0.009366337209939957,0.3925755023956299,0.2571926414966583
1761505723397400000,4.312400146484375,-0.09099648892879486,0.6851890087127686,0.4563555419445038
1761505723407436000,4.32243603515625,-0.238459974527359,1.011738896369934,0.6567485928535461
1761505723417473000,4.33247314453125,-0.42055389285087585,1.219670295715332,0.7737098336219788
1761505723427509000,4.342509033203125,-0.5295594334602356,1.230005145072937,0.7435601353645325
1761505723437545000,4.352544921875,-0.49498364329338074,1.196830153465271,0.6095997095108032
1761505723447581000,4.362580810546875,-0.40792277455329895,1.2185019254684448,0.44949871301651
1761505723457617400,4.372617431640625,-0.32655227184295654,1.1689889430999756,0.31852683424949646
1761505723467653400,4.3826533203125,-0.2556171119213104,0.9901310801506042,0.2664197087287903
1761505723477690000,4.392690185546875,-0.14472442865371704,0.7130011916160583,0.2843611538410187
1761505723487726300,4.402726318359375,-0.03123994544148445,0.3018916845321655,0.3739416301250458
1761505723497762300,4.41276220703125,0.05107809603214264,-0.20329000055789948,0.48081615567207336
1761505723507798300,4.42279833984375,0.1099587231874466,-0.6441499590873718,0.5725961327552795
1761505723517834200,4.432834228515625,0.1633860021829605,-0.8508237600326538,0.6312839388847351
1761505723527870200,4.4428701171875,0.1716441959142685,-0.7536266446113586,0.6241264343261719
1761505723537907200,4.4529072265625,0.13298973441123962,-0.43443453311920166,0.5253029465675354
1761505723547943200,4.462943115234375,0.06705226749181747,-0.028488099575042725,0.30444857478141785
1761505723557979100,4.472979248046875,0.03110598772764206,0.224731907248497,-0.05119287967681885
1761505723568015000,4.48301513671875,0.046545132994651794,0.23532862961292267,-0.4824276268482208
1761505723578051000,4.493051025390625,0.09322581440210342,0.02190423384308815,-0.8752609491348267
1761505723588087000,4.503087158203125,0.10402227193117142,-0.27497750520706177,-1.1232746839523315
1761505723598123000,4.513123046875,0.055390022695064545,-0.514494776725769,-1.1698848009109497
1761505723608160300,4.52316015625,-0.0015337144723162055,-0.5131818056106567,-1.0250872373580933
1761505723618196200,4.5331962890625,-0.044133108109235764,-0.23356933891773224,-0.8002045154571533
1761505723628232200,4.543232177734375,-0.0807635560631752,0.10360655188560486,-0.6378273367881775
1761505723638268200,4.55326806640625,-0.07844793796539307,0.39312759041786194,-0.5828865766525269
1761505723648304000,4.56330419921875,-0.043725643306970596,0.575697124004364,-0.6303023099899292
1761505723658340000,4.573340087890625,-0.0045572011731565,0.5675491690635681,-0.7829509973526001
1761505723668377000,4.583377197265625,-0.010803911834955215,0.3585277795791626,-0.9881272912025452
1761505723678413000,4.5934130859375,-0.058334946632385254,-0.0011345066595822573,-1.1765331029891968
1761505723688449000,4.603448974609375,-0.1265512853860855,-0.506363570690155,-1.2649637460708618
1761505723698485200,4.6134853515625,-0.15489770472049713,-0.9948800206184387,-1.2121963500976562
1761505723708521200,4.623521240234375,-0.1584721952676773,-1.3508647680282593,-1.0173850059509277
1761505723718557200,4.63355712890625,-0.15386545658111572,-1.5326385498046875,-0.704728364944458
1761505723728594200,4.64359423828125,-0.14372867345809937,-1.4803489446640015,-0.36835619807243347
1761505723738630100,4.653630126953125,-0.142280712723732,-1.0541582107543945,-0.07694698125123978
1761505723748666000,4.663666015625,-0.13111567497253418,-0.5310242176055908,0.15678802132606506
1761505723758702300,4.673702392578125,-0.060572534799575806,-0.06397738307714462,0.327595978975296
1761505723768738300,4.68373828125,0.0294303260743618,0.35072019696235657,0.4379009008407593
1761505723778774300,4.693774169921875,0.12161298096179962,0.6720020771026611,0.4797396957874298
1761505723788810200,4.703810302734375,0.21041928231716156,0.8328069448471069,0.4636153280735016
1761505723798847200,4.71384716796875,0.27784252166748047,0.865452229976654,0.42330971360206604
1761505723808883200,4.72388330078125,0.30463021993637085,0.7361475229263306,0.38217559456825256
1761505723818919200,4.733919189453125,0.30466723442077637,0.4921194016933441,0.33967792987823486
1761505723828955100,4.743955078125,0.3035668134689331,0.23183828592300415,0.2961174249649048
1761505723838991400,4.753991455078125,0.319529265165329,0.0023334617726504803,0.2836357057094574
1761505723849027300,4.76402734375,0.3232896327972412,-0.17091581225395203,0.3112284541130066
1761505723859064300,4.774064208984375,0.31719979643821716,-0.2281724512577057,0.3884987533092499
1761505723869100300,4.784100341796875,0.29601433873176575,-0.25678518414497375,0.5498833656311035
1761505723879136300,4.79413623046875,0.2685616910457611,-0.31101593375205994,0.825843334197998
1761505723889172200,4.804172119140625,0.22678786516189575,-0.22243386507034302,1.1832549571990967
1761505723899208200,4.814208251953125,0.16834214329719543,0.024456074461340904,1.5319889783859253
1761505723909244400,4.824244384765625,0.07520128041505814,0.24470242857933044,1.7595195770263672
1761505723919281400,4.834281494140625,-0.05600228160619736,0.2455674260854721,1.8009655475616455
1761505723929317400,4.8443173828125,-0.1799817532300949,0.24578340351581573,1.6760015487670898
1761505723939353300,4.854353271484375,-0.21284516155719757,0.6467941999435425,1.4613240957260132
1761505723949389600,4.8643896484375,-0.110750213265419,1.3090236186981201,1.2101789712905884
1761505723959425500,4.874425537109375,0.09271049499511719,1.6962854862213135,0.9431936740875244
1761505723969461500,4.88446142578125,0.3013468086719513,1.5647873878479004,0.7162915468215942
1761505723979497500,4.89449755859375,0.45561254024505615,1.0069942474365234,0.5488367676734924
1761505723989534500,4.904534423828125,0.5323278307914734,0.3257717192173004,0.43386009335517883
1761505723999570400,4.9145703125,0.5193326473236084,-0.19132842123508453,0.3529522120952606
1761505724009606400,4.9246064453125,0.44102880358695984,-0.6072726249694824,0.2748478055000305
1761505724019642400,4.934642333984375,0.33960816264152527,-0.9317817091941833,0.2041187733411789
1761505724029678300,4.94467822265625,0.2827201187610626,-1.0664514303207397,0.15393629670143127
1761505724039714300,4.95471435546875,0.27335190773010254,-1.0157583951950073,0.07519727945327759
1761505724049751600,4.96475146484375,0.23807914555072784,-0.9250194430351257,-0.0992986261844635
1761505724059787500,4.97478759765625,0.1634395271539688,-0.9172147512435913,-0.3863793909549713
1761505724069823500,4.984823486328125,0.0931488499045372,-0.9087728261947632,-0.6817750930786133
1761505724079859500,4.994859375,0.06451108306646347,-0.7631442546844482,-0.8842730522155762
1761505724089895400,5.0048955078125,0.052930060774087906,-0.480510413646698,-0.9567638039588928
1761505724099931400,5.014931396484375,0.06148573011159897,-0.16429147124290466,-0.9384670853614807
1761505724109968400,5.024968505859375,0.11399953812360764,0.1056198999285698,-0.88084876537323
1761505724120004400,5.03500439453125,0.2281503528356552,0.29202786087989807,-0.811506986618042
1761505724130040300,5.045040283203125,0.29205504059791565,0.4240303635597229,-0.7806470990180969
1761505724140076300,5.055076171875,0.2385004609823227,0.4733486473560333,-0.817410409450531
1761505724150112500,5.065112548828125,0.0997990295290947,0.401419073343277,-0.9266042709350586
1761505724160148500,5.0751484375,-0.07984556257724762,0.27091673016548157,-1.0807163715362549
1761505724170184400,5.085184326171875,-0.2604025602340698,0.2008974254131317,-1.238442063331604
1761505724180221400,5.095221435546875,-0.4344460070133209,0.15289047360420227,-1.3736629486083984
1761505724190257400,5.10525732421875,-0.583167314529419,0.043839357793331146,-1.4684456586837769
1761505724200293400,5.11529345703125,-0.6918184161186218,-0.10148721188306808,-1.475001573562622
1761505724210329600,5.12532958984375,-0.7238213419914246,-0.23014265298843384,-1.373381495475769
1761505724220365600,5.135365478515625,-0.6587733626365662,-0.31526872515678406,-1.141620397567749
1761505724230401500,5.145401611328125,-0.5165531039237976,-0.25070199370384216,-0.8276316523551941
1761505724240438500,5.1554384765625,-0.3253307044506073,0.014134993776679039,-0.4721992313861847
1761505724250474500,5.165474609375,-0.14176006615161896,0.3477252125740051,-0.1258183866739273
1761505724260510500,5.175510498046875,-0.024049144238233566,0.6128295660018921,0.16432608664035797
1761505724270546400,5.18554638671875,0.006933007389307022,0.7254400253295898,0.38379693031311035
1761505724280582400,5.19558251953125,-0.03157417103648186,0.6758700609207153,0.5400978326797485
1761505724290618400,5.205618408203125,-0.109386146068573,0.541998028755188,0.6561682820320129
1761505724300654300,5.215654296875,-0.1928006112575531,0.41974401473999023,0.7316297292709351
1761505724310691300,5.22569140625,-0.2818218171596527,0.34072721004486084,0.7221890687942505
1761505724320727300,5.235727294921875,-0.3262745141983032,0.28129664063453674,0.6437472701072693
1761505724330763300,5.24576318359375,-0.30897220969200134,0.21059025824069977,0.5412667393684387
1761505724340799200,5.25579931640625,-0.249406099319458,0.15905515849590302,0.46143046021461487
1761505724350835200,5.265835205078125,-0.18036311864852905,0.16883908212184906,0.4286070168018341
1761505724360871400,5.275871337890625,-0.1326182335615158,0.23629668354988098,0.42368948459625244
1761505724370908400,5.285908447265625,-0.1085168868303299,0.24052578210830688,0.4245952367782593
1761505724380944400,5.2959443359375,-0.07290136814117432,0.052558016031980515,0.48456162214279175
1761505724390980600,5.305980712890625,-0.002344913315027952,-0.25045379996299744,0.6404548287391663
1761505724401016600,5.3160166015625,0.05709977075457573,-0.49073562026023865,0.9102721810340881
1761505724411052500,5.326052490234375,0.07335624098777771,-0.5424067974090576,1.235521912574768
1761505724421088500,5.336088623046875,0.04164304956793785,-0.2802705466747284,1.5280590057373047
1761505724431124500,5.34612451171875,-0.02997041493654251,0.34924134612083435,1.725979208946228
1761505724441161500,5.356161376953125,-0.12208808958530426,1.2422477006912231,1.7605949640274048
1761505724451197400,5.366197509765625,-0.22454549372196198,1.8430148363113403,1.58730947971344
1761505724461233400,5.3762333984375,-0.30031323432922363,1.874277114868164,1.2679922580718994
1761505724471269400,5.386269287109375,-0.2943623960018158,1.3818418979644775,0.918942391872406
1761505724481305300,5.396305419921875,-0.17374277114868164,0.5321549773216248,0.6179308891296387
1761505724491341300,5.40634130859375,-0.0033784860279411077,-0.24358709156513214,0.4048292338848114
1761505724501378300,5.41637841796875,0.14517663419246674,-0.7905580401420593,0.2934819459915161
1761505724511414500,5.42641455078125,0.2039126455783844,-1.1813527345657349,0.2820623219013214
1761505724521450500,5.436450439453125,0.17970505356788635,-1.2634145021438599,0.31393101811408997
1761505724531486500,5.446486572265625,0.12594807147979736,-1.1746609210968018,0.33102771639823914
1761505724541522400,5.4565224609375,0.05845212563872337,-1.0413039922714233,0.2722613513469696
1761505724551558400,5.466558349609375,-0.015728363767266273,-0.8972637057304382,0.14350895583629608
1761505724561594400,5.476594482421875,-0.06821341067552567,-0.7256138920783997,-0.07744339108467102
1761505724571631400,5.48663134765625,-0.05326322093605995,-0.5859130024909973,-0.35168135166168213
1761505724581667300,5.496667236328125,0.055266983807086945,-0.48656272888183594,-0.6071229577064514
1761505724591703300,5.506703369140625,0.19842547178268433,-0.4023580849170685,-0.7912091612815857
1761505724601739500,5.516739501953125,0.28010302782058716,-0.30773890018463135,-0.8731189370155334
1761505724611775500,5.526775390625,0.23321354389190674,-0.18632087111473083,-0.877621054649353
1761505724621811500,5.5368115234375,0.09946160763502121,0.037516482174396515,-0.8400244116783142
1761505724631848400,5.546848388671875,-0.06527780741453171,0.382179856300354,-0.8163803219795227
1761505724641884400,5.556884521484375,-0.20457418262958527,0.7338734269142151,-0.8390983939170837
1761505724651920400,5.56692041015625,-0.3086443841457367,0.9930496215820312,-0.9233440160751343
1761505724661956400,5.576956298828125,-0.40409740805625916,1.0926563739776611,-1.0438965559005737
1761505724671992300,5.586992431640625,-0.4853861331939697,1.0167498588562012,-1.1693980693817139
1761505724682028500,5.597028564453125,-0.5407476425170898,0.7852423787117004,-1.2652307748794556
1761505724692064500,5.607064453125,-0.5364634394645691,0.4290429651737213,-1.3139472007751465
1761505724702101500,5.6171015625,-0.4731755554676056,0.10939812660217285,-1.2972936630249023
1761505724712137500,5.627137451171875,-0.3609081208705902,-0.11868590116500854,-1.2056561708450317
1761505724722173400,5.63717333984375,-0.22909283638000488,-0.30050817131996155,-1.0201059579849243
1761505724732209400,5.64720947265625,-0.11082904785871506,-0.34539148211479187,-0.7460619211196899
1761505724742245400,5.657245361328125,-0.00893623661249876,-0.22245757281780243,-0.42688846588134766
1761505724752281300,5.66728125,0.05120832473039627,-0.013146428391337395,-0.11458490043878555
1761505724762317300,5.6773173828125,0.04707483574748039,0.20797502994537354,0.15074637532234192
1761505724772354300,5.687354248046875,-0.0007582019316032529,0.3577256500720978,0.33715540170669556
1761505724782390300,5.697390380859375,-0.055800680071115494,0.40280258655548096,0.4564538300037384
1761505724792426200,5.70742626953125,-0.09065213799476624,0.3633235991001129,0.5236024856567383
1761505724802462500,5.71746240234375,-0.08960205316543579,0.25225648283958435,0.5680637359619141
1761505724812498400,5.72749853515625,-0.0672120600938797,0.13344646990299225,0.6223927140235901
1761505724822534400,5.737534423828125,-0.06515610218048096,0.04458850622177124,0.6657178401947021
1761505724832570600,5.747570556640625,-0.08663236349821091,-0.03933621942996979,0.6951543092727661
1761505724842606600,5.757606689453125,-0.09914309531450272,-0.11083011329174042,0.736483097076416
1761505724852642600,5.767642578125,-0.06859557330608368,-0.15179964900016785,0.777726948261261
1761505724862678500,5.777678466796875,0.013607421889901161,-0.1610802263021469,0.839000403881073
1761505724872714500,5.787714599609375,0.12057115882635117,-0.1466062217950821,0.9219155311584473
1761505724882750500,5.79775048828125,0.19718097150325775,-0.11415799707174301,1.0338205099105835
1761505724892786700,5.80778662109375,0.22181175649166107,-0.05938556417822838,1.1862049102783203
1761505724902823700,5.81782373046875,0.21985672414302826,-0.008779376745223999,1.3951376676559448
1761505724912859600,5.827859619140625,0.1848774403333664,0.06662456691265106,1.619881510734558
1761505724922895600,5.8378955078125,0.1012970581650734,0.16845905780792236,1.7549169063568115
1761505724932931600,5.847931640625,0.04595710709691048,0.2300153523683548,1.7584588527679443
1761505724942967600,5.857967529296875,0.04933346062898636,0.34441331028938293,1.628031849861145
1761505724953003500,5.86800341796875,0.11884249746799469,0.5269951224327087,1.3737975358963013
1761505724963039700,5.878039794921875,0.2190929353237152,0.7487146854400635,1.050455927848816
1761505724973076500,5.888076416015625,0.2979810833930969,0.8144679069519043,0.7194127440452576
1761505724983112400,5.898112548828125,0.2958873212337494,0.6102654933929443,0.413372665643692
1761505724993148700,5.908148681640625,0.22620224952697754,0.208928182721138,0.15335972607135773
1761505725003184600,5.9181845703125,0.1489631086587906,-0.36252012848854065,-0.012050537392497063
1761505725013220600,5.928220703125,0.09927998483181,-0.8450908064842224,-0.056899234652519226
1761505725023256600,5.938256591796875,0.12596645951271057,-1.1485393047332764,-0.008257131092250347
1761505725033292500,5.94829248046875,0.19931790232658386,-1.1891671419143677,0.11062505096197128
1761505725043329800,5.958329833984375,0.2736262083053589,-0.9437113404273987,0.21242544054985046
1761505725053365800,5.96836572265625,0.3144088089466095,-0.667670488357544,0.22585763037204742
1761505725063401700,5.978401611328125,0.3185633420944214,-0.629347026348114,0.10328564047813416
1761505725073437700,5.988437744140625,0.31160661578178406,-0.8768290281295776,-0.17415235936641693
1761505725083473700,5.9984736328125,0.3197644054889679,-1.3448086977005005,-0.6030970811843872
1761505725093509600,6.008509521484375,0.36108896136283875,-1.7104806900024414,-1.0999547243118286
1761505725103545600,6.018545654296875,0.39491748809814453,-1.6880805492401123,-1.5227859020233154
1761505725113582600,6.02858251953125,0.35868039727211,-1.356713891029358,-1.7824409008026123
1761505725123618600,6.03861865234375,0.2925884425640106,-0.8356621265411377,-1.8409497737884521
1761505725133654500,6.048654541015625,0.18717893958091736,0.007706922013312578,-1.6789283752441406
1761505725143690500,6.0586904296875,0.07643698155879974,0.969091534614563,-1.3836570978164673
1761505725153726500,6.0687265625,-0.046726491302251816,1.7066247463226318,-1.103957176208496
1761505725163762700,6.0787626953125,-0.21834592521190643,2.045694351196289,-0.9677964448928833
1761505725173798700,6.088798583984375,-0.45624396204948425,2.0125510692596436,-0.982230007648468
1761505725183835400,6.09883544921875,-0.7143980264663696,1.6205180883407593,-1.1292423009872437
1761505725193871600,6.10887158203125,-0.876131534576416,0.88099604845047,-1.3514493703842163
1761505725203907800,6.118907958984375,-0.8875383734703064,0.07160521298646927,-1.50832998752594
1761505725213943800,6.12894384765625,-0.8007091879844666,-0.3480357229709625,-1.4959865808486938
1761505725223979800,6.138979736328125,-0.6586500406265259,-0.37216877937316895,-1.3428395986557007
1761505725234015700,6.149015625,-0.5410858988761902,-0.12483380734920502,-1.1443688869476318
1761505725244051700,6.1590517578125,-0.46900635957717896,0.3355114161968231,-0.9573635458946228
1761505725254088700,6.169088623046875,-0.4018728733062744,1.0185147523880005,-0.7592387199401855
1761505725264124700,6.179124755859375,-0.3306120038032532,1.7607516050338745,-0.5238882303237915
1761505725274160600,6.18916064453125,-0.26294055581092834,2.4000072479248047,-0.2749287784099579
1761505725284196600,6.199196533203125,-0.19849151372909546,2.774704933166504,-0.04512566700577736
1761505725294232600,6.209232666015625,-0.14419019222259521,2.962506055831909,0.2722608149051666
1761505725304268500,6.2192685546875,-0.2103061079978943,2.9573562145233154,0.8702179789543152
1761505725314304500,6.229304443359375,-0.25902196764945984,2.1537110805511475,1.189857006072998
1761505725324341500,6.239341552734375,-0.2720664143562317,0.9107300043106079,1.2767540216445923
1761505725334377500,6.24937744140625,-0.13975097239017487,-0.19507254660129547,1.2475324869155884
1761505725344413400,6.259413330078125,0.020894629880785942,-0.9745789766311646,1.1755973100662231
1761505725354449400,6.269449462890625,0.079872727394104,-1.488073468208313,1.0411121845245361
1761505725364485600,6.279485595703125,0.07167045772075653,-1.8380850553512573,0.9632880091667175
1761505725374521900,6.28952197265625,0.1202600970864296,-2.0255038738250732,1.0064761638641357
