time,seconds_elapsed,z,y,x
1761479496977235200,0.090235107421875,0.8351455867618321,0.7103595887292176,1.9851018038272856
1761479496987271200,0.100271240234375,1.4133657459557056,0.7900668933030217,1.3667904572635887
1761479496997307100,0.11030712890625,1.626842492419481,0.5823652961745858,0.4265060414209962
1761479497007343000,0.120343017578125,1.7203361841529607,0.3946894189868122,-0.34493630397617814
1761479497017380000,0.130380126953125,1.4341460836559534,0.5135193946918473,-0.716022363731265
1761479497027416000,0.140416015625,1.3007359765976667,0.5477201357835904,-0.632406799672544
1761479497037452000,0.1504521484375,1.7259984476983545,0.5040278917144984,-0.47116789770722384
1761479497047488000,0.160488037109375,2.3160160121917723,0.35411808341722933,-0.26526918528229
1761479497057524000,0.17052392578125,2.855204137679934,0.3799500784838572,0.16966303143948316
1761479497067560000,0.180559814453125,2.9864199495643375,0.4757059795282781,0.5500295452371239
1761479497077597000,0.190596923828125,2.9531781896978613,0.22651293631065636,0.4792994739755988
1761479497087633000,0.2006328125,3.139042122092843,0.3335877384226769,0.11906769345104694
1761479497097668900,0.2106689453125,3.1405981193631884,0.4150121491126716,0.0608288549721241
1761479497107704800,0.220704833984375,3.0112650524854656,0.21785401169992982,0.3538993626326322
1761479497117740800,0.23074072265625,2.747252297005057,-0.15686850486136972,0.8776173856578767
1761479497127777800,0.24077783203125,1.4036673587620256,-0.836714443513751,0.9475739883288741
1761479497137813800,0.250813720703125,-1.0401900204449892,-0.8534215404257178,-0.18263123408406973
1761479497147849700,0.260849609375,-3.7885558316498993,-1.1574501530174166,-1.6880602005787193
1761479497157885700,0.2708857421875,-6.102175304093957,-1.7707127648241816,-3.1706749854579566
1761479497167921700,0.280921630859375,-7.569270886671543,-1.9762679245084522,-4.6943949570551515
1761479497177959000,0.290958984375,-7.998072637814283,-2.0921445668332277,-5.161306074100732
1761479497187995000,0.300994873046875,-7.646892471012473,-2.4148062028981743,-4.742576804161072
1761479497198030800,0.31103076171875,-7.223733109670877,-2.8542361694306133,-3.7597561458840962
1761479497208066800,0.32106689453125,-7.500251126459241,-2.4197566649124025,-2.050260212436318
1761479497218103000,0.33110302734375,-7.782318594068288,-1.6491396644234657,-1.2807114257007837
1761479497228139800,0.341139892578125,-8.997038667467235,-0.23569219500105826,-0.6122331956937909
1761479497238175700,0.35117578125,-13.014856843733787,-0.6624872459638863,-0.7434782336726784
1761479497248212000,0.3612119140625,-12.47164896121025,0.24203659559171645,-0.924792101547867
1761479497258248000,0.371248046875,-12.071056236463784,0.3164208785118535,-0.9959776614919305
1761479497268284000,0.381283935546875,-10.352690475600957,-0.3692711923528462,-1.6782967853248119
1761479497278321000,0.39132080078125,-7.474750774499774,-0.3086704470481723,-2.9878713174164293
1761479497288356900,0.40135693359375,-5.424617987835407,-0.5894188679479062,-3.971413275705278
1761479497298392800,0.411392822265625,-4.172901185950637,-0.32982707071490586,-4.490820595924556
1761479497308429000,0.421428955078125,-3.192108526369929,0.5467330975076183,-4.027598396524787
1761479497318465000,0.431465087890625,-3.3520781390517946,1.4165812008708714,-2.354445549959689
1761479497328502000,0.441501953125,-3.9650463710218666,2.5704098754554985,-0.9457409276828169
1761479497338538000,0.4515380859375,-3.0048820734500885,3.1166414897143837,0.16366145293712614
1761479497348574000,0.461573974609375,-0.3836147019386291,3.273694922688603,2.065891789071262
1761479497358610000,0.47160986328125,2.1536890227288006,3.09893164550066,3.1945661486551162
1761479497368646000,0.48164599609375,4.014730147123337,2.478428926372528,3.4792569505050777
1761479497378683000,0.491682861328125,5.4852907754629845,1.8022763623453675,3.1042861582711336
1761479497388718800,0.50171875,6.568461274978518,0.9908715705245733,2.3979583823412653
1761479497398754800,0.5117548828125,7.274301851913332,0.15413086005840448,1.2573062924548983
1761479497408790800,0.521790771484375,8.044566093441844,-0.7878128307659179,-0.046182782243192194
1761479497418826800,0.53182666015625,8.860200924047827,-1.6571873618006705,-0.9344760218247771
1761479497428864000,0.541864013671875,9.666952190974355,-2.1345798331111667,-1.0936091836825013
1761479497438900000,0.55189990234375,10.771803191900252,-2.0058077611170706,0.054614510501921176
1761479497448936000,0.56193603515625,11.578583684921265,-1.5483501165933906,2.0234376719623803
1761479497458972000,0.571971923828125,11.918745029580592,-0.8961459989085793,3.8523067115485667
1761479497469008000,0.5820078125,12.016654784190655,-0.32133816890884187,5.2804743053168055
1761479497479043800,0.5920439453125,11.984031448483467,0.2477050331495702,5.989478899240494
1761479497489080800,0.602080810546875,11.410938130784034,0.5907688577847555,5.552404994314909
1761479497499116800,0.61211669921875,10.787593466228246,0.4955274456011131,5.042060101473331
1761479497509152800,0.62215283203125,10.297737234663963,0.6923208778873086,4.488121858359873
1761479497519189000,0.63218896484375,9.971015217292308,0.7155144142091274,4.079229799562692
1761479497529225000,0.642224853515625,9.369881800022721,0.5642916966823861,3.492499293915927
1761479497539261700,0.65226171875,8.439388418093323,0.4850742579847574,2.8803832948610184
1761479497549298000,0.6622978515625,7.075092700254917,0.4325434584217146,2.5516291871398686
1761479497559334000,0.672333984375,5.738920668616891,0.23807768363179638,2.340812015274167
1761479497569369900,0.682369873046875,4.739151505887508,0.06558445200137794,2.152267465493083
1761479497579405800,0.69240576171875,4.289038671168685,0.02646262112036347,1.9781179362893104
1761479497589443000,0.702443115234375,3.6734137872099875,-0.16781663638781755,1.6791624622434376
1761479497599479000,0.71247900390625,2.5305250243127344,-0.14395992344953118,1.2742096425913274
1761479497609515000,0.722514892578125,1.0257605130761862,0.14494239514824003,0.9375326329164206
1761479497619551000,0.732551025390625,-0.5957102231770753,0.7648466003939509,0.7992197023779153
1761479497629587000,0.7425869140625,-2.601230545654893,0.8759010832592844,1.3214277592316268
1761479497639624000,0.7526240234375,-4.758830604347587,0.8214286115765571,1.8206145675905048
1761479497649660000,0.762659912109375,-6.75671181024909,1.2460383178569376,1.0606734210252762
1761479497659695900,0.77269580078125,-8.237953407078981,1.770479248329252,-0.40526510047167535
1761479497669731800,0.78273193359375,-9.49412718837261,2.202420174280554,-2.232143843023479
1761479497679767800,0.792767822265625,-9.960970793139934,1.824697599120438,-4.633314465409517
1761479497689804800,0.8028046875,-10.0858410353899,0.17621150323487816,-7.209671266570687
1761479497699840800,0.8128408203125,-12.798176917314528,-2.627398421612382,-10.447994431626796
1761479497709876700,0.822876708984375,-15.26600612373948,-6.334490606540441,-13.33621178111434
1761479497719912700,0.83291259765625,-15.086901602476834,-7.48741970193684,-14.671071561110018
1761479497729949000,0.842948974609375,-13.55143390994072,-6.013038054004311,-12.183847918385267
1761479497739986000,0.85298583984375,-12.33843174637556,-3.747127258196473,-6.523053861021995
1761479497750022000,0.86302197265625,-12.813715847229957,-1.5960517789669333,-1.7618492210194467
1761479497760057900,0.873057861328125,-13.967702342724799,-0.07503116598892956,0.38868133767843244
1761479497770093800,0.88309375,-13.597392528039217,0.8819543919488787,0.6151283326134085
1761479497780129800,0.8931298828125,-11.904583233237267,1.1799622829463332,-0.10973930861353874
1761479497790166800,0.903166748046875,-10.228230567717551,0.613826748495549,-0.9390469830021262
1761479497800202800,0.91320263671875,-8.774960096874832,0.07829389411192388,-1.2857134717717766
1761479497810238700,0.92323876953125,-7.570708810520172,0.06936977922637015,-1.3970079008728264
1761479497820275000,0.93327490234375,-6.715668436720967,0.5067334974113852,-1.2538178658172487
1761479497830311000,0.943310791015625,-5.806673185372352,1.1866137767247855,-0.6686851507559418
1761479497840347600,0.95334765625,-3.9461891103386875,1.8216908185198901,0.5429764118552207
1761479497850384000,0.9633837890625,-1.268690733039379,2.3481876586087047,1.4804706124573945
1761479497860420000,0.973420166015625,1.3909347184389829,2.475091890904307,1.8449837235629558
1761479497870456000,0.9834560546875,3.8140631978720423,2.1836241422653195,1.5885945948287843
1761479497880492000,0.993491943359375,5.706223098629713,1.7984484746202825,0.8884092671766877
1761479497890529000,1.003529052734375,7.11721568571329,1.391263658132404,0.12351941216289997
1761479497900565000,1.01356494140625,8.152135072278975,1.2530283228747545,-0.32835692509710784
1761479497910601000,1.02360107421875,8.701095234718919,1.1950675706848501,-0.06332593248486519
1761479497920637000,1.033636962890625,9.10768456953168,1.1462921415999532,0.7654980500400066
1761479497930673000,1.0436728515625,9.77119524025917,1.1621587690997868,1.610743882794678
1761479497940710000,1.0537099609375,10.74075806529522,1.0655841355510056,2.2414564457699657
1761479497950745900,1.063745849609375,11.765737072604894,0.8754344155956059,2.8673443650677797
1761479497960781800,1.07378173828125,12.604593788844346,0.537485778549686,3.5836847087070343
1761479497970817800,1.08381787109375,13.257137659877538,0.017963526713848113,3.976854297715425
1761479497980853800,1.093853759765625,13.240613226056098,-0.6278247325792908,3.6059435945272442
1761479497990891000,1.10389111328125,12.754544696336984,-1.2663348175629974,2.6792048889562485
1761479498000927000,1.113927001953125,11.748265713322162,-1.7334660071000456,1.5847136617422104
1761479498010963000,1.123962890625,10.17761564824581,-2.025041892288625,1.1894055994004011
1761479498020999000,1.1339990234375,8.359798748549819,-2.06299036854133,1.3997887637630104
1761479498031035000,1.144034912109375,6.6194082028836005,-1.9028931839570402,1.9040426462531088
1761479498041072600,1.15407275390625,5.449243310526013,-1.3932503019049762,2.5254762164905666
1761479498051108600,1.164108642578125,4.647944463786483,-0.8267525830782949,3.286431070142984
1761479498061144600,1.17414453125,4.33440575311482,-0.4445397838268429,4.1065164504170415
1761479498071180500,1.1841806640625,3.974088924655318,-0.20667006212361155,4.651261625510454
1761479498081216500,1.194216552734375,3.583287526082992,-0.09426924268323927,4.608713400377333
1761479498091253500,1.20425341796875,3.5901539047211406,0.02228252242412418,3.5671474154040217
1761479498101289700,1.214289794921875,3.8533097511112686,0.18258016148395836,2.457231240043044
1761479498111325700,1.22432568359375,4.224252603003382,0.6611834698889404,2.1200690771996973
1761479498121361700,1.234361572265625,4.864977441427111,1.193063975777477,2.440937984628975
1761479498131397600,1.244397705078125,4.897511345285177,1.5389388757780194,2.5153107963070274
1761479498141434600,1.2544345703125,4.027812916058302,1.9777970337718724,2.331056052674353
1761479498151470600,1.264470703125,2.0281518410027024,2.094341638486087,1.8273241482317446
1761479498161506600,1.274506591796875,-1.6874352005481719,2.1563418753251433,1.0680550557091832
1761479498171542500,1.28454248046875,-5.9363914521753784,2.13059675482437,-0.20942250263690948
1761479498181578800,1.294578857421875,-9.694346393856407,2.1903911521822215,-2.5171359659075736
1761479498191615500,1.304615478515625,-11.675725377768277,1.5742767311409114,-5.545263890388608
1761479498201651500,1.3146513671875,-12.734634711730479,-0.10080083640906959,-9.258100756448506
1761479498211687700,1.324687744140625,-14.444354224801062,-2.371900250368565,-13.270589846646786
1761479498221723600,1.3347236328125,-15.348530093169211,-4.834157063488662,-15.467820489460228
1761479498231760600,1.3447607421875,-14.591758954942225,-5.75561286022067,-14.323455224269628
1761479498241796600,1.354796630859375,-13.246421035552023,-4.734388821530342,-9.748914434868096
1761479498251832800,1.364832763671875,-12.172041745257378,-2.890231027397513,-4.1072760366126895
1761479498261868800,1.374868896484375,-12.370781525838375,-1.1761173710212112,-0.2993348287522793
1761479498271904800,1.38490478515625,-12.785303407216071,0.04073270014375448,1.0956503341212869
1761479498281941800,1.394941650390625,-12.178557995283603,0.3681030984215438,0.6817147281989455
1761479498291977700,1.404977783203125,-11.503327660667896,0.0553208321403712,-1.1017848913535475
1761479498302013700,1.415013671875,-11.586135707736014,-0.40589806461296973,-3.2653114174857736
1761479498312049700,1.425049560546875,-11.92527764621973,-0.3624132162168622,-4.692711826273799
1761479498322085600,1.435085693359375,-11.68689091490507,0.21991737397052347,-4.6659188041552895
1761479498332122600,1.44512255859375,-9.811340203642844,0.7210311318039894,-3.1326699567124248
1761479498342158600,1.45515869140625,-6.938964566409587,1.1365214198224245,-1.2936919033050536
1761479498352194600,1.465194580078125,-4.025342726552486,1.4487094465374946,0.07406418412029743
1761479498362230500,1.47523046875,-1.4257307220101356,1.5370556923799217,0.996582641647756
1761479498372266500,1.4852666015625,0.7305594231277703,1.4661395970270037,1.4718649889364839
1761479498382303700,1.4953037109375,2.1521868014723062,1.253766281760484,1.7130653163671492
1761479498392339700,1.505339599609375,2.826830276110768,1.1307689937755465,1.339896897380054
1761479498402375700,1.515375732421875,3.6235283510565757,1.1441251728244126,0.5587427207857371
1761479498412411600,1.52541162109375,4.940671857097745,0.9875767667628824,0.23103987568318843
1761479498422447600,1.535447509765625,6.961354092872142,0.8129876770980655,0.517246342793107
1761479498432484600,1.545484619140625,8.94490282203853,0.6790463857725262,1.1623059955507515
1761479498442520600,1.5555205078125,10.249286215227842,0.6727016929209232,1.738549301713705
1761479498452556500,1.565556640625,11.30210483109951,0.6851101427908987,2.3730811307162045
1761479498462592500,1.575592529296875,12.255668122971057,0.7595931368451565,3.0786092807009813
1761479498472628500,1.58562841796875,12.180384041666985,0.9523585191916674,3.38557328915745
1761479498482665500,1.59566552734375,12.33068916942477,0.893197962757945,4.012307888412475
1761479498492701400,1.605701416015625,12.4335089079082,0.8232824227496981,4.301588648401201
1761479498502737400,1.6157373046875,12.174772631525993,0.6000239216577261,3.9902746280416843
1761479498512773600,1.625773681640625,12.003155835670231,0.26198767939358947,3.3441876780629154
1761479498522809900,1.635809814453125,12.353989380991457,-0.1636969626419246,2.8863845811024307
1761479498532846600,1.6458466796875,12.178337046009302,-0.31344270295128224,2.696110138788819
1761479498542882600,1.655882568359375,10.922614515614509,-0.40449155881591137,2.9161379143312574
1761479498552918800,1.665918701171875,9.290693697017431,-0.2172813994437456,3.416295467418432
1761479498562954800,1.675954833984375,7.701992426943779,0.21638547351732848,3.9005116472691297
1761479498572990700,1.68599072265625,6.090412385585903,0.5271950514860451,4.084246458680927
1761479498583027700,1.69602783203125,4.703406823289394,0.6581593728274107,3.564988776065409
1761479498593063700,1.706063720703125,3.8642806424587963,0.5335924974381924,3.0432243713259695
1761479498603099600,1.716099609375,3.82848452193439,0.5291738772783429,2.8525197209015487
1761479498613135600,1.726135498046875,4.25066597815454,0.8911869882617145,3.10417246876359
1761479498623172600,1.736172607421875,4.532212052237988,1.2633216072216629,3.4968028363287447
1761479498633208800,1.746208740234375,4.783568739762902,1.65611564091593,3.3938626863360404
1761479498643244800,1.756244873046875,4.730604042294622,2.139958749670535,2.8920246328160166
1761479498653280800,1.76628076171875,3.9181957725197076,2.368842762494087,2.2480141968503595
1761479498663316700,1.776316650390625,1.223774317470193,2.1255840412288904,1.50367057852
1761479498673353700,1.786353759765625,-3.262848534503579,1.6685399459421633,1.1563923875927924
1761479498683389700,1.7963896484375,-8.375083995965122,1.3923146284900605,0.08070026113390923
1761479498693425700,1.80642578125,-12.67226856418848,1.45355294104591,-2.305537288275361
1761479498703461600,1.816461669921875,-14.703187531816958,0.8073616539098322,-5.076053556489944
1761479498713497600,1.82649755859375,-13.582006742858885,-1.1197552131343633,-7.994247526568174
1761479498723534600,1.83653466796875,-10.335904175972939,-4.085020073401927,-12.209981892073154
1761479498733570600,1.846570556640625,-8.461520754924416,-6.533938827651739,-17.48458467500806
1761479498743606500,1.8566064453125,-8.026153069394827,-6.35351562500596,-18.910754957479238
1761479498753642500,1.866642578125,-8.66774650734663,-4.017990317963063,-13.807433454835413
1761479498763678500,1.876678466796875,-9.364969478061795,-1.3452381122775374,-6.519756573042273
1761479498773715700,1.8867158203125,-9.634113166689872,-0.23196831563971934,-1.920812579268217
1761479498783751700,1.896751708984375,-10.992291862952708,-0.45247035763040183,-1.33022481367141
1761479498793787600,1.90678759765625,-12.755941703653335,-1.397325880780816,-3.014541882199049
1761479498803823600,1.91682373046875,-14.377428806519507,-2.597380884489417,-4.786169277650117
1761479498813859600,1.926859619140625,-15.099621967840195,-3.1537559993609783,-5.264160883897542
1761479498823896600,1.936896484375,-14.493097505182027,-2.697598331519961,-4.037806779067218
1761479498833932500,1.9469326171875,-12.588894699931144,-1.7295090861678122,-1.8858944106221198
1761479498843968500,1.956968505859375,-10.281473497605322,-0.5100434256769717,-0.05330372016429901
1761479498854004700,1.967004638671875,-8.003660667079687,0.5452500558756291,1.352701726156473
1761479498864040700,1.977040771484375,-5.48535624191463,1.3503043096259235,2.316604333473742
1761479498874077400,1.987077392578125,-2.6643612478286025,1.7685490109190343,2.6434695587083694
1761479498884113700,1.99711376953125,0.19928923115730285,2.0119126538634298,2.64594004047513
1761479498894149600,2.007149658203125,2.5739474019318815,2.295552923747152,2.1200223154485225
1761479498904185600,2.017185546875,4.333588591513037,2.4645278267920014,1.6965896901234983
1761479498914221600,2.0272216796875,5.464426266610622,2.6840876925617456,1.3716662466064096
1761479498924258800,2.0372587890625,6.363266619169711,2.7789102948114275,1.2876736659288406
1761479498934294800,2.047294677734375,6.997081239813566,2.91816562076658,1.4774059641897677
1761479498944330800,2.057330810546875,7.21693804270327,2.9870860122576355,1.9418208805054424
1761479498954366700,2.06736669921875,7.644132943171262,2.9670220061331984,2.418237200260162
1761479498964402700,2.077402587890625,8.298788691791891,2.8305107181891795,2.6433368722394106
1761479498974439700,2.087439697265625,9.513930205473303,2.380216389423609,2.690284209114313
1761479498984475600,2.0974755859375,10.742967558038234,1.649608012587577,2.7247876594796776
1761479498994511600,2.10751171875,12.161864050114154,0.9564018762983382,2.7851781230345365
1761479499004547600,2.117547607421875,13.253526483643054,0.4763730651348829,2.9680738532736894
1761479499014583600,2.12758349609375,13.436947114539146,0.23185097287036477,3.0039398241639135
1761479499024620500,2.13762060546875,13.121041090214252,0.26189386363029477,2.96507963989377
1761479499034656500,2.147656494140625,12.294868498980998,0.34021292871609327,3.0778441415473816
1761479499044692500,2.1576923828125,11.069522402149438,0.4127811751902103,3.2839851382955905
1761479499054728700,2.167728759765625,9.623901569277047,0.33844270417317746,3.3550480947732924
1761479499064764700,2.1777646484375,8.4495573454082,0.3251836288232356,3.161605251556635
1761479499074801700,2.1878017578125,7.618861723792553,0.3464116372257471,2.7607489074379203
1761479499084837600,2.197837646484375,7.155066985201835,0.1930383540689945,2.534973820415139
1761479499094873600,2.20787353515625,7.081672078645229,-0.16632679968886077,2.6018384484201666
1761479499104909600,2.21790966796875,6.962886124745011,-0.25421916428394614,2.8608675702691078
1761479499114945500,2.227945556640625,5.928374149936437,-0.01594816830344498,2.9072762702226638
1761479499124982500,2.237982421875,4.164019960358739,0.25530725178159774,2.6550460147336126
1761479499135018500,2.2480185546875,2.4547856004565953,0.5602053406842052,2.1235022665187717
1761479499145054500,2.258054443359375,1.267855451259017,1.1620675836849956,1.6109277149289845
1761479499155090700,2.268090576171875,0.8555506614089011,1.622532812526822,1.5602794777095317
1761479499165126700,2.278126708984375,0.5682581526279449,1.4678557532951235,1.7725363269895313
1761479499175163600,2.28816357421875,-0.43948330415487286,1.063109489065781,1.6882859721586108
1761479499185199600,2.29819970703125,-2.5561481258690355,0.6066726389572024,0.9892711495906114
1761479499195235800,2.30823583984375,-5.369582329311966,0.5474784725148231,-0.6150313019797206
1761479499205271800,2.318271728515625,-8.518498195165396,0.403929979410395,-2.4744348883002996
1761479499215307800,2.328307861328125,-11.056007087016106,0.3384044910546392,-4.856148822805285
1761479499225344800,2.3383447265625,-12.368565018832683,-0.4965245303470641,-7.33124538988471
1761479499235380700,2.348380615234375,-12.561908493328094,-2.225093924511969,-9.79275357659459
1761479499245416700,2.358416748046875,-13.189984278059004,-4.266225074075162,-12.723416567623614
1761479499255452700,2.36845263671875,-15.432259346735476,-5.093316241458058,-14.91374400691986
1761479499265488600,2.378488525390625,-15.335100118231772,-4.283402418847381,-12.396624407625197
1761479499275525600,2.388525634765625,-13.135042727559805,-2.3100363532602786,-6.737052585533261
1761479499285561600,2.3985615234375,-11.66003564120531,-1.0933878690820187,-2.172621686735749
1761479499295597600,2.40859765625,-11.583245831513404,-0.5383873304992914,-0.8287225679770112
1761479499305633500,2.418633544921875,-12.290772169578075,-0.020896474893204866,-1.9631673276558517
1761479499315669500,2.42866943359375,-12.35583296303153,-0.20219945604819803,-2.9732804820060728
1761479499325706800,2.438706787109375,-11.382478929018975,-0.6632052580401301,-3.293865311796963
1761479499335742700,2.44874267578125,-9.911243177896738,-0.8995049539476633,-3.215182527965307
1761479499345778700,2.45877880859375,-8.115273952871561,-0.653597910130769,-2.4883090998739004
1761479499355814700,2.468814697265625,-5.556901136690378,-0.17105181891676038,-1.1701768750563264
1761479499365850600,2.4788505859375,-3.0614170306205746,0.04639269866682589,0.6363879782631993
1761479499375886600,2.488886474609375,-0.761107121604681,0.33748467279598116,1.9917969175517558
1761479499385923600,2.498923583984375,0.9556851063311099,0.5508035252843052,2.605435888390243
1761479499395959600,2.50895947265625,2.342180965539813,0.6689329880371689,2.4713874834284186
1761479499405995500,2.51899560546875,3.7302047649681565,0.9418195164553821,1.989506468527019
1761479499416031500,2.529031494140625,4.8066392342269415,1.2073955757297574,1.6225725600153207
1761479499426067700,2.539067626953125,5.182279888546467,1.4658033508099615,1.4315548981189727
1761479499436104400,2.5491044921875,5.241271006697416,1.7380891368560492,1.1358546264767646
1761479499446140400,2.559140380859375,5.388228577592969,1.7729411083981395,1.0443737358704208
1761479499456176600,2.5691767578125,5.671950826671719,1.679065870001167,1.419461724743247
1761479499466212900,2.579212890625,6.725530490043759,1.6023112777531145,2.136507294042408
1761479499476248800,2.589248779296875,8.1154984092772,1.4581861538045107,2.8110312339544294
1761479499486285600,2.59928564453125,9.20564985372126,0.8362981908630579,3.2115453405067322
1761479499496321800,2.60932177734375,10.204508331346512,0.05106540318559855,2.894041233335435
1761479499506357800,2.619357666015625,11.681914295536279,-0.4717626121973619,2.123723508054018
1761479499516393700,2.629393798828125,13.339535372579096,-0.5538404818274081,1.4986837300181388
1761479499526429700,2.6394296875,13.549874405539034,-0.3265188960149884,1.2059823479309677
1761479499536466700,2.649466796875,13.112675412929057,-0.05258585421852767,1.708619735135138
1761479499546502700,2.659502685546875,12.372844888108968,0.32582068461775776,2.4544085838377474
1761479499556538600,2.66953857421875,10.424534061062335,0.6150623547051102,2.647319804395735
1761479499566574600,2.67957470703125,8.756882003870606,0.6240485750414431,2.6542729845345017
1761479499576610600,2.689610595703125,7.6361682479023925,1.0152890956833958,2.3253858980834483
1761479499586647800,2.699647705078125,7.154248654556274,1.0284374772004783,2.350795064628124
1761479499596683800,2.709683837890625,6.9410384500741955,0.7810063656214624,2.3940957155637443
1761479499606719700,2.7197197265625,6.336777840694785,0.6734932816900312,2.477822192651033
1761479499616755700,2.729755615234375,5.301584897884727,0.5939395602427423,2.7185104789063335
1761479499626791700,2.739791748046875,4.392046041178703,0.6409720911830663,3.064948711878061
1761479499636827600,2.74982763671875,3.791984052532911,1.0134227172896266,3.077876874773204
1761479499646864600,2.75986474609375,2.9067659826129675,1.2188583422474562,2.8786382047593593
1761479499656900600,2.769900634765625,2.1133517516434193,1.3458689575269818,2.4802590644091365
1761479499666936600,2.7799365234375,0.9026911827683448,1.3260147947609424,1.8061673784345387
1761479499676972500,2.78997265625,-0.7558832494765519,1.1204055668018758,1.0910013392716646
1761479499687008500,2.800008544921875,-2.978382773581147,1.100500696761906,0.19450813436061143
1761479499697045500,2.81004541015625,-5.7461365913450715,1.185838043111935,-0.4969447285205125
1761479499707081500,2.82008154296875,-7.940379742780327,1.2234670781519263,-1.1897867076724766
1761479499717117400,2.830117431640625,-9.590882512250541,0.8823008672989905,-2.2566022847145795
1761479499727153700,2.840153564453125,-10.817547874987124,-1.4805045147269964,-4.278621614311636
1761479499737189600,2.850189697265625,-11.69258182002306,-6.537646449998021,-9.79996949932277
1761479499747226600,2.8602265625,-14.563945065343379,-9.55936801456809,-19.30068600295782
1761479499757262600,2.8702626953125,-16.761450433444974,-8.82284062294662,-22.802168521535396
1761479499767298800,2.880298828125,-15.088798960530758,-6.110853700590133,-16.18873822401762
1761479499777334800,2.890334716796875,-12.597335196018218,-3.2505683141231536,-7.557811919546127
1761479499787370800,2.900370849609375,-11.769644016915558,-1.9118246784314512,-2.262403372208774
1761479499797407700,2.91040771484375,-12.208600082325935,-1.1908422080747783,-0.8940317832335829
1761479499807443700,2.920443603515625,-12.789840466123819,-0.9333138461776077,-1.2675994306713343
1761479499817479700,2.930479736328125,-12.843217836046218,-1.1742588836729526,-1.9454235811725258
1761479499827515600,2.940515625,-11.933573180878161,-1.5630957041740416,-2.7093524821996686
1761479499837551600,2.950551513671875,-9.891812501239777,-1.5581503567263484,-3.1574604068368672
1761479499847587600,2.960587646484375,-7.345555070266127,-1.065757957747951,-2.663319629821181
1761479499857624600,2.97062451171875,-5.198108741319179,-0.16736374152116476,-1.2248004456475377
1761479499867660500,2.98066064453125,-3.415096028500795,0.7251235887493938,0.3511307747021317
1761479499877696800,2.99069677734375,-1.9187801966577767,1.426559866310656,1.6654013556554912
1761479499887732700,3.000732666015625,-0.41879648995697494,1.7853966853454708,2.5745436142593623
1761479499897768700,3.010768798828125,1.1998118426024913,1.853174336542189,2.781865345224738
1761479499907805700,3.0208056640625,2.801964130401611,1.9041214105777442,2.5511761826753614
1761479499917841700,3.030841552734375,4.1289299422770736,1.8092064538694916,2.1033187256678936
1761479499927877600,3.040877685546875,5.277423101052642,1.7733882676437496,1.6878759300529955
1761479499937913600,3.05091357421875,6.358486399155855,1.9553876335650682,1.6685595274254679
1761479499947949600,3.060949462890625,7.588796840396523,2.346398875495791,2.029196089358628
1761479499957986600,3.070986572265625,8.751020418360829,2.7587606562301517,2.8264877462834117
1761479499968022500,3.0810224609375,9.71272493111193,2.91028655795455,3.6325457702487705
1761479499978058500,3.09105859375,10.264193861502408,2.6643691388741133,4.136054387329518
1761479499988094500,3.101094482421875,10.596275944602489,2.334301025944948,4.063972316937148
1761479499998130400,3.11113037109375,10.932845986771582,1.9888455204002558,3.409822179751098
1761479500008167700,3.121167724609375,11.383096184134482,1.2251144800327718,2.481070380792022
1761479500018203600,3.13120361328125,12.655063746887445,0.01075301081314683,1.5647916944369673
1761479500028239600,3.141239501953125,13.890928899645804,-0.6932469066910445,0.8592039232194423
1761479500038275000,3.151275146484375,13.638643406838177,-1.0311773504931478,0.5964388297125697
1761479500048311000,3.16131103515625,12.280554726946352,-0.7899144061550497,1.047942826528847
1761479500058347000,3.171346923828125,10.245455258762837,-0.21587050973251462,1.8619851272463797
1761479500068384000,3.181384033203125,8.046295693713427,0.28122882482782,2.5206135788902637
1761479500078420000,3.191419921875,6.311490839225053,0.7836273617748171,3.07216872625947
1761479500088456000,3.2014560546875,5.489546094819903,1.2063087303411215,3.253874369931221
1761479500098492000,3.211491943359375,5.1118257116168735,1.3094900686785578,2.955711215306818
1761479500108527900,3.22152783203125,5.403692688706517,1.1498584557794034,2.8134055618703364
1761479500118564900,3.23156494140625,5.9737435699701305,0.9777652745835482,2.5662667843014
1761479500128600800,3.241600830078125,5.834985087621211,0.7779352145478129,1.9883225194394587
1761479500138636800,3.25163671875,5.006397251939774,1.0216900487668812,1.1354624122887849
1761479500148672800,3.2616728515625,3.767865510320663,1.5673521925747393,0.5986075520537794
1761479500158708700,3.271708740234375,2.2567238652676345,1.92012123600319,0.4578039737433195
1761479500168746000,3.28174609375,0.13667875346541403,2.160531435969472,0.3101706955432892
1761479500178782000,3.291781982421875,-2.8235546154409645,1.996983088018,-0.08359627483636141
1761479500188818000,3.30181787109375,-6.167105164644122,1.7857123271659014,-0.977809552116692
1761479500198854000,3.31185400390625,-8.937157322478294,1.6282915221840142,-2.338827271197736
1761479500208889900,3.321889892578125,-10.723336974895,1.295972123196721,-3.5870284661769865
1761479500218926000,3.331926025390625,-11.749172891294956,0.3507902907013893,-4.843137657801806
1761479500228962800,3.341962890625,-12.270052037632464,-2.0279310378588735,-6.956767934125661
1761479500238998800,3.351998779296875,-13.463086933445929,-5.006747965073585,-10.239601856559515
1761479500249035000,3.362034912109375,-14.167206677937507,-7.3019322016388175,-13.133660917812586
1761479500259071000,3.372071044921875,-13.02781452498436,-6.925503027290105,-12.874012787282465
1761479500269107000,3.38210693359375,-11.014536427986622,-4.629909625402092,-7.504754867619275
1761479500279144000,3.39214404296875,-8.90236248795092,-2.7946359794706104,-1.0285334849208594
1761479500289180000,3.402179931640625,-9.20378698245883,-0.9534791937846689,1.6520210650786757
1761479500299216000,3.4122158203125,-11.104814664804934,-0.546811313842982,1.541927536199987
1761479500309251800,3.422251953125,-11.546306386172771,-0.4273314593944698,0.4683145541027188
1761479500319287800,3.432287841796875,-11.127178472304344,-0.7087712966244667,-1.020915411132574
1761479500329325000,3.442324951171875,-10.321700294053555,-1.8429209458142517,-2.319090012809634
1761479500339361000,3.452361083984375,-8.983252134177087,-2.142496159193665,-3.5969036712422966
1761479500349397000,3.46239697265625,-8.312757595911622,-1.52899250517264,-4.3581057776540515
1761479500359433000,3.472432861328125,-7.915809949669241,-0.9195291395183652,-3.5688878293305635
1761479500369469000,3.482468994140625,-6.345187941643595,-0.25426114026214924,-1.252428895676881
1761479500379506000,3.492505859375,-4.971839148777723,0.5007574186764657,1.2206138076126574
1761479500389542000,3.5025419921875,-4.322055390107631,1.0337755502928048,2.75736481795758
1761479500399577900,3.512577880859375,-3.298758636796474,1.6206733022652566,2.84489843224287
1761479500409613800,3.52261376953125,-1.614530123335123,1.9827518797002732,2.1499480826348063
1761479500419649800,3.53264990234375,0.7992161952465772,1.9868432406671344,1.4518594350010157
1761479500429685800,3.542685791015625,3.776683607548475,1.966564130487293,1.2774939249590038
1761479500439722800,3.55272265625,6.745252258601784,2.2008546785295007,1.0584593982376158
1761479500449758700,3.5627587890625,8.73872792302072,2.502322719918191,0.5832211823515594
1761479500459795000,3.572794921875,9.178995071029663,2.6304332592636346,0.33943434555903074
1761479500469831000,3.582830810546875,9.358384254452586,2.38167316410318,0.6756489984191953
1761479500479867000,3.592866943359375,10.507730230665207,2.1051400958761572,1.5170537917062639
1761479500489903900,3.60290380859375,11.555496239322423,1.636140920510143,2.2989595173202453
1761479500499939800,3.61293994140625,11.807266183823346,1.0404442874670028,2.591010180413723
1761479500509975800,3.622975830078125,12.454340099012851,0.581272605567053,2.038530319415033
1761479500520011800,3.63301171875,13.181256197202204,0.3398129696130752,0.9605439445391297
1761479500530048000,3.643048095703125,12.774232562625407,-0.09398848951309918,0.15262918679118156
1761479500540084700,3.653084716796875,11.910593287307023,-0.3334749987632036,-0.2098331292644143
1761479500550120700,3.66312060546875,10.663946043771505,-0.060938598956912754,-0.06726809423938393
1761479500560157000,3.673156982421875,9.158739049464463,0.1914133832156658,0.9097551298052072
1761479500570193000,3.68319287109375,7.61806443593502,0.5044631413266062,1.9415359260842202
1761479500580228900,3.693228759765625,6.440480207231641,0.6976577088706195,3.0167320857197044
1761479500590264800,3.703264892578125,5.715059316036105,0.606386223231256,4.084314555481076
1761479500600302000,3.713302001953125,4.723832356202602,0.36575602383874356,4.347818776917458
1761479500610338000,3.723338134765625,3.8894454788535833,-0.06588686901405454,3.6176942380756136
1761479500620374000,3.7333740234375,3.2574931449502706,-0.16240969931036234,2.3438266869202256
1761479500630410000,3.743409912109375,3.2257191195487973,-0.11429748337455094,1.5333201591134071
1761479500640446000,3.753446044921875,4.013550581949949,0.37513431223258376,1.5345374259486793
1761479500650483000,3.76348291015625,5.290531004428863,0.9232112620972096,2.1739432907283307
1761479500660519000,3.773518798828125,5.9890486911296845,1.0125478341512382,3.027325375926494
1761479500670555000,3.783554931640625,4.291169253456593,0.7843173168003559,3.006303046163916
1761479500680590800,3.7935908203125,0.9518155714213847,0.833376969654113,2.117764307388663
1761479500690626800,3.803626708984375,-2.5848265233427283,1.1298948412895202,0.7319745506227016
1761479500700663800,3.813663818359375,-5.881550439441204,1.1846531441763042,-1.090761685296893
1761479500710699800,3.82369970703125,-7.506959099665283,0.6253112884536385,-2.3440783235937355
1761479500720735700,3.83373583984375,-7.751295094773173,0.004736380872130394,-2.588697227296233
1761479500730771700,3.843771728515625,-8.327316282618046,-0.6277022752434015,-2.8695588262468577
1761479500740807700,3.8538076171875,-9.582346154573559,-1.2560600917860865,-3.5184169945046304
1761479500750844000,3.863843994140625,-10.657245084828137,-1.9677913341946898,-4.235936611056328
1761479500760881000,3.873880859375,-11.180184086304902,-2.6471307115644214,-5.709950010198354
1761479500770916900,3.883916748046875,-11.894842760467528,-4.640282550856471,-7.8879294245749705
1761479500780952800,3.893952880859375,-12.211454887235163,-7.425369780737161,-11.112163274002075
1761479500790988800,3.90398876953125,-11.550870333087444,-8.37197609307766,-13.01815004006028
1761479500801025000,3.91402490234375,-11.89151799995899,-6.502979625764489,-10.444830999159812
1761479500811061800,3.924061767578125,-12.339923446238041,-4.1375370271027085,-4.361729228848219
1761479500821097700,3.93409765625,-12.823846780622004,-2.6029338424414394,0.42208734819591043
1761479500831134000,3.944134033203125,-13.761948299467562,-2.0076701939880848,2.431448417880386
1761479500841170000,3.954169921875,-13.095382917344569,-1.4627175136238335,3.0584727938622236
1761479500851206000,3.964205810546875,-10.926372991365193,-0.7264598788544535,2.992131897470355
1761479500861243000,3.974242919921875,-7.966926973444223,-0.10431523773819208,2.4677447430118917
1761479500871279000,3.984279052734375,-5.233647087690234,0.3875414469283074,1.3687683332078158
1761479500881315000,3.994315185546875,-3.3821231487035748,1.2753496064066887,-0.2553970489569008
1761479500891348700,4.0043486328125,-3.3723955354154107,1.2506652470052242,-0.29151261069402096
1761479500901385700,4.0143857421875,-1.6060843665510416,1.9145006196424363,-0.7939438078016042
1761479500911421700,4.024421630859375,0.7893138099133968,2.1452122862845657,0.14572554488256573
1761479500921457700,4.034457763671875,2.9375469053238628,2.0856012826696038,1.2048149115867912
1761479500931494000,4.044493896484375,4.139189470484853,1.735712909244001,1.7683540728688238
1761479500941530000,4.054530029296875,5.083006444367766,1.3897399556964636,1.6997808873802422
1761479500951566800,4.06456689453125,5.9377247466057534,1.182940275843814,1.2357216526344417
1761479500961602800,4.074602783203125,6.421246514451504,1.0830787295788527,0.7832673693560064
1761479500971639000,4.08463916015625,6.691308486968278,1.1815453874193131,0.45648397718593475
1761479500981675000,4.094675048828125,6.970052363112568,1.1590579535402357,0.3890460793375969
1761479500991711000,4.1047109375,6.825770148906111,0.9587007278252393,0.4079426491178572
1761479501001747000,4.114746826171875,6.601119097477198,0.8232035122945904,0.21534122516140342
1761479501011784000,4.124783935546875,6.699897451615334,0.6741103906750678,-0.02236541493460536
1761479501021820000,4.13481982421875,7.668211737895011,0.5965427284784615,0.3324956323370337
1761479501031855900,4.14485595703125,8.84065100492537,0.6998286962341517,1.2597915333993732
1761479501041891600,4.1548916015625,9.539354569587111,0.6853245161939412,2.12504818078652
1761479501051927600,4.164927490234375,9.845565129327774,0.9676897977057843,2.699603826123476
1761479501061964500,4.174964599609375,10.311906045269966,1.278640756906569,2.9192630606144663
1761479501072000500,4.18500048828125,10.6262455509305,1.326707453200221,2.775792162790894
1761479501082036500,4.195036376953125,10.4608936606884,1.263265493120253,2.1747116447523234
1761479501092072400,4.205072509765625,9.975443555128575,1.2758359286189078,1.5546975859239696
1761479501102108400,4.2151083984375,9.481554122525454,0.9954092139542102,1.50844495331496
1761479501112144400,4.225144287109375,9.340186918982862,0.5550974230859428,1.6860662502825259
1761479501122181400,4.235181396484375,9.045325436252355,0.37936654297485944,1.7207196305125951
1761479501132217300,4.24521728515625,8.21496006950438,0.4363147571213543,1.7745269162848591
1761479501142253300,4.25525341796875,6.986388580885529,0.7458172710794955,2.1895744289718566
1761479501152289500,4.26528955078125,5.446034285351634,1.2353697704568505,2.669200504553318
1761479501162325500,4.275325439453125,4.138800763428211,1.469216227993369,2.760617682273686
1761479501172362500,4.285362548828125,4.236724546563625,1.8422668658196926,2.1321346319161356
1761479501182398500,4.2953984375,4.200138736966252,1.1341994066156447,1.5924765508286653
1761479501192434400,4.305434326171875,1.8873954628348348,-1.1639642841517925,1.8590446898803115
1761479501202470700,4.315470703125,-0.025614333727955817,-1.0532305576734244,0.2687245864331722
1761479501212506600,4.325506591796875,-3.044122196948528,-0.2449041503846645,-0.9377037516996264
1761479501222542600,4.33554248046875,-6.287482771649956,0.350691068110615,-1.758335806071013
1761479501232579600,4.34557958984375,-8.773115930312871,0.7790932254765183,-2.5175255497470497
1761479501242615600,4.355615478515625,-10.05506829598546,0.5747244260326028,-3.036701983819902
1761479501252651500,4.365651611328125,-10.04333811070323,0.2745104763582349,-3.310437968674302
1761479501262687500,4.3756875,-9.551639466142653,0.07817980274558067,-3.651901628103852
1761479501272723500,4.385723388671875,-9.848700504744052,-0.4646333083067089,-3.922755920042097
1761479501282760700,4.3957607421875,-11.077384221565723,-1.286333941757679,-3.862266964548826
1761479501292796700,4.405796630859375,-13.052121283245086,-2.8911852593824268,-4.56719334924817
1761479501302832600,4.41583251953125,-13.162497720718383,-6.053028703609108,-7.497612010127305
1761479501312868600,4.42586865234375,-12.523536969357728,-7.690591912007331,-11.628727479749918
1761479501322904600,4.435904541015625,-12.62398354896903,-5.767309143233299,-12.900844680106639
1761479501332940500,4.4459404296875,-13.453975406229496,-3.1525252885222432,-9.687989718306063
1761479501342977500,4.4559775390625,-14.564246678638458,-1.9025772498756646,-4.511880627349019
1761479501353013500,4.466013427734375,-14.070021730470657,-0.8467905779786408,-0.4985340435385704
1761479501363049500,4.476049560546875,-12.391727283233404,-0.31428185718916357,1.522637437057495
1761479501373085400,4.48608544921875,-10.63152261455059,-0.09344963339604437,2.104070859209448
1761479501383121400,4.496121337890625,-8.260133090183139,0.8637983383376151,1.7427879621967672
1761479501393157400,4.506157470703125,-5.443023413097858,1.3941191936939954,0.9619634559482335
1761479501403194400,4.5161943359375,-2.4799942759931084,1.6737538811981676,-0.16015490612089633
1761479501413230300,4.526230224609375,-0.07977671654820442,2.2884280403032897,-0.842429752420634
1761479501423266300,4.536266357421875,2.076763019436598,2.512671972236037,-0.838284761570394
1761479501433302500,4.546302490234375,4.483140270555019,2.4683552761256693,-0.3641749651923775
1761479501443338500,4.55633837890625,6.412532462120056,2.371120790428668,0.3544723402149975
1761479501453375500,4.56637548828125,7.230389644950628,1.9299099318288266,1.285152915279567
1761479501463412500,4.57641259765625,5.811513026618957,1.796019786168635,1.489713803229481
1761479501473449500,4.586449462890625,4.856802318277955,1.5957359910160303,0.9449168979488313
1761479501483485400,4.5964853515625,4.982909993368387,1.0344363522890954,0.6445287607513368
1761479501493521400,4.606521484375,5.901918104687333,0.5221260045934468,0.5379102145068347
1761479501503557400,4.616557373046875,6.412763348266482,-0.046151729517802595,0.484648872179538
1761479501513593300,4.62659326171875,7.30235598000884,-0.42090756382681427,0.45917760018408293
1761479501523629300,4.63662939453125,7.289502928176522,-0.14553243346326053,0.8953015109084546
1761479501533666600,4.64666650390625,6.518541352033615,0.006601480624265969,1.9934949536412954
1761479501543702500,4.65670263671875,6.942035059896111,0.03108527595233172,3.1997412132054563
1761479501553738500,4.666738525390625,7.738352611091733,-0.20132994320467112,3.6810546573519702
1761479501563774500,4.6767744140625,8.559850196251272,-0.12975158455073832,3.0808915464192625
1761479501573810700,4.686810791015625,9.080850338619946,1.0398446410734206,2.0921295153945683
1761479501583847400,4.696847412109375,8.619625742778181,-0.2695352452289313,4.292948538088798
1761479501593883400,4.70688330078125,9.86504373677969,-1.2402519895404576,4.033011653745175
1761479501603919600,4.716919677734375,10.02235494390726,0.20852160827443003,2.946323501497507
1761479501613955600,4.72695556640625,8.615905845472216,1.0236761810828,2.321856262652576
1761479501623991600,4.736991455078125,6.714473673978447,0.6530876225210726,2.7554370647653936
1761479501634027500,4.747027587890625,5.640342220965027,0.45504663785919547,3.2591572787702083
1761479501644064500,4.757064453125,4.919273095238209,0.3522106788933277,3.3251088835835456
1761479501654100500,4.7671005859375,4.229355479100346,-0.006747282303124665,3.221217716476321
1761479501664136400,4.777136474609375,3.719316291207075,-0.22253603203631936,3.062984426067769
1761479501674172400,4.78717236328125,3.1161645198523997,-0.3514630753964186,2.7028978992328048
1761479501684208400,4.79720849609375,2.472287354877591,-0.2373787963811308,2.1589166942492124
1761479501694244600,4.80724462890625,1.6907611301004886,-0.029379823741316792,1.6311150551721452
1761479501704281600,4.817281494140625,0.5710223566442728,-0.19818777272142468,0.46322190713882444
1761479501714317600,4.827317626953125,-1.1465478699266909,-0.04151552108451724,-1.2140560565322638
1761479501724353500,4.837353515625,-3.983818876031041,0.7480988792106509,-2.694875628557801
1761479501734389500,4.847389404296875,-7.12391138395965,0.8685456059299409,-3.518694057880342
1761479501744425500,4.857425537109375,-9.180463390016556,0.8841364121630787,-3.8073566859707233
1761479501754462500,4.86746240234375,-7.932128047263622,1.4107187385782598,-4.328562580044568
1761479501764498400,4.87749853515625,-6.418246163591742,1.201756693059951,-5.069713247552514
1761479501774534400,4.887534423828125,-6.779716253739595,0.03593216799423098,-5.3335062228024
1761479501784570400,4.8975703125,-8.28556680664718,-1.4552332953482865,-5.7962827242612835
1761479501794606300,4.9076064453125,-9.105916390815377,-3.477893553197384,-7.190681903940439
1761479501804642600,4.917642578125,-8.616448866307735,-6.03676379750669,-9.50289384767413
1761479501814679600,4.927679443359375,-6.692899555552005,-6.859033536082506,-11.28181373822093
1761479501824715500,4.937715576171875,-6.249795138290524,-4.549121101462841,-10.817156245321035
1761479501834751500,4.94775146484375,-9.072597474059462,-2.9748534304112195,-7.812908962643146
1761479501844787700,4.95778759765625,-12.651786917173862,-2.8264123429596424,-4.266140318401158
1761479501854823700,4.96782373046875,-15.155750097775458,-1.6043933447241783,-1.7831053595378994
1761479501864860400,4.9778603515625,-15.996527552944421,0.019216303253918886,0.08605068225115538
1761479501874896600,4.987896728515625,-14.95889364672303,1.168988688185066,1.5706503573372959
1761479501884932600,4.9979326171875,-11.494742203152178,2.0486982238166034,2.3455875591129063
1761479501894968600,5.007968505859375,-6.338960445430875,2.097918474059552,2.3000226165071127
1761479501905004500,5.018004638671875,-1.2054004563897847,1.4303560437232254,1.3826616878733038
1761479501915041500,5.02804150390625,2.717951383718848,0.8223854739099741,-0.09570581482499838
1761479501925077500,5.038077392578125,4.793693243414164,0.6729022569943219,-1.1744561598107217
1761479501935113500,5.048113525390625,5.126833895656466,0.6882795666072518,-1.213902619536221
1761479501945149400,5.0581494140625,3.9852626450985666,0.6853104876685887,-0.4116948412582278
1761479501955185400,5.068185302734375,2.3847785827726122,0.8613982183933258,0.6242839912325143
1761479501965221400,5.078221435546875,1.3976707486957312,1.1192573466148228,1.567069283980131
1761479501975258600,5.088258544921875,1.0404501326858997,1.4115087199121712,2.5080571719169615
1761479501985294600,5.098294677734375,1.4766022465914488,1.352356127589196,3.379097663402557
1761479501995330600,5.10833056640625,2.4197137025535107,1.4093150092601776,3.855887492644787
1761479502005366500,5.118366455078125,3.4633857198953626,1.5670568628899753,3.958891355523467
1761479502015402500,5.128402587890625,5.020077402245998,1.6502451414473354,3.845900936159491
1761479502025438500,5.1384384765625,6.227562848216295,1.6860303021863101,3.6999914130121465
1761479502035475500,5.148475341796875,6.458573497804999,1.6378265355095267,3.5297689941242334
1761479502045512200,5.15851220703125,6.522255404120683,1.540769306075573,2.979967412424087
1761479502055548200,5.168548095703125,7.594276148590445,1.1669625161197035,1.854922056992352
1761479502065584000,5.178584228515625,9.207100052529572,0.7114733221247792,0.3314426161527633
1761479502075620000,5.1886201171875,10.887802729952334,0.07566029420532286,-0.9451923538893461
1761479502085657000,5.198656982421875,11.807585332775115,-0.5082866451375186,-1.5106184979617594
1761479502095693000,5.208693115234375,11.520161891090869,-0.2769854881696403,-2.794035967750847
1761479502105729000,5.21872900390625,11.822004318749904,2.252681458009034,-1.5799313959017396
1761479502115765000,5.228764892578125,10.2317587418437,1.3061726146936417,2.31727039616704
1761479502125801000,5.238801025390625,9.983049353957176,-0.7463631414592266,3.8043592577204106
1761479502135837200,5.248837158203125,10.127199466216563,0.3608025661498308,3.8412916887983677
1761479502145874000,5.2588740234375,9.297457199802993,1.3023363975316284,3.916740020753443
1761479502155910100,5.26891015625,7.816047845190763,0.6248202900663018,3.2127927102193237
1761479502165946400,5.2789462890625,5.991117314097285,0.5289158839292823,2.947913985559344
1761479502175982300,5.288982421875,5.37446133352518,1.1757726492367684,2.801395975124836
1761479502186018300,5.299018310546875,6.1253136030972,1.6758968845762312,3.18634397149384
1761479502196055300,5.30905517578125,7.049699900323152,1.605324195833504,3.825490600815415
1761479502206091300,5.31909130859375,7.380373870190978,1.4518372231692074,4.281266575862467
1761479502216127200,5.329127197265625,6.794778798314929,1.1313222437441348,4.512557211436331
1761479502226163200,5.3391630859375,5.020267956382036,0.3698918815344572,4.291638624534011
1761479502236199200,5.34919921875,0.302035904404521,-0.40664552197940645,3.250038152769208
1761479502246235100,5.359235107421875,-5.876720535066723,-0.4985029908131808,1.4967783347882329
1761479502256272100,5.369272216796875,-11.862357371926308,-0.008758768256008624,-0.561116025788337
1761479502266308000,5.37930810546875,-15.983503236198425,0.378650357529521,-3.469441074411571
1761479502276344000,5.389343994140625,-17.74871842651963,-0.7642781528562307,-6.357288129281997
1761479502286380000,5.399380126953125,-18.952272378259895,-2.8534046870425342,-10.134733953374624
1761479502296416000,5.409416015625,-20.516362938690186,-4.53121836502552,-13.631679413044452
1761479502306453200,5.419453369140625,-20.09157919101715,-4.939050977897644,-14.5989298694849
1761479502316489200,5.4294892578125,-17.25582268112898,-3.4228830291151997,-11.750933471226691
1761479502326525200,5.439525146484375,-14.269218607169389,-2.3148051750972867,-6.34102030057013
1761479502336561200,5.44956103515625,-12.183017897301912,-1.7064404913999138,-1.8715265703126787
1761479502346597000,5.45959716796875,-10.734578499877452,-1.3797694735631345,0.6394960272811353
1761479502356633000,5.469633056640625,-9.945263520920276,-1.31979928124696,1.395446789035946
1761479502366670000,5.479670166015625,-9.501094104775786,-1.4620504280172288,0.7130557690106332
1761479502376706000,5.4897060546875,-9.777868142151831,-1.7866604216709732,-1.0259465371675789
1761479502386742000,5.499741943359375,-9.776251354604959,-1.5233439778916538,-2.5541134051710364
1761479502396778000,5.509778076171875,-8.464562606838346,-0.8200123881030827,-2.646207751500606
1761479502406814200,5.519814208984375,-6.7394514633685345,-0.08367264627451076,-1.419167125710845
1761479502416850200,5.52985009765625,-4.971548056876659,0.7386421187531202,0.1990248811326921
1761479502426887000,5.539886962890625,-3.073453505373001,1.2967751101426779,1.7136222195975481
1761479502436923100,5.549923095703125,-1.092882330712676,1.43392864151299,2.7113632375001906
1761479502446959000,5.559958984375,-0.19460954890847204,1.7639727890446781,2.476824413785338
1761479502456995300,5.569995361328125,0.8697668182879685,1.8254294205263255,1.9343930685922501
1761479502467031300,5.58003125,2.840342668634653,1.8782490104354916,1.4594618728287516
1761479502477067300,5.5900673828125,4.796799977257847,2.0689675432547925,1.3331629129499196
1761479502487104300,5.600104248046875,6.042140814369916,1.7578582516871393,1.4273383033372462
1761479502497140200,5.61014013671875,7.078544886535406,1.4067236775927245,1.383395116714388
1761479502507176200,5.62017626953125,7.939602913188934,1.45393974840641,1.1560637401603162
1761479502517212200,5.630212158203125,8.57352625490427,1.5758660461589693,0.967423474919796
1761479502527248100,5.640248046875,8.93362213408947,1.4797430288352071,0.6354648720689118
1761479502537285000,5.65028515625,8.964535743269323,1.2811980401739478,-0.0945576677031815
1761479502547321000,5.660321044921875,8.904158723717927,1.2850365954235194,-0.8798549354515969
1761479502557357000,5.670357177734375,9.117443747001886,1.2630059654012322,-1.6010760368697345
1761479502567393000,5.68039306640625,9.74127824090123,1.2311810865953563,-1.876842066247016
1761479502577429000,5.690428955078125,10.348801066946983,1.3800968058213592,-1.3194783787295221
1761479502587465000,5.70046484375,10.79355442045927,1.3508857627756894,-0.19984467308297751
1761479502597502200,5.710502197265625,11.189542281758785,1.2177771228820085,1.0379131615541874
1761479502607538200,5.7205380859375,11.167865872001647,0.971818348877877,2.182700013157725
1761479502617574100,5.73057421875,10.664115555119514,0.8648225668188184,2.8351798790439964
1761479502627610000,5.740610107421875,10.184758505737781,0.7247697338104248,3.1261756262570617
1761479502637646000,5.75064599609375,8.555876031923294,0.17766579369641838,3.338022725692391
1761479502647682300,5.760682373046875,6.196797707596421,-1.1613874194011091,4.366073980054259
1761479502657719000,5.770718994140625,4.64104885905385,-1.1237561924040318,3.16491539901793
1761479502667755000,5.780755126953125,4.330280782139301,0.03265241567119956,2.0473130530685184
1761479502677791200,5.790791259765625,4.138023933836817,0.59316521486938,1.3804349517345427
1761479502687827200,5.8008271484375,4.977715347334742,0.2990701864667237,1.3037310667604207
1761479502697863200,5.81086328125,5.153244932720065,0.8757581676572561,1.1931678745433687
1761479502707899100,5.820899169921875,4.530620399132371,1.1413612610690296,1.8867787922412156
1761479502717936000,5.83093603515625,3.193945678669214,0.6918418621987104,3.080202687372267
1761479502727972000,5.84097216796875,1.1811889751970768,0.5031722247332334,3.769924780938029
1761479502738008000,5.851008056640625,-1.5559586919009685,0.31870150026232,3.6040938750073312
1761479502748044300,5.861044189453125,-4.5942561282187695,0.09030307899862527,2.2705618364840743
1761479502758080300,5.871080322265625,-6.927863911202549,0.43793256758153437,-0.17843436691612005
1761479502768117200,5.8811171875,-8.01993609457612,0.34198403004184363,-2.956250729010999
1761479502778153200,5.8911533203125,-8.106220293322204,-1.0373697023272515,-5.65423104558587
1761479502788189200,5.901189208984375,-7.977601512193679,-3.932016500340402,-8.871213900971412
1761479502798225200,5.91122509765625,-9.144186792498827,-7.04192751275599,-12.86475746768117
1761479502808261000,5.92126123046875,-11.144147142761945,-7.126219076380133,-15.601880584859847
1761479502818297000,5.931297119140625,-14.547005620980261,-3.964191215497255,-13.785260201472044
1761479502828334000,5.941333984375,-17.4972267144382,-1.9172423195660113,-7.496348858323693
1761479502838370000,5.9513701171875,-17.407842796111105,-0.9427838314428925,-1.398038412964344
1761479502848406000,5.961406005859375,-14.960262596988677,-0.2420247590234503,2.253783720162511
1761479502858442000,5.97144189453125,-11.69442540206313,0.03873769040163606,3.5023291985347864
1761479502868478000,5.98147802734375,-9.078695206412672,-0.5925548644186929,3.554780393522978
1761479502878514200,5.99151416015625,-7.3251084945648905,-1.4256957968272268,2.630280991311371
1761479502888551200,6.00155126953125,-6.6675856660753485,-0.9196375683289021,0.7837203738205134
1761479502898587100,6.011587158203125,-7.250758479240536,0.25054928013216704,-0.24916940661370754
1761479502908623000,6.021623046875,-7.251681439304352,0.7768738689266145,0.012099749246984719
1761479502918659300,6.031659423828125,-6.572395107296109,1.272329381802678,0.3452558913193643
1761479502928695300,6.0416953125,-5.834621515005827,1.9311833127655087,0.8417034839726985
1761479502938731300,6.051731201171875,-4.668350707477331,1.8601845075652002,1.553544616496563
1761479502948768300,6.061768310546875,-3.0886843922525644,1.474280671776086,1.8495260431677103
1761479502958804200,6.07180419921875,-1.308462186935544,1.6160247458070516,1.2312909767106175
1761479502968840200,6.081840087890625,1.096796873807907,1.4235216676585376,0.029560441005229948
1761479502978876200,6.091876220703125,3.7497295496493575,0.800957632086426,-1.0527052186250685
1761479502988912000,6.101912109375,6.021268706732988,0.47220958877988156,-1.5179713449425996
1761479502998948000,6.111947998046875,7.475735109362006,0.40730047875680025,-1.3614094948776065
1761479503008985000,6.121985107421875,8.545910518226027,0.28213468762636185,-0.7328355513662099
1761479503019021000,6.13202099609375,9.025393824335932,0.49872766641452904,-0.12153583713024854
1761479503029057000,6.14205712890625,9.197195329108833,0.9053604019775986,0.21776231482848524
1761479503039093800,6.15209375,9.514332941055297,0.8555137634646147,0.23327187251895665
1761479503049129700,6.162129638671875,10.129586653614044,0.7184565320756287,0.19049436867460606
1761479503059165700,6.172165771484375,10.579107367658615,1.023046066485718,0.7489169175952672
1761479503069201700,6.18220166015625,10.636474684000016,1.1591527922168374,2.2237400256849824
1761479503079238700,6.19223876953125,10.484347016990185,0.8327554767549037,3.7445878028467297
1761479503089274600,6.202274658203125,10.54737601235509,0.15100677322112022,4.317082277870178
1761479503099310800,6.212310791015625,10.496554172134399,-0.34427141032665964,3.9583874976545568
1761479503109346800,6.222346923828125,10.071568179887533,-0.48696847423352296,2.618933083344996
1761479503119382800,6.2323828125,9.246234962087868,-0.40634602757617827,1.0788631577104328
1761479503129419800,6.242419677734375,8.125338250768184,-0.27268019219115375,0.08562646548971534
1761479503139455700,6.252455810546875,6.979479532149433,-0.004227627632394433,0.2599624571762979
1761479503149491700,6.26249169921875,5.607083509963751,0.16988120423480868,1.6431119285665452
1761479503159527700,6.272527587890625,5.4918374206274745,0.030705227126181123,2.7177713509768244
1761479503169563600,6.282563720703125,6.650937313613295,1.3736632656425236,3.5407448539078232
1761479503179600000,6.292599853515625,5.789989177075028,-1.1049231893792748,4.160394171077013
1761479503189636600,6.30263671875,4.866419456928968,-0.038098990639299155,3.710565998518467
1761479503199672600,6.312672607421875,3.7624364710092544,1.5235240106336772,2.311122687192261
1761479503209708800,6.322708740234375,2.9327380437374115,1.7069089856944977,1.8895479646936058
1761479503219744800,6.332744873046875,1.0747633211761713,1.608025271485746,1.3585200570464133
1761479503229780700,6.34278076171875,-0.5616086316108704,2.571550277662277,0.008342296409606932
