time,seconds_elapsed,z,y,x
1761479496962179800,0.075179931640625,-0.9585723876953125,0.02581787109375,-0.111663818359375
1761479496972217000,0.085217041015625,-0.9493255615234375,0.0218658447265625,-0.0354156494140625
1761479496982253000,0.095253173828125,-0.8725738525390625,0.030426025390625,-0.050506591796875
1761479496992289000,0.1052890625,-0.81842041015625,0.035858154296875,-0.1239013671875
1761479497002325000,0.115324951171875,-0.7986907958984375,0.0128631591796875,-0.22369384765625
1761479497012361000,0.12536083984375,-0.7907257080078125,-0.0016021728515625,-0.298492431640625
1761479497022398000,0.13539794921875,-0.8253021240234375,0.012786865234375,-0.3297882080078125
1761479497032434000,0.145433837890625,-0.82965087890625,0.0129241943359375,-0.315338134765625
1761479497042470000,0.155469970703125,-0.7843475341796875,0.0059661865234375,-0.2987060546875
1761479497052505900,0.165505859375,-0.7227935791015625,-0.0128631591796875,-0.271453857421875
1761479497062542000,0.1755419921875,-0.673187255859375,-0.0099334716796875,-0.222015380859375
1761479497072578800,0.185578857421875,-0.6647796630859375,-0.008331298828125,-0.1826171875
1761479497082614800,0.19561474609375,-0.66717529296875,-0.0373992919921875,-0.19366455078125
1761479497092651000,0.205651123046875,-0.6477813720703125,-0.02630615234375,-0.2257843017578125
1761479497102687000,0.21568701171875,-0.652008056640625,-0.0269622802734375,-0.22442626953125
1761479497112723000,0.225722900390625,-0.6637420654296875,-0.0511932373046875,-0.189361572265625
1761479497122760000,0.235760009765625,-0.7008514404296875,-0.0960845947265625,-0.134552001953125
1761479497132796000,0.2457958984375,-0.8534698486328125,-0.1601409912109375,-0.14190673828125
1761479497142831900,0.255831787109375,-1.1108551025390625,-0.154510498046875,-0.2718963623046875
1761479497152867800,0.265867919921875,-1.388031005859375,-0.193206787109375,-0.43023681640625
1761479497162903800,0.27590380859375,-1.612213134765625,-0.251495361328125,-0.5939483642578125
1761479497172941000,0.285941162109375,-1.7475433349609375,-0.26953125,-0.749298095703125
1761479497182977000,0.29597705078125,-1.776336669921875,-0.2847137451171875,-0.7871551513671875
1761479497193013000,0.306012939453125,-1.73504638671875,-0.3237457275390625,-0.7398834228515625
1761479497203049000,0.316049072265625,-1.69781494140625,-0.3607177734375,-0.6271820068359375
1761479497213085000,0.3260849609375,-1.7303009033203125,-0.30450439453125,-0.453460693359375
1761479497223122000,0.336121826171875,-1.7655029296875,-0.211944580078125,-0.385498046875
1761479497233158000,0.346157958984375,-1.9311370849609375,-0.0687103271484375,-0.3090057373046875
1761479497243193900,0.35619384765625,-2.3080596923828125,-0.1078338623046875,-0.33209228515625
1761479497253229800,0.366229736328125,-2.2342376708984375,0.0017242431640625,-0.3428955078125
1761479497263265800,0.376265869140625,-2.1865234375,-0.0098724365234375,-0.350830078125
1761479497273302800,0.386302734375,-1.9911651611328125,-0.0709991455078125,-0.432464599609375
1761479497283338800,0.3963388671875,-1.6969757080078125,-0.0609588623046875,-0.5662384033203125
1761479497293374700,0.406374755859375,-1.50482177734375,-0.08966064453125,-0.6601409912109375
1761479497303410700,0.41641064453125,-1.37823486328125,-0.043731689453125,-0.706695556640625
1761479497313447000,0.426447021484375,-1.2897796630859375,0.0518951416015625,-0.6422882080078125
1761479497323483000,0.43648291015625,-1.318145751953125,0.15008544921875,-0.467254638671875
1761479497333520000,0.446519775390625,-1.3722381591796875,0.2713775634765625,-0.3390960693359375
1761479497343555800,0.456555908203125,-1.2451629638671875,0.315826416015625,-0.216461181640625
1761479497353591800,0.466591796875,-0.9694366455078125,0.3300018310546875,-0.02740478515625
1761479497363628000,0.4766279296875,-0.7186126708984375,0.3011322021484375,0.0745391845703125
1761479497373664000,0.4866640625,-0.535919189453125,0.2350616455078125,0.0910491943359375
1761479497383700700,0.49670068359375,-0.3878173828125,0.1634368896484375,0.0431060791015625
1761479497393737000,0.506737060546875,-0.2822418212890625,0.0789794921875,-0.040252685546875
1761479497403773000,0.51677294921875,-0.209197998046875,-0.00732421875,-0.16845703125
1761479497413809000,0.526808837890625,-0.127197265625,-0.1058349609375,-0.3049163818359375
1761479497423844900,0.536844970703125,-0.043975830078125,-0.1943359375,-0.3931427001953125
1761479497433882000,0.546882080078125,0.0430145263671875,-0.2396087646484375,-0.3985748291015625
1761479497443918000,0.55691796875,0.15716552734375,-0.2260894775390625,-0.268646240234375
1761479497453954000,0.5669541015625,0.2338104248046875,-0.181793212890625,-0.06787109375
1761479497463990000,0.576989990234375,0.2645416259765625,-0.1185302734375,0.1110076904296875
1761479497474026000,0.58702587890625,0.2743988037109375,-0.065826416015625,0.251495361328125
1761479497484063000,0.59706298828125,0.2647552490234375,-0.00531005859375,0.3072357177734375
1761479497494099000,0.607098876953125,0.2012939453125,0.0203094482421875,0.2608184814453125
1761479497504135000,0.617135009765625,0.1382293701171875,0.0144195556640625,0.211395263671875
1761479497514171000,0.6271708984375,0.0896759033203125,0.0368804931640625,0.160125732421875
1761479497524206800,0.637206787109375,0.053497314453125,0.038055419921875,0.1240386962890625
1761479497534242800,0.647242919921875,-0.0135955810546875,0.0246124267578125,0.067291259765625
1761479497544279800,0.65727978515625,-0.1170501708984375,0.0206298828125,0.016326904296875
1761479497554315800,0.667315673828125,-0.260223388671875,0.0158843994140625,-0.008026123046875
1761479497564351700,0.677351806640625,-0.3962554931640625,-0.00494384765625,-0.0208892822265625
1761479497574387700,0.6873876953125,-0.492889404296875,-0.0204925537109375,-0.03369140625
1761479497584425000,0.697425048828125,-0.5369110107421875,-0.0290069580078125,-0.0434112548828125
1761479497594461000,0.7074609375,-0.609527587890625,-0.0514068603515625,-0.0701141357421875
1761479497604497000,0.717496826171875,-0.7312774658203125,-0.049346923828125,-0.1043548583984375
1761479497614532900,0.727532958984375,-0.888214111328125,-0.0191802978515625,-0.1350250244140625
1761479497624568800,0.73756884765625,-1.0582733154296875,0.0393218994140625,-0.14324951171875
1761479497634605800,0.747605712890625,-1.2630157470703125,0.0363922119140625,-0.087066650390625
1761479497644641800,0.757641845703125,-1.481292724609375,0.0342864990234375,-0.0599822998046875
1761479497654677800,0.767677734375,-1.6748046875,0.079071044921875,-0.16680908203125
1761479497664714000,0.7777138671875,-1.8174591064453125,0.131683349609375,-0.335968017578125
1761479497674750000,0.78775,-1.9363555908203125,0.1714324951171875,-0.5438079833984375
1761479497684786700,0.79778662109375,-1.9676361083984375,0.119781494140625,-0.8023529052734375
1761479497694823000,0.807822998046875,-1.9985504150390625,-0.0563507080078125,-1.0699615478515625
1761479497704859000,0.81785888671875,-2.305023193359375,-0.3555908203125,-1.40179443359375
1761479497714894800,0.827894775390625,-2.521484375,-0.7178192138671875,-1.6832122802734375
1761479497724931000,0.83793115234375,-2.4774322509765625,-0.79364013671875,-1.790618896484375
1761479497734967000,0.847967041015625,-2.3107147216796875,-0.62738037109375,-1.4863739013671875
1761479497745004000,0.858004150390625,-2.2038726806640625,-0.3966827392578125,-0.902740478515625
1761479497755040000,0.8680400390625,-2.272216796875,-0.1840362548828125,-0.4485626220703125
1761479497765076000,0.878075927734375,-2.380218505859375,-0.0372161865234375,-0.258819580078125
1761479497775112000,0.88811181640625,-2.319580078125,0.0528564453125,-0.251251220703125
1761479497785148000,0.89814794921875,-2.14093017578125,0.072418212890625,-0.3307952880859375
1761479497795185000,0.908184814453125,-1.9754180908203125,0.0081939697265625,-0.4076995849609375
1761479497805220900,0.918220947265625,-1.82867431640625,-0.0368194580078125,-0.439117431640625
1761479497815256800,0.9282568359375,-1.710662841796875,-0.029388427734375,-0.4475555419921875
1761479497825292800,0.938292724609375,-1.62677001953125,0.0240936279296875,-0.43060302734375
1761479497835329800,0.948329833984375,-1.525665283203125,0.0960540771484375,-0.3631439208984375
1761479497845366000,0.958365966796875,-1.3216094970703125,0.1613311767578125,-0.2377166748046875
1761479497855402000,0.968402099609375,-1.0451202392578125,0.2117156982421875,-0.1484222412109375
1761479497865438000,0.97843798828125,-0.7776031494140625,0.2176361083984375,-0.117156982421875
1761479497875474000,0.988473876953125,-0.535369873046875,0.1851043701171875,-0.1497802734375
1761479497885510000,0.998510009765625,-0.3498992919921875,0.1459197998046875,-0.224365234375
1761479497895547000,1.008546875,-0.2099151611328125,0.106353759765625,-0.30316162109375
1761479497905582800,1.018582763671875,-0.1090087890625,0.097442626953125,-0.3450775146484375
1761479497915618800,1.028618896484375,-0.057159423828125,0.0907745361328125,-0.3118896484375
1761479497925654800,1.03865478515625,-0.0128631591796875,0.088043212890625,-0.2254791259765625
1761479497935691800,1.04869189453125,0.0589447021484375,0.0876312255859375,-0.1424102783203125
1761479497945727700,1.058727783203125,0.15966796875,0.0753173828125,-0.07733154296875
1761479497955763700,1.068763671875,0.2614898681640625,0.05316162109375,-0.0090789794921875
1761479497965800000,1.078800048828125,0.3438873291015625,0.0156097412109375,0.067352294921875
1761479497975836000,1.0888359375,0.4026641845703125,-0.037261962890625,0.101409912109375
1761479497985873000,1.098872802734375,0.393524169921875,-0.1015777587890625,0.0580596923828125
1761479497995908900,1.108908935546875,0.3372802734375,-0.1583099365234375,-0.0424041748046875
1761479498005945000,1.118945068359375,0.2267913818359375,-0.1974029541015625,-0.14697265625
1761479498015981000,1.12898095703125,0.0600128173828125,-0.2147216796875,-0.174102783203125
1761479498026017000,1.13901708984375,-0.1286773681640625,-0.208709716796875,-0.1416778564453125
1761479498036054500,1.149054443359375,-0.3019866943359375,-0.181549072265625,-0.08099365234375
1761479498046090500,1.159090576171875,-0.41815185546875,-0.1226654052734375,-0.0093994140625
1761479498056126700,1.169126708984375,-0.4958038330078125,-0.0654144287109375,0.078399658203125
1761479498066162700,1.17916259765625,-0.525909423828125,-0.030853271484375,0.165313720703125
1761479498076198700,1.18919873046875,-0.5662078857421875,-0.0126800537109375,0.2200164794921875
1761479498086235600,1.199235595703125,-0.6038360595703125,-0.0098724365234375,0.20361328125
1761479498096272000,1.20927197265625,-0.59619140625,-0.0078887939453125,0.0875244140625
1761479498106307800,1.219307861328125,-0.567962646484375,-0.0021209716796875,-0.022705078125
1761479498116343800,1.22934375,-0.5246429443359375,0.0381927490234375,-0.0490570068359375
1761479498126379800,1.2393798828125,-0.4589080810546875,0.074920654296875,-0.0194854736328125
1761479498136416800,1.249416748046875,-0.4674072265625,0.10174560546875,-0.0194549560546875
1761479498146452700,1.25945263671875,-0.5628662109375,0.1360321044921875,-0.04534912109375
1761479498156488700,1.26948876953125,-0.7899627685546875,0.142608642578125,-0.1036529541015625
1761479498166524700,1.279524658203125,-1.1796875,0.1478118896484375,-0.1912689208984375
1761479498176560600,1.289560546875,-1.6121826171875,0.1476898193359375,-0.34185791015625
1761479498186597600,1.29959765625,-1.97174072265625,0.155181884765625,-0.6024322509765625
1761479498196633600,1.309633544921875,-2.1512298583984375,0.0790863037109375,-0.9298248291015625
1761479498206669600,1.319669677734375,-2.2581787109375,-0.0955810546875,-1.32373046875
1761479498216705500,1.32970556640625,-2.438385009765625,-0.3351898193359375,-1.7218475341796875
1761479498226741500,1.339741455078125,-2.5066375732421875,-0.575653076171875,-1.905670166015625
1761479498236778800,1.34977880859375,-2.41864013671875,-0.6499481201171875,-1.7386322021484375
1761479498246814700,1.359814697265625,-2.2773590087890625,-0.5319976806640625,-1.2387847900390625
1761479498256850700,1.3698505859375,-2.183013916015625,-0.3467559814453125,-0.6723785400390625
1761479498266886700,1.37988671875,-2.214996337890625,-0.17755126953125,-0.3145599365234375
1761479498276922600,1.389922607421875,-2.2494964599609375,-0.062713623046875,-0.196929931640625
1761479498286959600,1.399959716796875,-2.177154541015625,-0.036895751953125,-0.2577056884765625
1761479498296995600,1.40999560546875,-2.119354248046875,-0.06756591796875,-0.4493560791015625
1761479498307031600,1.420031494140625,-2.1358642578125,-0.103118896484375,-0.6609649658203125
1761479498317067500,1.430067626953125,-2.1731109619140625,-0.08087158203125,-0.784942626953125
1761479498327103500,1.440103515625,-2.133514404296875,-0.0127105712890625,-0.7518463134765625
1761479498337140500,1.450140380859375,-1.9257965087890625,0.03948974609375,-0.575927734375
1761479498347176400,1.460176513671875,-1.6302642822265625,0.0839996337890625,-0.3847808837890625
1761479498357212400,1.47021240234375,-1.3388214111328125,0.1141204833984375,-0.2451019287109375
1761479498367248600,1.48024853515625,-1.07843017578125,0.1219329833984375,-0.1540679931640625
1761479498377285600,1.49028564453125,-0.8666229248046875,0.11297607421875,-0.1095733642578125
1761479498387321600,1.500321533203125,-0.73199462890625,0.091583251953125,-0.094146728515625
1761479498397357800,1.51035791015625,-0.664764404296875,0.080596923828125,-0.1473541259765625
1761479498407393800,1.520393798828125,-0.5767974853515625,0.078399658203125,-0.2300872802734375
1761479498417429800,1.5304296875,-0.4318389892578125,0.0546112060546875,-0.260589599609375
1761479498427466800,1.540466796875,-0.2183837890625,0.0304718017578125,-0.227325439453125
1761479498437502700,1.550502685546875,-0.022796630859375,0.00921630859375,-0.1644744873046875
1761479498447538700,1.56053857421875,0.1053009033203125,0.0032806396484375,-0.110443115234375
1761479498457574700,1.57057470703125,0.2166900634765625,-0.004486083984375,-0.046142578125
1761479498467610600,1.580610595703125,0.3026580810546875,0.0040130615234375,0.0165863037109375
1761479498477647600,1.590647705078125,0.2924346923828125,0.0150909423828125,0.0465545654296875
1761479498487683600,1.60068359375,0.312652587890625,0.0068817138671875,0.10894775390625
1761479498497719600,1.610719482421875,0.3191070556640625,-0.00433349609375,0.128936767578125
1761479498507755500,1.620755615234375,0.2901611328125,-0.0291748046875,0.0899200439453125
1761479498517791700,1.630791748046875,0.2798614501953125,-0.0667877197265625,0.022125244140625
1761479498527828700,1.640828857421875,0.31671142578125,-0.1073150634765625,-0.01959228515625
1761479498537864700,1.65086474609375,0.283599853515625,-0.1180267333984375,-0.0338287353515625
1761479498547900700,1.660900634765625,0.144500732421875,-0.121826171875,-0.001953125
1761479498557936600,1.6709365234375,-0.0240631103515625,-0.0926666259765625,0.0536956787109375
1761479498567972600,1.68097265625,-0.187469482421875,-0.0441741943359375,0.10772705078125
1761479498578009600,1.691009521484375,-0.3538665771484375,-0.0112152099609375,0.1236114501953125
1761479498588045600,1.701045654296875,-0.49090576171875,-0.0005645751953125,0.07080078125
1761479498598081500,1.71108154296875,-0.5683441162109375,-0.0181427001953125,0.024993896484375
1761479498608117500,1.721117431640625,-0.56170654296875,-0.019866943359375,0.0118408203125
1761479498618153500,1.731153564453125,-0.518829345703125,0.0121002197265625,0.04327392578125
1761479498628190500,1.7411904296875,-0.489776611328125,0.0402069091796875,0.0796051025390625
1761479498638226700,1.751226806640625,-0.4660491943359375,0.0747222900390625,0.0622100830078125
1761479498648262700,1.7612626953125,-0.4766387939453125,0.1184844970703125,0.0089874267578125
1761479498658298600,1.771298583984375,-0.5759735107421875,0.1361236572265625,-0.0619049072265625
1761479498668334800,1.7813349609375,-0.877777099609375,0.109893798828125,-0.138214111328125
1761479498678371600,1.79137158203125,-1.34722900390625,0.0718994140625,-0.1863250732421875
1761479498688407600,1.801407470703125,-1.86126708984375,0.0582275390625,-0.332366943359375
1761479498698443800,1.81144384765625,-2.272491455078125,0.0682373046875,-0.60614013671875
1761479498708479700,1.821479736328125,-2.435089111328125,-0.011260986328125,-0.9069366455078125
1761479498718515700,1.831515625,-2.2762603759765625,-0.2286224365234375,-1.224456787109375
1761479498728552700,1.841552734375,-1.940826416015625,-0.5399627685546875,-1.686431884765625
1761479498738588700,1.851588623046875,-1.7751007080078125,-0.7705841064453125,-2.21209716796875
1761479498748624600,1.861624755859375,-1.739532470703125,-0.720489501953125,-2.2741546630859375
1761479498758660600,1.87166064453125,-1.8186492919921875,-0.4698486328125,-1.694122314453125
1761479498768696600,1.881696533203125,-1.87750244140625,-0.2106475830078125,-0.9607696533203125
1761479498778733800,1.89173388671875,-1.9171905517578125,-0.114837646484375,-0.5387420654296875
1761479498788769800,1.901769775390625,-2.06964111328125,-0.142852783203125,-0.514892578125
1761479498798805800,1.9118056640625,-2.2532958984375,-0.235626220703125,-0.69134521484375
1761479498808841700,1.921841796875,-2.4156036376953125,-0.3489990234375,-0.85626220703125
1761479498818877700,1.931877685546875,-2.4744415283203125,-0.3866424560546875,-0.878570556640625
1761479498828914700,1.941914794921875,-2.3962860107421875,-0.3302459716796875,-0.7315673828125
1761479498838950700,1.95195068359375,-2.19207763671875,-0.2276458740234375,-0.5076751708984375
1761479498848986600,1.961986572265625,-1.9575347900390625,-0.105987548828125,-0.3245697021484375
1761479498859022600,1.972022705078125,-1.7252044677734375,-0.0059356689453125,-0.1817779541015625
1761479498869058600,1.98205859375,-1.4647674560546875,0.0680999755859375,-0.0890960693359375
1761479498879095600,1.992095458984375,-1.17535400390625,0.1007537841796875,-0.057830810546875
1761479498889131500,2.002131591796875,-0.8864288330078125,0.1228485107421875,-0.0628814697265625
1761479498899167500,2.01216748046875,-0.6527557373046875,0.14825439453125,-0.1172027587890625
1761479498909203500,2.022203369140625,-0.48175048828125,0.165191650390625,-0.15728759765625
1761479498919239400,2.032239501953125,-0.3727264404296875,0.1883544921875,-0.1881561279296875
1761479498929276700,2.042276611328125,-0.2820892333984375,0.198944091796875,-0.1920166015625
1761479498939312600,2.052312744140625,-0.22515869140625,0.216552734375,-0.1692657470703125
1761479498949348600,2.0623486328125,-0.2024688720703125,0.2223968505859375,-0.1188201904296875
1761479498959384600,2.072384521484375,-0.1575164794921875,0.220672607421875,-0.0730438232421875
1761479498969420500,2.082420654296875,-0.0821380615234375,0.1999969482421875,-0.0533294677734375
1761479498979457500,2.09245751953125,0.0446624755859375,0.145599365234375,-0.0518035888671875
1761479498989493500,2.102493408203125,0.17388916015625,0.0625,-0.05224609375
1761479498999529700,2.11252978515625,0.3220367431640625,-0.0113525390625,-0.0516510009765625
1761479499009565700,2.122565673828125,0.42596435546875,-0.062774658203125,-0.0397186279296875
1761479499019601700,2.1326015625,0.4379425048828125,-0.085968017578125,-0.0451202392578125
1761479499029638700,2.142638671875,0.4019317626953125,-0.0807342529296875,-0.05108642578125
1761479499039674600,2.152674560546875,0.3104095458984375,-0.07061767578125,-0.0367889404296875
1761479499049710800,2.1627109375,0.1791839599609375,-0.0601654052734375,-0.011962890625
1761479499059746800,2.172746826171875,0.02886962890625,-0.0652313232421875,0.0012054443359375
1761479499069782800,2.18278271484375,-0.0888214111328125,-0.0609130859375,-0.01446533203125
1761479499079819800,2.19281982421875,-0.1734619140625,-0.0584869384765625,-0.0457000732421875
1761479499089855700,2.202855712890625,-0.21771240234375,-0.077728271484375,-0.0576934814453125
1761479499099891700,2.2128916015625,-0.2229766845703125,-0.1140289306640625,-0.042236328125
1761479499109927700,2.222927734375,-0.2434234619140625,-0.1179046630859375,-0.016326904296875
1761479499119963600,2.232963623046875,-0.3615570068359375,-0.09124755859375,-0.0148468017578125
1761479499130000600,2.243000732421875,-0.5442047119140625,-0.06402587890625,-0.04638671875
1761479499140036600,2.25303662109375,-0.71466064453125,-0.0309600830078125,-0.1014251708984375
1761479499150072600,2.263072509765625,-0.8264007568359375,0.0309600830078125,-0.14739990234375
1761479499160108500,2.273108642578125,-0.8625335693359375,0.0666656494140625,-0.14190673828125
1761479499170144500,2.28314453125,-0.897857666015625,0.0437774658203125,-0.1182098388671875
1761479499180181800,2.293181640625,-1.014190673828125,-0.0000152587890625,-0.134063720703125
1761479499190217700,2.3032177734375,-1.238006591796875,-0.037933349609375,-0.2262115478515625
1761479499200253700,2.313253662109375,-1.5289764404296875,-0.0377655029296875,-0.410247802734375
1761479499210289700,2.32328955078125,-1.8409423828125,-0.044921875,-0.6243743896484375
1761479499220325600,2.33332568359375,-2.0794677734375,-0.0496978759765625,-0.8922271728515625
1761479499230362600,2.343362548828125,-2.1898956298828125,-0.1427154541015625,-1.1590728759765625
1761479499240398600,2.353398681640625,-2.2005157470703125,-0.3219146728515625,-1.4208221435546875
1761479499250434600,2.3634345703125,-2.2886962890625,-0.5166778564453125,-1.7247772216796875
1761479499260470500,2.373470458984375,-2.5145416259765625,-0.579833984375,-1.9026031494140625
1761479499270506500,2.383506591796875,-2.4636688232421875,-0.4770965576171875,-1.57861328125
1761479499280543500,2.39354345703125,-2.236541748046875,-0.28021240234375,-0.9928741455078125
1761479499290579500,2.403579345703125,-2.106597900390625,-0.17022705078125,-0.55694580078125
1761479499300615400,2.413615478515625,-2.1161346435546875,-0.1105804443359375,-0.4589080810546875
1761479499310651600,2.423651611328125,-2.1890411376953125,-0.0585784912109375,-0.58282470703125
1761479499320687600,2.4336875,-2.183441162109375,-0.0804290771484375,-0.6722259521484375
1761479499330724600,2.443724609375,-2.07537841796875,-0.123992919921875,-0.6957244873046875
1761479499340760800,2.4537607421875,-1.9249267578125,-0.1407928466796875,-0.6766510009765625
1761479499350796800,2.463796875,-1.7349853515625,-0.1104736328125,-0.58660888671875
1761479499360832800,2.473832763671875,-1.4733123779296875,-0.065582275390625,-0.43463134765625
1761479499370868700,2.48386865234375,-1.225738525390625,-0.0454559326171875,-0.2383880615234375
1761479499380905700,2.49390576171875,-0.999969482421875,-0.0150146484375,-0.0971527099609375
1761479499390941700,2.503941650390625,-0.8366546630859375,0.0056304931640625,-0.03326416015625
1761479499400977700,2.513977783203125,-0.698211669921875,0.0212249755859375,-0.046661376953125
1761479499411013600,2.524013671875,-0.5595245361328125,0.054443359375,-0.090850830078125
1761479499421049600,2.534049560546875,-0.4593353271484375,0.0850372314453125,-0.1209869384765625
1761479499431086600,2.544086669921875,-0.4300537109375,0.1185760498046875,-0.1360015869140625
1761479499441122600,2.55412255859375,-0.4249725341796875,0.148834228515625,-0.1611480712890625
1761479499451158500,2.564158447265625,-0.4123687744140625,0.1533966064453125,-0.1583251953125
1761479499461194800,2.57419482421875,-0.3779754638671875,0.1431732177734375,-0.107879638671875
1761479499471230700,2.584230712890625,-0.2626495361328125,0.134368896484375,-0.027008056640625
1761479499481266700,2.5942666015625,-0.1252288818359375,0.1092376708984375,0.045745849609375
1761479499491303700,2.6043037109375,-0.017364501953125,0.0343170166015625,0.0833740234375
1761479499501339600,2.614339599609375,0.08673095703125,-0.0535888671875,0.039794921875
1761479499511375600,2.624375732421875,0.249725341796875,-0.1104583740234375,-0.043212890625
1761479499521411600,2.63441162109375,0.4078369140625,-0.1216278076171875,-0.1124725341796875
1761479499531447600,2.644447509765625,0.4145355224609375,-0.10113525390625,-0.1385040283203125
1761479499541484500,2.654484619140625,0.3719482421875,-0.077117919921875,-0.080657958984375
1761479499551520500,2.6645205078125,0.27996826171875,-0.033294677734375,-0.0105438232421875
1761479499561556500,2.674556396484375,0.0756378173828125,-0.010711669921875,0.009735107421875
1761479499571592400,2.684592529296875,-0.0878143310546875,-0.0041046142578125,0.0092620849609375
1761479499581628700,2.694628662109375,-0.1951141357421875,0.03411865234375,-0.0185394287109375
1761479499591665700,2.704665771484375,-0.238494873046875,0.025970458984375,-0.0088958740234375
1761479499601701600,2.71470166015625,-0.2631988525390625,-0.0023193359375,-0.002288818359375
1761479499611737900,2.72473779296875,-0.329864501953125,-0.0173492431640625,0.0087890625
1761479499621773800,2.73477392578125,-0.438995361328125,-0.0317840576171875,0.0342864990234375
1761479499631809800,2.744809814453125,-0.5220947265625,-0.0294952392578125,0.0637054443359375
1761479499641846800,2.7548466796875,-0.583953857421875,0.001251220703125,0.05419921875
1761479499651882800,2.7648828125,-0.6715545654296875,0.011810302734375,0.02471923828125
1761479499661918700,2.774918701171875,-0.750640869140625,0.0190277099609375,-0.0295867919921875
1761479499671954700,2.78495458984375,-0.877227783203125,0.0094146728515625,-0.1102142333984375
1761479499681990700,2.79499072265625,-1.048553466796875,-0.01251220703125,-0.195037841796875
1761479499692027600,2.805027587890625,-1.2815399169921875,-0.0106658935546875,-0.296539306640625
1761479499702063600,2.815063720703125,-1.5598907470703125,-0.00067138671875,-0.3736114501953125
1761479499712099600,2.825099609375,-1.7707977294921875,0.0056610107421875,-0.4569091796875
1761479499722135600,2.835135498046875,-1.933380126953125,-0.0403289794921875,-0.57763671875
1761479499732171500,2.845171630859375,-2.050018310546875,-0.313934326171875,-0.8166656494140625
1761479499742207500,2.85520751953125,-2.1470184326171875,-0.831787109375,-1.446197509765625
1761479499752244700,2.86524462890625,-2.46856689453125,-1.076873779296875,-2.4124298095703125
1761479499762280700,2.87528076171875,-2.63946533203125,-0.97064208984375,-2.628692626953125
1761479499772316700,2.885316650390625,-2.4379119873046875,-0.6835479736328125,-1.8780364990234375
1761479499782352600,2.8953525390625,-2.1976318359375,-0.412261962890625,-1.0191192626953125
1761479499792388600,2.905388671875,-2.137939453125,-0.290313720703125,-0.5279998779296875
1761479499802425600,2.915425537109375,-2.19189453125,-0.2166748046875,-0.4210968017578125
1761479499812461600,2.925461669921875,-2.2487030029296875,-0.193267822265625,-0.464080810546875
1761479499822497500,2.93549755859375,-2.2450714111328125,-0.216705322265625,-0.5340728759765625
1761479499832533500,2.945533447265625,-2.1385498046875,-0.250152587890625,-0.609405517578125
1761479499842569500,2.955569580078125,-1.9198150634765625,-0.2410888671875,-0.643951416015625
1761479499852606500,2.9656064453125,-1.6626129150390625,-0.18389892578125,-0.5753936767578125
1761479499862642400,2.975642333984375,-1.45166015625,-0.0879364013671875,-0.4171905517578125
1761479499872678400,2.985678466796875,-1.2757415771484375,0.0001983642578125,-0.25421142578125
1761479499882714600,2.995714599609375,-1.1266021728515625,0.06890869140625,-0.1187286376953125
1761479499892750800,3.005750732421875,-0.97314453125,0.0983123779296875,-0.0304412841796875
1761479499902787600,3.01578759765625,-0.80682373046875,0.1017303466796875,-0.0155029296875
1761479499912823600,3.025823486328125,-0.6466064453125,0.102569580078125,-0.0417633056640625
1761479499922859800,3.03585986328125,-0.5124053955078125,0.088623046875,-0.0913238525390625
1761479499932895700,3.045895751953125,-0.3972625732421875,0.0840911865234375,-0.132080078125
1761479499942931700,3.055931640625,-0.283355712890625,0.102264404296875,-0.131591796875
1761479499952967700,3.0659677734375,-0.157684326171875,0.14007568359375,-0.0891265869140625
1761479499963004700,3.076004638671875,-0.041595458984375,0.1780853271484375,0.0000152587890625
1761479499973040600,3.08604052734375,0.0494537353515625,0.1854400634765625,0.0864715576171875
1761479499983076600,3.09607666015625,0.0992431640625,0.156585693359375,0.1422119140625
1761479499993112600,3.106112548828125,0.1293182373046875,0.1211090087890625,0.133697509765625
1761479500003148500,3.1161484375,0.162841796875,0.082427978515625,0.06842041015625
1761479500013185800,3.126185791015625,0.214569091796875,-0.0084991455078125,-0.026031494140625
1761479500023221800,3.1362216796875,0.354766845703125,-0.1331939697265625,-0.11688232421875
1761479500033257700,3.1462578125,0.465606689453125,-0.19940185546875,-0.18597412109375
1761479500043293000,3.15629296875,0.422271728515625,-0.2266998291015625,-0.2028656005859375
1761479500053329000,3.166328857421875,0.2707366943359375,-0.189056396484375,-0.146087646484375
1761479500063366000,3.176365966796875,0.057403564453125,-0.12542724609375,-0.05877685546875
1761479500073401900,3.18640185546875,-0.1674652099609375,-0.069793701171875,0.009368896484375
1761479500083437800,3.196437744140625,-0.33380126953125,-0.016265869140625,0.068145751953125
1761479500093473800,3.206473876953125,-0.411651611328125,0.0261993408203125,0.0825958251953125
1761479500103510000,3.216510009765625,-0.4434814453125,0.027923583984375,0.0558624267578125
1761479500113546000,3.2265458984375,-0.4058990478515625,0.0083465576171875,0.0444488525390625
1761479500123582700,3.236582763671875,-0.3513336181640625,-0.015411376953125,0.0150146484375
1761479500133619000,3.246618896484375,-0.375762939453125,-0.0363006591796875,-0.0509185791015625
1761479500143655000,3.256655029296875,-0.464508056640625,-0.007659912109375,-0.14044189453125
1761479500153691000,3.26669091796875,-0.5943756103515625,0.0438385009765625,-0.191986083984375
1761479500163726800,3.276726806640625,-0.7516632080078125,0.0764923095703125,-0.2079620361328125
1761479500173764000,3.28676416015625,-0.9769287109375,0.0967864990234375,-0.2323150634765625
1761479500183800000,3.296800048828125,-1.2843170166015625,0.076904296875,-0.2884674072265625
1761479500193836000,3.3068359375,-1.620513916015625,0.0609283447265625,-0.401092529296875
1761479500203872000,3.3168720703125,-1.8866424560546875,0.046112060546875,-0.553680419921875
1761479500213908000,3.326907958984375,-2.055084228515625,0.01275634765625,-0.688079833984375
1761479500223945000,3.336945068359375,-2.1507415771484375,-0.095550537109375,-0.8263702392578125
1761479500233981000,3.34698095703125,-2.20367431640625,-0.3472900390625,-1.05877685546875
1761479500244017000,3.357016845703125,-2.337127685546875,-0.64715576171875,-1.397979736328125
1761479500254052900,3.367052978515625,-2.3838348388671875,-0.8561859130859375,-1.6700439453125
1761479500264088800,3.3770888671875,-2.251922607421875,-0.7818756103515625,-1.581695556640625
1761479500274125800,3.387125732421875,-2.0386505126953125,-0.5508880615234375,-0.9862518310546875
1761479500284161800,3.397161865234375,-1.8392181396484375,-0.36468505859375,-0.35162353515625
1761479500294197800,3.40719775390625,-1.91168212890625,-0.1824188232421875,-0.1211090087890625
1761479500304233700,3.417233642578125,-2.1016387939453125,-0.1486053466796875,-0.1405181884765625
1761479500314269700,3.427269775390625,-2.1291046142578125,-0.126739501953125,-0.2526702880859375
1761479500324305700,3.4373056640625,-2.0844573974609375,-0.16162109375,-0.4015960693359375
1761479500334343000,3.447343017578125,-1.995513916015625,-0.26593017578125,-0.532928466796875
1761479500344379000,3.45737890625,-1.8589630126953125,-0.2679443359375,-0.65838623046875
1761479500354414800,3.467414794921875,-1.80926513671875,-0.18927001953125,-0.7127227783203125
1761479500364450800,3.477450927734375,-1.758758544921875,-0.1188201904296875,-0.59716796875
1761479500374487000,3.487487060546875,-1.5944366455078125,-0.0406646728515625,-0.338775634765625
1761479500384523800,3.497523681640625,-1.4685211181640625,0.03887939453125,-0.0810089111328125
1761479500394559700,3.507559814453125,-1.40618896484375,0.0941314697265625,0.066375732421875
1761479500404596000,3.517595947265625,-1.2949371337890625,0.1527862548828125,0.0665130615234375
1761479500414632000,3.5276318359375,-1.1129608154296875,0.1776275634765625,-0.00726318359375
1761479500424668000,3.53766796875,-0.8594207763671875,0.1669769287109375,-0.0758514404296875
1761479500434705000,3.547704833984375,-0.5481109619140625,0.156585693359375,-0.0948333740234375
1761479500444740900,3.557740966796875,-0.251861572265625,0.1744232177734375,-0.1255035400390625
1761479500454777000,3.567777099609375,-0.066680908203125,0.19757080078125,-0.1721343994140625
1761479500464813000,3.57781298828125,-0.03887939453125,0.2018585205078125,-0.185699462890625
1761479500474849000,3.58784912109375,-0.009490966796875,0.168609619140625,-0.136077880859375
1761479500484886000,3.597885986328125,0.1128997802734375,0.1360931396484375,-0.0416107177734375
1761479500494922000,3.607921875,0.2098846435546875,0.0796966552734375,0.037689208984375
1761479500504958000,3.6179580078125,0.231353759765625,0.015625,0.0570220947265625
1761479500514994000,3.627993896484375,0.3104095458984375,-0.0322265625,-0.016143798828125
1761479500525030000,3.63802978515625,0.3730316162109375,-0.0584259033203125,-0.1351776123046875
1761479500535065900,3.64806591796875,0.3238525390625,-0.10601806640625,-0.2191162109375
1761479500545102800,3.658102783203125,0.2332763671875,-0.1216888427734375,-0.2584991455078125
1761479500555138800,3.668138916015625,0.101837158203125,-0.0897979736328125,-0.2373504638671875
1761479500565174800,3.6781748046875,-0.05242919921875,-0.0633392333984375,-0.1336822509765625
1761479500575210800,3.688210693359375,-0.20770263671875,-0.02978515625,-0.0309906005859375
1761479500585246700,3.698246826171875,-0.320953369140625,-0.0154266357421875,0.080657958984375
1761479500595284000,3.708283935546875,-0.3931732177734375,-0.0289306640625,0.1830902099609375
1761479500605320000,3.71831982421875,-0.496795654296875,-0.060882568359375,0.1937103271484375
1761479500615356000,3.72835595703125,-0.574951171875,-0.1089019775390625,0.1042938232421875
1761479500625391900,3.738391845703125,-0.6336517333984375,-0.125030517578125,-0.033447265625
1761479500635427800,3.748427734375,-0.62152099609375,-0.1290435791015625,-0.113250732421875
1761479500645464000,3.758464111328125,-0.5276947021484375,-0.08892822265625,-0.1142425537109375
1761479500655500800,3.768500732421875,-0.3920745849609375,-0.0501861572265625,-0.0483551025390625
1761479500665536800,3.778536865234375,-0.341827392578125,-0.0560760498046875,0.0303802490234375
1761479500675573000,3.788572998046875,-0.54559326171875,-0.0836181640625,0.014678955078125
1761479500685609000,3.79860888671875,-0.8932952880859375,-0.0718994140625,-0.0787200927734375
1761479500695645000,3.80864501953125,-1.2582550048828125,-0.0416107177734375,-0.22332763671875
1761479500705682000,3.818681884765625,-1.5814056396484375,-0.0418701171875,-0.3997955322265625
1761479500715718000,3.8287177734375,-1.726409912109375,-0.1054229736328125,-0.504608154296875
1761479500725753900,3.83875390625,-1.748291015625,-0.1675262451171875,-0.5124359130859375
1761479500735789800,3.848789794921875,-1.8203125,-0.233978271484375,-0.5376739501953125
1761479500745825800,3.85882568359375,-1.9535369873046875,-0.2972869873046875,-0.5994873046875
1761479500755863000,3.868863037109375,-2.053924560546875,-0.368682861328125,-0.6788330078125
1761479500765899000,3.87889892578125,-2.1073150634765625,-0.4413604736328125,-0.841217041015625
1761479500775935000,3.88893505859375,-2.17926025390625,-0.6664276123046875,-1.0803375244140625
1761479500785971000,3.898970947265625,-2.1980743408203125,-0.9375152587890625,-1.4172210693359375
1761479500796007000,3.9090068359375,-2.1321258544921875,-0.992340087890625,-1.56756591796875
1761479500806043000,3.91904296875,-2.18170166015625,-0.7737579345703125,-1.239959716796875
1761479500816080000,3.929079833984375,-2.2240447998046875,-0.5324554443359375,-0.596710205078125
1761479500826115800,3.93911572265625,-2.290374755859375,-0.3809814453125,-0.1307220458984375
1761479500836151800,3.94915185546875,-2.378753662109375,-0.3189697265625,0.061737060546875
1761479500846187800,3.959187744140625,-2.2889862060546875,-0.2551116943359375,0.1229705810546875
1761479500856223700,3.9692236328125,-2.0549774169921875,-0.176025390625,0.1110076904296875
1761479500866260700,3.9792607421875,-1.748565673828125,-0.113494873046875,0.0501556396484375
1761479500876297000,3.989296875,-1.4813690185546875,-0.0570068359375,-0.07489013671875
1761479500886331000,3.999330810546875,-1.2991943359375,0.03936767578125,-0.2375335693359375
1761479500896367900,4.009367919921875,-1.11480712890625,0.1019287109375,-0.2564697265625
1761479500906403800,4.01940380859375,-0.8684844970703125,0.125274658203125,-0.1425018310546875
1761479500916439800,4.029439697265625,-0.662689208984375,0.1176300048828125,-0.030426025390625
1761479500926476000,4.03947607421875,-0.54913330078125,0.0847930908203125,0.0233306884765625
1761479500936512000,4.049511962890625,-0.4536285400390625,0.055206298828125,0.00811767578125
1761479500946548000,4.0595478515625,-0.3692779541015625,0.0399322509765625,-0.0441741943359375
1761479500956585000,4.0695849609375,-0.3246002197265625,0.0355987548828125,-0.0916595458984375
1761479500966621000,4.079620849609375,-0.297210693359375,0.049835205078125,-0.1234283447265625
1761479500976657000,4.089656982421875,-0.2715301513671875,0.046173095703125,-0.125823974609375
1761479500986692900,4.09969287109375,-0.2926025390625,0.0263519287109375,-0.1235198974609375
1761479500996728800,4.109728759765625,-0.3115386962890625,0.0108795166015625,-0.14520263671875
1761479501006765800,4.119765869140625,-0.2933197021484375,-0.00946044921875,-0.1664581298828125
1761479501016801800,4.1298017578125,-0.18389892578125,-0.0191650390625,-0.1246185302734375
1761479501026837800,4.139837646484375,-0.0680694580078125,-0.0156402587890625,-0.0327911376953125
1761479501036873700,4.149873779296875,0.0003662109375,-0.0210723876953125,0.0446624755859375
1761479501046909700,4.15990966796875,0.029266357421875,0.006622314453125,0.092803955078125
1761479501056945700,4.169945556640625,0.0830230712890625,0.031005859375,0.1048431396484375
1761479501066982400,4.179982421875,0.107666015625,0.0298004150390625,0.0821685791015625
1761479501077018600,4.1900185546875,0.0884246826171875,0.0218048095703125,0.015106201171875
1761479501087054600,4.2000546875,0.0356903076171875,0.0191802978515625,-0.0429229736328125
1761479501097090600,4.210090576171875,-0.01031494140625,-0.0164794921875,-0.0435028076171875
1761479501107126500,4.22012646484375,-0.0208587646484375,-0.0611419677734375,-0.030426025390625
1761479501117163500,4.23016357421875,-0.056793212890625,-0.076873779296875,-0.0350494384765625
1761479501127199500,4.240199462890625,-0.1448211669921875,-0.070343017578125,-0.0335540771484375
1761479501137235500,4.2502353515625,-0.2728424072265625,-0.0380096435546875,0.0056915283203125
1761479501147271400,4.260271484375,-0.4291839599609375,0.006683349609375,0.0438385009765625
1761479501157307600,4.2703076171875,-0.5532684326171875,0.0198516845703125,0.0458221435546875
1761479501167343600,4.280343505859375,-0.5108642578125,0.06402587890625,-0.03594970703125
1761479501177380600,4.290380615234375,-0.5638580322265625,-0.0526580810546875,-0.0655364990234375
1761479501187416600,4.30041650390625,-0.7914581298828125,-0.2607574462890625,-0.06219482421875
1761479501197452500,4.31045263671875,-0.9988250732421875,-0.2230072021484375,-0.2310028076171875
1761479501207488500,4.320488525390625,-1.317291259765625,-0.1369781494140625,-0.3408355712890625
1761479501217524500,4.3305244140625,-1.64495849609375,-0.0741119384765625,-0.4184722900390625
1761479501227561500,4.3405615234375,-1.8856048583984375,-0.03558349609375,-0.4888916015625
1761479501237597400,4.350597412109375,-2.0012359619140625,-0.0640411376953125,-0.5333251953125
1761479501247633400,4.36063330078125,-1.985626220703125,-0.0919647216796875,-0.557891845703125
1761479501257669400,4.37066943359375,-1.9425506591796875,-0.115875244140625,-0.590911865234375
1761479501267705300,4.380705322265625,-1.9839630126953125,-0.173797607421875,-0.6112823486328125
1761479501277741300,4.3907412109375,-2.12451171875,-0.2618560791015625,-0.6088104248046875
1761479501287778600,4.400778564453125,-2.3155364990234375,-0.445220947265625,-0.7085723876953125
1761479501297814500,4.410814453125,-2.2979278564453125,-0.769378662109375,-1.04718017578125
1761479501307850500,4.4208505859375,-2.2401123046875,-0.888214111328125,-1.4621734619140625
1761479501317886500,4.430886474609375,-2.2593536376953125,-0.6549835205078125,-1.5357513427734375
1761479501327922700,4.440922607421875,-2.352630615234375,-0.4023284912109375,-1.15911865234375
1761479501337959400,4.45095947265625,-2.461517333984375,-0.281829833984375,-0.6248779296875
1761479501347995400,4.460995361328125,-2.3839569091796875,-0.1775054931640625,-0.2389068603515625
1761479501358031600,4.471031494140625,-2.2110443115234375,-0.134796142578125,-0.0563507080078125
1761479501368067600,4.481067626953125,-2.0240631103515625,-0.1087799072265625,-0.020111083984375
1761479501378103600,4.491103515625,-1.77252197265625,-0.010162353515625,-0.0712432861328125
1761479501388139500,4.501139404296875,-1.47943115234375,0.0317535400390625,-0.16302490234375
1761479501398176500,4.511176513671875,-1.180450439453125,0.0652313232421875,-0.2767333984375
1761479501408212500,4.52121240234375,-0.944305419921875,0.1272125244140625,-0.335235595703125
1761479501418248400,4.53124853515625,-0.7221221923828125,0.1466522216796875,-0.32391357421875
1761479501428284400,4.541284423828125,-0.47918701171875,0.146484375,-0.267669677734375
1761479501438320400,4.5513203125,-0.2958831787109375,0.1421051025390625,-0.188232421875
1761479501448356600,4.561356689453125,-0.2302093505859375,0.1044921875,-0.0898895263671875
1761479501458393600,4.5713935546875,-0.2823944091796875,0.093780517578125,-0.0427093505859375
1761479501468430600,4.5814306640625,-0.392669677734375,0.108367919921875,-0.0851898193359375
1761479501478467600,4.591467529296875,-0.4827423095703125,0.092681884765625,-0.133941650390625
1761479501488503600,4.601503662109375,-0.4542083740234375,0.040802001953125,-0.1597747802734375
1761479501498539500,4.61153955078125,-0.363861083984375,-0.0057525634765625,-0.16455078125
1761479501508575500,4.621575439453125,-0.3123626708984375,-0.0614471435546875,-0.1709442138671875
1761479501518611500,4.631611572265625,-0.2200164794921875,-0.08905029296875,-0.1681365966796875
1761479501528648700,4.641648681640625,-0.2448883056640625,-0.0557861328125,-0.11114501953125
1761479501538684700,4.6516845703125,-0.31317138671875,-0.0457000732421875,0.0111846923828125
1761479501548720600,4.661720703125,-0.2592620849609375,-0.04656982421875,0.1269989013671875
1761479501558756600,4.671756591796875,-0.175506591796875,-0.078125,0.1661834716796875
1761479501568792600,4.68179248046875,-0.0910186767578125,-0.0605926513671875,0.0810089111328125
1761479501578828500,4.69182861328125,-0.053192138671875,0.04254150390625,0.002838134765625
1761479501588865500,4.701865478515625,-0.0821685791015625,-0.125640869140625,0.220947265625
1761479501598901500,4.711901611328125,0.051544189453125,-0.1940155029296875,0.15338134765625
1761479501608937500,4.7219375,0.0458984375,-0.038543701171875,0.0420989990234375
1761479501618973400,4.731973388671875,-0.1130523681640625,0.0211029052734375,-0.009033203125
1761479501629009400,4.742009521484375,-0.299530029296875,-0.021697998046875,0.0433502197265625
1761479501639045400,4.75204541015625,-0.40020751953125,-0.041046142578125,0.090576171875
1761479501649082400,4.762082275390625,-0.47283935546875,-0.057586669921875,0.09344482421875
1761479501659118300,4.772118408203125,-0.5413818359375,-0.0997467041015625,0.0822601318359375
1761479501669154300,4.782154296875,-0.5908660888671875,-0.1243438720703125,0.06268310546875
1761479501679190300,4.792190185546875,-0.653289794921875,-0.1420745849609375,0.0193023681640625
1761479501689226800,4.802226806640625,-0.7161407470703125,-0.1335296630859375,-0.0420684814453125
1761479501699263500,4.812263427734375,-0.7981109619140625,-0.122039794921875,-0.1065521240234375
1761479501709299500,4.822299560546875,-0.9119415283203125,-0.14703369140625,-0.2453460693359375
1761479501719335700,4.832335693359375,-1.10003662109375,-0.1218414306640625,-0.423858642578125
1761479501729371600,4.84237158203125,-1.395782470703125,-0.045166015625,-0.5743865966796875
1761479501739407600,4.85240771484375,-1.71270751953125,-0.0440673828125,-0.6558074951171875
1761479501749443600,4.862443603515625,-1.881683349609375,-0.0395965576171875,-0.692474365234375
1761479501759480600,4.87248046875,-1.7224884033203125,0.0066680908203125,-0.7610931396484375
1761479501769516500,4.8825166015625,-1.588134765625,-0.0317230224609375,-0.83489990234375
1761479501779552500,4.892552490234375,-1.6468963623046875,-0.157806396484375,-0.85626220703125
1761479501789588500,4.90258837890625,-1.8047943115234375,-0.31005859375,-0.9085540771484375
1761479501799624400,4.91262451171875,-1.8715667724609375,-0.5261077880859375,-1.06109619140625
1761479501809661700,4.92266162109375,-1.804473876953125,-0.7777252197265625,-1.3026123046875
1761479501819697700,4.93269775390625,-1.6027679443359375,-0.8152618408203125,-1.46405029296875
1761479501829733600,4.942733642578125,-1.6040191650390625,-0.552032470703125,-1.3792877197265625
1761479501839769600,4.95276953125,-1.9212799072265625,-0.4091644287109375,-1.0427093505859375
1761479501849805600,4.9628056640625,-2.2850189208984375,-0.3755035400390625,-0.67913818359375
1761479501859842600,4.972842529296875,-2.52496337890625,-0.2265472412109375,-0.42498779296875
1761479501869878500,4.98287841796875,-2.59222412109375,-0.059722900390625,-0.228271484375
1761479501879914500,4.99291455078125,-2.458984375,0.0511932373046875,-0.079864501953125
1761479501889950500,5.002950439453125,-2.0745697021484375,0.1261138916015625,-0.0131988525390625
1761479501899986400,5.012986328125,-1.5373687744140625,0.1061248779296875,-0.03558349609375
1761479501910022400,5.0230224609375,-1.0199432373046875,0.02496337890625,-0.147186279296875
1761479501920059400,5.033059326171875,-0.64031982421875,-0.0378875732421875,-0.3029022216796875
1761479501930095400,5.043095458984375,-0.4520263671875,-0.0469818115234375,-0.4018096923828125
1761479501940131300,5.05313134765625,-0.441070556640625,-0.038818359375,-0.388153076171875
1761479501950167300,5.063167236328125,-0.5750732421875,-0.024322509765625,-0.2909088134765625
1761479501960203500,5.07320361328125,-0.7370758056640625,0.0080718994140625,-0.176849365234375
1761479501970240500,5.083240478515625,-0.832855224609375,0.049835205078125,-0.0730438232421875
1761479501980276500,5.0932763671875,-0.8618927001953125,0.0862274169921875,0.02783203125
1761479501990312700,5.103312744140625,-0.808349609375,0.085479736328125,0.1136016845703125
1761479502000348700,5.1133486328125,-0.71075439453125,0.099700927734375,0.1548614501953125
1761479502010384600,5.123384521484375,-0.5977783203125,0.115570068359375,0.158050537109375
1761479502020420600,5.133420654296875,-0.4362945556640625,0.1249847412109375,0.1413726806640625
1761479502030457600,5.14345751953125,-0.322845458984375,0.1251678466796875,0.124725341796875
1761479502040494000,5.153494140625,-0.310150146484375,0.1180267333984375,0.10296630859375
1761479502050530300,5.1635302734375,-0.2928619384765625,0.0990447998046875,0.0398406982421875
1761479502060566300,5.173566162109375,-0.1716156005859375,0.049896240234375,-0.08477783203125
1761479502070602200,5.183602294921875,-0.00201416015625,-0.0101318359375,-0.2430877685546875
1761479502080639200,5.19363916015625,0.167266845703125,-0.0860595703125,-0.36846923828125
1761479502090675200,5.20367529296875,0.244537353515625,-0.16046142578125,-0.4296875
1761479502100711200,5.213711181640625,0.219512939453125,-0.106048583984375,-0.5642547607421875
1761479502110747100,5.2237470703125,0.2479400634765625,0.1264801025390625,-0.3948974609375
1761479502120783000,5.233783203125,0.066192626953125,-0.0284576416015625,0.0001373291015625
1761479502130819000,5.243819091796875,0.0781707763671875,-0.20770263671875,0.10504150390625
1761479502140856000,5.25385595703125,0.0728302001953125,-0.077545166015625,0.1202392578125
1761479502150892000,5.26389208984375,-0.017364501953125,-0.005828857421875,0.118865966796875
1761479502160928300,5.27392822265625,-0.1831512451171875,-0.08050537109375,0.0576171875
1761479502170964200,5.283964111328125,-0.3625335693359375,-0.0749359130859375,0.0410003662109375
1761479502181000200,5.294000244140625,-0.4071044921875,-0.008941650390625,0.0383758544921875
1761479502191036200,5.3040361328125,-0.3220672607421875,0.0325469970703125,0.092529296875
1761479502201073200,5.3140732421875,-0.235870361328125,0.017669677734375,0.168426513671875
1761479502211109000,5.324109130859375,-0.2137908935546875,0.0004119873046875,0.22149658203125
1761479502221145000,5.33414501953125,-0.2874755859375,-0.0364837646484375,0.248260498046875
1761479502231181000,5.34418115234375,-0.497772216796875,-0.1082305908203125,0.2179107666015625
1761479502241217000,5.354217041015625,-1.01544189453125,-0.167877197265625,0.096405029296875
1761479502251254000,5.36425390625,-1.648468017578125,-0.1465301513671875,-0.0919342041015625
1761479502261290000,5.3742900390625,-2.246551513671875,-0.0722808837890625,-0.3206939697265625
1761479502271326000,5.384325927734375,-2.6336517333984375,-0.025909423828125,-0.6247100830078125
1761479502281362200,5.394362060546875,-2.7939300537109375,-0.1477508544921875,-0.9217071533203125
1761479502291398100,5.404398193359375,-2.928741455078125,-0.34716796875,-1.3089447021484375
1761479502301434000,5.41443408203125,-3.0794219970703125,-0.5044403076171875,-1.6319427490234375
1761479502311471000,5.42447119140625,-2.999755859375,-0.5189056396484375,-1.68426513671875
1761479502321507300,5.43450732421875,-2.6956329345703125,-0.3644866943359375,-1.3426513671875
1761479502331543300,5.444543212890625,-2.40167236328125,-0.2718353271484375,-0.786163330078125
1761479502341579300,5.454579345703125,-2.1973724365234375,-0.2197265625,-0.3531036376953125
1761479502351615200,5.464615234375,-2.0591888427734375,-0.19598388671875,-0.1190948486328125
1761479502361651200,5.474651123046875,-1.9844818115234375,-0.1908416748046875,-0.060089111328125
1761479502371688200,5.484688232421875,-1.946258544921875,-0.2057647705078125,-0.1440582275390625
1761479502381724200,5.49472412109375,-1.9819183349609375,-0.2280426025390625,-0.3258209228515625
1761479502391760100,5.504760009765625,-1.9671630859375,-0.1850738525390625,-0.466583251953125
1761479502401796000,5.514796142578125,-1.821685791015625,-0.1058197021484375,-0.4539947509765625
1761479502411832000,5.52483203125,-1.645965576171875,-0.0242767333984375,-0.317779541015625
1761479502421869000,5.534869140625,-1.4642333984375,0.062652587890625,-0.1531524658203125
1761479502431905000,5.544905029296875,-1.267669677734375,0.115081787109375,-0.0019378662109375
1761479502441941000,5.55494091796875,-1.0740509033203125,0.130950927734375,0.08343505859375
1761479502451977200,5.564977294921875,-0.991790771484375,0.1627197265625,0.0502777099609375
1761479502462013200,5.57501318359375,-0.870758056640625,0.1619110107421875,-0.0061798095703125
1761479502472049200,5.585049072265625,-0.662841796875,0.164703369140625,-0.04901123046875
1761479502482086100,5.595086181640625,-0.4725799560546875,0.17340087890625,-0.0543212890625
1761479502492122000,5.6051220703125,-0.3521881103515625,0.1306610107421875,-0.039825439453125
1761479502502158000,5.615157958984375,-0.2468719482421875,0.09368896484375,-0.04534912109375
1761479502512194000,5.625194091796875,-0.1628570556640625,0.0988922119140625,-0.07110595703125
1761479502522230300,5.635230224609375,-0.0989990234375,0.106842041015625,-0.095367431640625
1761479502532266200,5.645266357421875,-0.0653076171875,0.092620849609375,-0.1417388916015625
1761479502542303000,5.655302978515625,-0.0638580322265625,0.07293701171875,-0.2261505126953125
1761479502552339200,5.665339111328125,-0.0670623779296875,0.0728759765625,-0.3122711181640625
1761479502562375200,5.675375244140625,-0.037994384765625,0.06390380859375,-0.3889923095703125
1761479502572411100,5.6854111328125,0.0298614501953125,0.0569915771484375,-0.41259765625
1761479502582447000,5.695447021484375,0.0908660888671875,0.0635223388671875,-0.3495330810546875
1761479502592483000,5.705483154296875,0.1368255615234375,0.0492706298828125,-0.2355804443359375
1761479502602520300,5.715520263671875,0.176513671875,0.0270538330078125,-0.11102294921875
1761479502612556300,5.725556396484375,0.1666259765625,-0.00445556640625,-0.0025634765625
1761479502622592300,5.73559228515625,0.1171722412109375,-0.0189208984375,0.0606536865234375
1761479502632628200,5.745628173828125,0.0609283447265625,-0.035003662109375,0.0742645263671875
1761479502642664200,5.755664306640625,-0.1223602294921875,-0.1067047119140625,0.1189422607421875
1761479502652701200,5.765701171875,-0.3593292236328125,-0.238861083984375,0.19915771484375
1761479502662737200,5.775737060546875,-0.4973907470703125,-0.21893310546875,0.05712890625
1761479502672773000,5.785773193359375,-0.5205535888671875,-0.1053466796875,-0.0536651611328125
1761479502682809000,5.79580908203125,-0.5312957763671875,-0.0749053955078125,-0.1226348876953125
1761479502692845000,5.805844970703125,-0.437896728515625,-0.1103057861328125,-0.12847900390625
1761479502702881000,5.815881103515625,-0.4328460693359375,-0.054046630859375,-0.134552001953125
1761479502712918000,5.82591796875,-0.5051116943359375,-0.047027587890625,-0.045257568359375
1761479502722954000,5.8359541015625,-0.6509857177734375,-0.0970916748046875,0.0791473388671875
1761479502732990000,5.845989990234375,-0.8676300048828125,-0.1110076904296875,0.14447021484375
1761479502743026000,5.85602587890625,-1.154693603515625,-0.127105712890625,0.115478515625
1761479502753062100,5.866062255859375,-1.4635772705078125,-0.13482666015625,-0.0372467041015625
1761479502763098000,5.87609814453125,-1.6869659423828125,-0.0868377685546875,-0.300262451171875
1761479502773135000,5.886135009765625,-1.7830963134765625,-0.1019439697265625,-0.5872955322265625
1761479502783171000,5.896171142578125,-1.781646728515625,-0.25299072265625,-0.867828369140625
1761479502793207300,5.906207275390625,-1.7821197509765625,-0.552154541015625,-1.2079315185546875
1761479502803243300,5.9162431640625,-1.9169769287109375,-0.8376312255859375,-1.61065673828125
1761479502813279200,5.926279296875,-2.1378631591796875,-0.7739105224609375,-1.8436126708984375
1761479502823315200,5.936315185546875,-2.50048828125,-0.431488037109375,-1.5792694091796875
1761479502833352200,5.946352294921875,-2.773193359375,-0.23583984375,-0.9056854248046875
1761479502843388200,5.95638818359375,-2.72705078125,-0.13824462890625,-0.3028564453125
1761479502853424000,5.966424072265625,-2.460845947265625,-0.0726165771484375,0.0439605712890625
1761479502863460000,5.976460205078125,-2.1305694580078125,-0.0545196533203125,0.157318115234375
1761479502873496000,5.98649609375,-1.8780975341796875,-0.130157470703125,0.1601104736328125
1761479502883532000,5.996531982421875,-1.7112579345703125,-0.1967620849609375,0.0584869384765625
1761479502893569300,6.0065693359375,-1.6659393310546875,-0.116424560546875,-0.12310791015625
1761479502903605200,6.016605224609375,-1.730194091796875,0.01287841796875,-0.20013427734375
1761479502913641200,6.02664111328125,-1.7185516357421875,0.0737762451171875,-0.16162109375
1761479502923677200,6.03667724609375,-1.647064208984375,0.1409912109375,-0.1248016357421875
1761479502933713200,6.046713134765625,-1.5709228515625,0.21185302734375,-0.0670928955078125
1761479502943749000,6.0567490234375,-1.443115234375,0.197967529296875,0.0037384033203125
1761479502953786000,6.0667861328125,-1.281402587890625,0.1643218994140625,0.0236053466796875
1761479502963822000,6.076822021484375,-1.0927581787109375,0.1776885986328125,-0.0508270263671875
1761479502973858000,6.086858154296875,-0.8406982421875,0.141937255859375,-0.1763763427734375
1761479502983894000,6.09689404296875,-0.572021484375,0.0722198486328125,-0.2796478271484375
1761479502993930000,6.106929931640625,-0.349822998046875,0.0358734130859375,-0.31988525390625
1761479503003966200,6.11696630859375,-0.20794677734375,0.023651123046875,-0.2980194091796875
1761479503014003000,6.1270029296875,-0.1046142578125,0.00726318359375,-0.233978271484375
1761479503024039000,6.137038818359375,-0.06195068359375,0.0316009521484375,-0.177001953125
1761479503034075100,6.1470751953125,-0.0446624755859375,0.0660552978515625,-0.146697998046875
1761479503044111600,6.157111572265625,-0.00726318359375,0.051116943359375,-0.1497039794921875
1761479503054147800,6.16714794921875,0.0552215576171875,0.0383758544921875,-0.150909423828125
1761479503064183800,6.177183837890625,0.0995941162109375,0.066253662109375,-0.0858917236328125
1761479503074220500,6.187220458984375,0.099365234375,0.070709228515625,0.0688629150390625
1761479503084256800,6.1972568359375,0.087860107421875,0.02691650390625,0.2096405029296875
1761479503094293000,6.20729296875,0.095916748046875,-0.046783447265625,0.250244140625
1761479503104329000,6.217328857421875,0.08807373046875,-0.0955963134765625,0.1966705322265625
1761479503114365000,6.227364990234375,0.040496826171875,-0.107086181640625,0.04949951171875
1761479503124401000,6.23740087890625,-0.049530029296875,-0.1009521484375,-0.1034698486328125
1761479503134438000,6.24743798828125,-0.16400146484375,-0.08856201171875,-0.1902313232421875
1761479503144473900,6.257473876953125,-0.285919189453125,-0.0643463134765625,-0.1466522216796875
1761479503154509800,6.267509765625,-0.421783447265625,-0.0636749267578125,0.005859375
1761479503164545800,6.2775458984375,-0.405975341796875,-0.065399169921875,0.1123046875
1761479503174581800,6.287581787109375,-0.3045501708984375,0.02105712890625,0.2001190185546875
1761479503184617700,6.29761767578125,-0.3946685791015625,-0.2319488525390625,0.2523345947265625
1761479503194654700,6.30765478515625,-0.5033111572265625,-0.0927886962890625,0.1848297119140625
1761479503204690700,6.317690673828125,-0.5951080322265625,0.0407257080078125,0.0379180908203125
1761479503214726700,6.3277265625,-0.69561767578125,0.0461273193359375,-0.004730224609375
1761479503224762600,6.3377626953125,-0.8809051513671875,0.044281005859375,-0.0855712890625
