time,seconds_elapsed,z,y,x
1761505729425308400,0.076308349609375,-0.9901580810546875,-0.0566864013671875,-0.1958465576171875
1761505729435344400,0.086344482421875,-0.9521484375,-0.0585174560546875,-0.1984710693359375
1761505729445380400,0.09638037109375,-0.914764404296875,-0.06134033203125,-0.1973419189453125
1761505729455416300,0.106416259765625,-0.888214111328125,-0.0618896484375,-0.1897125244140625
1761505729465453300,0.116453369140625,-0.871734619140625,-0.0665740966796875,-0.1771392822265625
1761505729475489300,0.1264892578125,-0.8468475341796875,-0.0798797607421875,-0.162872314453125
1761505729485525200,0.136525146484375,-0.831024169921875,-0.1026763916015625,-0.149200439453125
1761505729495561500,0.1465615234375,-0.8258819580078125,-0.128997802734375,-0.1341705322265625
1761505729505597400,0.156597412109375,-0.821624755859375,-0.1534271240234375,-0.1146240234375
1761505729515633400,0.16663330078125,-0.851318359375,-0.17340087890625,-0.097503662109375
1761505729525669400,0.17666943359375,-0.875244140625,-0.18280029296875,-0.0892333984375
1761505729535705300,0.186705322265625,-0.87615966796875,-0.1729278564453125,-0.088470458984375
1761505729545741300,0.1967412109375,-0.8719024658203125,-0.155853271484375,-0.0894622802734375
1761505729555777300,0.20677734375,-0.8499908447265625,-0.136444091796875,-0.097747802734375
1761505729565814300,0.216814208984375,-0.820648193359375,-0.12432861328125,-0.1106719970703125
1761505729575850200,0.226850341796875,-0.8281707763671875,-0.1239776611328125,-0.1089935302734375
1761505729585886200,0.23688623046875,-0.8973388671875,-0.13079833984375,-0.1084136962890625
1761505729595922400,0.24692236328125,-0.9918365478515625,-0.1388702392578125,-0.10064697265625
1761505729605958400,0.25695849609375,-1.0740509033203125,-0.1575775146484375,-0.0870208740234375
1761505729615994400,0.266994384765625,-1.175567626953125,-0.16796875,-0.0931549072265625
1761505729626030300,0.2770302734375,-1.2536773681640625,-0.1505584716796875,-0.1390533447265625
1761505729636066600,0.287066650390625,-1.3069610595703125,-0.1129150390625,-0.238616943359375
1761505729646102500,0.2971025390625,-1.38140869140625,-0.0808258056640625,-0.32672119140625
1761505729656139300,0.30713916015625,-1.437164306640625,-0.06207275390625,-0.35858154296875
1761505729666175500,0.317175537109375,-1.4951324462890625,-0.0632476806640625,-0.3067474365234375
1761505729676211500,0.32721142578125,-1.6151123046875,-0.111175537109375,-0.1761016845703125
1761505729686247400,0.337247314453125,-1.7606353759765625,-0.1749725341796875,-0.0673828125
1761505729696283400,0.347283447265625,-1.835052490234375,-0.193939208984375,-0.06182861328125
1761505729706319400,0.3573193359375,-1.832977294921875,-0.1519775390625,-0.1490631103515625
1761505729716355300,0.367355224609375,-1.8216400146484375,-0.1070098876953125,-0.2733612060546875
1761505729726391300,0.377391357421875,-1.76910400390625,-0.0876312255859375,-0.3788299560546875
1761505729736427300,0.38742724609375,-1.7495269775390625,-0.0753021240234375,-0.3925933837890625
1761505729746464300,0.39746435546875,-1.780029296875,-0.0760040283203125,-0.3125152587890625
1761505729756500200,0.407500244140625,-1.8250274658203125,-0.102691650390625,-0.1966400146484375
1761505729766536400,0.417536376953125,-1.816650390625,-0.1378326416015625,-0.13092041015625
1761505729776572400,0.427572509765625,-1.7462158203125,-0.1711273193359375,-0.1496734619140625
1761505729786608400,0.4376083984375,-1.6326751708984375,-0.1829986572265625,-0.2301483154296875
1761505729796644400,0.447644287109375,-1.4639129638671875,-0.1810455322265625,-0.313751220703125
1761505729806680300,0.457680419921875,-1.2607879638671875,-0.178192138671875,-0.329071044921875
1761505729816716500,0.467716552734375,-1.0526275634765625,-0.1882171630859375,-0.268585205078125
1761505729826752500,0.47775244140625,-0.8692626953125,-0.204864501953125,-0.179718017578125
1761505729836787200,0.487787109375,-0.7198333740234375,-0.20330810546875,-0.1016693115234375
1761505729846824400,0.497824462890625,-0.5181427001953125,-0.1778411865234375,-0.021942138671875
1761505729856860400,0.5078603515625,-0.3243408203125,-0.1832122802734375,0.0237579345703125
1761505729866896400,0.517896484375,-0.347808837890625,-0.1974334716796875,-0.0507659912109375
1761505729876932400,0.527932373046875,-0.28338623046875,-0.1829986572265625,-0.1317138671875
1761505729886968300,0.53796826171875,-0.2723236083984375,-0.15582275390625,-0.147308349609375
1761505729897004300,0.54800439453125,-0.319305419921875,-0.142364501953125,-0.1682891845703125
1761505729907040300,0.558040283203125,-0.2888641357421875,-0.1441497802734375,-0.173553466796875
1761505729917076200,0.568076171875,-0.28228759765625,-0.149383544921875,-0.1242523193359375
1761505729927112400,0.578112548828125,-0.3201751708984375,-0.157440185546875,-0.03839111328125
1761505729937149200,0.588149169921875,-0.3243408203125,-0.1488189697265625,0.004302978515625
1761505729947185200,0.59818505859375,-0.2664794921875,-0.107635498046875,-0.017120361328125
1761505729957221400,0.608221435546875,-0.18487548828125,-0.0559539794921875,-0.050537109375
1761505729967257300,0.61825732421875,-0.1190643310546875,-0.01568603515625,-0.072723388671875
1761505729977293300,0.628293212890625,-0.0705413818359375,-0.012786865234375,-0.06427001953125
1761505729987329300,0.638329345703125,-0.035919189453125,-0.035736083984375,-0.0342864990234375
1761505729997365200,0.648365234375,-0.0399932861328125,-0.0582733154296875,0.006378173828125
1761505730007401200,0.658401123046875,-0.0944366455078125,-0.074920654296875,0.0556488037109375
1761505730017437200,0.668437255859375,-0.168121337890625,-0.083465576171875,0.0870208740234375
1761505730027474400,0.678474365234375,-0.2398529052734375,-0.076629638671875,0.0932159423828125
1761505730037510400,0.688510498046875,-0.2596588134765625,-0.054229736328125,0.0734100341796875
1761505730047546400,0.69854638671875,-0.26727294921875,-0.03948974609375,0.0613250732421875
1761505730057582300,0.708582275390625,-0.283843994140625,-0.0393829345703125,0.05828857421875
1761505730067618300,0.718618408203125,-0.281829833984375,-0.040252685546875,0.049530029296875
1761505730077654300,0.728654296875,-0.2917327880859375,-0.0481414794921875,0.0199737548828125
1761505730087690200,0.738690185546875,-0.3321075439453125,-0.06536865234375,-0.0037994384765625
1761505730097726500,0.7487265625,-0.36370849609375,-0.094635009765625,-0.0069122314453125
1761505730107762400,0.758762451171875,-0.42083740234375,-0.119598388671875,-0.0167236328125
1761505730117799200,0.768799072265625,-0.5431671142578125,-0.121002197265625,-0.08306884765625
1761505730127835400,0.77883544921875,-0.667694091796875,-0.1373291015625,-0.1502532958984375
1761505730137871400,0.788871337890625,-0.7949371337890625,-0.14288330078125,-0.187286376953125
1761505730147907300,0.7989072265625,-0.9869232177734375,-0.093780517578125,-0.19525146484375
1761505730157943300,0.808943359375,-1.2039642333984375,-0.0270843505859375,-0.18768310546875
1761505730167979300,0.818979248046875,-1.4611663818359375,-0.0194549560546875,-0.1835479736328125
1761505730178015200,0.82901513671875,-1.802490234375,-0.1016082763671875,-0.193267822265625
1761505730188051200,0.83905126953125,-2.209442138671875,-0.2076416015625,-0.2733001708984375
1761505730198087200,0.849087158203125,-2.633148193359375,-0.284454345703125,-0.3880157470703125
1761505730208123100,0.859123046875,-2.939697265625,-0.2247467041015625,-0.514312744140625
1761505730218160400,0.869160400390625,-3.0121307373046875,-0.07916259765625,-0.6383819580078125
1761505730228196400,0.8791962890625,-2.9452972412109375,0.02838134765625,-0.7250823974609375
1761505730238232300,0.889232421875,-2.7938995361328125,0.031890869140625,-0.721527099609375
1761505730248268300,0.899268310546875,-2.6154327392578125,-0.08367919921875,-0.6087799072265625
1761505730258304300,0.90930419921875,-2.513946533203125,-0.2597808837890625,-0.459686279296875
1761505730268340200,0.91934033203125,-2.4023284912109375,-0.406585693359375,-0.33453369140625
1761505730278376400,0.92937646484375,-2.27655029296875,-0.447357177734375,-0.277679443359375
1761505730288412400,0.939412353515625,-2.125152587890625,-0.3960418701171875,-0.2733917236328125
1761505730298449200,0.94944921875,-1.9084930419921875,-0.3358306884765625,-0.2566070556640625
1761505730308485400,0.9594853515625,-1.652496337890625,-0.329986572265625,-0.2078094482421875
1761505730318521300,0.969521240234375,-1.39691162109375,-0.3443145751953125,-0.15509033203125
1761505730328557300,0.979557373046875,-1.1679534912109375,-0.31829833984375,-0.1219482421875
1761505730338593300,0.98959326171875,-0.9656829833984375,-0.2714996337890625,-0.118011474609375
1761505730348629200,0.999629150390625,-0.7686767578125,-0.2541656494140625,-0.1104736328125
1761505730358665200,1.009665283203125,-0.605621337890625,-0.254241943359375,-0.0783538818359375
1761505730368701200,1.019701171875,-0.515380859375,-0.2570648193359375,-0.037506103515625
1761505730378737200,1.029737060546875,-0.4599761962890625,-0.2574005126953125,0.006561279296875
1761505730388774400,1.0397744140625,-0.4255828857421875,-0.2599029541015625,0.0481719970703125
1761505730398810400,1.049810302734375,-0.4062042236328125,-0.2639007568359375,0.0787200927734375
1761505730408846300,1.059846435546875,-0.3978729248046875,-0.2653350830078125,0.0848541259765625
1761505730418882300,1.06988232421875,-0.3564300537109375,-0.2537689208984375,0.0602264404296875
1761505730428918300,1.079918212890625,-0.3123321533203125,-0.2196197509765625,0.0122528076171875
1761505730438954200,1.089954345703125,-0.277557373046875,-0.1846923828125,-0.029510498046875
1761505730448990500,1.099990478515625,-0.2245025634765625,-0.162933349609375,-0.05902099609375
1761505730459026400,1.1100263671875,-0.1671295166015625,-0.1583251953125,-0.0836029052734375
1761505730469063200,1.120063232421875,-0.1214599609375,-0.1551361083984375,-0.0870819091796875
1761505730479099400,1.130099365234375,-0.08721923828125,-0.1455535888671875,-0.0743408203125
1761505730489135400,1.14013525390625,-0.0621185302734375,-0.127899169921875,-0.06085205078125
1761505730499171300,1.15017138671875,-0.0694122314453125,-0.1128997802734375,-0.047210693359375
1761505730509207300,1.160207275390625,-0.0923004150390625,-0.1110382080078125,-0.02880859375
1761505730519243300,1.1702431640625,-0.125701904296875,-0.1054534912109375,-0.0122833251953125
1761505730529279200,1.180279296875,-0.1549835205078125,-0.0968780517578125,0.003814697265625
1761505730539315200,1.190315185546875,-0.18304443359375,-0.0984649658203125,0.01495361328125
1761505730549351200,1.20035107421875,-0.21356201171875,-0.101287841796875,0.0017852783203125
1761505730559388400,1.210388427734375,-0.2544708251953125,-0.1008148193359375,-0.0257110595703125
1761505730569424400,1.22042431640625,-0.2923583984375,-0.1077880859375,-0.0465850830078125
1761505730579460400,1.23046044921875,-0.37646484375,-0.1213226318359375,-0.0627899169921875
1761505730589496300,1.240496337890625,-0.4628753662109375,-0.1426544189453125,-0.0723876953125
1761505730599532300,1.2505322265625,-0.4842376708984375,-0.155303955078125,-0.078765869140625
1761505730609568300,1.260568359375,-0.572052001953125,-0.1418914794921875,-0.1036834716796875
1761505730619604200,1.270604248046875,-0.684783935546875,-0.1322174072265625,-0.1334686279296875
1761505730629640400,1.280640380859375,-0.780975341796875,-0.1290740966796875,-0.1594390869140625
1761505730639677200,1.29067724609375,-0.8815460205078125,-0.1065826416015625,-0.2102508544921875
1761505730649713200,1.300713134765625,-0.9965667724609375,-0.078125,-0.2574462890625
1761505730659749400,1.310749267578125,-1.1546478271484375,-0.072967529296875,-0.2457275390625
1761505730669785300,1.320785400390625,-1.353271484375,-0.1139068603515625,-0.2243499755859375
1761505730679821300,1.3308212890625,-1.5564422607421875,-0.178619384765625,-0.19976806640625
1761505730689857300,1.340857177734375,-1.8482666015625,-0.2275390625,-0.161163330078125
1761505730699893200,1.350893310546875,-2.222137451171875,-0.270111083984375,-0.1244354248046875
1761505730709929200,1.36092919921875,-2.4700469970703125,-0.2921600341796875,-0.1183319091796875
1761505730719965200,1.370965087890625,-2.5826263427734375,-0.254730224609375,-0.1568603515625
1761505730730002400,1.38100244140625,-2.585235595703125,-0.1920318603515625,-0.2368316650390625
1761505730740038400,1.391038330078125,-2.5163726806640625,-0.1392974853515625,-0.32147216796875
1761505730750074400,1.401074462890625,-2.4026641845703125,-0.1077423095703125,-0.389739990234375
1761505730760110300,1.4111103515625,-2.25323486328125,-0.105072021484375,-0.427581787109375
1761505730770146300,1.421146240234375,-2.1062469482421875,-0.143951416015625,-0.4083251953125
1761505730780182300,1.431182373046875,-2.0172576904296875,-0.2285919189453125,-0.3405609130859375
1761505730790218200,1.44121826171875,-1.9537506103515625,-0.309417724609375,-0.243743896484375
1761505730800254500,1.45125439453125,-1.87518310546875,-0.328399658203125,-0.154937744140625
1761505730810291200,1.461291259765625,-1.725738525390625,-0.302093505859375,-0.104766845703125
1761505730820327200,1.4713271484375,-1.4984588623046875,-0.263763427734375,-0.111572265625
1761505730830363400,1.48136328125,-1.260345458984375,-0.229766845703125,-0.13848876953125
1761505730840400000,1.49139990234375,-1.056396484375,-0.214111328125,-0.1591033935546875
1761505730850436000,1.50143603515625,-0.9162750244140625,-0.2220458984375,-0.1801605224609375
1761505730860472000,1.51147216796875,-0.8077239990234375,-0.2428436279296875,-0.1955108642578125
1761505730870508000,1.521508056640625,-0.745025634765625,-0.2589263916015625,-0.1900634765625
1761505730880544300,1.531544189453125,-0.7191314697265625,-0.2677154541015625,-0.1651458740234375
1761505730890580200,1.541580322265625,-0.710968017578125,-0.2793731689453125,-0.1310577392578125
1761505730900617200,1.5516171875,-0.707427978515625,-0.28729248046875,-0.0980987548828125
1761505730910653200,1.561653076171875,-0.69482421875,-0.2719573974609375,-0.088623046875
1761505730920689200,1.571689208984375,-0.660736083984375,-0.250885009765625,-0.1007843017578125
1761505730930725000,1.58172509765625,-0.6151885986328125,-0.22637939453125,-0.1167755126953125
1761505730940761000,1.591760986328125,-0.5475616455078125,-0.20208740234375,-0.13421630859375
1761505730950797000,1.601797119140625,-0.459625244140625,-0.1877899169921875,-0.1377105712890625
1761505730960833000,1.6118330078125,-0.3792266845703125,-0.176513671875,-0.1305999755859375
1761505730970869000,1.621868896484375,-0.307220458984375,-0.1595916748046875,-0.1267242431640625
1761505730980906000,1.631906005859375,-0.2169189453125,-0.13873291015625,-0.1272125244140625
1761505730990942000,1.64194189453125,-0.1417083740234375,-0.123565673828125,-0.1182861328125
1761505731000978000,1.65197802734375,-0.091949462890625,-0.116363525390625,-0.0977325439453125
1761505731011014000,1.662013916015625,-0.0627288818359375,-0.1161346435546875,-0.063934326171875
1761505731021049900,1.6720498046875,-0.0501861572265625,-0.1211395263671875,-0.02850341796875
1761505731031086000,1.682086181640625,-0.0604705810546875,-0.1218414306640625,-0.001220703125
1761505731041122000,1.6921220703125,-0.089935302734375,-0.12005615234375,0.01904296875
1761505731051158000,1.702157958984375,-0.1113128662109375,-0.11651611328125,0.0301513671875
1761505731061195000,1.712195068359375,-0.1224365234375,-0.11822509765625,0.0361785888671875
1761505731071231200,1.722231201171875,-0.13287353515625,-0.1096038818359375,0.036163330078125
1761505731081267200,1.73226708984375,-0.14495849609375,-0.0950927734375,0.0323944091796875
1761505731091303200,1.74230322265625,-0.2003936767578125,-0.084259033203125,0.0268096923828125
1761505731101339100,1.752339111328125,-0.239776611328125,-0.0865478515625,0.016448974609375
1761505731111375000,1.762375,-0.2767333984375,-0.0930938720703125,0.0137176513671875
1761505731121411000,1.7724111328125,-0.33660888671875,-0.095672607421875,0.0037689208984375
1761505731131447000,1.782447021484375,-0.3918304443359375,-0.097381591796875,-0.02667236328125
1761505731141483000,1.79248291015625,-0.5239715576171875,-0.0940399169921875,-0.0507659912109375
1761505731151520000,1.80252001953125,-0.78082275390625,-0.10162353515625,-0.0463714599609375
1761505731161556000,1.812555908203125,-0.99652099609375,-0.1291351318359375,-0.0528106689453125
1761505731171592000,1.822592041015625,-1.22998046875,-0.1199188232421875,-0.11968994140625
1761505731181628000,1.8326279296875,-1.347137451171875,-0.0841217041015625,-0.1997222900390625
1761505731191663900,1.842663818359375,-1.4248046875,-0.061431884765625,-0.261749267578125
1761505731201700000,1.8527001953125,-1.5454559326171875,-0.098541259765625,-0.2810821533203125
1761505731211736000,1.862736083984375,-1.7501983642578125,-0.213470458984375,-0.19482421875
1761505731221772000,1.87277197265625,-2.0684051513671875,-0.32952880859375,-0.0549163818359375
1761505731231809000,1.88280908203125,-2.40283203125,-0.3315582275390625,0.0319976806640625
1761505731241845200,1.89284521484375,-2.630340576171875,-0.2300262451171875,-0.0017242431640625
1761505731251881200,1.902881103515625,-2.6761322021484375,-0.130859375,-0.1085968017578125
1761505731261917200,1.912917236328125,-2.6276092529296875,-0.0934906005859375,-0.2000274658203125
1761505731271953200,1.922953125,-2.5185394287109375,-0.0995635986328125,-0.249847412109375
1761505731281989000,1.932989013671875,-2.3709869384765625,-0.1225433349609375,-0.2646484375
1761505731292025000,1.943025146484375,-2.1905517578125,-0.1599884033203125,-0.2473297119140625
1761505731302061000,1.95306103515625,-2.0416259765625,-0.20361328125,-0.2081451416015625
1761505731312097000,1.963096923828125,-1.8894500732421875,-0.224884033203125,-0.187530517578125
1761505731322134000,1.973134033203125,-1.6845550537109375,-0.1975555419921875,-0.181243896484375
1761505731332170000,1.983169921875,-1.457733154296875,-0.1625823974609375,-0.1842041015625
1761505731342206000,1.9932060546875,-1.216522216796875,-0.1446380615234375,-0.1879119873046875
1761505731352242000,2.003241943359375,-1.011138916015625,-0.138336181640625,-0.1658782958984375
1761505731362278000,2.01327783203125,-0.8834686279296875,-0.1540374755859375,-0.104736328125
1761505731372313900,2.02331396484375,-0.8268585205078125,-0.19207763671875,-0.0448455810546875
1761505731382350000,2.03335009765625,-0.7801666259765625,-0.2156219482421875,-0.0490875244140625
1761505731392386000,2.043385986328125,-0.7229461669921875,-0.2034759521484375,-0.1027374267578125
1761505731402423000,2.053423095703125,-0.66259765625,-0.19366455078125,-0.1477813720703125
1761505731412459000,2.063458984375,-0.603485107421875,-0.2036285400390625,-0.1636199951171875
1761505731422495200,2.0734951171875,-0.551971435546875,-0.20159912109375,-0.159820556640625
1761505731432531200,2.08353125,-0.5334930419921875,-0.1918182373046875,-0.123626708984375
1761505731442567200,2.093567138671875,-0.5137786865234375,-0.1884002685546875,-0.0793609619140625
1761505731452603100,2.10360302734375,-0.49395751953125,-0.202606201171875,-0.0487060546875
1761505731462639000,2.11363916015625,-0.4847869873046875,-0.2172393798828125,-0.0435943603515625
1761505731472675000,2.123675048828125,-0.4849853515625,-0.2222442626953125,-0.0672454833984375
1761505731482711000,2.1337109375,-0.46832275390625,-0.218963623046875,-0.1043853759765625
1761505731492748000,2.143748046875,-0.4011077880859375,-0.2123260498046875,-0.1217498779296875
1761505731502784000,2.153783935546875,-0.3270721435546875,-0.2036590576171875,-0.1310272216796875
1761505731512820000,2.163820068359375,-0.2597198486328125,-0.1945953369140625,-0.1412200927734375
1761505731522856000,2.17385595703125,-0.1947479248046875,-0.1881103515625,-0.133575439453125
1761505731532892000,2.183891845703125,-0.15228271484375,-0.1834716796875,-0.110870361328125
1761505731542928000,2.193927978515625,-0.1479949951171875,-0.182373046875,-0.0924224853515625
1761505731552964000,2.203964111328125,-0.142181396484375,-0.190887451171875,-0.0781402587890625
1761505731563000000,2.214,-0.154388427734375,-0.2045135498046875,-0.0601043701171875
1761505731573037000,2.224037109375,-0.20587158203125,-0.2202606201171875,-0.03680419921875
1761505731583073000,2.234072998046875,-0.27587890625,-0.23834228515625,-0.0038299560546875
1761505731593109200,2.244109130859375,-0.3570404052734375,-0.26055908203125,0.0282135009765625
1761505731603145200,2.254145263671875,-0.4327545166015625,-0.276580810546875,0.0413055419921875
1761505731613181200,2.26418115234375,-0.513641357421875,-0.269195556640625,0.0240936279296875
1761505731623217200,2.274217041015625,-0.567596435546875,-0.252593994140625,-0.0118560791015625
1761505731633253000,2.284253173828125,-0.5978546142578125,-0.2367706298828125,-0.068695068359375
1761505731643289000,2.2942890625,-0.6717681884765625,-0.224639892578125,-0.10589599609375
1761505731653325000,2.304324951171875,-0.76519775390625,-0.2315673828125,-0.1028900146484375
1761505731663362000,2.314362060546875,-0.8632049560546875,-0.2422943115234375,-0.0605621337890625
1761505731673398000,2.32439794921875,-1.053985595703125,-0.2128448486328125,-0.058807373046875
1761505731683434000,2.33443408203125,-1.3666534423828125,-0.16888427734375,-0.1001739501953125
1761505731693470000,2.344469970703125,-1.635101318359375,-0.1611785888671875,-0.16455078125
1761505731703506000,2.354505859375,-1.787322998046875,-0.16143798828125,-0.226104736328125
1761505731713542000,2.3645419921875,-1.9350128173828125,-0.155853271484375,-0.2473907470703125
1761505731723577900,2.374577880859375,-2.07147216796875,-0.17852783203125,-0.2164306640625
1761505731733614000,2.384614013671875,-2.215484619140625,-0.2063446044921875,-0.1772308349609375
1761505731743650000,2.394650146484375,-2.33599853515625,-0.19354248046875,-0.2096099853515625
1761505731753687000,2.40468701171875,-2.3837738037109375,-0.1614227294921875,-0.2956085205078125
1761505731763723000,2.414722900390625,-2.3600311279296875,-0.135833740234375,-0.365753173828125
1761505731773759200,2.42475927734375,-2.302337646484375,-0.1172943115234375,-0.390716552734375
1761505731783795200,2.434795166015625,-2.197662353515625,-0.108795166015625,-0.365386962890625
1761505731793831200,2.4448310546875,-2.05755615234375,-0.1092376708984375,-0.3065032958984375
1761505731803867100,2.4548671875,-1.9386138916015625,-0.13433837890625,-0.2261505126953125
1761505731813903000,2.464903076171875,-1.8809356689453125,-0.2016754150390625,-0.147186279296875
1761505731823939000,2.47493896484375,-1.8475341796875,-0.255126953125,-0.1198883056640625
1761505731833975000,2.48497509765625,-1.78546142578125,-0.2461395263671875,-0.1422882080078125
1761505731844012300,2.49501220703125,-1.666290283203125,-0.207366943359375,-0.1743011474609375
1761505731854048300,2.50504833984375,-1.4729461669921875,-0.1855926513671875,-0.183563232421875
1761505731864084200,2.515084228515625,-1.255950927734375,-0.17401123046875,-0.17724609375
1761505731874120200,2.5251201171875,-1.03704833984375,-0.16766357421875,-0.1579437255859375
1761505731884156200,2.53515625,-0.845184326171875,-0.1835479736328125,-0.1238250732421875
1761505731894192000,2.545192138671875,-0.684814453125,-0.2169952392578125,-0.0935821533203125
1761505731904228000,2.55522802734375,-0.554229736328125,-0.235321044921875,-0.096649169921875
1761505731914264300,2.565264404296875,-0.462127685546875,-0.2215728759765625,-0.1129608154296875
1761505731924300500,2.575300537109375,-0.4261016845703125,-0.2085113525390625,-0.10150146484375
1761505731934337300,2.585337158203125,-0.4269256591796875,-0.214813232421875,-0.056060791015625
1761505731944373200,2.595373291015625,-0.4622650146484375,-0.22308349609375,-0.0146026611328125
1761505731954409500,2.605409423828125,-0.4930267333984375,-0.22772216796875,-0.0085906982421875
1761505731964445400,2.615445556640625,-0.4644317626953125,-0.207489013671875,-0.035125732421875
1761505731974481400,2.6254814453125,-0.4213104248046875,-0.1641082763671875,-0.0659942626953125
1761505731984517400,2.635517333984375,-0.3665313720703125,-0.1303863525390625,-0.0911712646484375
1761505731994553300,2.64555322265625,-0.27203369140625,-0.1087799072265625,-0.10546875
1761505732004589300,2.65558935546875,-0.18621826171875,-0.0958251953125,-0.0918426513671875
1761505732014625300,2.665625244140625,-0.1644744873046875,-0.1027069091796875,-0.05072021484375
1761505732024662300,2.675662353515625,-0.15289306640625,-0.113739013671875,-0.0011138916015625
1761505732034698200,2.6856982421875,-0.1088104248046875,-0.11810302734375,0.0186309814453125
1761505732044734200,2.695734130859375,-0.09722900390625,-0.115081787109375,0.00994873046875
1761505732054770200,2.705770263671875,-0.1198272705078125,-0.1112823486328125,-0.0076141357421875
1761505732064806100,2.71580615234375,-0.142364501953125,-0.1184844970703125,-0.020233154296875
1761505732074842000,2.725842041015625,-0.18060302734375,-0.1296539306640625,-0.0247344970703125
1761505732084878000,2.735878173828125,-0.2170257568359375,-0.1393280029296875,-0.032012939453125
1761505732094914300,2.745914306640625,-0.2403106689453125,-0.1383514404296875,-0.0326080322265625
1761505732104950500,2.755950439453125,-0.3233795166015625,-0.12432861328125,-0.0153656005859375
1761505732114987300,2.7659873046875,-0.39874267578125,-0.1227569580078125,0.007904052734375
1761505732125023500,2.7760234375,-0.48895263671875,-0.1282501220703125,0.0233154296875
1761505732135059500,2.7860595703125,-0.6329803466796875,-0.12384033203125,0.0368194580078125
1761505732145095400,2.796095458984375,-0.7516632080078125,-0.1122589111328125,0.042144775390625
1761505732155131400,2.80613134765625,-0.838714599609375,-0.0948028564453125,-0.0046234130859375
1761505732165167400,2.81616748046875,-0.98577880859375,-0.079925537109375,-0.0975799560546875
1761505732175203300,2.826203369140625,-1.13079833984375,-0.079803466796875,-0.188201904296875
1761505732185239300,2.8362392578125,-1.2849273681640625,-0.0899810791015625,-0.21307373046875
1761505732195275300,2.846275146484375,-1.5815277099609375,-0.1002044677734375,-0.209228515625
1761505732205311200,2.856311279296875,-1.8617095947265625,-0.1138458251953125,-0.173095703125
1761505732215348200,2.86634814453125,-2.1126556396484375,-0.122161865234375,-0.136260986328125
1761505732225384200,2.87638427734375,-2.25,-0.1287841796875,-0.1470489501953125
1761505732235420200,2.886420166015625,-2.2691497802734375,-0.1149749755859375,-0.2133331298828125
1761505732245456100,2.8964560546875,-2.2359161376953125,-0.080230712890625,-0.29071044921875
1761505732255492000,2.9064921875,-2.2322845458984375,-0.0618438720703125,-0.3348846435546875
1761505732265528300,2.9165283203125,-2.2347259521484375,-0.0667877197265625,-0.3294219970703125
1761505732275564500,2.926564453125,-2.225128173828125,-0.061676025390625,-0.3039093017578125
1761505732285600500,2.9366005859375,-2.204193115234375,-0.0380859375,-0.2945709228515625
1761505732295636500,2.946636474609375,-2.154693603515625,-0.0266265869140625,-0.2830352783203125
1761505732305673500,2.956673583984375,-2.0788116455078125,-0.04876708984375,-0.262420654296875
1761505732315709400,2.96670947265625,-1.96026611328125,-0.0908966064453125,-0.235321044921875
1761505732325745400,2.976745361328125,-1.79852294921875,-0.124603271484375,-0.20550537109375
1761505732335781400,2.986781494140625,-1.6181488037109375,-0.141326904296875,-0.170867919921875
1761505732345817300,2.9968173828125,-1.4300384521484375,-0.15118408203125,-0.128662109375
1761505732355853300,3.006853271484375,-1.249755859375,-0.16156005859375,-0.086669921875
1761505732365889300,3.01688916015625,-1.075927734375,-0.16259765625,-0.0573883056640625
1761505732375925200,3.02692529296875,-0.9337615966796875,-0.16741943359375,-0.02838134765625
1761505732385961200,3.036961181640625,-0.8497467041015625,-0.1988983154296875,-0.015777587890625
1761505732395998200,3.046998291015625,-0.7812652587890625,-0.2330780029296875,-0.0546875
1761505732406034200,3.0570341796875,-0.7061767578125,-0.243743896484375,-0.113525390625
1761505732416070100,3.067070068359375,-0.62628173828125,-0.237030029296875,-0.1605682373046875
1761505732426106000,3.077106201171875,-0.5654754638671875,-0.2279052734375,-0.16143798828125
1761505732436142000,3.08714208984375,-0.526763916015625,-0.22802734375,-0.1150970458984375
1761505732446178300,3.09717822265625,-0.4940338134765625,-0.2228240966796875,-0.0716400146484375
1761505732456214500,3.107214599609375,-0.4542236328125,-0.2141571044921875,-0.0503692626953125
1761505732466250500,3.11725048828125,-0.397216796875,-0.207275390625,-0.042388916015625
1761505732476286500,3.127286376953125,-0.3393707275390625,-0.20684814453125,-0.0619659423828125
1761505732486322400,3.137322509765625,-0.2798309326171875,-0.1940155029296875,-0.0909881591796875
1761505732496359400,3.147359375,-0.232391357421875,-0.1826934814453125,-0.0926055908203125
1761505732506395400,3.1573955078125,-0.1777801513671875,-0.176788330078125,-0.0741119384765625
1761505732516431400,3.167431396484375,-0.1241302490234375,-0.162811279296875,-0.05975341796875
1761505732526467300,3.17746728515625,-0.08050537109375,-0.1392364501953125,-0.050018310546875
1761505732536503300,3.18750341796875,-0.0593414306640625,-0.120208740234375,-0.041595458984375
1761505732546539300,3.197539306640625,-0.05535888671875,-0.108154296875,-0.037994384765625
1761505732556575200,3.2075751953125,-0.0570068359375,-0.109832763671875,-0.0244140625
1761505732566611200,3.217611083984375,-0.1081085205078125,-0.1250457763671875,0.0105438232421875
1761505732576647200,3.227647216796875,-0.1740570068359375,-0.1393890380859375,0.0409393310546875
1761505732586683400,3.237683349609375,-0.244293212890625,-0.151885986328125,0.060516357421875
1761505732596720000,3.24772021484375,-0.3399200439453125,-0.1596221923828125,0.060943603515625
1761505732606756000,3.257756103515625,-0.43353271484375,-0.177154541015625,0.0316009521484375
1761505732616792300,3.267792236328125,-0.50543212890625,-0.1956787109375,-0.0211029052734375
1761505732626828500,3.27782861328125,-0.5807647705078125,-0.2003326416015625,-0.0723419189453125
1761505732636864500,3.287864501953125,-0.70703125,-0.1998748779296875,-0.1117095947265625
1761505732646900500,3.297900390625,-0.84808349609375,-0.19708251953125,-0.1284332275390625
1761505732656936400,3.3079365234375,-0.9718780517578125,-0.2028961181640625,-0.1035308837890625
1761505732666972400,3.317972412109375,-1.1122589111328125,-0.2062225341796875,-0.11199951171875
1761505732677008400,3.32800830078125,-1.1946258544921875,-0.1921539306640625,-0.162994384765625
1761505732687044400,3.33804443359375,-1.2564849853515625,-0.168701171875,-0.202423095703125
1761505732697081300,3.348081298828125,-1.377227783203125,-0.152618408203125,-0.22479248046875
1761505732707117300,3.358117431640625,-1.626434326171875,-0.16680908203125,-0.2086944580078125
1761505732717153300,3.3681533203125,-1.9474334716796875,-0.1867828369140625,-0.15032958984375
1761505732727189200,3.378189208984375,-2.1621856689453125,-0.1701507568359375,-0.11492919921875
1761505732737225200,3.38822509765625,-2.2420806884765625,-0.0981597900390625,-0.1301422119140625
1761505732747261200,3.39826123046875,-2.2122344970703125,-0.021759033203125,-0.1988677978515625
1761505732757297200,3.408297119140625,-2.142486572265625,0.010223388671875,-0.28375244140625
1761505732767333400,3.41833349609375,-2.10614013671875,-0.002685546875,-0.32952880859375
1761505732777369300,3.428369384765625,-2.11920166015625,-0.020660400390625,-0.3211669921875
1761505732787405300,3.4384052734375,-2.1699981689453125,-0.0202484130859375,-0.2764434814453125
1761505732797442300,3.4484423828125,-2.2071380615234375,-0.026275634765625,-0.2282257080078125
1761505732807478500,3.458478515625,-2.1692047119140625,-0.0465850830078125,-0.1987152099609375
1761505732817514500,3.468514404296875,-2.0501556396484375,-0.0729217529296875,-0.1979827880859375
1761505732827550500,3.478550537109375,-1.8618621826171875,-0.116241455078125,-0.2173919677734375
1761505732837586400,3.48858642578125,-1.64093017578125,-0.16937255859375,-0.2332763671875
1761505732847622400,3.498622314453125,-1.4571990966796875,-0.2120819091796875,-0.2139892578125
1761505732857658400,3.508658447265625,-1.2745361328125,-0.2455596923828125,-0.16424560546875
1761505732867694300,3.5186943359375,-1.1045379638671875,-0.258087158203125,-0.1209869384765625
1761505732877730300,3.528730224609375,-0.9612579345703125,-0.2490692138671875,-0.11260986328125
1761505732887766300,3.538766357421875,-0.812103271484375,-0.2397918701171875,-0.139007568359375
1761505732897802200,3.54880224609375,-0.675323486328125,-0.235321044921875,-0.1514892578125
1761505732907839500,3.558839599609375,-0.576690673828125,-0.2392578125,-0.116485595703125
1761505732917875500,3.56887548828125,-0.5478973388671875,-0.2353363037109375,-0.055267333984375
1761505732927911400,3.578911376953125,-0.564422607421875,-0.23260498046875,0.005218505859375
1761505732937947400,3.588947509765625,-0.5659332275390625,-0.2351837158203125,0.0378875732421875
1761505732947983600,3.598983642578125,-0.5274505615234375,-0.2380523681640625,0.0300445556640625
1761505732958019600,3.60901953125,-0.4767608642578125,-0.2462005615234375,0.0198822021484375
1761505732968055600,3.6190556640625,-0.4368438720703125,-0.25018310546875,0.0000152587890625
1761505732978091500,3.629091552734375,-0.3713836669921875,-0.23895263671875,-0.020294189453125
1761505732988127500,3.63912744140625,-0.26947021484375,-0.2130126953125,-0.01690673828125
1761505732998163500,3.64916357421875,-0.1721038818359375,-0.1897125244140625,0.0098419189453125
1761505733008200400,3.659200439453125,-0.123016357421875,-0.182220458984375,0.02789306640625
1761505733018236400,3.669236328125,-0.109161376953125,-0.188568115234375,0.016265869140625
1761505733028272400,3.6792724609375,-0.1168060302734375,-0.18133544921875,0.0006866455078125
1761505733038308400,3.689308349609375,-0.1370849609375,-0.16033935546875,-0.011383056640625
1761505733048344300,3.69934423828125,-0.14959716796875,-0.1433563232421875,-0.0179595947265625
1761505733058380300,3.70938037109375,-0.157012939453125,-0.13653564453125,-0.013519287109375
1761505733068416300,3.719416259765625,-0.1546630859375,-0.135772705078125,-0.0061492919921875
1761505733078452200,3.7294521484375,-0.1452178955078125,-0.1285858154296875,-0.0036163330078125
1761505733088488400,3.739488525390625,-0.1382293701171875,-0.1271514892578125,-0.0032196044921875
1761505733098524400,3.7495244140625,-0.16510009765625,-0.1321258544921875,-0.001922607421875
1761505733108561400,3.7595615234375,-0.2323150634765625,-0.142120361328125,-0.006744384765625
1761505733118597600,3.76959765625,-0.31005859375,-0.1584625244140625,0.00701904296875
1761505733128633600,3.779633544921875,-0.3773040771484375,-0.162567138671875,0.0085906982421875
1761505733138669600,3.789669677734375,-0.4825439453125,-0.1440277099609375,-0.0053558349609375
1761505733148705500,3.79970556640625,-0.609771728515625,-0.1272125244140625,-0.0253753662109375
1761505733158741500,3.809741455078125,-0.75482177734375,-0.1218109130859375,-0.076751708984375
1761505733168777500,3.819777587890625,-0.9489898681640625,-0.133819580078125,-0.14617919921875
1761505733178813400,3.8298134765625,-1.141021728515625,-0.156005859375,-0.1934814453125
1761505733188849400,3.839849365234375,-1.328765869140625,-0.1623687744140625,-0.233123779296875
1761505733198885400,3.849885498046875,-1.5532684326171875,-0.1768035888671875,-0.24346923828125
1761505733208921300,3.85992138671875,-1.8395233154296875,-0.2288665771484375,-0.2001190185546875
1761505733218958300,3.869958251953125,-2.171234130859375,-0.265960693359375,-0.15557861328125
1761505733228994300,3.879994384765625,-2.387725830078125,-0.273773193359375,-0.146148681640625
1761505733239030300,3.8900302734375,-2.478485107421875,-0.216278076171875,-0.1983642578125
1761505733249066200,3.900066162109375,-2.4546356201171875,-0.1230316162109375,-0.2732696533203125
1761505733259102500,3.9101025390625,-2.3520660400390625,-0.0758514404296875,-0.336151123046875
1761505733269138400,3.920138427734375,-2.2070770263671875,-0.081085205078125,-0.3747100830078125
1761505733279174400,3.93017431640625,-2.1097412109375,-0.087799072265625,-0.3912506103515625
1761505733289210600,3.940210693359375,-2.03253173828125,-0.1082763671875,-0.38232421875
1761505733299246600,3.95024658203125,-1.961944580078125,-0.138824462890625,-0.3614349365234375
1761505733309282600,3.960282470703125,-1.8972320556640625,-0.14892578125,-0.3575592041015625
1761505733319319600,3.970319580078125,-1.8416595458984375,-0.14495849609375,-0.3525543212890625
1761505733329355500,3.98035546875,-1.7937164306640625,-0.1338043212890625,-0.338592529296875
1761505733339391500,3.9903916015625,-1.7361297607421875,-0.1194000244140625,-0.3124237060546875
1761505733349427500,4.000427490234375,-1.6550750732421875,-0.1248779296875,-0.2600250244140625
1761505733359461600,4.010461669921875,-1.52093505859375,-0.1464385986328125,-0.2156829833984375
1761505733369497600,4.02049755859375,-1.362640380859375,-0.177001953125,-0.1810455322265625
1761505733379534600,4.03053466796875,-1.193115234375,-0.1977691650390625,-0.1483154296875
1761505733389570600,4.040570556640625,-1.02239990234375,-0.2014312744140625,-0.1147918701171875
1761505733399606500,4.0506064453125,-0.87628173828125,-0.2021636962890625,-0.082672119140625
1761505733409642500,4.060642578125,-0.7548828125,-0.2140655517578125,-0.0493927001953125
1761505733419678500,4.070678466796875,-0.6503448486328125,-0.2292327880859375,-0.01495361328125
1761505733429714400,4.08071435546875,-0.550018310546875,-0.23779296875,-0.012725830078125
1761505733439750400,4.09075048828125,-0.44158935546875,-0.233917236328125,-0.039947509765625
1761505733449786400,4.100786376953125,-0.335418701171875,-0.2301177978515625,-0.067413330078125
1761505733459822300,4.110822265625,-0.2347869873046875,-0.227264404296875,-0.0864105224609375
1761505733469858300,4.1208583984375,-0.1691741943359375,-0.2294158935546875,-0.090118408203125
1761505733479894300,4.130894287109375,-0.153167724609375,-0.236724853515625,-0.0780487060546875
1761505733489931300,4.14093115234375,-0.1458892822265625,-0.23187255859375,-0.067901611328125
1761505733499967200,4.15096728515625,-0.16436767578125,-0.21173095703125,-0.06768798828125
1761505733510003500,4.16100341796875,-0.19384765625,-0.19390869140625,-0.0605316162109375
1761505733520039700,4.171039794921875,-0.226287841796875,-0.1875152587890625,-0.0565032958984375
1761505733530075600,4.18107568359375,-0.2393798828125,-0.1894989013671875,-0.049530029296875
1761505733540111600,4.191111572265625,-0.2470550537109375,-0.180419921875,-0.036224365234375
1761505733550147600,4.201147705078125,-0.266143798828125,-0.1584014892578125,-0.0231781005859375
1761505733560183600,4.21118359375,-0.2934112548828125,-0.150360107421875,0.0033721923828125
1761505733570219500,4.221219482421875,-0.2981109619140625,-0.1483154296875,0.0108642578125
1761505733580255500,4.23125537109375,-0.3078765869140625,-0.1479034423828125,0.0037841796875
1761505733590291500,4.24129150390625,-0.3380584716796875,-0.146331787109375,0.0117340087890625
1761505733600327400,4.251327392578125,-0.3522186279296875,-0.1377716064453125,0.038970947265625
1761505733610364400,4.261364501953125,-0.3899383544921875,-0.127899169921875,0.07568359375
1761505733620400400,4.271400390625,-0.45611572265625,-0.13177490234375,0.0955963134765625
1761505733630436400,4.281436279296875,-0.552978515625,-0.1352081298828125,0.0915679931640625
1761505733640472300,4.291472412109375,-0.7021636962890625,-0.136566162109375,0.048736572265625
1761505733650508300,4.30150830078125,-0.8580780029296875,-0.1496734619140625,-0.0038909912109375
1761505733660544500,4.31154443359375,-1.0469512939453125,-0.1714630126953125,-0.030853271484375
1761505733670580500,4.32158056640625,-1.217742919921875,-0.1893157958984375,-0.031646728515625
1761505733680616400,4.331616455078125,-1.317352294921875,-0.170318603515625,-0.0447235107421875
1761505733690652400,4.34165234375,-1.375885009765625,-0.109405517578125,-0.081146240234375
1761505733700688400,4.3516884765625,-1.442108154296875,-0.0707244873046875,-0.1017608642578125
1761505733710724400,4.361724365234375,-1.51513671875,-0.075103759765625,-0.119140625
1761505733720761600,4.37176171875,-1.6137237548828125,-0.1357879638671875,-0.1202392578125
1761505733730797600,4.381797607421875,-1.80926513671875,-0.210662841796875,-0.1113739013671875
1761505733740833500,4.39183349609375,-2.030517578125,-0.2449493408203125,-0.131866455078125
1761505733750869500,4.401869384765625,-2.2238922119140625,-0.2212066650390625,-0.1905364990234375
1761505733760905500,4.411905517578125,-2.2301025390625,-0.1791229248046875,-0.294464111328125
1761505733770941400,4.42194140625,-2.1517333984375,-0.1459503173828125,-0.4022064208984375
1761505733780977400,4.431977294921875,-2.1124267578125,-0.1297760009765625,-0.4561614990234375
1761505733791013400,4.442013427734375,-2.0838165283203125,-0.152862548828125,-0.44818115234375
1761505733801049300,4.45204931640625,-2.11993408203125,-0.2084503173828125,-0.385101318359375
1761505733811085600,4.46208544921875,-2.151763916015625,-0.288665771484375,-0.286041259765625
1761505733821121500,4.47212158203125,-2.0565948486328125,-0.326812744140625,-0.223724365234375
1761505733831157500,4.482157470703125,-1.87030029296875,-0.3046875,-0.23162841796875
1761505733841194500,4.492194580078125,-1.6068878173828125,-0.2536773681640625,-0.2455902099609375
1761505733851229400,4.5022294921875,-1.2974395751953125,-0.2144012451171875,-0.205108642578125
1761505733861265400,4.512265380859375,-1.0005035400390625,-0.206268310546875,-0.1184234619140625
1761505733871301400,4.52230126953125,-0.78582763671875,-0.2071075439453125,-0.03863525390625
1761505733881337300,4.53233740234375,-0.6538848876953125,-0.2083740234375,0.008758544921875
1761505733891373300,4.542373291015625,-0.5675048828125,-0.210357666015625,0.0247802734375
1761505733901409300,4.5524091796875,-0.540924072265625,-0.215606689453125,0.024688720703125
1761505733911445500,4.562445556640625,-0.5405120849609375,-0.223052978515625,0.02386474609375
1761505733921481500,4.5724814453125,-0.5040283203125,-0.223236083984375,0.0057525634765625
1761505733931519500,4.58251953125,-0.4542388916015625,-0.2103424072265625,-0.0273590087890625
1761505733941555500,4.592555419921875,-0.4079132080078125,-0.20025634765625,-0.0422515869140625
1761505733951591400,4.60259130859375,-0.3646697998046875,-0.1983489990234375,-0.0317840576171875
1761505733961627400,4.61262744140625,-0.316192626953125,-0.196319580078125,-0.0229644775390625
1761505733971663400,4.622663330078125,-0.280029296875,-0.18646240234375,-0.0297698974609375
1761505733981699600,4.632699462890625,-0.2560272216796875,-0.1784210205078125,-0.0433502197265625
1761505733991735600,4.642735595703125,-0.2295379638671875,-0.1724853515625,-0.063995361328125
1761505734001772300,4.652772216796875,-0.207275390625,-0.1732940673828125,-0.0864410400390625
1761505734011808500,4.66280859375,-0.194976806640625,-0.174224853515625,-0.0931396484375
1761505734021844500,4.672844482421875,-0.218505859375,-0.1732940673828125,-0.087860107421875
1761505734031880400,4.68288037109375,-0.2394561767578125,-0.1729583740234375,-0.0757598876953125
1761505734041916400,4.69291650390625,-0.25299072265625,-0.1679840087890625,-0.050628662109375
1761505734051952400,4.702952392578125,-0.2892913818359375,-0.157440185546875,-0.0242767333984375
1761505734061988400,4.71298828125,-0.3114013671875,-0.149261474609375,-0.0182342529296875
1761505734072024300,4.7230244140625,-0.336669921875,-0.148284912109375,-0.03692626953125
1761505734082060300,4.733060302734375,-0.3415069580078125,-0.1540985107421875,-0.0586395263671875
1761505734092096300,4.74309619140625,-0.334320068359375,-0.164398193359375,-0.0480499267578125
1761505734102132500,4.753132568359375,-0.377655029296875,-0.164642333984375,-0.02325439453125
1761505734112169500,4.76316943359375,-0.4257659912109375,-0.16015625,-0.012359619140625
1761505734122205400,4.773205322265625,-0.4637298583984375,-0.1620941162109375,-0.029632568359375
1761505734132241400,4.783241455078125,-0.558074951171875,-0.1824188232421875,-0.0706787109375
1761505734142277400,4.79327734375,-0.71234130859375,-0.2154541015625,-0.1240386962890625
1761505734152313300,4.803313232421875,-0.901611328125,-0.235198974609375,-0.1679534912109375
1761505734162349600,4.813349609375,-1.092010498046875,-0.22052001953125,-0.184906005859375
1761505734172385500,4.823385498046875,-1.2452545166015625,-0.1934814453125,-0.1528167724609375
1761505734182421500,4.83342138671875,-1.3766326904296875,-0.171600341796875,-0.12408447265625
1761505734192457500,4.84345751953125,-1.5124053955078125,-0.166473388671875,-0.11175537109375
1761505734202493400,4.853493408203125,-1.6930694580078125,-0.1744232177734375,-0.121734619140625
1761505734212529400,4.863529296875,-1.8988189697265625,-0.1698455810546875,-0.1605224609375
1761505734222566400,4.87356640625,-2.001373291015625,-0.16119384765625,-0.204315185546875
1761505734232602400,4.883602294921875,-1.9892425537109375,-0.158416748046875,-0.2785797119140625
1761505734242638300,4.893638427734375,-1.940582275390625,-0.154327392578125,-0.35894775390625
1761505734252674300,4.90367431640625,-1.85882568359375,-0.1631011962890625,-0.3850250244140625
1761505734262710300,4.913710205078125,-1.81256103515625,-0.1553802490234375,-0.399322509765625
1761505734272746200,4.923746337890625,-1.74407958984375,-0.133209228515625,-0.4143829345703125
1761505734282782500,4.933782470703125,-1.7394256591796875,-0.1352081298828125,-0.4011383056640625
1761505734292818400,4.943818359375,-1.8579559326171875,-0.1917724609375,-0.338897705078125
1761505734302854700,4.953854736328125,-1.986907958984375,-0.27166748046875,-0.2295989990234375
1761505734312890600,4.963890625,-2.0671234130859375,-0.26806640625,-0.18798828125
1761505734322926600,4.973926513671875,-2.05303955078125,-0.1749267578125,-0.22412109375
1761505734332963600,4.983963623046875,-1.904693603515625,-0.10870361328125,-0.2542266845703125
1761505734342999600,4.99399951171875,-1.6673126220703125,-0.1238250732421875,-0.2578125
1761505734353035500,5.004035400390625,-1.441375732421875,-0.1764984130859375,-0.2577667236328125
1761505734363071500,5.014071533203125,-1.2722625732421875,-0.2398681640625,-0.25604248046875
1761505734373107500,5.024107421875,-1.108489990234375,-0.309295654296875,-0.2397918701171875
1761505734383143400,5.034143310546875,-0.9774932861328125,-0.346435546875,-0.21527099609375
1761505734393179400,5.044179443359375,-0.8681640625,-0.34283447265625,-0.19281005859375
1761505734403215400,5.05421533203125,-0.800079345703125,-0.3204803466796875,-0.1650543212890625
1761505734413251300,5.064251220703125,-0.779296875,-0.298309326171875,-0.1285247802734375
1761505734423287300,5.074287353515625,-0.755401611328125,-0.288116455078125,-0.081817626953125
1761505734433323300,5.0843232421875,-0.7245635986328125,-0.2852783203125,-0.03363037109375
1761505734443360300,5.0943603515625,-0.6894073486328125,-0.2791595458984375,0.0003662109375
1761505734453396500,5.104396484375,-0.638916015625,-0.263824462890625,0.0111236572265625
1761505734463432400,5.114432373046875,-0.5640411376953125,-0.2465057373046875,0.0025177001953125
1761505734473468400,5.124468505859375,-0.468109130859375,-0.2362060546875,-0.0122528076171875
1761505734483504600,5.134504638671875,-0.3761138916015625,-0.2329864501953125,-0.020263671875
1761505734493540600,5.14454052734375,-0.313995361328125,-0.2416839599609375,-0.0058441162109375
1761505734503576600,5.15457666015625,-0.274139404296875,-0.254669189453125,0.020294189453125
1761505734513612500,5.164612548828125,-0.267059326171875,-0.2636566162109375,0.0295867919921875
1761505734523648500,5.1746484375,-0.277618408203125,-0.262237548828125,0.017578125
1761505734533684500,5.1846845703125,-0.2823028564453125,-0.244842529296875,0.0006256103515625
1761505734543720400,5.194720458984375,-0.3051300048828125,-0.21929931640625,-0.014068603515625
1761505734553757400,5.20475732421875,-0.3164215087890625,-0.188720703125,-0.030426025390625
1761505734563793400,5.21479345703125,-0.2981414794921875,-0.168212890625,-0.03045654296875
1761505734573829400,5.224829345703125,-0.300689697265625,-0.1718902587890625,0.0030670166015625
1761505734583865300,5.234865234375,-0.32012939453125,-0.1881256103515625,0.0467529296875
1761505734593901300,5.2449013671875,-0.372955322265625,-0.201690673828125,0.07318115234375
1761505734603937300,5.254937255859375,-0.466278076171875,-0.204254150390625,0.0755157470703125
1761505734613973500,5.264973388671875,-0.5635986328125,-0.1931304931640625,0.0567626953125
1761505734624009500,5.275009521484375,-0.64849853515625,-0.1765899658203125,0.027740478515625
1761505734634045400,5.28504541015625,-0.7203369140625,-0.1746978759765625,-0.00909423828125
1761505734644081400,5.295081298828125,-0.8123626708984375,-0.176300048828125,-0.046600341796875
1761505734654117400,5.305117431640625,-0.91546630859375,-0.174835205078125,-0.0805816650390625
1761505734664154600,5.315154541015625,-1.0548553466796875,-0.1771087646484375,-0.097320556640625
1761505734674190600,5.325190673828125,-1.1661529541015625,-0.1779937744140625,-0.102935791015625
1761505734684226600,5.3352265625,-1.229278564453125,-0.1717071533203125,-0.1139984130859375
1761505734694262500,5.345262451171875,-1.3488922119140625,-0.17376708984375,-0.12286376953125
1761505734704298500,5.355298583984375,-1.46240234375,-0.1981048583984375,-0.1353302001953125
1761505734714334500,5.36533447265625,-1.562103271484375,-0.23223876953125,-0.1487884521484375
1761505734724370400,5.375370361328125,-1.6511688232421875,-0.24530029296875,-0.1654510498046875
1761505734734406400,5.385406494140625,-1.722991943359375,-0.2342681884765625,-0.1704559326171875
1761505734744442400,5.3954423828125,-1.760772705078125,-0.2327880859375,-0.1565704345703125
1761505734754478300,5.405478271484375,-1.816864013671875,-0.2347869873046875,-0.162261962890625
1761505734764514600,5.4155146484375,-1.8796844482421875,-0.22161865234375,-0.15966796875
1761505734774550500,5.425550537109375,-1.9584503173828125,-0.198577880859375,-0.1540374755859375
1761505734784587300,5.435587158203125,-2.025421142578125,-0.177764892578125,-0.1658782958984375
1761505734794623500,5.44562353515625,-2.064727783203125,-0.1865386962890625,-0.1698150634765625
1761505734804659500,5.455659423828125,-2.071136474609375,-0.22869873046875,-0.162628173828125
1761505734814695400,5.4656953125,-2.0327911376953125,-0.26165771484375,-0.156158447265625
1761505734824731400,5.4757314453125,-1.924713134765625,-0.2456207275390625,-0.1855010986328125
1761505734834767400,5.485767333984375,-1.76995849609375,-0.2079620361328125,-0.22442626953125
1761505734844804000,5.49580419921875,-1.5849151611328125,-0.192413330078125,-0.2408905029296875
1761505734854840000,5.505840087890625,-1.403167724609375,-0.2076568603515625,-0.22515869140625
1761505734864876000,5.5158759765625,-1.245025634765625,-0.2316741943359375,-0.189239501953125
1761505734874912000,5.525912109375,-1.098358154296875,-0.26458740234375,-0.1505584716796875
1761505734884948000,5.535947998046875,-0.988800048828125,-0.2884979248046875,-0.126953125
1761505734894985000,5.54598486328125,-0.9141693115234375,-0.29144287109375,-0.1133270263671875
1761505734905021000,5.55602099609375,-0.8379058837890625,-0.287689208984375,-0.08404541015625
1761505734915057000,5.566056884765625,-0.7581329345703125,-0.27813720703125,-0.0560150146484375
1761505734925092900,5.5760927734375,-0.69000244140625,-0.2646331787109375,-0.0379486083984375
1761505734935128800,5.58612890625,-0.6161041259765625,-0.250030517578125,-0.025848388671875
1761505734945164800,5.596164794921875,-0.5334014892578125,-0.23455810546875,-0.0206298828125
1761505734955201000,5.606200927734375,-0.452545166015625,-0.22418212890625,-0.002593994140625
1761505734965237000,5.616237060546875,-0.3738861083984375,-0.2178497314453125,0.01983642578125
1761505734975273000,5.62627294921875,-0.311004638671875,-0.2124481201171875,0.0348663330078125
1761505734985309000,5.636308837890625,-0.269500732421875,-0.2059173583984375,0.0329132080078125
1761505734995345000,5.646344970703125,-0.229034423828125,-0.1950836181640625,0.0196685791015625
1761505735005380900,5.656380859375,-0.199371337890625,-0.187713623046875,0.015777587890625
1761505735015418000,5.666418212890625,-0.1858673095703125,-0.1846923828125,0.0092926025390625
1761505735025454000,5.6764541015625,-0.172393798828125,-0.183013916015625,-0.0032806396484375
1761505735035490000,5.686489990234375,-0.1777496337890625,-0.1838531494140625,-0.0063323974609375
1761505735045526000,5.696526123046875,-0.2256011962890625,-0.185821533203125,-0.01123046875
1761505735055562000,5.70656201171875,-0.2710723876953125,-0.1902923583984375,-0.01690673828125
1761505735065598000,5.716597900390625,-0.3191070556640625,-0.197540283203125,-0.001739501953125
1761505735075634000,5.726634033203125,-0.3806610107421875,-0.1958465576171875,0.0243072509765625
1761505735085670000,5.736669921875,-0.435760498046875,-0.1903076171875,0.055999755859375
1761505735095706000,5.7467060546875,-0.4827728271484375,-0.18145751953125,0.0616912841796875
1761505735105742000,5.7567421875,-0.51397705078125,-0.16632080078125,0.0360107421875
1761505735115778000,5.766778076171875,-0.5740509033203125,-0.1589508056640625,0.0238800048828125
1761505735125814000,5.77681396484375,-0.6478271484375,-0.1652679443359375,0.0033416748046875
1761505735135851000,5.78685107421875,-0.677886962890625,-0.1837310791015625,-0.030364990234375
1761505735145887000,5.796886962890625,-0.7566375732421875,-0.2039947509765625,-0.04254150390625
1761505735155923000,5.8069228515625,-0.8876953125,-0.221954345703125,-0.0684814453125
1761505735165959000,5.816958984375,-0.9989471435546875,-0.22271728515625,-0.104095458984375
1761505735175995000,5.826994873046875,-1.0642852783203125,-0.2072906494140625,-0.141998291015625
1761505735186030800,5.83703076171875,-1.133087158203125,-0.1849365234375,-0.1676483154296875
1761505735196066800,5.84706689453125,-1.23260498046875,-0.18328857421875,-0.13232421875
1761505735206102800,5.857102783203125,-1.361236572265625,-0.2279052734375,-0.0430755615234375
1761505735216138800,5.867138671875,-1.4783172607421875,-0.2856597900390625,0.033477783203125
1761505735226174700,5.8771748046875,-1.5871429443359375,-0.328460693359375,0.08251953125
1761505735236211000,5.8872109375,-1.70660400390625,-0.339385986328125,0.0899505615234375
1761505735246247200,5.8972470703125,-1.787139892578125,-0.3082275390625,0.0606536865234375
1761505735256284000,5.907283935546875,-1.851226806640625,-0.2741546630859375,-0.0089111328125
1761505735266320000,5.91731982421875,-1.9028167724609375,-0.2447052001953125,-0.0913543701171875
1761505735276356000,5.927356201171875,-1.9347991943359375,-0.24444580078125,-0.135284423828125
1761505735286392000,5.93739208984375,-1.8866424560546875,-0.26708984375,-0.15191650390625
1761505735296428000,5.947427978515625,-1.8257598876953125,-0.30303955078125,-0.1233367919921875
1761505735306464000,5.957464111328125,-1.787811279296875,-0.36669921875,-0.0232086181640625
1761505735316500000,5.9675,-1.7616424560546875,-0.427337646484375,0.073150634765625
1761505735326536000,5.977535888671875,-1.73822021484375,-0.420806884765625,0.0915069580078125
1761505735336572000,5.987572021484375,-1.7189178466796875,-0.3478851318359375,0.0233917236328125
1761505735346607900,5.99760791015625,-1.682769775390625,-0.243377685546875,-0.099761962890625
1761505735356643800,6.007643798828125,-1.5482330322265625,-0.1603546142578125,-0.17218017578125
1761505735366679800,6.0176796875,-1.415191650390625,-0.127655029296875,-0.17462158203125
1761505735376715800,6.0277158203125,-1.2740936279296875,-0.1397247314453125,-0.15283203125
1761505735386752800,6.037752685546875,-1.1096649169921875,-0.1823883056640625,-0.1263580322265625
1761505735396788700,6.047788818359375,-0.9872894287109375,-0.243499755859375,-0.095703125
1761505735406824700,6.05782470703125,-0.90228271484375,-0.305633544921875,-0.0435791015625
1761505735416861200,6.067861083984375,-0.8671417236328125,-0.35809326171875,0.062744140625
1761505735426897200,6.077897216796875,-0.85150146484375,-0.3616943359375,0.1460418701171875
1761505735436933000,6.08793310546875,-0.820709228515625,-0.308685302734375,0.1695404052734375
1761505735446969000,6.097968994140625,-0.7866668701171875,-0.24176025390625,0.1642913818359375
1761505735457005000,6.108005126953125,-0.72332763671875,-0.1935577392578125,0.16082763671875
1761505735467041000,6.118041015625,-0.629608154296875,-0.174835205078125,0.136993408203125
1761505735477077000,6.128076904296875,-0.53497314453125,-0.1650848388671875,0.1031951904296875
1761505735487113000,6.138113037109375,-0.4728851318359375,-0.1638946533203125,0.0829620361328125
1761505735497149000,6.14814892578125,-0.3915557861328125,-0.164794921875,0.0601959228515625
1761505735507186000,6.15818603515625,-0.295501708984375,-0.1687164306640625,0.0255279541015625
1761505735517222000,6.168221923828125,-0.290679931640625,-0.1996612548828125,0.00457763671875
1761505735527257900,6.1782578125,-0.3041534423828125,-0.233062744140625,0.0446014404296875
1761505735537293800,6.1882939453125,-0.3087615966796875,-0.2595367431640625,0.088775634765625
1761505735547329800,6.198329833984375,-0.2904052734375,-0.3033294677734375,0.1010589599609375
1761505735557366000,6.208365966796875,-0.25732421875,-0.3248748779296875,0.0993499755859375
1761505735567402000,6.218402099609375,-0.2401580810546875,-0.287750244140625,0.060211181640625
1761505735577438000,6.22843798828125,-0.2574615478515625,-0.1992645263671875,0.007110595703125
