time,seconds_elapsed,z,y,x
1761505729450398500,0.1013984375,0.6766852095991372,-0.23562654588632284,-0.21392332118749618
1761505729460435500,0.111435546875,0.9366764544785022,-0.23432057785429058,-0.13841975191384553
1761505729470471400,0.121471435546875,1.0984703599780796,-0.2784148633856326,-0.016557605438679457
1761505729480507400,0.13150732421875,1.3430208746194838,-0.4117198295690119,0.12120865100249648
1761505729490543400,0.14154345703125,1.4986545039236545,-0.6422047747831792,0.25418811155855653
1761505729500579300,0.151579345703125,1.549290466183424,-0.9094222445890306,0.4023198408000171
1761505729510615300,0.161615234375,1.5904443143486975,-1.1551395379874854,0.5986018529653548
1761505729520651300,0.1716513671875,1.2978121981054545,-1.3465335589155554,0.7736154516525566
1761505729530687200,0.181687255859375,1.0619073467344045,-1.4174278808280825,0.8573276079535483
1761505729540723200,0.19172314453125,1.05227384147048,-1.2819728239387274,0.8596507902041077
1761505729550759400,0.201759521484375,1.0943237616926431,-1.0613677599649876,0.8346186402782797
1761505729560796200,0.211796142578125,1.3114455866605044,-0.8072332052245735,0.7218518005371093
1761505729570832100,0.22183203125,1.6039052689462898,-0.6168930041983723,0.543161559163779
1761505729580868400,0.231868408203125,1.5358745197713375,-0.534925280411914,0.49329906549453734
1761505729590904600,0.241904541015625,0.8613859434336424,-0.5126732627239078,0.432565779851377
1761505729600940500,0.2519404296875,-0.06596972499191761,-0.48839485377483066,0.4551403074920177
1761505729610976500,0.2619765625,-0.8787748851299285,-0.5544288031093776,0.556419976926595
1761505729621012500,0.272012451171875,-1.886692283001542,-0.5289530010692775,0.48565541887357827
1761505729631048400,0.28204833984375,-2.667790637755394,-0.22819325408041477,0.029568185920268296
1761505729641084400,0.29208447265625,-3.2047827145040033,0.2645188053064048,-0.9632738078944384
1761505729651120400,0.302120361328125,-3.9462013852983713,0.6914141383059322,-1.8650733025200663
1761505729661157400,0.312157470703125,-4.5005625299990175,0.9771519649907946,-2.2414131911501287
1761505729671193300,0.322193359375,-5.075419350239634,1.0585248646892607,-1.8060972358077763
1761505729681229300,0.332229248046875,-6.261667946913838,0.6750894648402929,-0.5729795551266521
1761505729691265300,0.342265380859375,-7.7035922633558505,0.13209639411121607,0.4867748513575643
1761505729701301200,0.35230126953125,-8.450758537891506,0.020348229893296956,0.5637686591889709
1761505729711337200,0.362337158203125,-8.44653828984797,0.48877661963403224,-0.25569267090260983
1761505729721373400,0.37237353515625,-8.346089956671,0.964875836263597,-1.4483274614825843
1761505729731409400,0.382409423828125,-7.834153410723805,1.1718879167579115,-2.4852608182191847
1761505729741445400,0.3924453125,-7.640453962397575,1.2992450073875486,-2.644408593124151
1761505729751482400,0.402482421875,-7.938092508625984,1.296690208338201,-1.8783251444116233
1761505729761518300,0.412518310546875,-8.382068448024988,1.0460822933539748,-0.7395386292014271
1761505729771554600,0.422554443359375,-8.307618479457497,0.7258363401286304,-0.07592566714324056
1761505729781590500,0.432590576171875,-7.628299414223432,0.43962914236634965,-0.2402345511384308
1761505729791626500,0.44262646484375,-6.527862722608447,0.37920126941055055,-1.0266755820944904
1761505729801662500,0.452662353515625,-4.885583007082343,0.4639885075971484,-1.866499974322319
1761505729811698400,0.462698486328125,-2.904271243187785,0.5548397219978273,-2.0518036424860355
1761505729821734400,0.472734375,-0.8704682445555925,0.504844980251044,-1.494044964301586
1761505729831770400,0.482770263671875,0.9232283593624829,0.36857729180455207,-0.6413868825290352
1761505729841806300,0.492806396484375,2.3872961185514927,0.3873696705579757,0.1277456515558064
1761505729851842300,0.50284228515625,4.370197197464108,0.6113578741639852,0.921838950830698
1761505729861878300,0.512878173828125,6.280836173242331,0.5018228559508919,1.401991096112877
1761505729871914500,0.52291455078125,6.064191318136453,0.2809511769302189,0.7181281038388609
1761505729881950500,0.532950439453125,6.712068366402387,0.3273211523085832,-0.03225961696133017
1761505729891986400,0.542986328125,6.836513076716661,0.49607320638298985,-0.14527604754939674
1761505729902022400,0.5530224609375,6.390313031527399,0.5351736291497945,-0.3165383308790624
1761505729912058400,0.563058349609375,6.701567430654168,0.43218686353638763,-0.33838322907090185
1761505729922094300,0.57309423828125,6.775239400586486,0.3043843672268092,0.18177885503843424
1761505729932130300,0.58313037109375,6.407874991703033,0.1611842491686344,1.073994528760761
1761505729942167300,0.593167236328125,6.367999492910504,0.19763152707815168,1.5411892850533127
1761505729952203300,0.603203369140625,6.937084744012355,0.5701432357221842,1.3546809172749519
1761505729962239200,0.6132392578125,7.742810759544372,1.0578355672508477,1.0129323034241795
1761505729972275200,0.623275146484375,8.39858762114942,1.4367505670659244,0.7456221138335763
1761505729982311200,0.633311279296875,8.889188533601164,1.4433940967336296,0.753355046173185
1761505729992347100,0.64334716796875,9.246291076189278,1.1849720008671283,0.9602687808595597
1761505730002383400,0.65338330078125,9.224294932958482,0.9186552062280475,1.2761984783209859
1761505730012419300,0.66341943359375,8.70616245498061,0.7033563589036465,1.6953801682032643
1761505730022455300,0.673455322265625,7.995423584610223,0.5689703925505281,1.9651399429030716
1761505730032492300,0.6834921875,7.299758949252962,0.5952126489184797,2.0083923707827926
1761505730042528500,0.693528564453125,7.110184471902251,0.7885377109743654,1.8051544019997119
1761505730052564500,0.703564453125,7.037745843157172,0.9226903069630265,1.6793664603829384
1761505730062600400,0.713600341796875,6.875730988383292,0.9302569428250193,1.6371739168196915
1761505730072636400,0.723636474609375,6.894616890639067,0.9451521680094301,1.5297162894025444
1761505730082672400,0.73367236328125,6.794602857226133,0.9077202629767358,1.2143643918290734
1761505730092708400,0.743708251953125,6.393067298671602,0.7931707776024938,0.9588605214968323
1761505730102744300,0.753744384765625,6.074385964414477,0.57124666691944,0.9174852126006037
1761505730112780300,0.7637802734375,5.500999216726422,0.3974249083653092,0.8390534809205681
1761505730122817300,0.7738173828125,4.28302394092381,0.45438379003629087,0.24916056572012601
1761505730132853200,0.783853271484375,3.038963791272044,0.35826398758292194,-0.30879407342784104
1761505730142889200,0.79388916015625,1.766125290903449,0.3527021156720817,-0.5458155808039009
1761505730152925200,0.80392529296875,-0.13934475780427455,0.8563608087480068,-0.4926803490743041
1761505730162961200,0.813961181640625,-2.2820745796233415,1.49324986840114,-0.30582506755441424
1761505730172997000,0.8239970703125,-4.808427871209383,1.506757584749907,-0.17376009149476884
1761505730183033300,0.834033447265625,-8.155261679866909,0.6081387659870088,-0.1795519727692008
1761505730193069300,0.8440693359375,-12.15172844054699,-0.5251077238179743,-0.8520175188466906
1761505730203105300,0.854105224609375,-16.324074915224312,-1.3363842130839825,-1.8452261540167032
1761505730213142300,0.864142333984375,-19.352935245633123,-0.7531897726088762,-2.975442043954134
1761505730223178500,0.874178466796875,-20.07856071949005,0.7232450084611773,-4.157193913730978
1761505730233214500,0.88421435546875,-19.42320296007991,1.8557029782369732,-5.064886850309372
1761505730243250400,0.89425048828125,-17.922853342676163,1.9666126458041369,-5.167458751511574
1761505730253286400,0.904286376953125,-16.148966185599566,0.881975288606435,-4.230002544832229
1761505730263322400,0.914322265625,-15.128752200734615,-0.8358947976939379,-2.9199942974984645
1761505730273358300,0.9243583984375,-14.009762199819088,-2.3009270180009302,-1.81686091414541
1761505730283394300,0.934394287109375,-12.75268708577156,-2.744192032651603,-1.3681893642760812
1761505730293431300,0.944431396484375,-11.244917547500133,-2.2880165368929504,-1.4376505846455692
1761505730303467300,0.95446728515625,-9.097595721715688,-1.7446530254162846,-1.3941229930862784
1761505730313503200,0.964503173828125,-6.565111380028724,-1.7379522126033902,-1.0429959447111934
1761505730323539200,0.974539306640625,-4.037874291345477,-1.9356109199494123,-0.6513077533669769
1761505730333575200,0.9845751953125,-1.7737164766848086,-1.74374818553105,-0.4408823572978377
1761505730343611100,0.994611083984375,0.22653438095748424,-1.3527604706063865,-0.5015843710198998
1761505730353647400,1.0046474609375,2.1732816119492053,-1.2562136749126016,-0.508782027439028
1761505730363683300,1.014683349609375,3.785207105743885,-1.3365557702586055,-0.24881588046830147
1761505730373719300,1.02471923828125,4.680846031913161,-1.4477078682795166,0.1304035821860656
1761505730383755300,1.03475537109375,5.232379259711504,-1.5339976199835539,0.5740224883083254
1761505730393792500,1.04479248046875,5.57496870830059,-1.6360881674095988,1.0236941551309078
1761505730403828500,1.054828369140625,5.766964859840273,-1.7422556088857353,1.391269211090356
1761505730413864400,1.064864501953125,5.847523082154989,-1.8076200614608824,1.5321040613219141
1761505730423900400,1.074900390625,6.2509846403360365,-1.7262779952920972,1.3636043745733797
1761505730433936400,1.084936279296875,6.6800283835411065,-1.4036907396376133,0.9463201888754963
1761505730443972400,1.094972412109375,7.01811058383882,-1.055063399123773,0.5653856659315526
1761505730454008300,1.10500830078125,7.536594359472393,-0.8205380194123834,0.27760500830747187
1761505730464044300,1.115044189453125,8.098632030150293,-0.7453153859719633,0.015310381856560706
1761505730474081300,1.125081298828125,8.54666981216073,-0.6814343038223684,-0.05370514057204127
1761505730484117200,1.1351171875,8.883084371507167,-0.5583645351231098,0.031548984473943706
1761505730494153200,1.1451533203125,9.130138393402099,-0.3641569911442697,0.12703925685212014
1761505730504189200,1.155189208984375,9.059501261121033,-0.2051783622611314,0.2336206859566271
1761505730514225200,1.16522509765625,8.835605996495485,-0.1814160130754113,0.39892135746814306
1761505730524261000,1.17526123046875,8.508186644509435,-0.12402685022838413,0.5555000125374645
1761505730534297300,1.18529736328125,8.22055628207624,-0.035541780437156556,0.7142988278742879
1761505730544333300,1.195333251953125,7.944133542355894,-0.041684082584455606,0.8285525451723486
1761505730554369300,1.205369384765625,7.642652933746576,-0.05215053154118359,0.7073200749028473
1761505730564406300,1.21540625,7.238115855288505,-0.020671105172112583,0.44785555731132626
1761505730574442500,1.2254423828125,6.861456379315257,-0.05033237620331347,0.2593746473509818
1761505730584478500,1.235478515625,6.028448389104009,-0.12878792715035378,0.13278985626809298
1761505730594514400,1.245514404296875,5.16934851078093,-0.26457572312541305,0.08166318788193165
1761505730604550400,1.25555029296875,4.944328041517735,-0.2924048833586275,0.0643785102777183
1761505730614586400,1.26558642578125,4.063055494353175,-0.03992123763039708,-0.1351176416285336
1761505730624622300,1.275622314453125,2.933277557441592,0.19636895979642868,-0.39033874949663877
1761505730634658300,1.285658203125,1.9630016157001255,0.3786122174762189,-0.6211173438951373
1761505730644695300,1.2956953125,0.9494786529064178,0.7441416660174727,-1.1056667742881923
1761505730654731300,1.305731201171875,-0.2030944686591625,1.1423331748411059,-1.5523890167206524
1761505730664767200,1.315767333984375,-1.771447947230935,1.2677384007506072,-1.4095608007147908
1761505730674803200,1.32580322265625,-3.726041215547919,0.8869402175374329,-1.1768678240623325
1761505730684839200,1.335839111328125,-5.713410379785299,0.2287890280164778,-0.9371440719902515
1761505730694875100,1.345875244140625,-8.56552415023446,-0.29401509503424167,-0.5667848652049898
1761505730704911000,1.3559111328125,-12.226568285214901,-0.7456732594989239,-0.19269830845966934
1761505730714947300,1.365947265625,-14.66174609888196,-0.9676542149357497,-0.08589812203794717
1761505730724983300,1.3759833984375,-15.779586929762363,-0.5720894013538956,-0.39388855093270536
1761505730735020300,1.386020263671875,-15.825049873298406,0.09723813895881175,-1.1076277721628547
1761505730745056500,1.396056396484375,-15.170150379049778,0.6777304808683693,-1.8838390855275093
1761505730755092500,1.406092529296875,-14.070847075378895,1.0423374077372252,-2.5254145494312046
1761505730765128400,1.41612841796875,-12.61335109579563,1.1007843360088765,-2.891305378630757
1761505730775164400,1.426164306640625,-11.17145951257944,0.7205624913789331,-2.707345234030485
1761505730785200400,1.436200439453125,-10.291472329050302,-0.13914236709997058,-2.0477951374970376
1761505730795236400,1.446236328125,-9.656578680998086,-0.9855825242057442,-1.1008538941137491
1761505730805272300,1.456272216796875,-8.870672633701563,-1.2425231493428348,-0.23318624006211755
1761505730815309300,1.466309326171875,-7.386226687872409,-1.066113858513534,0.24158245861604807
1761505730825345300,1.47634521484375,-5.134968102273345,-0.7808497868202626,0.13790493425950406
1761505730835382000,1.486382080078125,-2.7751129483550785,-0.5495062520153821,-0.174016258212924
1761505730845418000,1.49641796875,-0.7504495339900255,-0.5096690394066273,-0.41823622572571034
1761505730855454000,1.506453857421875,0.6459422808110714,-0.7097479596368969,-0.6489010575514287
1761505730865490000,1.516489990234375,1.7284972787767647,-1.0396678962670265,-0.796667095285654
1761505730875526000,1.52652587890625,2.355082532688975,-1.3222002049088477,-0.7025031761404127
1761505730885562000,1.53656201171875,2.6129157227516173,-1.5264388751670717,-0.37580008266493675
1761505730895599000,1.54659912109375,2.6883395047873258,-1.7445166856855152,0.07625555668473244
1761505730905635000,1.556635009765625,2.7108798378974197,-1.9038845330819487,0.5362146626353264
1761505730915671000,1.566671142578125,2.8177263476788994,-1.809642507199198,0.7640469744488596
1761505730925707000,1.57670703125,3.1339252174705265,-1.6341776576131581,0.763164346395433
1761505730935743000,1.586742919921875,3.564526126989722,-1.4016019506648183,0.6958091583944856
1761505730945779200,1.596779296875,4.217293869906664,-1.1497072838056832,0.5723556510746479
1761505730955815200,1.606815185546875,5.07667548778057,-0.977961016351357,0.5390522241488099
1761505730965851100,1.61685107421875,5.869107721975445,-0.8225141417909413,0.5670344560518861
1761505730975887000,1.62688720703125,6.584839578327537,-0.603403992550075,0.5266805260926485
1761505730985924000,1.636924072265625,7.483738383075594,-0.3437613419126719,0.4154680761866271
1761505730995960000,1.6469599609375,8.236231990113854,-0.14485351128838955,0.38073096319586036
1761505731005996000,1.65699609375,8.739073375457524,-0.03417334162816405,0.45585430098026986
1761505731016032000,1.667031982421875,9.03979293656647,-0.00468099742308259,0.6636885115124285
1761505731026068000,1.67706787109375,9.175908795452118,-0.03831029530242085,0.8939982462901621
1761505731036104000,1.68710400390625,9.0863845918715,-0.03759118724763393,1.0559113942552358
1761505731046140000,1.697139892578125,8.806535969355702,-0.016459259630739687,1.1643448079019785
1761505731056176000,1.707176025390625,8.603792213830351,0.021946897261589764,1.1975623101100326
1761505731066213000,1.717213134765625,8.49950474088192,0.01301496439576149,1.192659851955995
1761505731076249000,1.7272490234375,8.399942542889713,0.11201909011378884,1.1380809972893446
1761505731086285000,1.73728515625,8.281659862336516,0.2783655443511903,1.0604285063534975
1761505731096321000,1.747321044921875,7.73516813583672,0.42229806833714245,0.9801564075037836
1761505731106357000,1.75735693359375,7.342867438617348,0.45506344286352396,0.8624133137200027
1761505731116393200,1.767393310546875,6.970863679495453,0.46579760284572835,0.8246122831139713
1761505731126429200,1.77742919921875,6.370888200089335,0.5327285740852356,0.7160394609965384
1761505731136465200,1.787465087890625,5.8139031366258855,0.617673048660159,0.40936873639822
1761505731146502100,1.797502197265625,4.499358999428153,0.7522535146720707,0.19499591787755488
1761505731156538000,1.8075380859375,1.9580033690214156,0.7783994710586964,0.2979880172532052
1761505731166574000,1.817573974609375,-0.18297931686937807,0.6099760644167661,0.3128478057980537
1761505731176610000,1.827610107421875,-2.4977526355236765,0.800335554665327,-0.28500520156137643
1761505731186646000,1.83764599609375,-3.6654110980182883,1.239088352588564,-1.067731011386588
1761505731196682000,1.847681884765625,-4.434997878676652,1.5197230109155178,-1.7292098109602927
1761505731206718000,1.857718017578125,-5.614373082450032,1.168207913070917,-1.9973811474248766
1761505731216754000,1.86775390625,-7.609868269997834,0.007145633970946073,-1.2145115452148019
1761505731226790000,1.877789794921875,-10.716450137990712,-1.1879910564273595,0.13505721667818724
1761505731236827100,1.8878271484375,-13.987522310960292,-1.2559051934853196,1.0096883530668914
1761505731246863000,1.897863037109375,-16.21848805011511,-0.27748773860335346,0.7249897332366555
1761505731256899000,1.907899169921875,-16.675362049531934,0.7131574758194387,-0.27262422422021626
1761505731266935000,1.91793505859375,-16.213226184064148,1.1236768435575066,-1.1177006186921148
1761505731276971000,1.927970947265625,-15.160416920542716,1.116397500204295,-1.5463561662971972
1761505731287007000,1.938007080078125,-13.72966866263151,0.9349350176386535,-1.6253243429414928
1761505731297043200,1.948043212890625,-11.97367372059822,0.5946140985034406,-1.3854855131223798
1761505731307079200,1.9580791015625,-10.523059901744126,0.174338914296031,-0.9294012027785181
1761505731317116000,1.968115966796875,-9.035341802376507,-0.04630611636191606,-0.6660167352642864
1761505731327152000,1.978152099609375,-7.023868124452233,0.19044906822815535,-0.5652473534394056
1761505731337188000,1.98818798828125,-4.789774608665704,0.4847700143411755,-0.5861490524969994
1761505731347224000,1.99822412109375,-2.4074516023516654,0.5941679621711373,-0.6424412869527936
1761505731357260000,2.008260009765625,-0.37212826228439805,0.5694039616622031,-0.4530228038813919
1761505731367296000,2.0182958984375,0.9010667964369058,0.31155864277034995,0.14001498521603642
1761505731377332000,2.02833203125,1.4735855291187763,-0.17331790068522096,0.7538481634523719
1761505731387368000,2.038367919921875,1.9432985518425703,-0.5147830214194953,0.7692426433958113
1761505731397404000,2.04840380859375,2.5102783550977708,-0.5005997438967228,0.32542057938426733
1761505731407441200,2.058441162109375,3.102428255444765,-0.5035749603152275,-0.015009206952899694
1761505731417477000,2.06847705078125,3.678689097264409,-0.6950812825113535,-0.06314736104756594
1761505731427513000,2.07851318359375,4.17796782169044,-0.7615521619584411,0.07785963088050485
1761505731437549000,2.088549072265625,4.3514381364583965,-0.7425263397753238,0.5300463492639362
1761505731447585000,2.0985849609375,4.535810368990898,-0.7747744854945688,1.052873414798826
1761505731457621000,2.10862109375,4.7211745351701975,-0.9666505908511579,1.4290901154406368
1761505731467657200,2.1186572265625,4.803176526552439,-1.146139581386745,1.537021497849375
1761505731477693200,2.128693115234375,4.795293664348125,-1.211988164217025,1.3419456466034054
1761505731487730000,2.13872998046875,4.956342304438352,-1.1774496425382792,0.9877955240800976
1761505731497766100,2.14876611328125,5.6176937513053415,-1.0950997875664383,0.7985910490855574
1761505731507802000,2.158802001953125,6.3500914957761765,-0.9853061184171586,0.6642194035187363
1761505731517838000,2.168838134765625,7.020290265965461,-0.8725722310975194,0.5031999895229935
1761505731527874000,2.1788740234375,7.669924387031793,-0.793687641083449,0.5050359727784991
1761505731537910000,2.188909912109375,8.100162308457493,-0.7463042508788407,0.6521560407593846
1761505731547946000,2.198946044921875,8.156778514170647,-0.7466279298752546,0.7577092958599329
1761505731557982000,2.20898193359375,8.229186747777462,-0.8499511609014123,0.8192446916662156
1761505731568018000,2.219017822265625,8.124401846700906,-1.0071179180569947,0.9185564220286905
1761505731578055200,2.22905517578125,7.631879026275873,-1.1839746603928505,1.0812889235526322
1761505731588091100,2.239091064453125,6.953306980016827,-1.3754875584602355,1.3601828756920993
1761505731598127000,2.249127197265625,6.159895671656727,-1.5908771528080106,1.6552270215131342
1761505731608163000,2.2591630859375,5.414234540987015,-1.720237838345021,1.786052811166644
1761505731618199000,2.269198974609375,4.613362395226956,-1.5902429465577006,1.6280936615243553
1761505731628235000,2.279235107421875,4.0756472649008035,-1.343121120123565,1.2689683809369803
1761505731638271000,2.28927099609375,3.7716660716474055,-1.0869155312627554,0.6751409027665853
1761505731648307200,2.29930712890625,3.041521074539423,-0.8670536138065159,0.2506957393981516
1761505731658343200,2.30934326171875,2.1230852101504802,-0.8509794079706072,0.20463724112175405
1761505731668380000,2.3193798828125,1.1626140385866164,-0.8954103781104087,0.5392839140128344
1761505731678416100,2.329416015625,-0.7084241636872292,-0.5606885941565036,0.4949036511469632
1761505731688452000,2.3394521484375,-3.7786885176301,-0.08162731285095215,0.05561009741052985
1761505731698488000,2.349488037109375,-6.418673449093103,0.05398045038208365,-0.6001328619249164
1761505731708524000,2.35952392578125,-7.920626994562149,0.12022373161837457,-1.230448972928524
1761505731718560000,2.36956005859375,-9.378940720269084,0.24041180740147827,-1.457427298261225
1761505731728596000,2.379595947265625,-10.72764373217821,0.07040010865479707,-1.1469313162863255
1761505731738632000,2.3896318359375,-12.151311091917753,-0.16061755519658327,-0.730086910245195
1761505731748668000,2.39966796875,-13.345083654356001,0.0052248950414359565,-1.0102797430887818
1761505731758705200,2.409705078125,-13.824549424809216,0.3636711073234677,-1.8337388375796377
1761505731768741000,2.4197412109375,-13.599729446554184,0.657739101588726,-2.5294904205679893
1761505731778777000,2.429777099609375,-13.037256891590356,0.8712829219393432,-2.8050916147723792
1761505731788813000,2.43981298828125,-12.007688218402862,0.9614753801703453,-2.5994822406828404
1761505731798849000,2.44984912109375,-10.623841996920108,0.9283725903831421,-2.0597000948242843
1761505731808885000,2.459885009765625,-9.442150332897901,0.6139679105319082,-1.2842949832759796
1761505731818921200,2.469921142578125,-8.859072212278843,-0.14524477562829852,-0.4898483405187726
1761505731828957200,2.479957275390625,-8.514772452640534,-0.7798660364799201,-0.1854759559907019
1761505731838993400,2.489993408203125,-7.891677378931641,-0.7950511845216155,-0.3709053694259375
1761505731849030100,2.500030029296875,-6.710277975854277,-0.5020061035633087,-0.6704824094362557
1761505731859066400,2.51006640625,-4.801861936822533,-0.3602332418292761,-0.7726942451544105
1761505731869102300,2.520102294921875,-2.6616122413814067,-0.31065599484220147,-0.7372225342787802
1761505731879138300,2.53013818359375,-0.5035433961331844,-0.3153416684404015,-0.5667214445799589
1761505731889174300,2.54017431640625,1.3875713794857263,-0.5492679132148623,-0.22378683581501244
1761505731899210200,2.550210205078125,2.967806434509158,-0.969053779535368,0.11001571440212428
1761505731909246200,2.56024609375,4.253887278288603,-1.2521896800935268,0.1380455117739737
1761505731919282200,2.5702822265625,5.160069225782156,-1.2288760245233774,0.051756271526589986
1761505731929318400,2.580318359375,5.513029846259951,-1.2141603936895728,0.2504655839040875
1761505731939355400,2.59035546875,5.500687082037329,-1.3823499915756285,0.7919386054590344
1761505731949391400,2.600391357421875,5.146159942895173,-1.5515999121695756,1.2970673710875213
1761505731959427300,2.61042724609375,4.8354631776511665,-1.6567067386768757,1.4393486207351087
1761505731969463300,2.62046337890625,5.108893165296315,-1.4858647265858946,1.2327274392545222
1761505731979499300,2.630499267578125,5.528612615317106,-1.0577845677159725,0.9483119472146033
1761505731989535200,2.64053515625,6.068091248184442,-0.7000218076534569,0.6778466545939446
1761505731999571200,2.6505712890625,7.002834104251861,-0.4470555660400539,0.4711491930067539
1761505732009607400,2.660607421875,7.856051938799023,-0.2776760277170688,0.5087701908707618
1761505732019643400,2.670643310546875,8.081065978321433,-0.31149872927665706,0.8112490167371929
1761505732029680000,2.68068017578125,8.20518920159638,-0.3993934319593012,1.205331263611093
1761505732039716400,2.69071630859375,8.64654063771069,-0.433868898339197,1.319191378481686
1761505732049752300,2.70075244140625,8.767053853794932,-0.40307423936389386,1.1723041694086045
1761505732059788300,2.710788330078125,8.549879421856998,-0.3666575757883489,0.959721960631758
1761505732069824300,2.72082421875,8.330718784537911,-0.4366379246611148,0.8179300288710742
1761505732079860200,2.730860107421875,7.955138920494914,-0.5417670360654592,0.7762528144188224
1761505732089896200,2.740896240234375,7.595733946183324,-0.6263686154868453,0.7185673720389604
1761505732099932400,2.750932373046875,7.363501645845174,-0.597761821944639,0.7352582484684884
1761505732109968400,2.760968505859375,6.5429913181573145,-0.4286125121809542,0.9348612217500806
1761505732120005400,2.77100537109375,5.7961897852808235,-0.3655746759224683,1.196078135966882
1761505732130041300,2.781041259765625,4.90145920612812,-0.3535084636189043,1.3826573039591312
1761505732140077300,2.791077392578125,3.4761353113532065,-0.2255829985167831,1.5532707679912447
1761505732150113300,2.80111328125,2.2977964648902414,-0.013309125036746262,1.6364843271203338
1761505732160149200,2.811149169921875,1.4290186576396227,0.2597088477414101,1.2020564066588877
1761505732170185200,2.821185302734375,-0.027332243561744688,0.4939293262220919,0.3123103379204869
1761505732180221400,2.831221435546875,-1.4582301390767096,0.5526460113458335,-0.5692470175348222
1761505732190257400,2.84125732421875,-2.9710113680303096,0.4788894318699836,-0.8310558332301676
1761505732200293400,2.85129345703125,-5.875229419726133,0.39171661372110245,-0.8424936114370822
1761505732210330400,2.861330322265625,-8.618149240484833,0.2816382824115455,-0.5548126878604293
1761505732220366300,2.871366455078125,-11.080005217719078,0.24911431542560455,-0.24820553001761436
1761505732230402300,2.88140234375,-12.435783867102861,0.2601693779252469,-0.3793072870682925
1761505732240438300,2.891438232421875,-12.63970368067026,0.4901553606413305,-1.0231000616952777
1761505732250474200,2.90147412109375,-12.334698989588022,0.9303038507066667,-1.7496907273225486
1761505732260510200,2.91151025390625,-12.321147434097528,1.2005682139277458,-2.1358754258796573
1761505732270546200,2.921546142578125,-12.36407355263233,1.2207714823924005,-2.035351689378917
1761505732280582400,2.93158251953125,-12.283186244493722,1.3133392914526163,-1.747414599084109
1761505732290618400,2.941618408203125,-12.084652215617895,1.5634955171465872,-1.6331183578185735
1761505732300655400,2.9516552734375,-11.600009919309615,1.6762474515795707,-1.514641323737055
1761505732310691300,2.96169140625,-10.851047993528843,1.4432858140535652,-1.3247089728593826
1761505732320727300,2.971727294921875,-9.677726098445058,0.9973394513644277,-1.0917607062716037
1761505732330763300,2.98176318359375,-8.074771262091398,0.614907383339107,-0.8530433547630906
1761505732340799200,2.99179931640625,-6.284134045743942,0.3786806065373122,-0.5828744147405028
1761505732350835200,3.001835205078125,-4.414565916022658,0.1899579237103462,-0.2449566112242639
1761505732360871400,3.011871337890625,-2.621045837715268,-0.02103650441840291,0.09643361764289438
1761505732370907400,3.021907470703125,-0.8925134876251221,-0.15399667575210332,0.3339319487504661
1761505732380943400,3.031943359375,0.5212333666026592,-0.33201573986560107,0.6077709555879235
1761505732390979300,3.041979248046875,1.3587217170983552,-0.7710874675448983,0.7653666056800633
1761505732401016300,3.052016357421875,2.0374486616581677,-1.2266603943005203,0.45230508406609293
1761505732411052300,3.06205224609375,2.775345588067174,-1.4349445405572652,-0.037886005475744604
1761505732421088300,3.072088134765625,3.5563095027863976,-1.4541168585389852,-0.40802448218241333
1761505732431124200,3.082124267578125,4.147221970292925,-1.4312100302040576,-0.32737171345204114
1761505732441160200,3.09216015625,4.519379458671808,-1.4817875402748584,0.21246727716028688
1761505732451196400,3.102196533203125,4.831614685529471,-1.4627660289406776,0.7170338788613677
1761505732461232400,3.112232421875,5.213423214828968,-1.3920339118525384,0.9899249373242258
1761505732471268400,3.122268310546875,5.765501801550388,-1.3213086628966033,1.1113869785659014
1761505732481304300,3.13230419921875,6.328782165765762,-1.2989140218675135,0.935994317433238
1761505732491340300,3.14234033203125,6.911748058182001,-1.1449212916381657,0.6435591850668192
1761505732501377300,3.152377197265625,7.378977447396516,-1.0003639137521385,0.5978897591732442
1761505732511413200,3.162413330078125,7.919232325333357,-0.9073973146326839,0.7294409404918551
1761505732521449200,3.17244921875,8.452164313036203,-0.7367307321738451,0.8041201877705753
1761505732531485400,3.1824853515625,8.887821336901187,-0.47550768047720193,0.8240574987754226
1761505732541521400,3.192521484375,9.103059247818589,-0.26403350600749254,0.8307496898904442
1761505732551557400,3.202557373046875,9.14897285773158,-0.12662351565808058,0.7961207134492695
1761505732561593300,3.21259326171875,9.137968064114451,-0.12896795989237725,0.873845758164674
1761505732571629300,3.22262939453125,8.639181507119536,-0.26628040815144777,1.1855862603079528
1761505732581665300,3.232665283203125,7.991573923444747,-0.3926972222562879,1.4787559174939988
1761505732591702300,3.242702392578125,7.298321609926223,-0.4937458594139665,1.6911211955845356
1761505732601738200,3.25273828125,6.35228520642817,-0.5358939062483609,1.7363398089706896
1761505732611774200,3.262774169921875,5.423090632137656,-0.6580483867336064,1.4964284984372556
1761505732621810200,3.27281005859375,4.7055713078469035,-0.7738968258772045,1.0185124416440725
1761505732631846400,3.282846435546875,3.953851607790589,-0.741428826862201,0.5423807840496301
1761505732641882400,3.29288232421875,2.701575418457389,-0.6503731028653681,0.17660101400911807
1761505732651918300,3.30291845703125,1.303778997555375,-0.5316016158819198,0.025257044722884894
1761505732661954300,3.312954345703125,0.07655833902359008,-0.5005504979275167,0.269268630181998
1761505732671990300,3.322990234375,-1.3075117543429136,-0.4635926401473581,0.15873407953754065
1761505732682026500,3.333026611328125,-2.1119787097245455,-0.28914588156268,-0.4142655685290694
1761505732692063200,3.343063232421875,-2.703732888752222,-0.06399550230950117,-0.9212696995753794
1761505732702099200,3.35309912109375,-3.8667806425809856,0.056241965573281046,-1.2855173646777867
1761505732712135400,3.363135498046875,-6.292270590448379,-0.12674217360168694,-1.2568157324589788
1761505732722171400,3.37317138671875,-9.430546988865732,-0.34305209766477346,-0.768169534271583
1761505732732207400,3.383207275390625,-11.53735618699789,-0.1599623061582446,-0.4530791371785104
1761505732742243300,3.393243408203125,-12.330613181579112,0.6029182548597455,-0.5922445198278874
1761505732752279300,3.403279296875,-12.052571316224336,1.4229678331680595,-1.2264549348562954
1761505732762315300,3.413315185546875,-11.383439883005618,1.7952905951112508,-1.9986111276112495
1761505732772351200,3.423351318359375,-11.038957752537726,1.7031244987197218,-2.3789978074140845
1761505732782387200,3.43338720703125,-11.174954953479766,1.5361431075796483,-2.2294312230639157
1761505732792424200,3.443424072265625,-11.678211933887004,1.5318332815565168,-1.7241458055689929
1761505732802460400,3.45346044921875,-12.046140406394004,1.4568779938153922,-1.1894698968082666
1761505732812496400,3.463496337890625,-11.676348478102684,1.2405489266604184,-0.8530148593209683
1761505732822532400,3.473532470703125,-10.507767640066147,0.9634234454981982,-0.8266640280120074
1761505732832568300,3.483568359375,-8.65498814806044,0.5157410527966916,-1.0368245625998824
1761505732842604300,3.493604248046875,-6.477680933856964,-0.03647387365549803,-1.2409008088380098
1761505732852640500,3.503640625,-4.6630286356717345,-0.49785190649330613,-1.1062689048998058
1761505732862676500,3.513676513671875,-2.858411993810534,-0.8786242246128618,-0.6665307492010295
1761505732872712400,3.52371240234375,-1.1789958490669727,-1.0589946741580962,-0.2772372709736228
1761505732882748400,3.53374853515625,0.23668927974700926,-1.0280302115738391,-0.21658348030745983
1761505732892784400,3.543784423828125,1.7082926951378583,-0.9943421692445874,-0.4829295010410249
1761505732902821600,3.553821533203125,3.0573744772315026,-1.0122671175137161,-0.5972788607332855
1761505732912857600,3.563857666015625,4.0313066033929585,-1.119013820182532,-0.2303293893262744
1761505732922893600,3.5738935546875,4.318666332191229,-1.1491948773041367,0.40603973810598254
1761505732932929500,3.583929443359375,4.159515634676814,-1.1819618592657148,1.0395410550169646
1761505732942965500,3.593965576171875,4.145555498385429,-1.2500322097986936,1.397472449644655
1761505732953001500,3.60400146484375,4.522168212607503,-1.2998494030214844,1.3495539296500385
1761505732963037400,3.614037353515625,5.016964238661528,-1.3786175270490348,1.2697288439154624
1761505732973073400,3.624073486328125,5.404857056310773,-1.394057672765106,1.0839365154519676
1761505732983109400,3.634109375,6.042994216328859,-1.24240156878978,0.8773948289483785
1761505732993145300,3.644145263671875,7.039729710450768,-0.9395900769028812,0.8839045761685818
1761505733003182300,3.654182373046875,7.99360162988007,-0.6687535398170351,1.107181928091496
1761505733013218300,3.66421826171875,8.475431791377067,-0.5668211786273867,1.2452198410809039
1761505733023254300,3.674254150390625,8.612471194848418,-0.6135393098562956,1.0994066909801214
1761505733033290500,3.68429052734375,8.538549049547314,-0.5338317130215465,0.9239950328860431
1761505733043326500,3.694326416015625,8.340036647981405,-0.3198081463299691,0.790693939160183
1761505733053362400,3.704362548828125,8.21689834409058,-0.1418605400174856,0.7149059269219636
1761505733063398400,3.7143984375,8.143245078858733,-0.05910933770313859,0.7458149329919368
1761505733073434400,3.724434326171875,8.165365140730142,-0.03290726721510291,0.8006259159140289
1761505733083470300,3.73447021484375,8.25761204727292,0.055857642430812114,0.8016195300612599
1761505733093506300,3.74450634765625,8.326241931384802,0.08619958920255302,0.7781931348316371
1761505733103543600,3.75454345703125,8.062286459049583,0.053636897641420364,0.7690651679370551
1761505733113579500,3.76457958984375,7.40071581647396,-0.022445202172547578,0.7135616727061569
1761505733123615500,3.774615478515625,6.633145636335015,-0.14992358109429477,0.8542902130190283
1761505733133651500,3.7846513671875,5.9659425408303735,-0.14774755222946404,0.8879133734185248
1761505733143687400,3.7946875,4.923885557469725,0.08152458312883973,0.7839386196810751
1761505733153723400,3.804723388671875,3.6648978877991434,0.29203970330804585,0.6340875923663377
1761505733163759400,3.81475927734375,2.230446683716774,0.38333427756205196,0.19143669102601707
1761505733173795600,3.824795654296875,0.3141904525786638,0.2941336068473756,-0.416814814620465
1761505733183831600,3.83483154296875,-1.5790397077590226,0.09195040781423448,-0.8124518166556954
1761505733193867500,3.844867431640625,-3.4256419724345206,0.027553046705573795,-1.1510244308188557
1761505733203903500,3.854903564453125,-5.627601397335529,-0.12922200771868228,-1.2282377266198397
1761505733213940500,3.8649404296875,-8.433340370100737,-0.6519573033168912,-0.7984606276389211
1761505733223976400,3.8749765625,-11.687587664997578,-1.0024914273001253,-0.3693547059178352
1761505733234012400,3.885012451171875,-13.818347647559643,-1.0246991674549877,-0.2898328409135342
1761505733244048400,3.89504833984375,-14.724317998129129,-0.36432372601330276,-0.8126181131333112
1761505733254084400,3.90508447265625,-14.514312142646311,0.6766735191613436,-1.5488153960175812
1761505733264120300,3.915120361328125,-13.537138842606543,1.274244860035181,-2.15606773455888
1761505733274156300,3.92515625,-12.144634682893752,1.3397817465677857,-2.502553898325562
1761505733284192300,3.935192138671875,-11.215476348960399,1.350653853715956,-2.6032015534669157
1761505733294228500,3.945228515625,-10.474745660430193,1.174761572498083,-2.436991438960284
1761505733304264400,3.955264404296875,-9.785819393417238,0.8462374741405249,-2.161273194247484
1761505733314300400,3.965300537109375,-9.139991678896546,0.6704257108129561,-2.080266497512907
1761505733324337400,3.97533740234375,-8.571949214845896,0.5998438158504664,-2.0250617660328745
1761505733334373400,3.985373291015625,-8.072672243985533,0.5883731582872569,-1.9161290976271033
1761505733344409300,3.995409423828125,-7.4788009266734115,0.6174822022631764,-1.7109325421221553
1761505733354445600,4.005445556640625,-6.6584934280812735,0.47238253419399256,-1.2605628100328146
1761505733364479500,4.0154794921875,-5.322607227647304,0.193124132656306,-0.8917016597855836
1761505733374516500,4.0255166015625,-3.7548657434940336,-0.1541308235257864,-0.6119721336048096
1761505733384552400,4.035552490234375,-2.0814427016854284,-0.3898160407967865,-0.33937837758809325
1761505733394588400,4.04558837890625,-0.39979543688893315,-0.44747021125555037,-0.04591397523917257
1761505733404624400,4.055624267578125,1.0378671304553746,-0.47016456588357686,0.2485056089427322
1761505733414660400,4.065660400390625,2.2310423115223643,-0.5991665011107922,0.568138617901504
1761505733424696300,4.0756962890625,3.257383839356899,-0.7578769075118005,0.9092796212479471
1761505733434732500,4.085732666015625,4.2420840277701615,-0.8500583476029336,0.9351097896836698
1761505733444768500,4.0957685546875,5.307185202109814,-0.8204097899228334,0.6636466451320797
1761505733454804500,4.105804443359375,6.352319108697771,-0.7963038149312138,0.37630649781711395
1761505733464840400,4.11584033203125,7.345806414678693,-0.790748665022105,0.15926124521680177
1761505733474876400,4.12587646484375,7.99774238294661,-0.8448797759212553,0.08747209335640073
1761505733484912400,4.135912353515625,8.163862334951759,-0.9565940378695725,0.17128924440182744
1761505733494949400,4.145949462890625,8.243788104581832,-0.9497213756211101,0.24049261755272744
1761505733504985300,4.1559853515625,8.069075680798292,-0.7857739453494549,0.22137685206383464
1761505733515021300,4.166021240234375,7.783427432093024,-0.6303406609229744,0.28174218117743727
1761505733525057500,4.1760576171875,7.465363937473296,-0.5679105082340539,0.32090536698214706
1761505733535093500,4.186093505859375,7.334059862783551,-0.5679189838014542,0.3930744580708444
1761505733545129500,4.19612939453125,7.253218731874227,-0.44314226505383847,0.5316968198847025
1761505733555165400,4.20616552734375,7.057980821934342,-0.1805978285603225,0.6762386348754167
1761505733565201400,4.216201416015625,6.780628692409396,-0.048963352872431275,0.9609674306482076
1761505733575237600,4.226237548828125,6.723819594472646,0.02646159820705652,1.0589144485287367
1761505733585273600,4.236273681640625,6.617829409259557,0.08346651097685098,1.0089436721794307
1761505733595309600,4.2463095703125,6.314096053287386,0.14285700370892881,1.0932979988414793
1761505733605346600,4.2563466796875,6.171527657261491,0.25814488636031746,1.345697108091414
1761505733615382500,4.266382568359375,5.802225558313727,0.3735745155699551,1.667690343375504
1761505733625418500,4.27641845703125,5.157124404501915,0.3458445048622787,1.8025265377141535
1761505733635454500,4.286454345703125,4.2119302970469,0.3208420194223523,1.6911878310799597
1761505733645490400,4.296490478515625,2.7519945230960845,0.3201142896696925,1.2048312051344663
1761505733655526400,4.3065263671875,1.2226508663982152,0.21301731225848197,0.6426003499720245
1761505733665562400,4.316562255859375,-0.6353408072978258,0.03841623989492655,0.3621541268892586
1761505733675598300,4.326598388671875,-2.323012154689431,-0.06939838426634669,0.3619195874810219
1761505733685634300,4.33663427734375,-3.3192999050438403,0.21308409388437866,0.24899858009144663
1761505733695670300,4.346670166015625,-3.9165322232216595,0.9204507113426923,-0.09463073293939232
1761505733705706200,4.356706298828125,-4.587556338319182,1.397249308413267,-0.2861125782813877
1761505733715743500,4.366743408203125,-5.31797080001831,1.4158146004125476,-0.4488098623614758
1761505733725779500,4.376779541015625,-6.2903744014382355,0.841719996716082,-0.44866628917232154
1761505733735815400,4.3868154296875,-8.208906176292896,0.1022260103739798,-0.3346288449734449
1761505733745851400,4.396851318359375,-10.38155767364502,-0.2439616088375449,-0.4731691545270383
1761505733755887600,4.4068876953125,-12.287045258009433,-0.007587094128131866,-0.9568937514685094
1761505733765923600,4.416923583984375,-12.361518022930621,0.42405835600793357,-1.8841925751402973
1761505733775959600,4.42695947265625,-11.607229933691023,0.770931034874171,-2.8564833638355136
1761505733785995500,4.43699560546875,-11.233407142448424,0.9396581006377935,-3.3073782888427377
1761505733796031500,4.447031494140625,-10.960348910725116,0.7056145130939782,-3.1558775215595958
1761505733806067500,4.4570673828125,-11.318976470923424,0.1367797296218574,-2.463609835164249
1761505733816103400,4.467103515625,-11.632426334267855,-0.6843111744329333,-1.4275658284828066
1761505733826139400,4.477139404296875,-10.696042140734194,-1.0966760239072144,-0.7791196020267903
1761505733836176400,4.48717626953125,-8.860105646979807,-0.9151521665431559,-0.8646331086613237
1761505733846211300,4.49721142578125,-6.259988031002878,-0.44885567426458,-1.0676628415212035
1761505733856247600,4.50724755859375,-3.2007471753776073,-0.10466273600161075,-0.788604127274081
1761505733866283500,4.517283447265625,-0.259700152978301,-0.08218319316804408,-0.08160320132300257
1761505733876319500,4.527319580078125,1.874534227696061,-0.16719401097744702,0.5715961379442364
1761505733886355500,4.53735546875,3.1943963450461625,-0.27176395412907,0.9464619354337453
1761505733896391400,4.547391357421875,4.062527671086788,-0.38796851323395964,1.061237923040241
1761505733906427400,4.557427490234375,4.337887165489793,-0.5282112427912652,1.0642344745077192
1761505733916463400,4.56746337890625,4.350245711803436,-0.672470806774497,1.092108789056912
1761505733926499300,4.577499267578125,4.711241170176863,-0.7248157649092376,0.964649187900871
1761505733936537600,4.58753759765625,5.1993520193785425,-0.629888971632719,0.6904615137562156
1761505733946573600,4.597573486328125,5.651636352917552,-0.5478852266848087,0.5888013205714523
1761505733956609500,4.607609619140625,6.073437869909405,-0.5381807020112872,0.7253960490152239
1761505733966645500,4.6176455078125,6.547582737600803,-0.5253673976674675,0.8329313447784632
1761505733976681500,4.627681396484375,6.902432532826065,-0.4360635588392615,0.7739736174404621
1761505733986717400,4.637717529296875,7.139511688673496,-0.36435718989148735,0.634713249984011
1761505733996754400,4.64775439453125,7.402202255639433,-0.3122467711649835,0.4134554211899638
1761505734006790400,4.657790283203125,7.624038249647617,-0.32542905495166774,0.16735811549797652
1761505734016826400,4.667826416015625,7.747703207761049,-0.3383032957024872,0.07735591914206742
1761505734026862300,4.6778623046875,7.518333311116695,-0.328161840916425,0.11424304977357387
1761505734036898300,4.687898193359375,7.312215695244073,-0.31555268084257837,0.22633812773302195
1761505734046934300,4.697934326171875,7.176174070638417,-0.24592531012594698,0.4758844048351049
1761505734056970200,4.70797021484375,6.8138996783703565,-0.10797112989723681,0.7462332314692437
1761505734067006500,4.71800634765625,6.5878960432887075,0.020582769301533698,0.8235487455356866
1761505734077042400,4.72804248046875,6.328624344855546,0.09025412529036402,0.6595483429677784
1761505734087078400,4.738078369140625,6.269280760005116,0.09972323377281427,0.4560913246065378
1761505734097114400,4.7481142578125,6.329010713824629,0.06577887859493493,0.5531804104834794
1761505734107150600,4.758150634765625,5.895158693554997,0.12725406864657998,0.7727131690505892
1761505734117187600,4.7681875,5.416621143862605,0.230210731382668,0.8388997516635804
1761505734127223600,4.7782236328125,5.038710791045427,0.26479776837825775,0.6223861947871744
1761505734137259500,4.788259521484375,4.106992835757136,0.11510185855999588,0.18539448825232682
1761505734147295500,4.79829541015625,2.5857407155781984,-0.16213994245827196,-0.34873021636642515
1761505734157331500,4.80833154296875,0.7198164953172207,-0.3106615478001535,-0.7737309677910059
1761505734167367400,4.818367431640625,-1.1568828014582395,-0.12413710566982626,-0.9341409446515142
1761505734177403400,4.8284033203125,-2.6673522463381287,0.1769474893592298,-0.6203032510332763
1761505734187439400,4.838439453125,-3.9612195062100883,0.4159750027954578,-0.33699791219234465
1761505734197475300,4.848475341796875,-5.29779193534255,0.48067894563525915,-0.1956191643424332
1761505734207511600,4.858511474609375,-7.077677456051111,0.41803018175959583,-0.24435163106843827
1761505734217548300,4.86854833984375,-9.109159318259358,0.49305824247598645,-0.5571401078946888
1761505734227584300,4.878584228515625,-10.132928949779272,0.626715748424083,-0.9245647225327789
1761505734237620500,4.888620361328125,-10.033301869857311,0.7123335922159254,-1.6049989094018935
1761505734247656400,4.898656494140625,-9.573542670392989,0.8051718887805939,-2.3546121386982497
1761505734257692400,4.9086923828125,-8.785721729385852,0.7524372006759047,-2.5649513177886605
1761505734267728400,4.918728271484375,-8.34103384232521,0.82875749315992,-2.6379431965023277
1761505734277764600,4.9287646484375,-7.670492542308568,1.000731431890279,-2.6981588880121707
1761505734287800600,4.938800537109375,-7.617854592576623,0.8829641535133123,-2.4587124185115097
1761505734297836500,4.94883642578125,-8.767275972113012,0.1849602615535259,-1.7285982549332082
1761505734307872500,4.95887255859375,-10.014608859825133,-0.7685350796483457,-0.5514749217398465
1761505734317908500,4.968908447265625,-10.781695640361308,-0.9068827892392873,-0.06932751098722219
1761505734327944400,4.9789443359375,-10.622363156539201,-0.1513280410647392,-0.39140784003287554
1761505734337981400,4.9889814453125,-9.14319193624258,0.366353332144767,-0.7060811076924205
1761505734348017400,4.999017333984375,-6.787960934993624,0.111138507886976,-0.8058885126173496
1761505734358053400,5.009053466796875,-4.546104383990168,-0.49772769559174773,-0.8841834661751985
1761505734368089300,5.01908935546875,-2.8654817860662933,-1.2056149759232997,-0.9357210534498095
1761505734378125300,5.029125244140625,-1.2421616225540637,-1.972008075106889,-0.8224896649368106
1761505734388161500,5.03916162109375,0.054824646121263504,-2.4238109087392687,-0.6016724925823509
1761505734398197500,5.049197509765625,1.1351403407275675,-2.4790301071360705,-0.37788945615962144
1761505734408233500,5.0592333984375,1.8075462655723094,-2.3505463505640622,-0.08571896607875823
1761505734418269400,5.06926953125,2.01400115057528,-2.216873500916362,0.29663755249232054
1761505734428305400,5.079305419921875,2.2504759107887744,-2.1864643341273067,0.7713996752992271
1761505734438341400,5.08934130859375,2.555718502280116,-2.2081866288527845,1.2459522470086812
1761505734448378400,5.09937841796875,2.9045570743918416,-2.1755787829756734,1.56430186509341
1761505734458414600,5.10941455078125,3.4054069936573503,-2.032302238680422,1.6366852565199135
1761505734468450600,5.119450439453125,4.147452856439352,-1.8533932399898767,1.4987958120904863
1761505734478486500,5.129486572265625,5.097838687318563,-1.73196130162552,1.2810266291297971
1761505734488522500,5.1395224609375,6.0103059986919165,-1.6744791267327963,1.1175801341176033
1761505734498558500,5.149558349609375,6.629229924196005,-1.7316957825571297,1.1708476139247417
1761505734508594400,5.159594482421875,7.0281000629335635,-1.82876908634305,1.34492086302191
1761505734518630400,5.16963037109375,7.102704345279932,-1.8811077608674764,1.3687538662910461
1761505734528666600,5.17966650390625,7.001140744337439,-1.8217513165354728,1.2013104836624116
1761505734538702600,5.18970263671875,6.9541457689285275,-1.5934570862986146,1.000791710710153
1761505734548738600,5.199738525390625,6.72640493479073,-1.2732166860312222,0.835334387332201
1761505734558775600,5.209775634765625,6.609990970718861,-0.8960187192671001,0.6587377572372556
1761505734568811500,5.2198115234375,6.782903651604056,-0.6144023564264178,0.6390010833710432
1761505734578847500,5.229847412109375,6.7516673863410945,-0.5699385799955576,0.9396206181716174
1761505734588883500,5.239883544921875,6.554705721348523,-0.6491346471115946,1.3331035839781165
1761505734598919400,5.24991943359375,6.029170858159661,-0.6998992041870952,1.55825907779783
1761505734608955400,5.259955322265625,5.1041737355589865,-0.6356288304589688,1.5530191313177346
1761505734618991400,5.269991455078125,4.136849044838548,-0.42560017862245436,1.3466121771097181
1761505734629027300,5.28002734375,3.2878573035538197,-0.14877616462484,1.0409130009572953
1761505734639063300,5.290063232421875,2.563510179069638,-0.0029772622451186177,0.6556621491841972
1761505734649099300,5.300099365234375,1.6380635591357946,0.11620470523536204,0.2621713653974235
1761505734659135200,5.31013525390625,0.6015677170336247,0.2662751474544406,-0.09369447500258683
1761505734669172500,5.32017236328125,-0.7916852152198552,0.3757172266870737,-0.2840573262520134
1761505734679208400,5.33020849609375,-1.9078069672226905,0.4905883452311158,-0.3908298940144479
1761505734689244400,5.340244384765625,-2.548918174615502,0.6633736003443599,-0.5764186261972412
1761505734699280400,5.3502802734375,-3.7420086000084876,0.7403001881584524,-0.7474651844169944
1761505734709316600,5.360316650390625,-4.874014734363556,0.5855401268184185,-0.9407608011826872
1761505734719352600,5.3703525390625,-5.869134609982371,0.3211570767208934,-1.1163500078007578
1761505734729388500,5.380388427734375,-6.7572893178761,0.24756138689517973,-1.2919184638917445
1761505734739424500,5.390424560546875,-7.471936886122823,0.3903314429730177,-1.326761521475017
1761505734749460500,5.40046044921875,-7.84684454999268,0.4153407965451479,-1.1541148711148648
1761505734759496400,5.410496337890625,-8.395498422962426,0.3826815127417445,-1.1564494515422732
1761505734769532400,5.420532470703125,-9.005879561048745,0.479711269646883,-1.0623792750950902
1761505734779569400,5.4305693359375,-9.770161221036314,0.6579544979050755,-0.9184566879812628
1761505734789605400,5.44060546875,-10.417468360459804,0.8002025759354233,-0.92623901242055
1761505734799641300,5.450641357421875,-10.792774668258428,0.6401593134954572,-0.8470285514529794
1761505734809677300,5.46067724609375,-10.844645140749215,0.14323007480502128,-0.6635885582692921
1761505734819713300,5.47071337890625,-10.456014071953296,-0.2699628960564732,-0.506731378519535
1761505734829749200,5.480749267578125,-9.380817620056867,-0.2056834622390568,-0.7338993812054395
1761505734839786000,5.490785888671875,-7.844690586829185,0.07025076331198216,-1.092369412754476
1761505734849822000,5.500822021484375,-6.008866905799508,0.12983955509513614,-1.262831193356216
1761505734859858000,5.51085791015625,-4.20454427844882,-0.11101473537683486,-1.1359903086204082
1761505734869894100,5.52089404296875,-2.6325316928476092,-0.4350685564525425,-0.8178509722854942
1761505734879930000,5.53093017578125,-1.1747218250095843,-0.8426260056450963,-0.47253224486298856
1761505734889966000,5.540966064453125,-0.08296995963156223,-1.157254849641025,-0.2708378522600978
1761505734900003000,5.551003173828125,0.6640794105261564,-1.2606401130527256,-0.16236242610253393
1761505734910039000,5.5610390625,1.4253034365087747,-1.2912100233614443,0.10010236928351222
1761505734920075000,5.571074951171875,2.2191847004681824,-1.2564721797183156,0.34948169232085347
1761505734930111000,5.581111083984375,2.897131892827153,-1.1726295289054511,0.49895650673434133
1761505734940147000,5.59114697265625,3.6299405561864373,-1.0656976789280772,0.5854527407959104
1761505734950183000,5.601182861328125,4.447485604327917,-0.9379273313224316,0.6000132541332394
1761505734960219000,5.611218994140625,5.24555262953937,-0.8500923960030078,0.737442533705011
1761505734970254800,5.6212548828125,6.020861294975877,-0.7946898038633168,0.9183636759355663
1761505734980290800,5.631290771484375,6.6403370091438285,-0.7428617092095315,1.0292163526184857
1761505734990326800,5.641326904296875,7.0492094864577055,-0.6753752960443496,0.976308572969213
1761505735000362800,5.65136279296875,7.447102304595709,-0.5617836959168314,0.8148813088249415
1761505735010400000,5.66139990234375,7.738246812629699,-0.47840325578823684,0.7479541369777173
1761505735020436000,5.67143603515625,7.870228932711481,-0.43451194548308847,0.6581555003698915
1761505735030472000,5.681471923828125,8.001519563397764,-0.40239699768945575,0.5104478417593985
1761505735040508000,5.6915078125,7.947757578071951,-0.39393560494482516,0.4591474242415279
1761505735050544000,5.701544189453125,7.476455824851989,-0.3935699865028262,0.39522096858024597
1761505735060580000,5.711580078125,7.027332001170516,-0.41131694785654543,0.3263412013605237
1761505735070616000,5.721615966796875,6.551216125667095,-0.4453757231943309,0.46362555603627115
1761505735080652000,5.731652099609375,5.939916703692078,-0.3771493053168058,0.7102355239581316
1761505735090688000,5.74168798828125,5.388908961072564,-0.25444471666812896,1.0108085892684757
1761505735100724000,5.751723876953125,4.9144390992105,-0.08317600359767675,1.0444355490602553
1761505735110760000,5.761760009765625,4.5922810287535185,0.1634992481127381,0.755102766623348
1761505735120796000,5.7717958984375,3.9837311977475878,0.3459346673637628,0.5918781707335263
1761505735130833000,5.7818330078125,3.237523539111018,0.4028727985076606,0.34426446912921965
1761505735140868900,5.791868896484375,2.917794741627574,0.3428546753965318,-0.03264092616280541
1761505735150904800,5.80190478515625,2.1195096897512675,0.2617461257226765,-0.19618956637522206
1761505735160940800,5.81194091796875,0.8083107713282108,0.19622502128109334,-0.495989035230875
1761505735170976800,5.821976806640625,-0.3080442049086094,0.29170944844037294,-0.9058122373983264
1761505735181013000,5.832012939453125,-0.974126187428832,0.5405500614911317,-1.3650902292169629
1761505735191049000,5.842049072265625,-1.6754752981632948,0.8546239019528031,-1.7272124996632336
1761505735201085000,5.8520849609375,-2.6798031471103427,0.9634367433711886,-1.4949109334811568
1761505735211121000,5.862120849609375,-3.970232833749056,0.614411416515708,-0.7171094283156096
1761505735221156900,5.872156982421875,-5.1456479017198085,0.1281906188443303,-0.03768047296628356
1761505735231192800,5.88219287109375,-6.236222540012002,-0.22317864078879354,0.4029546315722167
1761505735241229000,5.89222900390625,-7.426057763001323,-0.2751972895786166,0.46615445345938206
1761505735251266000,5.90226611328125,-8.22963858319819,0.07418167302012443,0.19456552710365502
1761505735261302000,5.912302001953125,-8.869548598107695,0.44604631593227384,-0.4582496716842055
1761505735271338000,5.922337890625,-9.385981870952248,0.769941585445404,-1.2295213366895914
1761505735281374000,5.9323740234375,-9.707277187100052,0.798739225384593,-1.6201522010006009
1761505735291410000,5.942409912109375,-9.233419319656491,0.5761258172631264,-1.7346606237120925
1761505735301446000,5.95244580078125,-8.6192165774554,0.17792875548154113,-1.3868776981331408
1761505735311481900,5.96248193359375,-8.212681018656491,-0.5457447075247764,-0.3163756876632571
1761505735321517800,5.972517822265625,-7.907872142407298,-1.2904019218489526,0.726424369149655
1761505735331554000,5.982553955078125,-7.6223425516456365,-1.4151003146633505,0.9976260132208465
1761505735341590000,5.992590087890625,-7.376711840552091,-0.9078209468722342,0.39963089397698637
1761505735351626000,6.0026259765625,-6.971047803890705,-0.08733779945224523,-0.7838885699942707
1761505735361662000,6.012661865234375,-5.608105254226922,0.5404166443698107,-1.522437822832167
1761505735371698000,6.022697998046875,-4.267964903479815,0.6978807039715349,-1.6098223840355872
1761505735381735000,6.03273486328125,-2.856142879834771,0.4381149384111166,-1.4743386855736373
1761505735391771000,6.04277099609375,-1.2205582780331372,-0.10850991294905543,-1.2873621157616375
1761505735401806800,6.052806884765625,0.00019639935493469238,-0.8336258298486471,-1.0365209765434265
1761505735411842800,6.0628427734375,0.8534440445184707,-1.571983651767671,-0.5449196548774838
1761505735421879000,6.072879150390625,1.216140461590886,-2.214667661435157,0.5070242970515042
1761505735431915000,6.0829150390625,1.3849480452448129,-2.3692798387371004,1.349801913061738
1761505735441951000,6.092950927734375,1.6990701087623834,-1.9527046780914068,1.6118264173343777
1761505735451987000,6.102987060546875,2.041743728503585,-1.378785723222792,1.586983944761753
1761505735462023000,6.11302294921875,2.6688287486314772,-0.9661781510338187,1.5600241877742111
1761505735472059100,6.12305908203125,3.591563186997175,-0.8224486022740602,1.304129710689187
1761505735482095000,6.13309521484375,4.521103213724493,-0.7471693432755768,0.9205439425840973
1761505735492131000,6.143131103515625,5.1290474800527095,-0.7369529966223984,0.6430120725780725
1761505735502167000,6.1531669921875,5.922127949023246,-0.7238408554624766,0.3109265919445082
1761505735512204000,6.1632041015625,6.854679432526231,-0.7107232344098389,-0.15848434256017208
1761505735522240000,6.173239990234375,6.8896940472841255,-0.9450793950341642,-0.47578401320055125
1761505735532276000,6.18327587890625,6.745317140531539,-1.1941728138022123,-0.14947865033838897
1761505735542312000,6.19331201171875,6.6901330134481185,-1.3726276389844714,0.2747705885991454
1761505735552348000,6.203347900390625,6.863219297334552,-1.7265839925013482,0.43712508712355047
1761505735562384000,6.2133837890625,7.182702595624328,-1.8720516171000896,0.49060357933286575
1761505735572419800,6.223419921875,7.346190445560216,-1.448573691328615,0.1799550006121397
1761505735582455800,6.233455810546875,7.169831423613429,-0.5192877854928374,-0.283948714778386
