time,seconds_elapsed,z,y,x
1761505729450398500,0.1013984375,-0.1252266764640808,-0.029187969863414764,0.07253099977970123
1761505729460435500,0.111435546875,-0.15411345660686493,0.0012274602195248008,0.016318591311573982
1761505729470471400,0.121471435546875,-0.181166872382164,0.014318425208330154,-0.03577319532632828
1761505729480507400,0.13150732421875,-0.1830691695213318,0.012851554900407791,-0.08592957258224487
1761505729490543400,0.14154345703125,-0.1591574102640152,-0.006377682089805603,-0.11730847507715225
1761505729500579300,0.151579345703125,-0.1238473579287529,-0.023477572947740555,-0.11569806188344955
1761505729510615300,0.161615234375,-0.10270920395851135,-0.07065897434949875,-0.046333327889442444
1761505729520651300,0.1716513671875,-0.09130048751831055,-0.06225084513425827,0.10665009170770645
1761505729530687200,0.181687255859375,-0.07867541164159775,0.015108071267604828,0.29412704706192017
1761505729540723200,0.19172314453125,-0.062120139598846436,0.09921576082706451,0.4664849638938904
1761505729550759400,0.201759521484375,-0.028997303918004036,0.2253699004650116,0.6032608151435852
1761505729560796200,0.211796142578125,0.025173788890242577,0.4320032298564911,0.7080082893371582
1761505729570832100,0.22183203125,0.09556983411312103,0.6361552476882935,0.7869508862495422
1761505729580868400,0.231868408203125,0.1740659773349762,0.7291043400764465,0.8845906257629395
1761505729590904600,0.241904541015625,0.2657489478588104,0.6566300988197327,1.0306025743484497
1761505729600940500,0.2519404296875,0.34451407194137573,0.4923517107963562,1.1931836605072021
1761505729610976500,0.2619765625,0.3838101327419281,0.23993200063705444,1.330208659172058
1761505729621012500,0.272012451171875,0.34362703561782837,0.0851549431681633,1.3976370096206665
1761505729631048400,0.28204833984375,0.19534693658351898,0.12027378380298615,1.3563258647918701
1761505729641084400,0.29208447265625,-0.007551578339189291,0.26048868894577026,1.2215824127197266
1761505729651120400,0.302120361328125,-0.1854977011680603,0.5009835362434387,1.0815829038619995
1761505729661157400,0.312157470703125,-0.2735476791858673,0.7278680801391602,0.9726155996322632
1761505729671193300,0.322193359375,-0.2698172330856323,0.6468079686164856,0.8928146958351135
1761505729681229300,0.332229248046875,-0.20017212629318237,0.2426799088716507,0.8564702868461609
1761505729691265300,0.342265380859375,-0.11895424872636795,-0.14110226929187775,0.8220691680908203
1761505729701301200,0.35230126953125,-0.07455909252166748,-0.35575756430625916,0.6915396451950073
1761505729711337200,0.362337158203125,-0.06912772357463837,-0.39344164729118347,0.4730455279350281
1761505729721373400,0.37237353515625,-0.07611186802387238,-0.15679368376731873,0.25043055415153503
1761505729731409400,0.382409423828125,-0.07038437575101852,0.16975809633731842,0.09603659063577652
1761505729741445400,0.3924453125,-0.003628786653280258,0.28192538022994995,0.039097145199775696
1761505729751482400,0.402482421875,0.11173262447118759,0.12182940542697906,0.07681871950626373
1761505729761518300,0.412518310546875,0.2382357120513916,-0.08620581775903702,0.20699509978294373
1761505729771554600,0.422554443359375,0.26847466826438904,-0.18099941313266754,0.3699689507484436
1761505729781590500,0.432590576171875,0.15000474452972412,-0.11279531568288803,0.5296334624290466
1761505729791626500,0.44262646484375,-0.09901486337184906,0.07354499399662018,0.6461701989173889
1761505729801662500,0.452662353515625,-0.36493709683418274,0.22665251791477203,0.6550784707069397
1761505729811698400,0.462698486328125,-0.5579822659492493,0.27052897214889526,0.5369901657104492
1761505729821734400,0.472734375,-0.6230323314666748,0.16232576966285706,0.32776743173599243
1761505729831770400,0.482770263671875,-0.5557556748390198,-0.07607550919055939,0.10073184967041016
1761505729841806300,0.492806396484375,-0.3898337483406067,-0.1954309344291687,-0.1488279104232788
1761505729851842300,0.50284228515625,-0.13842608034610748,-0.23312096297740936,-0.4605827033519745
1761505729861878300,0.512878173828125,0.04949082434177399,-0.45144397020339966,-0.7394524216651917
1761505729871914500,0.52291455078125,0.10921012610197067,-0.4670555591583252,-0.9382156133651733
1761505729881950500,0.532950439453125,0.07833530008792877,-0.41268473863601685,-1.0229284763336182
1761505729891986400,0.542986328125,-0.017622433602809906,-0.4090442955493927,-1.01028573513031
1761505729902022400,0.5530224609375,-0.13310028612613678,-0.3469841182231903,-0.9535799026489258
1761505729912058400,0.563058349609375,-0.21168431639671326,-0.3638550043106079,-0.881471574306488
1761505729922094300,0.57309423828125,-0.25424349308013916,-0.5063431859016418,-0.7807348370552063
1761505729932130300,0.58313037109375,-0.26042690873146057,-0.6097027659416199,-0.6326913237571716
1761505729942167300,0.593167236328125,-0.29262399673461914,-0.4652491807937622,-0.4571016728878021
1761505729952203300,0.603203369140625,-0.36882704496383667,-0.12237272411584854,-0.30785366892814636
1761505729962239200,0.6132392578125,-0.4709201157093048,0.2695598900318146,-0.23741064965724945
1761505729972275200,0.623275146484375,-0.5388633012771606,0.5864916443824768,-0.2628665566444397
1761505729982311200,0.633311279296875,-0.5460216403007507,0.7839866280555725,-0.35944288969039917
1761505729992347100,0.64334716796875,-0.5141596794128418,0.8317762017250061,-0.4803960919380188
1761505730002383400,0.65338330078125,-0.45046567916870117,0.7147207260131836,-0.5739372372627258
1761505730012419300,0.66341943359375,-0.3552670180797577,0.47658559679985046,-0.5914204716682434
1761505730022455300,0.673455322265625,-0.2587612569332123,0.22537203133106232,-0.5145251154899597
1761505730032492300,0.6834921875,-0.16156499087810516,0.0956098884344101,-0.36943334341049194
1761505730042528500,0.693528564453125,-0.03908140957355499,0.06745441257953644,-0.19747066497802734
1761505730052564500,0.703564453125,0.09736159443855286,0.09914034605026245,-0.008828524500131607
1761505730062600400,0.713600341796875,0.22847089171409607,0.20962662994861603,0.1780598759651184
1761505730072636400,0.723636474609375,0.33185461163520813,0.3058893084526062,0.3642439842224121
1761505730082672400,0.73367236328125,0.4033977687358856,0.3167102634906769,0.5358442068099976
1761505730092708400,0.743708251953125,0.44284579157829285,0.2585989534854889,0.6719807982444763
1761505730102744300,0.753744384765625,0.43856582045555115,0.07428611069917679,0.7575529217720032
1761505730112780300,0.7637802734375,0.3457275331020355,-0.33913275599479675,0.7825978994369507
1761505730122817300,0.7738173828125,0.18399295210838318,-0.828693151473999,0.7345134615898132
1761505730132853200,0.783853271484375,-0.005062078591436148,-1.212131142616272,0.6048626899719238
1761505730142889200,0.79388916015625,-0.14528656005859375,-1.4187967777252197,0.37643006443977356
1761505730152925200,0.80392529296875,-0.1135357916355133,-1.3275216817855835,0.03022782877087593
1761505730162961200,0.813961181640625,0.12042876332998276,-1.0257980823516846,-0.3938123881816864
1761505730172997000,0.8239970703125,0.4909023940563202,-0.8022914528846741,-0.7670760154724121
1761505730183033300,0.834033447265625,0.7956074476242065,-0.891812801361084,-0.9079604148864746
1761505730193069300,0.8440693359375,0.8960732221603394,-1.1826014518737793,-0.683957040309906
1761505730203105300,0.854105224609375,0.8244438171386719,-1.245331048965454,-0.16096869111061096
1761505730213142300,0.864142333984375,0.7184325456619263,-0.7168219089508057,0.4306076169013977
1761505730223178500,0.874178466796875,0.584396481513977,0.2053535282611847,0.8504818677902222
1761505730233214500,0.88421435546875,0.45527055859565735,1.1618770360946655,0.9734154343605042
1761505730243250400,0.89425048828125,0.3660711646080017,1.7925902605056763,0.7726045846939087
1761505730253286400,0.904286376953125,0.3285549581050873,1.7971359491348267,0.36830583214759827
1761505730263322400,0.914322265625,0.3195103108882904,1.4953089952468872,-0.05781007185578346
1761505730273358300,0.9243583984375,0.27101969718933105,1.2223109006881714,-0.3570111095905304
1761505730283394300,0.934394287109375,0.15008394420146942,1.1458206176757812,-0.46576476097106934
1761505730293431300,0.944431396484375,0.035922013223171234,1.2127106189727783,-0.48263779282569885
1761505730303467300,0.95446728515625,-0.022388963028788567,1.298213243484497,-0.50083327293396
1761505730313503200,0.964503173828125,-0.04762398079037666,1.3179104328155518,-0.5599585175514221
1761505730323539200,0.974539306640625,-0.08228209614753723,1.2409847974777222,-0.6316210031509399
1761505730333575200,0.9845751953125,-0.15239347517490387,1.0814100503921509,-0.6863704323768616
1761505730343611100,0.994611083984375,-0.21031242609024048,0.9085013270378113,-0.7390679717063904
1761505730353647400,1.0046474609375,-0.22666719555854797,0.690146267414093,-0.7965872287750244
1761505730363683300,1.014683349609375,-0.1937212347984314,0.3726753294467926,-0.8530499339103699
1761505730373719300,1.02471923828125,-0.12129047513008118,0.03379250317811966,-0.8671216368675232
1761505730383755300,1.03475537109375,0.00459314975887537,-0.2754707932472229,-0.8291867971420288
1761505730393792500,1.04479248046875,0.16040998697280884,-0.5553346276283264,-0.7394644618034363
1761505730403828500,1.054828369140625,0.31200724840164185,-0.7750148177146912,-0.5925743579864502
1761505730413864400,1.064864501953125,0.41475385427474976,-0.7841342687606812,-0.40026116371154785
1761505730423900400,1.074900390625,0.44344380497932434,-0.6234036684036255,-0.18975745141506195
1761505730433936400,1.084936279296875,0.41883179545402527,-0.3964178264141083,0.007737315259873867
1761505730443972400,1.094972412109375,0.3535561263561249,-0.12567952275276184,0.18038952350616455
1761505730454008300,1.10500830078125,0.2505427598953247,0.1351454108953476,0.29720932245254517
1761505730464044300,1.115044189453125,0.12674543261528015,0.31862950325012207,0.34380853176116943
1761505730474081300,1.125081298828125,0.005506584420800209,0.3974733054637909,0.3280484080314636
1761505730484117200,1.1351171875,-0.1166749820113182,0.3970291018486023,0.2529187798500061
1761505730494153200,1.1451533203125,-0.20997482538223267,0.3158881664276123,0.14962822198867798
1761505730504189200,1.155189208984375,-0.25707921385765076,0.1931968629360199,0.06326644122600555
1761505730514225200,1.16522509765625,-0.25331032276153564,0.07527317106723785,0.018179766833782196
1761505730524261000,1.17526123046875,-0.20518779754638672,0.001274044974707067,0.013487542048096657
1761505730534297300,1.18529736328125,-0.11862596869468689,-0.047728050500154495,0.05769023299217224
1761505730544333300,1.195333251953125,-0.012526163831353188,-0.06582742929458618,0.130033940076828
1761505730554369300,1.205369384765625,0.07040997594594955,-0.09050684422254562,0.22655723989009857
1761505730564406300,1.21540625,0.1206585019826889,-0.10198533535003662,0.33943986892700195
1761505730574442500,1.2254423828125,0.14361794292926788,-0.22439686954021454,0.4774068593978882
1761505730584478500,1.235478515625,0.15411052107810974,-0.3939131796360016,0.6592743992805481
1761505730594514400,1.245514404296875,0.14976854622364044,-0.4383324980735779,0.8757412433624268
1761505730604550400,1.25555029296875,0.09266877174377441,-0.4627635180950165,1.1255583763122559
1761505730614586400,1.26558642578125,-0.02853546477854252,-0.43878474831581116,1.3638498783111572
1761505730624622300,1.275622314453125,-0.18127228319644928,-0.3467733561992645,1.5208418369293213
1761505730634658300,1.285658203125,-0.34159278869628906,-0.23731248080730438,1.5382112264633179
1761505730644695300,1.2956953125,-0.5060123801231384,-0.2152676284313202,1.3589061498641968
1761505730654731300,1.305731201171875,-0.6163381338119507,-0.35419920086860657,0.9818498492240906
1761505730664767200,1.315767333984375,-0.5967490077018738,-0.44551634788513184,0.43804752826690674
1761505730674803200,1.32580322265625,-0.3769334554672241,-0.2001359909772873,-0.09292148053646088
1761505730684839200,1.335839111328125,-0.0871751680970192,0.10069868713617325,-0.4138752818107605
1761505730694875100,1.345875244140625,0.15008895099163055,0.04020899906754494,-0.4351910948753357
1761505730704911000,1.3559111328125,0.3147391378879547,-0.25117915868759155,-0.2006787210702896
1761505730714947300,1.365947265625,0.40029141306877136,-0.5656580328941345,0.16711288690567017
1761505730724983300,1.3759833984375,0.43169090151786804,-0.6875770092010498,0.5144213438034058
1761505730735020300,1.386020263671875,0.45640966296195984,-0.5815760493278503,0.7106268405914307
1761505730745056500,1.396056396484375,0.4578626751899719,-0.33537477254867554,0.7137954235076904
1761505730755092500,1.406092529296875,0.41504132747650146,-0.06598851829767227,0.540758490562439
1761505730765128400,1.41612841796875,0.3521033823490143,0.10768713802099228,0.23141291737556458
1761505730775164400,1.426164306640625,0.3145783543586731,0.1314484179019928,-0.11787386983633041
1761505730785200400,1.436200439453125,0.3431466221809387,0.11676906794309616,-0.40632352232933044
1761505730795236400,1.446236328125,0.42689013481140137,0.10447124391794205,-0.6091575026512146
1761505730805272300,1.456272216796875,0.5664296746253967,0.2005607634782791,-0.7288474440574646
1761505730815309300,1.466309326171875,0.7125720977783203,0.42735931277275085,-0.8033827543258667
1761505730825345300,1.47634521484375,0.8176124691963196,0.6270197033882141,-0.8930178284645081
1761505730835382000,1.486382080078125,0.8403881192207336,0.6505542397499084,-1.0219284296035767
1761505730845418000,1.49641796875,0.7747499942779541,0.4845748841762543,-1.1395295858383179
1761505730855454000,1.506453857421875,0.6312127709388733,0.22960123419761658,-1.2210795879364014
1761505730865490000,1.516489990234375,0.44698652625083923,-0.14532816410064697,-1.2525829076766968
1761505730875526000,1.52652587890625,0.2770017385482788,-0.6016429662704468,-1.2307567596435547
1761505730885562000,1.53656201171875,0.15751315653324127,-1.0390650033950806,-1.1392086744308472
1761505730895599000,1.54659912109375,0.10652242600917816,-1.339605689048767,-0.9530553817749023
1761505730905635000,1.556635009765625,0.11179335415363312,-1.4285918474197388,-0.6960209012031555
1761505730915671000,1.566671142578125,0.12483182549476624,-1.3206912279129028,-0.42714840173721313
1761505730925707000,1.57670703125,0.11758457124233246,-1.095049262046814,-0.17816391587257385
1761505730935743000,1.586742919921875,0.07547011226415634,-0.7267992496490479,0.050261903554201126
1761505730945779200,1.596779296875,0.008999474346637726,-0.2505629062652588,0.24487052857875824
1761505730955815200,1.606815185546875,-0.0787384957075119,0.21703609824180603,0.3911180794239044
1761505730965851100,1.61685107421875,-0.18390220403671265,0.6194447875022888,0.48473167419433594
1761505730975887000,1.62688720703125,-0.2973349094390869,0.9492754340171814,0.5213706493377686
1761505730985924000,1.636924072265625,-0.4224446415901184,1.166343331336975,0.4855428636074066
1761505730995960000,1.6469599609375,-0.527437150478363,1.247417688369751,0.391239732503891
1761505731005996000,1.65699609375,-0.5831568241119385,1.2313047647476196,0.2638474404811859
1761505731016032000,1.667031982421875,-0.5804255604743958,1.1803001165390015,0.13592121005058289
1761505731026068000,1.67706787109375,-0.5481086373329163,1.0947160720825195,0.043883707374334335
1761505731036104000,1.68710400390625,-0.4944804906845093,0.9496467709541321,-0.0033245999366045
1761505731046140000,1.697139892578125,-0.43277987837791443,0.7971045970916748,-0.015063547529280186
1761505731056176000,1.707176025390625,-0.3657471537590027,0.6663269400596619,0.0186656154692173
1761505731066213000,1.717213134765625,-0.30197909474372864,0.573067843914032,0.0863189622759819
1761505731076249000,1.7272490234375,-0.2531883418560028,0.47341156005859375,0.1696060299873352
1761505731086285000,1.73728515625,-0.22663825750350952,0.30014681816101074,0.2909209728240967
1761505731096321000,1.747321044921875,-0.2232106626033783,0.1765127032995224,0.45430833101272583
1761505731106357000,1.75735693359375,-0.21970568597316742,0.10431333631277084,0.6526459455490112
1761505731116393200,1.767393310546875,-0.22392728924751282,0.07127571851015091,0.8525385856628418
1761505731126429200,1.77742919921875,-0.2615572214126587,0.08962969481945038,0.9993717074394226
1761505731136465200,1.787465087890625,-0.3584900200366974,-0.07057319581508636,1.0361453294754028
1761505731146502100,1.797502197265625,-0.41525688767433167,-0.5198767185211182,1.0143040418624878
1761505731156538000,1.8075380859375,-0.36496463418006897,-0.8328811526298523,1.0127838850021362
1761505731166574000,1.817573974609375,-0.2749471366405487,-0.8521835207939148,1.0353600978851318
1761505731176610000,1.827610107421875,-0.2343270629644394,-0.400799036026001,0.9851586222648621
1761505731186646000,1.83764599609375,-0.3230776786804199,0.2343779057264328,0.7680222988128662
1761505731196682000,1.847681884765625,-0.4992937445640564,0.6557554006576538,0.34732651710510254
1761505731206718000,1.857718017578125,-0.5972184538841248,0.680996835231781,-0.18261058628559113
1761505731216754000,1.86775390625,-0.5363542437553406,0.357381671667099,-0.5777153372764587
1761505731226790000,1.877789794921875,-0.35997918248176575,-0.0980316773056984,-0.6273609399795532
1761505731236827100,1.8878271484375,-0.1720932275056839,-0.4429031312465668,-0.3791750371456146
1761505731246863000,1.897863037109375,0.008962834253907204,-0.5265703201293945,0.011988716199994087
1761505731256899000,1.907899169921875,0.18616294860839844,-0.48047730326652527,0.37113815546035767
1761505731266935000,1.91793505859375,0.3121775984764099,-0.5083408951759338,0.5671214461326599
1761505731276971000,1.927970947265625,0.3333931863307953,-0.5940784811973572,0.5593258142471313
1761505731287007000,1.938007080078125,0.27057400345802307,-0.6523958444595337,0.405590295791626
1761505731297043200,1.948043212890625,0.18919648230075836,-0.7173050045967102,0.20214460790157318
1761505731307079200,1.9580791015625,0.13053156435489655,-0.6945541501045227,-0.00695640966296196
1761505731317116000,1.968115966796875,0.10452289879322052,-0.52274489402771,-0.21752358973026276
1761505731327152000,1.978152099609375,0.11784616112709045,-0.2345416396856308,-0.406110018491745
1761505731337188000,1.98818798828125,0.15475912392139435,0.12229541689157486,-0.5787606835365295
1761505731347224000,1.99822412109375,0.20027360320091248,0.3409542739391327,-0.7727645635604858
1761505731357260000,2.008260009765625,0.2808743715286255,0.27671104669570923,-0.9729580283164978
1761505731367296000,2.0182958984375,0.38357171416282654,-0.026965221390128136,-1.097129464149475
1761505731377332000,2.02833203125,0.4453408122062683,-0.3661153316497803,-1.1152032613754272
1761505731387368000,2.038367919921875,0.4168020188808441,-0.6610752940177917,-1.0684921741485596
1761505731397404000,2.04840380859375,0.337880939245224,-0.9175331592559814,-1.011570692062378
1761505731407441200,2.058441162109375,0.24835051596164703,-1.0752612352371216,-0.9674189686775208
1761505731417477000,2.06847705078125,0.13653962314128876,-1.0851622819900513,-0.9178248047828674
1761505731427513000,2.07851318359375,0.025197912007570267,-1.0437864065170288,-0.8466805815696716
1761505731437549000,2.088549072265625,-0.029823219403624535,-0.9758428335189819,-0.7495088577270508
1761505731447585000,2.0985849609375,-0.0018847961910068989,-0.8640004396438599,-0.6220627427101135
1761505731457621000,2.10862109375,0.06791780143976212,-0.6953712105751038,-0.4525067210197449
1761505731467657200,2.1186572265625,0.11270071566104889,-0.48726463317871094,-0.25508445501327515
1761505731477693200,2.128693115234375,0.1176079586148262,-0.24443016946315765,-0.04531165212392807
1761505731487730000,2.13872998046875,0.10521946847438812,0.061189137399196625,0.13732179999351501
1761505731497766100,2.14876611328125,0.0763925239443779,0.345849871635437,0.2509204149246216
1761505731507802000,2.158802001953125,0.02422013320028782,0.5582867860794067,0.27436766028404236
1761505731517838000,2.168838134765625,-0.03901410102844238,0.7091800570487976,0.20970378816127777
1761505731527874000,2.1788740234375,-0.10167321562767029,0.7780123949050903,0.07498033344745636
1761505731537910000,2.188909912109375,-0.15123853087425232,0.7631231546401978,-0.08147170394659042
1761505731547946000,2.198946044921875,-0.1924261897802353,0.7729440927505493,-0.20277124643325806
1761505731557982000,2.20898193359375,-0.22069351375102997,0.8037791848182678,-0.2711724042892456
1761505731568018000,2.219017822265625,-0.23488709330558777,0.7359354496002197,-0.285118043422699
1761505731578055200,2.22905517578125,-0.22751568257808685,0.5632280111312866,-0.23619715869426727
1761505731588091100,2.239091064453125,-0.18696506321430206,0.3094348609447479,-0.10407400131225586
1761505731598127000,2.249127197265625,-0.14689689874649048,0.06144065782427788,0.12115195393562317
1761505731608163000,2.2591630859375,-0.15758869051933289,-0.12893247604370117,0.4143665134906769
1761505731618199000,2.269198974609375,-0.19836020469665527,-0.09218337386846542,0.7159196734428406
1761505731628235000,2.279235107421875,-0.24452051520347595,0.1931663453578949,0.9490248560905457
1761505731638271000,2.28927099609375,-0.29887622594833374,0.4797554016113281,1.0387147665023804
1761505731648307200,2.29930712890625,-0.31251078844070435,0.665424644947052,0.9414271712303162
1761505731658343200,2.30934326171875,-0.24016356468200684,0.8065855503082275,0.7156179547309875
1761505731668380000,2.3193798828125,-0.13886012136936188,0.7589713931083679,0.5055744647979736
1761505731678416100,2.329416015625,-0.07417798787355423,0.4648474156856537,0.4451681971549988
1761505731688452000,2.3394521484375,-0.06765536963939667,0.2461739331483841,0.5453320741653442
1761505731698488000,2.349488037109375,-0.12130247801542282,0.2464004009962082,0.673132598400116
1761505731708524000,2.35952392578125,-0.1918533444404602,0.23474188148975372,0.704818069934845
1761505731718560000,2.36956005859375,-0.20420874655246735,0.047708652913570404,0.5985581874847412
1761505731728596000,2.379595947265625,-0.12791131436824799,-0.2538738250732422,0.46059685945510864
1761505731738632000,2.3896318359375,-0.04313433915376663,-0.4210464656352997,0.404034823179245
1761505731748668000,2.39966796875,-0.01605265401303768,-0.34079450368881226,0.4354257881641388
1761505731758705200,2.409705078125,-0.057518962770700455,-0.07454998046159744,0.46034419536590576
1761505731768741000,2.4197412109375,-0.12882350385189056,0.19205908477306366,0.40365293622016907
1761505731778777000,2.429777099609375,-0.1892804652452469,0.3707433044910431,0.2037079781293869
1761505731788813000,2.43981298828125,-0.20630764961242676,0.4142223298549652,-0.11872519552707672
1761505731798849000,2.44984912109375,-0.13804128766059875,0.26918837428092957,-0.5232682228088379
1761505731808885000,2.459885009765625,-0.003491469658911228,-0.05513882637023926,-0.9011699557304382
1761505731818921200,2.469921142578125,0.09271605312824249,-0.3147220015525818,-1.120595097541809
1761505731828957200,2.479957275390625,0.05799296125769615,-0.3943350911140442,-1.132696509361267
1761505731838993400,2.489993408203125,-0.039819102734327316,-0.2842002809047699,-0.9967753291130066
1761505731849030100,2.500030029296875,-0.10805755108594894,-0.029142163693904877,-0.8251329660415649
1761505731859066400,2.51006640625,-0.13135772943496704,0.21292299032211304,-0.6956197619438171
1761505731869102300,2.520102294921875,-0.10924072563648224,0.2672107219696045,-0.6652602553367615
1761505731879138300,2.53013818359375,-0.04501691833138466,0.06769441068172455,-0.741130530834198
1761505731889174300,2.54017431640625,0.0296621136367321,-0.2442520409822464,-0.8732973337173462
1761505731899210200,2.550210205078125,0.04934419319033623,-0.4988335967063904,-1.003208875656128
1761505731909246200,2.56024609375,0.008927525952458382,-0.682663083076477,-1.1137844324111938
1761505731919282200,2.5702822265625,-0.06335433572530746,-0.8346989154815674,-1.1777894496917725
1761505731929318400,2.580318359375,-0.12255401164293289,-0.9494295120239258,-1.1640459299087524
1761505731939355400,2.59035546875,-0.13437111675739288,-1.0358651876449585,-1.0409865379333496
1761505731949391400,2.600391357421875,-0.11438409984111786,-0.9836283326148987,-0.7901667952537537
1761505731959427300,2.61042724609375,-0.08750972151756287,-0.7232963442802429,-0.46186912059783936
1761505731969463300,2.62046337890625,-0.0808986946940422,-0.38637658953666687,-0.13675813376903534
1761505731979499300,2.630499267578125,-0.10042800009250641,0.008686318062245846,0.15221375226974487
1761505731989535200,2.64053515625,-0.12841223180294037,0.46703633666038513,0.35501614212989807
1761505731999571200,2.6505712890625,-0.15320228040218353,0.8713326454162598,0.4298710823059082
1761505732009607400,2.660607421875,-0.1341841071844101,1.0494797229766846,0.38711801171302795
1761505732019643400,2.670643310546875,-0.0740104541182518,0.9964595437049866,0.2697629928588867
1761505732029680000,2.68068017578125,0.0008502062410116196,0.892955482006073,0.14090034365653992
1761505732039716400,2.69071630859375,0.04732196405529976,0.7399288415908813,0.04127420857548714
1761505732049752300,2.70075244140625,0.05802867189049721,0.5309913158416748,0.0014053534250706434
1761505732059788300,2.710788330078125,0.04312168434262276,0.30539318919181824,-0.0014924817951396108
1761505732069824300,2.72082421875,0.007290449924767017,0.06891273707151413,0.023687440901994705
1761505732079860200,2.730860107421875,-0.03948608785867691,-0.1049526259303093,0.06722722947597504
1761505732089896200,2.740896240234375,-0.10041654855012894,-0.18393506109714508,0.13359959423542023
1761505732099932400,2.750932373046875,-0.16854478418827057,-0.29770198464393616,0.2331736534833908
1761505732109968400,2.760968505859375,-0.20851297676563263,-0.34929779171943665,0.37759795784950256
1761505732120005400,2.77100537109375,-0.20169401168823242,-0.35990068316459656,0.5554611682891846
1761505732130041300,2.781041259765625,-0.15636035799980164,-0.4078461229801178,0.7609381675720215
1761505732140077300,2.791077392578125,-0.07558681815862656,-0.3809608221054077,0.9494909644126892
1761505732150113300,2.80111328125,0.034046731889247894,-0.26500946283340454,1.064953088760376
1761505732160149200,2.811149169921875,0.13869008421897888,-0.2238260805606842,1.038162112236023
1761505732170185200,2.821185302734375,0.23268768191337585,-0.1531047821044922,0.8073121905326843
1761505732180221400,2.831221435546875,0.32708418369293213,0.09162695705890656,0.4531989097595215
1761505732190257400,2.84125732421875,0.3639069199562073,0.39137426018714905,0.20356485247612
1761505732200293400,2.85129345703125,0.3275977671146393,0.7050498723983765,0.18974238634109497
1761505732210330400,2.861330322265625,0.28089630603790283,0.7211819887161255,0.39465025067329407
1761505732220366300,2.871366455078125,0.2883197069168091,0.471616268157959,0.6870205402374268
1761505732230402300,2.88140234375,0.3170277774333954,0.14292201399803162,0.941354513168335
1761505732240438300,2.891438232421875,0.3059961199760437,-0.1578521430492401,1.0678502321243286
1761505732250474200,2.90147412109375,0.21427953243255615,-0.4077509045600891,1.0377403497695923
1761505732260510200,2.91151025390625,0.10446853190660477,-0.4922170639038086,0.8546903133392334
1761505732270546200,2.921546142578125,0.0014926162548363209,-0.453665167093277,0.5812864899635315
1761505732280582400,2.93158251953125,-0.05793320760130882,-0.33749306201934814,0.3016398251056671
1761505732290618400,2.941618408203125,-0.06169119104743004,-0.1591574251651764,0.08526943624019623
1761505732300655400,2.9516552734375,-0.033416952937841415,0.027474483475089073,-0.0858883410692215
1761505732310691300,2.96169140625,-0.024504419416189194,0.2233143001794815,-0.2537527084350586
1761505732320727300,2.971727294921875,-0.049516063183546066,0.4463708996772766,-0.4452674686908722
1761505732330763300,2.98176318359375,-0.09835950285196304,0.6391807794570923,-0.6559492945671082
1761505732340799200,2.99179931640625,-0.11936847120523453,0.7558826804161072,-0.8705863952636719
1761505732350835200,3.001835205078125,-0.08436840772628784,0.7704461812973022,-1.0579253435134888
1761505732360871400,3.011871337890625,0.014434369280934334,0.6572492122650146,-1.2061128616333008
1761505732370907400,3.021907470703125,0.15821844339370728,0.36407217383384705,-1.3044061660766602
1761505732380943400,3.031943359375,0.3176184296607971,-0.0881236121058464,-1.3346257209777832
1761505732390979300,3.041979248046875,0.3841670751571655,-0.5067509412765503,-1.2693883180618286
1761505732401016300,3.052016357421875,0.341933012008667,-0.795006275177002,-1.1228796243667603
1761505732411052300,3.06205224609375,0.20283345878124237,-0.9131736755371094,-0.9464119076728821
1761505732421088300,3.072088134765625,0.023627566173672676,-0.9301095008850098,-0.7744030952453613
1761505732431124200,3.082124267578125,-0.12706634402275085,-0.9098889231681824,-0.6101478934288025
1761505732441160200,3.09216015625,-0.2073991596698761,-0.8713788390159607,-0.4477745294570923
1761505732451196400,3.102196533203125,-0.2139633148908615,-0.7660399079322815,-0.2686857283115387
1761505732461232400,3.112232421875,-0.15766969323158264,-0.5808290243148804,-0.08081093430519104
1761505732471268400,3.122268310546875,-0.12308668345212936,-0.32039737701416016,0.09931808710098267
1761505732481304300,3.13230419921875,-0.1341298669576645,-0.04654647409915924,0.22983822226524353
1761505732491340300,3.14234033203125,-0.17704138159751892,0.18250270187854767,0.29874512553215027
1761505732501377300,3.152377197265625,-0.2197221964597702,0.39690229296684265,0.32467135787010193
1761505732511413200,3.162413330078125,-0.26367688179016113,0.5866115093231201,0.3196433186531067
1761505732521449200,3.17244921875,-0.31032025814056396,0.7187449336051941,0.2859230935573578
1761505732531485400,3.1824853515625,-0.3559846878051758,0.7625398635864258,0.2355922907590866
1761505732541521400,3.192521484375,-0.3834647834300995,0.7249822020530701,0.1769479364156723
1761505732551557400,3.202557373046875,-0.38193321228027344,0.629868745803833,0.12096962332725525
1761505732561593300,3.21259326171875,-0.338030070066452,0.42451831698417664,0.08792906254529953
1761505732571629300,3.22262939453125,-0.2453770935535431,0.15790978074073792,0.09915348887443542
1761505732581665300,3.232665283203125,-0.1169985681772232,-0.09089860320091248,0.16105569899082184
1761505732591702300,3.242702392578125,0.024170007556676865,-0.32847389578819275,0.2757420539855957
1761505732601738200,3.25273828125,0.1331225037574768,-0.4787539541721344,0.44201958179473877
1761505732611774200,3.262774169921875,0.19334323704242706,-0.4483925700187683,0.6254191994667053
1761505732621810200,3.27281005859375,0.15244969725608826,-0.3111313283443451,0.771352231502533
1761505732631846400,3.282846435546875,0.0215220395475626,-0.229971244931221,0.8583805561065674
1761505732641882400,3.29288232421875,-0.11997231841087341,-0.19703572988510132,0.9131094813346863
1761505732651918300,3.30291845703125,-0.18596944212913513,-0.10330232232809067,0.928307056427002
1761505732661954300,3.312954345703125,-0.19563475251197815,0.06862276047468185,0.8210135698318481
1761505732671990300,3.322990234375,-0.18428754806518555,0.4676532447338104,0.5513147115707397
1761505732682026500,3.333026611328125,-0.16934743523597717,0.9949294328689575,0.1465194970369339
1761505732692063200,3.343063232421875,-0.1902434080839157,1.4122209548950195,-0.27726906538009644
1761505732702099200,3.35309912109375,-0.25220775604248047,1.4567397832870483,-0.506178617477417
1761505732712135400,3.363135498046875,-0.31328868865966797,1.0763131380081177,-0.4089633822441101
1761505732722171400,3.37317138671875,-0.3200220763683319,0.5429713726043701,-0.041151490062475204
1761505732732207400,3.383207275390625,-0.28412002325057983,0.03950105234980583,0.4051498472690582
1761505732742243300,3.393243408203125,-0.2856045663356781,-0.3215087354183197,0.6962318420410156
1761505732752279300,3.403279296875,-0.345642626285553,-0.5936723351478577,0.684697687625885
1761505732762315300,3.413315185546875,-0.4584448039531708,-0.7736660838127136,0.45244938135147095
1761505732772351200,3.423351318359375,-0.5510615706443787,-0.8100837469100952,0.1716901659965515
1761505732782387200,3.43338720703125,-0.568418025970459,-0.7986622452735901,-0.07095423340797424
1761505732792424200,3.443424072265625,-0.48862600326538086,-0.7697229981422424,-0.1919988989830017
1761505732802460400,3.45346044921875,-0.3482452630996704,-0.6496122479438782,-0.2119678109884262
1761505732812496400,3.463496337890625,-0.21855278313159943,-0.41278719902038574,-0.20782072842121124
1761505732822532400,3.473532470703125,-0.16848847270011902,-0.03345123305916786,-0.23020875453948975
1761505732832568300,3.483568359375,-0.1947842538356781,0.3662112057209015,-0.29359492659568787
1761505732842604300,3.493604248046875,-0.24022157490253448,0.5254526138305664,-0.4068520665168762
1761505732852640500,3.503640625,-0.25142017006874084,0.5097442269325256,-0.5236942768096924
1761505732862676500,3.513676513671875,-0.2347700446844101,0.3980032503604889,-0.6029334664344788
1761505732872712400,3.52371240234375,-0.23064453899860382,0.2514044940471649,-0.6204506754875183
1761505732882748400,3.53374853515625,-0.27483227849006653,0.11566167324781418,-0.6115168333053589
1761505732892784400,3.543784423828125,-0.34667450189590454,-0.0508415587246418,-0.6346480250358582
1761505732902821600,3.553821533203125,-0.4070391058921814,-0.21667513251304626,-0.7099825739860535
1761505732912857600,3.563857666015625,-0.4291904866695404,-0.3729182481765747,-0.7597613334655762
1761505732922893600,3.5738935546875,-0.38224709033966064,-0.4542340040206909,-0.7144065499305725
1761505732932929500,3.583929443359375,-0.2591555118560791,-0.44105374813079834,-0.5668168663978577
1761505732942965500,3.593965576171875,-0.09665032476186752,-0.3586437404155731,-0.3462790250778198
1761505732953001500,3.60400146484375,0.058996520936489105,-0.2423299103975296,-0.1001448854804039
1761505732963037400,3.614037353515625,0.17469099164009094,-0.13748158514499664,0.14920715987682343
1761505732973073400,3.624073486328125,0.22959844768047333,0.0038752800319343805,0.37515637278556824
1761505732983109400,3.634109375,0.2599140405654907,0.2082962691783905,0.5186184048652649
1761505732993145300,3.644145263671875,0.30280211567878723,0.3990561068058014,0.5211297869682312
1761505733003182300,3.654182373046875,0.37978395819664,0.46978145837783813,0.410256564617157
1761505733013218300,3.66421826171875,0.4532938599586487,0.4277053773403168,0.26300933957099915
1761505733023254300,3.674254150390625,0.4964968264102936,0.3434569537639618,0.15871880948543549
1761505733033290500,3.68429052734375,0.49067994952201843,0.2474270910024643,0.12487935274839401
1761505733043326500,3.694326416015625,0.46885406970977783,0.1851409524679184,0.13885200023651123
1761505733053362400,3.704362548828125,0.44274312257766724,0.17376072704792023,0.18034431338310242
1761505733063398400,3.7143984375,0.4214346706867218,0.20745302736759186,0.22183747589588165
1761505733073434400,3.724434326171875,0.4168734550476074,0.2695813775062561,0.23550881445407867
1761505733083470300,3.73447021484375,0.421939879655838,0.330638587474823,0.21249422430992126
1761505733093506300,3.74450634765625,0.42491915822029114,0.33365729451179504,0.19764815270900726
1761505733103543600,3.75454345703125,0.4089246690273285,0.22183005511760712,0.21529386937618256
1761505733113579500,3.76457958984375,0.3939198851585388,0.060075510293245316,0.3081279397010803
1761505733123615500,3.774615478515625,0.38894814252853394,-0.05923599377274513,0.42613112926483154
1761505733133651500,3.7846513671875,0.37457987666130066,-0.20780177414417267,0.5068736672401428
1761505733143687400,3.7946875,0.36565735936164856,-0.3539598286151886,0.5261515974998474
1761505733153723400,3.804723388671875,0.3377130627632141,-0.49671217799186707,0.47197866439819336
1761505733163759400,3.81475927734375,0.25759798288345337,-0.6750115156173706,0.3732939660549164
1761505733173795600,3.824795654296875,0.11096884310245514,-0.7433444857597351,0.25134727358818054
1761505733183831600,3.83483154296875,-0.04267144948244095,-0.6461598873138428,0.06924037635326385
1761505733193867500,3.844867431640625,-0.12094894796609879,-0.4086194932460785,-0.12415758520364761
1761505733203903500,3.854903564453125,-0.09056052565574646,-0.14266861975193024,-0.19484563171863556
1761505733213940500,3.8649404296875,0.034506313502788544,0.03162700682878494,-0.0321536511182785
1761505733223976400,3.8749765625,0.2331695407629013,0.16095522046089172,0.36083388328552246
1761505733234012400,3.885012451171875,0.4098159372806549,0.2099696397781372,0.8453579545021057
1761505733244048400,3.89504833984375,0.4787416160106659,0.15594568848609924,1.249243974685669
1761505733254084400,3.90508447265625,0.46448519825935364,0.06070650741457939,1.4655957221984863
1761505733264120300,3.915120361328125,0.4038175046443939,-0.09912046790122986,1.4163622856140137
1761505733274156300,3.92515625,0.29674404859542847,-0.42426738142967224,1.0890169143676758
1761505733284192300,3.935192138671875,0.18077638745307922,-0.7419179081916809,0.5704338550567627
1761505733294228500,3.945228515625,0.08430471271276474,-0.815360426902771,-0.015829073265194893
1761505733304264400,3.955264404296875,0.021957306191325188,-0.6283019781112671,-0.5723682641983032
1761505733314300400,3.965300537109375,0.002420357195660472,-0.26083531975746155,-1.018980622291565
1761505733324337400,3.97533740234375,-0.02018957957625389,0.12618504464626312,-1.2556979656219482
1761505733334373400,3.985373291015625,-0.06297965347766876,0.4265108108520508,-1.2639048099517822
1761505733344409300,3.995409423828125,-0.09002953767776489,0.6035688519477844,-1.0871285200119019
1761505733354445600,4.005445556640625,-0.06596095114946365,0.6773312091827393,-0.8340549468994141
1761505733364479500,4.0154794921875,-0.023515893146395683,0.6680169105529785,-0.5908594131469727
1761505733374516500,4.0255166015625,0.026373369619250298,0.56905597448349,-0.4009917378425598
1761505733384552400,4.035552490234375,0.07128524780273438,0.44917330145835876,-0.2598024308681488
1761505733394588400,4.04558837890625,0.10385916382074356,0.3051825761795044,-0.17391443252563477
1761505733404624400,4.055624267578125,0.1395157426595688,0.158449187874794,-0.12327847629785538
1761505733414660400,4.065660400390625,0.18629737198352814,0.032144512981176376,-0.09277515858411789
1761505733424696300,4.0756962890625,0.21910180151462555,-0.02142777480185032,-0.0682593435049057
1761505733434732500,4.085732666015625,0.21695955097675323,0.020912757143378258,-0.05427828058600426
1761505733444768500,4.0957685546875,0.16556261479854584,0.13736528158187866,-0.0822901725769043
1761505733454804500,4.105804443359375,0.08618922531604767,0.27626752853393555,-0.16590331494808197
1761505733464840400,4.11584033203125,-0.010030031204223633,0.358237087726593,-0.291355162858963
1761505733474876400,4.12587646484375,-0.11262458562850952,0.3490782082080841,-0.39825311303138733
1761505733484912400,4.135912353515625,-0.2208404242992401,0.31382185220718384,-0.4530482888221741
1761505733494949400,4.145949462890625,-0.3348926901817322,0.22628696262836456,-0.4274537265300751
1761505733504985300,4.1559853515625,-0.43724092841148376,0.1034470647573471,-0.3243754506111145
1761505733515021300,4.166021240234375,-0.4898362159729004,-0.02218915894627571,-0.14900974929332733
1761505733525057500,4.1760576171875,-0.5047069191932678,-0.09070098400115967,0.05564946308732033
1761505733535093500,4.186093505859375,-0.521577000617981,-0.12639212608337402,0.24706442654132843
1761505733545129500,4.19612939453125,-0.545284628868103,-0.19399750232696533,0.38347843289375305
1761505733555165400,4.20616552734375,-0.5487299561500549,-0.3005135655403137,0.46972861886024475
1761505733565201400,4.216201416015625,-0.5276146531105042,-0.3445395231246948,0.5152208209037781
1761505733575237600,4.226237548828125,-0.4923131465911865,-0.3081607222557068,0.5228638052940369
1761505733585273600,4.236273681640625,-0.4349498450756073,-0.2228078544139862,0.47229209542274475
1761505733595309600,4.2463095703125,-0.3555753827095032,-0.02750627137720585,0.35823529958724976
1761505733605346600,4.2563466796875,-0.23924551904201508,0.2341253161430359,0.23058144748210907
1761505733615382500,4.266382568359375,-0.08148730546236038,0.5003993511199951,0.13071343302726746
1761505733625418500,4.27641845703125,0.09600399434566498,0.737882673740387,0.09270620346069336
1761505733635454500,4.286454345703125,0.22909094393253326,0.7779622077941895,0.12041053920984268
1761505733645490400,4.296490478515625,0.28954848647117615,0.6645909547805786,0.1856081336736679
1761505733655526400,4.3065263671875,0.25416678190231323,0.3695167303085327,0.3097047805786133
1761505733665562400,4.316562255859375,0.15423700213432312,0.03973125293850899,0.544933557510376
1761505733675598300,4.326598388671875,0.05388271063566208,-0.13103915750980377,0.8652015924453735
1761505733685634300,4.33663427734375,0.012523535639047623,-0.15691539645195007,1.1162623167037964
1761505733695670300,4.346670166015625,0.059776000678539276,-0.11072952300310135,1.139687418937683
1761505733705706200,4.356706298828125,0.20569048821926117,-0.048244550824165344,0.8765941858291626
1761505733715743500,4.366743408203125,0.41748932003974915,0.020030910149216652,0.4492343068122864
1761505733725779500,4.376779541015625,0.555033266544342,-0.04228576272726059,0.08693104237318039
1761505733735815400,4.3868154296875,0.5655016303062439,-0.3031437397003174,-0.07976312935352325
1761505733745851400,4.396851318359375,0.4636370837688446,-0.7569812536239624,-0.016513412818312645
1761505733755887600,4.4068876953125,0.27452656626701355,-0.9429700374603271,0.15845386683940887
1761505733765923600,4.416923583984375,0.0312507301568985,-0.9044144749641418,0.2498333603143692
1761505733775959600,4.42695947265625,-0.22563432157039642,-0.9125163555145264,0.163570374250412
1761505733785995500,4.43699560546875,-0.4267628490924835,-0.8788893222808838,-0.03673933818936348
1761505733796031500,4.447031494140625,-0.5258750319480896,-0.8955865502357483,-0.2437732070684433
1761505733806067500,4.4570673828125,-0.5143517851829529,-0.8793428540229797,-0.3893572986125946
1761505733816103400,4.467103515625,-0.4391856789588928,-0.6707374453544617,-0.46404698491096497
1761505733826139400,4.477139404296875,-0.37071704864501953,-0.2753323018550873,-0.4521394371986389
1761505733836176400,4.48717626953125,-0.3167448937892914,0.3105703294277191,-0.39846235513687134
1761505733846211300,4.49721142578125,-0.2060071974992752,0.9554523229598999,-0.4027280807495117
1761505733856247600,4.50724755859375,-0.004129733890295029,1.4397820234298706,-0.49868202209472656
1761505733866283500,4.517283447265625,0.23277077078819275,1.5391374826431274,-0.6749206185340881
1761505733876319500,4.527319580078125,0.40944352746009827,1.248668909072876,-0.8527928590774536
1761505733886355500,4.53735546875,0.4857332706451416,0.7804725766181946,-0.9606013298034668
1761505733896391400,4.547391357421875,0.49186015129089355,0.27239707112312317,-0.9428079724311829
1761505733906427400,4.557427490234375,0.47213971614837646,-0.16600413620471954,-0.801075279712677
1761505733916463400,4.56746337890625,0.4602729380130768,-0.40498819947242737,-0.5894807577133179
1761505733926499300,4.577499267578125,0.4518415629863739,-0.47168171405792236,-0.37400463223457336
1761505733936537600,4.58753759765625,0.4241896867752075,-0.4339825212955475,-0.19642291963100433
1761505733946573600,4.597573486328125,0.4222397208213806,-0.3501315712928772,-0.07685524225234985
1761505733956609500,4.607609619140625,0.4333048164844513,-0.22138939797878265,-0.025711487978696823
1761505733966645500,4.6176455078125,0.4402373433113098,-0.08800563961267471,-0.02525464817881584
1761505733976681500,4.627681396484375,0.4151277542114258,0.04772556573152542,-0.031046757474541664
1761505733986717400,4.637717529296875,0.3445354402065277,0.1818390041589737,-0.032383643090724945
1761505733996754400,4.64775439453125,0.24014218151569366,0.2802364230155945,-0.031662728637456894
1761505734006790400,4.657790283203125,0.1305588036775589,0.29762157797813416,-0.03602548688650131
1761505734016826400,4.667826416015625,0.03820384666323662,0.20930904150009155,-0.018300551921129227
1761505734026862300,4.6778623046875,-0.016152337193489075,0.10927311331033707,0.04566418379545212
1761505734036898300,4.687898193359375,-0.03898201882839203,0.016431324183940887,0.1456584334373474
1761505734046934300,4.697934326171875,-0.027276406064629555,-0.08666764199733734,0.28278183937072754
1761505734056970200,4.70797021484375,-0.0005308114923536777,-0.15826725959777832,0.42800721526145935
1761505734067006500,4.71800634765625,0.025923147797584534,-0.207075834274292,0.5727013945579529
1761505734077042400,4.72804248046875,0.04961755499243736,-0.16451852023601532,0.6731582283973694
1761505734087078400,4.738078369140625,0.0850648283958435,-0.0019703207071870565,0.7104512453079224
1761505734097114400,4.7481142578125,0.13553252816200256,0.1788543164730072,0.6996169686317444
1761505734107150600,4.758150634765625,0.20473596453666687,0.37663495540618896,0.6611663103103638
1761505734117187600,4.7681875,0.25101932883262634,0.5406326651573181,0.6097214818000793
1761505734127223600,4.7782236328125,0.23249858617782593,0.5048916935920715,0.5544411540031433
1761505734137259500,4.788259521484375,0.1306752860546112,0.26888903975486755,0.5122380256652832
1761505734147295500,4.79829541015625,-0.017059922218322754,-0.006102445535361767,0.47452303767204285
1761505734157331500,4.80833154296875,-0.14726905524730682,-0.12200427800416946,0.44984936714172363
1761505734167367400,4.818367431640625,-0.18682663142681122,-0.061065975576639175,0.4040910005569458
1761505734177403400,4.8284033203125,-0.1147894561290741,0.003673338796943426,0.3126010298728943
1761505734187439400,4.838439453125,0.024650441482663155,-0.08315972238779068,0.19372442364692688
1761505734197475300,4.848475341796875,0.15697066485881805,-0.31827956438064575,0.13964495062828064
1761505734207511600,4.858511474609375,0.2587054967880249,-0.6027316451072693,0.24078813195228577
1761505734217548300,4.86854833984375,0.32033902406692505,-0.645407497882843,0.455215185880661
1761505734227584300,4.878584228515625,0.3044624924659729,-0.500921368598938,0.6250709295272827
1761505734237620500,4.888620361328125,0.20533378422260284,-0.38799160718917847,0.6383174657821655
1761505734247656400,4.898656494140625,0.05284872278571129,-0.37599217891693115,0.4848543107509613
1761505734257692400,4.9086923828125,-0.11715682595968246,-0.6266869902610779,0.19122561812400818
1761505734267728400,4.918728271484375,-0.27835187315940857,-0.8819083571434021,-0.2502124309539795
1761505734277764600,4.9287646484375,-0.39268508553504944,-1.139005422592163,-0.8122278451919556
1761505734287800600,4.938800537109375,-0.3892544209957123,-1.3472912311553955,-1.3647077083587646
1761505734297836500,4.94883642578125,-0.24267536401748657,-1.2839678525924683,-1.7350718975067139
1761505734307872500,4.95887255859375,-0.05131152644753456,-0.9738571643829346,-1.8605725765228271
1761505734317908500,4.968908447265625,0.09685850143432617,-0.56340491771698,-1.753650188446045
1761505734327944400,4.9789443359375,0.2077554166316986,-0.04311234876513481,-1.4860445261001587
1761505734337981400,4.9889814453125,0.30383026599884033,0.5272326469421387,-1.1739652156829834
1761505734348017400,4.999017333984375,0.3349999785423279,0.8600437045097351,-0.9556425213813782
1761505734358053400,5.009053466796875,0.27161940932273865,0.830973207950592,-0.871596097946167
1761505734368089300,5.01908935546875,0.13442431390285492,0.6260371208190918,-0.8609916567802429
1761505734378125300,5.029125244140625,-0.0388537272810936,0.33640000224113464,-0.8968231678009033
1761505734388161500,5.03916162109375,-0.2232746034860611,0.04980551078915596,-0.9553031325340271
1761505734398197500,5.049197509765625,-0.38687047362327576,-0.17259986698627472,-1.0085210800170898
1761505734408233500,5.0592333984375,-0.4976726174354553,-0.2949722111225128,-0.9941402077674866
1761505734418269400,5.06926953125,-0.5351550579071045,-0.26960721611976624,-0.8896247148513794
1761505734428305400,5.079305419921875,-0.49742454290390015,-0.13893018662929535,-0.7035620808601379
1761505734438341400,5.08934130859375,-0.420292466878891,0.04014262184500694,-0.4666811525821686
1761505734448378400,5.09937841796875,-0.3353435695171356,0.22484537959098816,-0.22352243959903717
1761505734458414600,5.10941455078125,-0.27132198214530945,0.4255659580230713,-0.026111889630556107
1761505734468450600,5.119450439453125,-0.24546512961387634,0.6451922655105591,0.1250675618648529
1761505734478486500,5.129486572265625,-0.24940234422683716,0.812350869178772,0.21368078887462616
1761505734488522500,5.1395224609375,-0.2517194449901581,0.8882502913475037,0.24495072662830353
1761505734498558500,5.149558349609375,-0.2530784606933594,0.8767850995063782,0.26386716961860657
1761505734508594400,5.159594482421875,-0.2507290840148926,0.7638345956802368,0.3003580868244171
1761505734518630400,5.16963037109375,-0.25391048192977905,0.5795859098434448,0.3825123608112335
1761505734528666600,5.17966650390625,-0.27637287974357605,0.40370625257492065,0.49745020270347595
1761505734538702600,5.18970263671875,-0.32408395409584045,0.24874411523342133,0.6240930557250977
1761505734548738600,5.199738525390625,-0.3621937334537506,0.1377655416727066,0.7272292375564575
1761505734558775600,5.209775634765625,-0.38092002272605896,0.13133135437965393,0.7798658013343811
1761505734568811500,5.2198115234375,-0.3484709560871124,0.20081448554992676,0.7973558306694031
1761505734578847500,5.229847412109375,-0.25861671566963196,0.3060207962989807,0.7978556752204895
1761505734588883500,5.239883544921875,-0.13579706847667694,0.3542152941226959,0.8129619359970093
1761505734598919400,5.24991943359375,-0.027388563379645348,0.31724926829338074,0.8718507885932922
1761505734608955400,5.259955322265625,0.04167891666293144,0.26142945885658264,0.976020097732544
1761505734618991400,5.269991455078125,0.09284090250730515,0.22810347378253937,1.119347095489502
1761505734629027300,5.28002734375,0.11356988549232483,0.24671071767807007,1.265649676322937
1761505734639063300,5.290063232421875,0.10083437711000443,0.28259599208831787,1.3782519102096558
1761505734649099300,5.300099365234375,0.05580240115523338,0.27117547392845154,1.4204990863800049
1761505734659135200,5.31013525390625,0.003767695976421237,0.21560116112232208,1.3970123529434204
1761505734669172500,5.32017236328125,0.015769071877002716,0.3742161691188812,1.3423733711242676
1761505734679208400,5.33020849609375,0.09384735673666,0.7263880372047424,1.2395029067993164
1761505734689244400,5.340244384765625,0.18885912001132965,0.9295352697372437,1.1020785570144653
1761505734699280400,5.3502802734375,0.23880964517593384,0.9137571454048157,0.9603140950202942
1761505734709316600,5.360316650390625,0.228256493806839,0.6794821619987488,0.8245829343795776
1761505734719352600,5.3703525390625,0.16143591701984406,0.33694955706596375,0.6711925864219666
1761505734729388500,5.380388427734375,0.0839836597442627,-0.0017472817562520504,0.48328742384910583
1761505734739424500,5.390424560546875,0.04557155445218086,-0.2596411406993866,0.24673321843147278
1761505734749460500,5.40046044921875,0.06305819749832153,-0.4708121418952942,-0.01747983694076538
1761505734759496400,5.410496337890625,0.11293280124664307,-0.6050922274589539,-0.24488715827465057
1761505734769532400,5.420532470703125,0.17745772004127502,-0.7724014520645142,-0.4162517488002777
1761505734779569400,5.4305693359375,0.24627940356731415,-0.9838849306106567,-0.5665243268013
1761505734789605400,5.44060546875,0.3248130977153778,-1.131402611732483,-0.6971880793571472
1761505734799641300,5.450641357421875,0.3853859007358551,-1.144832730293274,-0.8021970391273499
1761505734809677300,5.46067724609375,0.4178643524646759,-1.0096509456634521,-0.8771475553512573
1761505734819713300,5.47071337890625,0.41613247990608215,-0.7285418510437012,-0.9248144030570984
1761505734829749200,5.480749267578125,0.36085811257362366,-0.35553812980651855,-0.938664972782135
1761505734839786000,5.490785888671875,0.271656334400177,0.00714604277163744,-0.9454336762428284
1761505734849822000,5.500822021484375,0.17406129837036133,0.25689697265625,-0.9456965327262878
1761505734859858000,5.51085791015625,0.07856780290603638,0.35417476296424866,-0.9307625889778137
1761505734869894100,5.52089404296875,-0.01907527446746826,0.36201709508895874,-0.9053918719291687
1761505734879930000,5.53093017578125,-0.12401633709669113,0.31468313932418823,-0.8721649050712585
1761505734889966000,5.540966064453125,-0.24048128724098206,0.2352864295244217,-0.827629566192627
1761505734900003000,5.551003173828125,-0.33382269740104675,0.19402660429477692,-0.76934415102005
1761505734910039000,5.5610390625,-0.40426963567733765,0.19558198750019073,-0.6945871114730835
1761505734920075000,5.571074951171875,-0.45975685119628906,0.19632314145565033,-0.6015663743019104
1761505734930111000,5.581111083984375,-0.5020923614501953,0.23319627344608307,-0.4845890998840332
1761505734940147000,5.59114697265625,-0.5139636397361755,0.2811635136604309,-0.35146966576576233
1761505734950183000,5.601182861328125,-0.4682465195655823,0.3329174816608429,-0.226610004901886
1761505734960219000,5.611218994140625,-0.3591333329677582,0.359472393989563,-0.12941446900367737
1761505734970254800,5.6212548828125,-0.2272048443555832,0.3594973385334015,-0.055985238403081894
1761505734980290800,5.631290771484375,-0.11186281591653824,0.3446965515613556,0.004776910878717899
1761505734990326800,5.641326904296875,-0.04142218083143234,0.3303146958351135,0.05283142253756523
1761505735000362800,5.65136279296875,-0.009747607633471489,0.3112448751926422,0.09564679861068726
1761505735010400000,5.66139990234375,-0.013588905334472656,0.2805241346359253,0.13289104402065277
1761505735020436000,5.67143603515625,-0.03737252950668335,0.2543196976184845,0.15500566363334656
1761505735030472000,5.681471923828125,-0.07099317014217377,0.23315824568271637,0.16043995320796967
1761505735040508000,5.6915078125,-0.11446395516395569,0.17280861735343933,0.17417067289352417
1761505735050544000,5.701544189453125,-0.15915223956108093,0.12276459485292435,0.21968825161457062
1761505735060580000,5.711580078125,-0.19188754260540009,0.09806723892688751,0.30651745200157166
1761505735070616000,5.721615966796875,-0.19922059774398804,0.07456469535827637,0.44076448678970337
1761505735080652000,5.731652099609375,-0.1626540720462799,0.05633482709527016,0.6075396537780762
1761505735090688000,5.74168798828125,-0.10781979560852051,0.1279025822877884,0.7876025438308716
1761505735100724000,5.751723876953125,-0.07753273099660873,0.3024134039878845,0.9441612958908081
1761505735110760000,5.761760009765625,-0.06718312948942184,0.42849984765052795,1.0796531438827515
1761505735120796000,5.7717958984375,-0.07364955544471741,0.4569472074508667,1.194084644317627
1761505735130833000,5.7818330078125,-0.09654124081134796,0.4652279317378998,1.2566158771514893
1761505735140868900,5.791868896484375,-0.09671088308095932,0.4511163532733917,1.2491364479064941
1761505735150904800,5.80190478515625,-0.09656823426485062,0.4282568693161011,1.1955115795135498
1761505735160940800,5.81194091796875,-0.13844723999500275,0.48762327432632446,1.1136332750320435
1761505735170976800,5.821976806640625,-0.24952846765518188,0.7033995389938354,1.0445533990859985
1761505735181013000,5.832012939453125,-0.4101860523223877,0.9586960077285767,1.0094428062438965
1761505735191049000,5.842049072265625,-0.5522795915603638,1.0776289701461792,0.9970688223838806
1761505735201085000,5.8520849609375,-0.6091777682304382,0.9696902632713318,0.9790985584259033
1761505735211121000,5.862120849609375,-0.5347864031791687,0.7481046319007874,0.9220861792564392
1761505735221156900,5.872156982421875,-0.34316688776016235,0.4896467626094818,0.8111620545387268
1761505735231192800,5.88219287109375,-0.128672793507576,0.22062787413597107,0.6643397212028503
1761505735241229000,5.89222900390625,0.047843657433986664,-0.03340599313378334,0.5176421999931335
1761505735251266000,5.90226611328125,0.10940847545862198,-0.22704918682575226,0.42202961444854736
1761505735261302000,5.912302001953125,0.0421316996216774,-0.35106220841407776,0.3884333074092865
1761505735271338000,5.922337890625,-0.07555923610925674,-0.4452827572822571,0.3615087866783142
1761505735281374000,5.9323740234375,-0.16084004938602448,-0.5103243589401245,0.18608875572681427
1761505735291410000,5.942409912109375,-0.18786203861236572,-0.6705607771873474,-0.2142922729253769
1761505735301446000,5.95244580078125,-0.16023387014865875,-0.9032168984413147,-0.7704913020133972
1761505735311481900,5.96248193359375,-0.08879579603672028,-1.0595955848693848,-1.3487720489501953
1761505735321517800,5.972517822265625,-0.0033914167433977127,-1.031715989112854,-1.830838918685913
1761505735331554000,5.982553955078125,0.03515784814953804,-0.879496157169342,-2.1441152095794678
1761505735341590000,5.992590087890625,-0.016446491703391075,-0.5473698973655701,-2.2046451568603516
1761505735351626000,6.0026259765625,-0.13120263814926147,0.011671862564980984,-2.0640900135040283
1761505735361662000,6.012661865234375,-0.2437688708305359,0.46430298686027527,-1.8253685235977173
1761505735371698000,6.022697998046875,-0.3322280943393707,0.7083858847618103,-1.5711565017700195
1761505735381735000,6.03273486328125,-0.4145384132862091,0.7406300902366638,-1.3746412992477417
1761505735391771000,6.04277099609375,-0.5121891498565674,0.5676912665367126,-1.2875726222991943
1761505735401806800,6.052806884765625,-0.5940307378768921,0.2680782079696655,-1.3041937351226807
1761505735411842800,6.0628427734375,-0.6087472438812256,-0.050123684108257294,-1.326014518737793
1761505735421879000,6.072879150390625,-0.5405356884002686,-0.27832674980163574,-1.2795453071594238
1761505735431915000,6.0829150390625,-0.40768155455589294,-0.3573029637336731,-1.146278738975525
1761505735441951000,6.092950927734375,-0.2184293270111084,-0.3505086898803711,-0.9559668898582458
1761505735451987000,6.102987060546875,0.020472832024097443,-0.19516386091709137,-0.7239100933074951
1761505735462023000,6.11302294921875,0.246270552277565,0.08907851576805115,-0.5075990557670593
1761505735472059100,6.12305908203125,0.4294432997703552,0.4256942868232727,-0.3101150095462799
1761505735482095000,6.13309521484375,0.5454767346382141,0.7237664461135864,-0.11211990565061569
1761505735492131000,6.143131103515625,0.6006900072097778,0.9867141842842102,0.06312473118305206
1761505735502167000,6.1531669921875,0.6027960777282715,1.3525606393814087,0.38867220282554626
1761505735512204000,6.1632041015625,0.5196029543876648,1.3500114679336548,0.61602783203125
1761505735522240000,6.173239990234375,0.42906954884529114,0.9941615462303162,0.7418249249458313
1761505735532276000,6.18327587890625,0.37043496966362,0.4333775043487549,0.8133660554885864
1761505735542312000,6.19331201171875,0.3405444324016571,-0.15618085861206055,0.7962430119514465
1761505735552348000,6.203347900390625,0.33535054326057434,-0.5872683525085449,0.7061425447463989
1761505735562384000,6.2133837890625,0.3025590479373932,-0.7403071522712708,0.6174824833869934
1761505735572419800,6.223419921875,0.21724727749824524,-0.6661069989204407,0.5896527767181396
1761505735582455800,6.233455810546875,0.10023915022611618,-0.45222002267837524,0.6754393577575684
