time,seconds_elapsed,z,y,x
1761478219966717400,0.100717529296875,-0.13602818060219288,-0.06339673269875347,0.07290449269115924
1761478219976753400,0.11075341796875,-0.10285773240625858,-0.06051321315169334,-0.006435439874976873
1761478219986789400,0.120789306640625,-0.042514030602574346,-0.04356726598255336,-0.07633505166172981
1761478219996825300,0.130825439453125,-0.06990531087517737,-0.06331716465651989,-0.12665595662295817
1761478220006862600,0.140862548828125,-0.08516425480544566,-0.07712035682052373,-0.12748802353292704
1761478220016898600,0.150898681640625,-0.11089373934566973,-0.0683412764288485,-0.08565510706230997
1761478220026934500,0.1609345703125,-0.12590426147282122,-0.0049868485018610955,-0.013142390167713165
1761478220036970500,0.170970458984375,-0.1588923388391733,0.06347469330579042,0.11811872216314076
1761478220047006700,0.1810068359375,-0.2611316470861435,0.07851772946305573,0.2064914176210761
1761478220057043500,0.19104345703125,-0.30451135460734363,0.07945844437927008,0.13099208613112567
1761478220067079400,0.201079345703125,-0.2319599131375551,0.04665186105966568,-0.011354629968106746
1761478220077115600,0.21111572265625,-0.12274024448394774,-0.03919789179190993,-0.13725392300486564
1761478220087151600,0.221151611328125,-0.0535959811091423,-0.0708148269355297,-0.22977321674823759
1761478220097188400,0.231188232421875,-0.042894554352760315,-0.047254430062696334,-0.21765549345314503
1761478220107224600,0.241224609375,-0.06941372796595097,-0.03826492179073393,-0.14710618558600544
1761478220117260500,0.251260498046875,-0.11280337235927582,0.011498203157261013,-0.12220087691023945
1761478220127296800,0.261296875,-0.13583996455371378,0.08079407689720391,-0.15104951638430356
1761478220137332700,0.271332763671875,-0.14829846411049366,0.03706716337352991,-0.07264438045024871
1761478220147369700,0.28136962890625,-0.1453776082277298,0.024694442404061556,0.037870296449959276
1761478220157405700,0.29140576171875,-0.12259995923042297,0.09447568850815295,0.041642216204106804
1761478220167441700,0.301441650390625,-0.13608137209415436,0.0767035927131772,-0.00358823375031352
1761478220177477600,0.3114775390625,-0.12250643572807311,-0.01140117252357304,-0.07183321019783616
1761478220187514600,0.3215146484375,-0.09555939209163189,-0.05321699172891676,-0.1263577043287456
1761478220197550600,0.331550537109375,-0.18119944771528243,-0.056045785414054985,-0.13627309527397155
1761478220207586600,0.341586669921875,-0.22724925122857093,-0.0568856703042984,-0.06518471209406852
1761478220217622500,0.35162255859375,-0.2691384279310703,-0.027685879305005073,0.022875264152884482
1761478220227659500,0.361659423828125,-0.2911515222966671,-0.01853299716487527,0.05602174695134163
1761478220237695500,0.371695556640625,-0.2268190431177616,-0.014970190116763114,0.037885932410508395
1761478220247731700,0.381731689453125,-0.18308453080952167,-0.016249270141869783,0.023563392547518013
1761478220257767700,0.391767578125,-0.14922726939320563,-0.017658260156959295,0.03436813354790211
1761478220267803600,0.4018037109375,-0.07173077273666859,-0.01144194292537868,0.05623524357154965
1761478220277840600,0.411840576171875,-0.045405075868964195,-0.02112294059284031,0.05354278961718082
1761478220287876600,0.421876708984375,-0.037080315116047854,-0.019973332166299224,0.01902136520370841
1761478220297912600,0.43191259765625,-0.03612754443585872,-0.024063158763200043,-0.04462590819001198
1761478220307948500,0.441948486328125,-0.13430091841816902,-0.013812690644711256,-0.14343831072822213
1761478220317985500,0.451985595703125,-0.2702373290836811,0.025384178233891726,-0.1675029307961464
1761478220328021500,0.462021484375,-0.2750140419661999,0.020402078972384333,-0.0778464791379869
1761478220338057500,0.472057373046875,-0.20576690273880957,0.01064655476398766,0.03629150282591581
1761478220348093400,0.482093505859375,-0.19596154803931712,0.005181640421599149,0.042374914392828936
1761478220358129400,0.49212939453125,-0.16932605457007885,0.0021122429136186836,-0.03764204065203666
1761478220368166700,0.502166748046875,-0.05853811368644237,-0.022819442312419412,-0.10982187233045697
1761478220378202600,0.51220263671875,0.06160977621674537,-0.017272256514057515,-0.0984428385734558
1761478220388238600,0.522238525390625,0.08309270922839641,0.011531520904973148,-0.0521627334356308
1761478220398274600,0.532274658203125,0.06760229462981224,-0.01530373292006552,0.07337079502865672
1761478220408311600,0.5423115234375,-0.014988894817233084,-0.025946049900352954,0.08499649702310562
1761478220418347500,0.552347412109375,-0.1950169606655836,-0.0034785628307610747,-0.019757716654241083
1761478220428383500,0.562383544921875,-0.3844482301533222,0.020323387712985277,-0.13210589259192346
1761478220438419500,0.57241943359375,-0.45929684264957904,0.046083486587181685,-0.19109642622098325
1761478220448455700,0.58245556640625,-0.38824002365171906,0.028202669720724223,-0.14893106292560696
1761478220458492400,0.592492431640625,-0.20022212809324264,-0.02691416428014636,-0.02525587567910552
1761478220468528400,0.6025283203125,-0.014937456890940665,-0.07220131285786628,0.0894675049573183
1761478220478564600,0.612564697265625,0.11240355938673019,-0.0831041074052453,0.12170359491258859
1761478220488600600,0.6226005859375,0.15391221233904362,-0.06993146822974085,0.08271437743529676
1761478220498637600,0.632637451171875,0.09584814590513706,-0.09125234254747629,0.05236819287985563
1761478220508673800,0.642673828125,0.02573006906211376,-0.09934592489302158,0.008372399286925793
1761478220518709800,0.652709716796875,-0.09070552231967449,-0.03420380983166396,-0.02120806159302592
1761478220528745700,0.662745849609375,-0.22500819430351257,0.0404911464728415,-0.0258862825371325
1761478220538782700,0.67278271484375,-0.33171324978768824,0.04136661413311958,-0.0005139408715069294
1761478220548818700,0.682818603515625,-0.32263679388463495,0.02378141921237111,0.018300795844197273
1761478220558854700,0.692854736328125,-0.2512035427898168,-0.009933218862861394,0.04229688072055578
1761478220568890600,0.702890625,-0.2103676745325327,-0.04631817212589085,0.06350713427066802
1761478220578926600,0.712926513671875,-0.21091361797749994,-0.09115765000134705,0.07695639843046664
1761478220588963600,0.722963623046875,-0.22318273244202136,-0.08509995739758014,0.04650967610999941
1761478220598999600,0.73299951171875,-0.25147359190285207,-0.0428903896342963,-0.01940247347578406
1761478220609035500,0.743035400390625,-0.21951135045289993,-0.014509732998162507,-0.05402151304483414
1761478220619071500,0.753071533203125,-0.13903203859329222,0.013405351952835917,-0.02741056949496269
1761478220629108700,0.763108642578125,-0.09682079032957554,0.038530952315777536,0.01763239506334066
1761478220639144700,0.773144775390625,-0.08382803776562213,0.021972908485680818,0.007481149535626172
1761478220649180700,0.7831806640625,-0.062301850134134286,0.013320523213595151,-0.04806991116404533
1761478220659216600,0.793216552734375,-0.10977028827369212,-0.031520342901349065,-0.06308116394355892
1761478220669253600,0.803253662109375,-0.09322890331745147,-0.0017667174115777015,-0.06951397347003221
1761478220679289600,0.81328955078125,-0.10156126285493373,0.02108896525800228,-0.048996086098253726
1761478220689325600,0.82332568359375,-0.06711246528625488,0.009818214181065559,-0.027228929317742585
1761478220699361500,0.833361572265625,-0.04579553649127483,0.021952304089069365,-0.0517030069693923
1761478220709397500,0.8433974609375,-0.07747779195606708,0.043975043065845966,-0.06333674613982439
1761478220719434500,0.8534345703125,-0.12655132720470427,0.00007423427999019622,-0.08439575465098023
1761478220729470500,0.863470458984375,-0.15902210269868372,-0.02242160210125148,-0.12634031480252741
1761478220739506400,0.87350634765625,-0.14194704925715923,-0.030396380372717975,-0.11505655811354518
1761478220749542400,0.88354248046875,-0.08962707943320274,-0.05620645586848259,-0.03793693194538355
1761478220759579600,0.89357958984375,-0.026189503267407415,-0.0842281429991126,0.025303660343587397
1761478220769616000,0.903615966796875,-0.026607436418533324,-0.034970118029043075,0.040865094351768494
1761478220779651800,0.91365185546875,-0.056744216006994246,-0.036026422148942944,0.04515548502206802
1761478220789687800,0.923687744140625,-0.15014555328190327,-0.03444171024076641,0.021810265269875524
1761478220799724800,0.933724853515625,-0.25597791758477684,-0.02092990223877132,-0.0210357737660408
1761478220809760800,0.9437607421875,-0.3461410035908222,-0.004527925753220916,-0.04176584258377552
1761478220819796700,0.953796630859375,-0.3720405840009451,-0.007057371165603399,-0.026299393382668495
1761478220829832700,0.963832763671875,-0.31896658093929287,0.011989128479361533,-0.04532733445763588
1761478220839869700,0.97386962890625,-0.21959318351745605,-0.011243716939538717,-0.0640389030598104
1761478220849905700,0.98390576171875,-0.14660861132740974,-0.04380326669551432,-0.04664747714549303
1761478220859941600,0.993941650390625,-0.0744143127322197,-0.051875660122558474,-0.015002777212113141
1761478220869977600,1.0039775390625,-0.012943068203330039,-0.04606565866954625,0.028896131877601147
1761478220880013800,1.014013916015625,0.0012619827598333358,-0.04736008239425719,0.01434577460810542
1761478220890050800,1.02405078125,-0.04079787433445453,-0.021742972187325356,-0.05225435724183917
1761478220900086800,1.034086669921875,-0.1474415550202131,-0.020339169804006813,-0.11302388324216008
1761478220910122800,1.044122802734375,-0.20569676011204718,-0.014092895825579762,-0.11564151839464902
1761478220920159000,1.054158935546875,-0.2411316461086273,0.009832169641181826,-0.1107882331445813
1761478220930195700,1.06419580078125,-0.24736849467158317,0.0007305062316358089,-0.10679171085432171
1761478220940231700,1.074231689453125,-0.22244389677345752,0.004892229020968079,-0.09764891171678901
1761478220950268000,1.084267822265625,-0.1189864449083805,-0.021440262913703916,-0.08322378826215862
1761478220960303900,1.094303955078125,-0.0005786766707897186,-0.038486017195507885,-0.0409725002489984
1761478220970340600,1.104340576171875,0.07033551898598671,-0.05676664703451097,0.02517871878966689
1761478220980376800,1.114376953125,0.07654547954201697,-0.044895153585448856,0.06589344488531351
1761478220990412800,1.124412841796875,-0.004774959316849708,-0.026200024661421774,0.04996083947718143
1761478221000449000,1.134448974609375,-0.1439741711705923,-0.014284180613979696,-0.026709143227338788
1761478221010485800,1.14448583984375,-0.27728724759519097,-0.003873991889134049,-0.10492913185283541
1761478221020522000,1.15452197265625,-0.3438894252717495,-0.011256284160166979,-0.08889613481014967
1761478221030558000,1.164557861328125,-0.3184393421947956,-0.012665420305728911,-0.029488252551853656
1761478221040594000,1.174593994140625,-0.25571780534386634,-0.05381992605812847,-0.0001572363883256912
1761478221050631000,1.184630859375,-0.1783031417518854,-0.07691372833251953,-0.00926876360476017
1761478221060667000,1.1946669921875,-0.09082534930706024,-0.045541927056387065,0.0023244974248111247
1761478221070702800,1.204702880859375,-0.11839666232168673,-0.03816021930724382,0.05118351313993334
1761478221080738800,1.21473876953125,-0.16394436153173444,-0.0006341331850737333,0.0849107184357941
1761478221090774800,1.22477490234375,-0.20202011742591858,0.0020263181958347556,0.0719461690530181
1761478221100811800,1.234811767578125,-0.16848142043948172,-0.02189231753014028,0.016288140847533942
1761478221110847700,1.24484765625,-0.11573065798282622,-0.04132438242658972,-0.030287440105527638
1761478221120884000,1.254884033203125,-0.07848550769388675,-0.020849165152758357,-0.02183393840640783
1761478221130920000,1.264919921875,-0.06428104125261307,-0.02682750891000032,0.08260463345050811
1761478221140957000,1.27495703125,-0.04487491451501846,-0.010119169889017938,0.15875629136934877
1761478221150993000,1.284992919921875,-0.063007368054986,0.0029454788673669097,0.11895955690145492
1761478221161028900,1.29502880859375,-0.10605857427418232,0.0074056000813841815,-0.006992196974903345
1761478221171064800,1.30506494140625,-0.09424655592739581,-0.03208542943820357,-0.12693126643300057
1761478221181101800,1.315101806640625,-0.08914426435232162,0.02480857030302286,-0.19296952661648392
1761478221191137800,1.3251376953125,-0.09360358184874057,0.024636866997927425,-0.167264007473737
1761478221201173800,1.335173828125,-0.1877671356678009,-0.0006337678588926791,-0.05497428372502327
1761478221211209700,1.345209716796875,-0.2554121003955602,0.02614719849564135,-0.0004857376903295517
1761478221221246700,1.355246826171875,-0.2854009959459305,0.027890681162104008,0.017067308526486157
1761478221231282700,1.36528271484375,-0.26835224598944185,0.050138680262118575,-0.05283230326026678
1761478221241319000,1.37531884765625,-0.19469664267003536,0.052824119953811165,-0.1284045538559556
1761478221251355000,1.38535498046875,-0.14053425984978676,0.029342414340376852,-0.15088395055904982
1761478221261392000,1.395391845703125,-0.05732464624345302,0.002325228077173233,-0.12033347560316324
1761478221271427800,1.405427734375,-0.012188450443744659,-0.046835473998263474,-0.06599471330270171
1761478221281463800,1.4154638671875,0.009490297400951385,-0.05112703371234238,-0.07759498859494925
1761478221291499800,1.425499755859375,0.011708557972311974,-0.025128596037626266,-0.08067366538792849
1761478221301536800,1.435536865234375,-0.020716040292382238,-0.018349018900096416,0.006129004274308681
1761478221311572700,1.44557275390625,-0.06255319454669953,-0.02326309442669153,0.11271408664062618
1761478221321608700,1.455608642578125,-0.07818857057392596,-0.009872282455861569,0.14582535199522972
1761478221331644700,1.465644775390625,-0.11044891818761825,0.008248261450603605,0.1105666993483901
1761478221341681700,1.475681640625,-0.16934826640188694,-0.029431553928554056,0.022647154485434293
1761478221351717600,1.485717529296875,-0.2268359942525625,-0.04558452408909797,-0.0462435725197196
1761478221361753900,1.49575390625,-0.27445290095210073,-0.06520159016363322,-0.07307137369066477
1761478221371789800,1.505789794921875,-0.30866379811167716,-0.06420644164644182,-0.04810308278128504
1761478221381826000,1.515825927734375,-0.2819225061804056,-0.055916971402615305,-0.012077391284704208
1761478221391862800,1.52586279296875,-0.21330723511576652,-0.04866290862113237,0.0054575347535312175
1761478221401898800,1.535898681640625,-0.13773323095440865,-0.015787132522836325,0.02138108007237315
1761478221411935000,1.54593505859375,-0.1139320841282606,0.014464944008365272,0.01209521920233965
1761478221421971000,1.555970947265625,-0.12305121012926101,0.02685118204653263,-0.010772153905034065
1761478221432007700,1.566007568359375,-0.16328385179638863,0.015871449805423616,-0.011164660353958605
1761478221442044000,1.5760439453125,-0.1825643063277006,-0.008503989777341485,-0.027000819650292395
1761478221452079900,1.586079833984375,-0.183397250020504,-0.015497355796024202,-0.04729527352973818
1761478221462115800,1.59611572265625,-0.15420622684955596,-0.027844357802346346,-0.032690409594029184
1761478221472152800,1.60615283203125,-0.12178513571619987,-0.04753551202639937,-0.019434476049244403
1761478221482189000,1.61618896484375,-0.057394788870215416,-0.008439327043294906,-0.025103461596369742
1761478221492225000,1.62622509765625,0.0052472530037164684,0.008289470243826508,-0.03523205690085888
1761478221502261000,1.636260986328125,0.03865793969631195,0.003646101417392492,-0.05176087463647127
1761478221512298000,1.646298095703125,0.005443652358651161,0.02656279355920851,-0.07826894233375788
1761478221522334000,1.656333984375,-0.04097673803269863,0.03253003140054643,-0.08887216941267251
1761478221532370000,1.666369873046875,-0.097519293987751,0.03343187561109662,-0.08021013952940702
1761478221542406000,1.676406005859375,-0.17761808209717272,0.024461948822438715,-0.01808671470209956
1761478221552443000,1.68644287109375,-0.22590134375095366,0.01764035917408764,-0.0002516366735100746
1761478221562478800,1.696478759765625,-0.2586070970445871,-0.015209771026298403,-0.013811667731404303
1761478221572514800,1.706514892578125,-0.2874737105667591,-0.054587987821176645,-0.03787131936326623
1761478221582550800,1.71655078125,-0.29738077207505703,-0.039046500622481106,-0.05739639630541205
1761478221592587800,1.726587890625,-0.23759236606657502,-0.028300577137246725,-0.06339402928501367
1761478221602624000,1.7366240234375,-0.21982348514199257,0.0018088760528713465,-0.03970847166255116
1761478221612660000,1.746659912109375,-0.20411270579099655,-0.0007919540952891111,0.03403817094117403
1761478221622696000,1.756696044921875,-0.2096574804365635,0.000818403710797429,0.08208864675238728
1761478221632732000,1.76673193359375,-0.18828443754017352,0.01787796732224524,0.08030074042230843
1761478221642769000,1.776768798828125,-0.1433124923914671,-0.04410780260004103,0.03518003445267677
1761478221652804900,1.786804931640625,-0.12274492065906524,-0.05614975724518299,-0.049002369708567854
1761478221662840800,1.7968408203125,-0.18239070332646368,-0.012354893051832913,-0.11002426303476094
1761478221672876800,1.806876708984375,-0.20217676929235456,0.006361205594986677,-0.10689750931635499
1761478221682913800,1.816913818359375,-0.1616805082529783,0.056649450395628805,-0.07849427552223205
1761478221692949800,1.82694970703125,-0.10959785431623459,0.07146386542879045,0.04890460842251777
1761478221702985700,1.83698583984375,-0.1028787751942873,0.03603394786827266,0.17018749370500444
1761478221713021700,1.847021728515625,-0.01816752485334873,-0.03318944515734911,0.03135638451129198
1761478221723059000,1.857058837890625,-0.09930442383885384,-0.015441680086031554,-0.11591185976862907
1761478221733095000,1.867094970703125,-0.12043839728236198,-0.04878237028233707,-0.16221753773912787
1761478221743131000,1.877130859375,-0.1108691894263029,-0.047368192635476584,-0.13055720184519887
1761478221753166800,1.887166748046875,-0.16926058811843395,0.02022182703465223,-0.07197101123332977
1761478221763203800,1.897203857421875,-0.18199205939769744,0.034368279678374525,-0.007925093910843133
1761478221773239300,1.9072392578125,-0.14169453580081462,0.020659633930027482,-0.025981997996568678
1761478221783275300,1.917275146484375,-0.07844692924916744,0.014267448674887417,-0.07378419813513755
1761478221793311200,1.927311279296875,-0.03600888649225235,-0.00587941342741251,-0.07774711041674018
1761478221803348500,1.937348388671875,-0.006167874979972839,-0.04198182342201471,-0.05652370512410998
1761478221813384400,1.947384521484375,-0.06300912162065506,-0.04513020445033908,-0.031319121240824456
1761478221823420400,1.95742041015625,-0.13357201962172985,-0.010761705576255916,-0.01625511536076665
1761478221833456600,1.96745654296875,-0.20617840614914892,-0.01185571135804057,0.03545943591594696
1761478221843493400,1.977493408203125,-0.233463303437829,-0.0395358915746212,0.059072805085033174
1761478221853529300,1.987529296875,-0.20734511184096335,-0.040658611994236704,0.004961275669187307
1761478221863565600,1.997565673828125,-0.17509002492427825,-0.04477598418518901,-0.022152941227704285
1761478221873601500,2.0076015625,-0.14244564642906188,-0.044198184297233815,0.008608253869414328
1761478221883637500,2.017637451171875,-0.10630056633651255,-0.02575498430766165,0.03714636608958244
1761478221893674500,2.027674560546875,-0.07825169893801212,-0.015047347006201743,0.016326573161780832
1761478221903710500,2.03771044921875,-0.0647936669498682,-0.008675693082436918,-0.04140139318555593
1761478221913746400,2.047746337890625,-0.11088906317055225,0.004617722928524017,-0.0815028096884489
1761478221923782400,2.057782470703125,-0.1733095712482929,0.014335618540272117,-0.09009367403164506
1761478221933819600,2.067819580078125,-0.18459785798192024,0.006501490848511457,-0.07792568185403942
1761478221943855600,2.077855712890625,-0.180394561073184,-0.00044986265935003755,-0.09097674047648906
1761478221953891600,2.0878916015625,-0.19532909535467624,0.001565861077234149,-0.09878580679222941
1761478221963927600,2.097927490234375,-0.23740941071510313,0.010303586545214056,-0.08860635808333754
1761478221973964500,2.107964599609375,-0.24053835639059543,0.02193593747615814,-0.06653437313735484
1761478221984000500,2.11800048828125,-0.22045243069529533,0.006759045806154608,-0.07094795179590582
1761478221994036500,2.128036376953125,-0.10885726508200168,-0.022401436096057294,-0.12660992552414535
1761478222004072400,2.138072509765625,0.010609656819701194,-0.03667239190228283,-0.14786197238937018
1761478222014109400,2.148109375,0.0380675725877285,-0.030105434602126478,-0.09797945884540676
1761478222024145400,2.1581455078125,0.002952420064806938,-0.010684183360636234,0.005553980865329503
1761478222034181400,2.168181396484375,-0.06234101310074329,-0.033897008904814716,0.06286810571476817
1761478222044217300,2.17821728515625,-0.1568020885616541,-0.02114668679460883,0.0523335599578917
1761478222054254600,2.188254638671875,-0.26001813288629055,0.014971359160542487,-0.038156858306378126
1761478222064290600,2.19829052734375,-0.2543307348996401,-0.03195588477440178,-0.04819616789221763
1761478222074326500,2.208326416015625,-0.1339098732739687,-0.09703969377726315,0.061372314199060196
1761478222084362500,2.218362548828125,-0.033496026888489724,-0.09107041010931134,0.17513035693466664
1761478222094398500,2.2283984375,-0.08804244059026241,-0.11167334541603922,0.21757366038858889
1761478222104435500,2.238435546875,-0.24078970080316064,-0.08020736305043101,0.1298418931826949
1761478222114471400,2.248471435546875,-0.34013971734941006,0.006537512009963393,0.01808671470209956
1761478222124507400,2.25850732421875,-0.3457581417530775,0.005919453176856041,-0.05345584198608994
1761478222134543400,2.26854345703125,-0.26842531122565266,0.004820917350426316,-0.11010887257829308
1761478222144580400,2.278580322265625,-0.14744915380477905,-0.02771934318318963,-0.10735708965212105
1761478222154616300,2.2886162109375,-0.044216742867231366,-0.04969437056072056,-0.10434095670133829
1761478222164652300,2.29865234375,0.024486791002750394,-0.04318820353709161,-0.0857160434693098
1761478222174688300,2.308688232421875,0.046940030351281165,-0.047769101586565374,-0.023622136997431514
1761478222184725500,2.3187255859375,-0.00016600421667099,-0.003477612982690334,-0.0038838556960225103
1761478222194761500,2.328761474609375,-0.08100362799465656,0.032329321196675295,0.0030789690539240835
1761478222204797400,2.33879736328125,-0.1503267550677061,0.0211687524959445,0.02345028756186366
1761478222214833400,2.34883349609375,-0.175405666744709,-0.018558131606131793,0.01324848089069128
1761478222224870400,2.358870361328125,-0.16094751780331135,-0.017083236747980117,-0.039695319920033216
1761478222234906400,2.36890625,-0.1559820043504238,-0.04728153726533055,-0.05522109809294343
1761478222244942300,2.3789423828125,-0.1850818421065807,-0.08698211788237094,-0.049937458601593966
1761478222254978300,2.388978271484375,-0.2250941190212965,-0.044200814645737406,-0.04387450530081987
1761478222265015300,2.399015380859375,-0.24272914443314075,-0.014426146367937326,-0.02495776951536536
1761478222275051300,2.40905126953125,-0.27668460552692414,-0.011073036547750234,-0.03398074166551232
1761478222285087200,2.419087158203125,-0.2388707154393196,0.041047392116114495,-0.06692527215108275
1761478222295123500,2.42912353515625,-0.13699322624206542,-0.004019757035374641,-0.01974047325849533
1761478222305159400,2.439159423828125,-0.0651075552046299,-0.030684403533861038,0.034827713883668183
1761478222315196400,2.449196533203125,-0.07182429623901844,-0.028752120297029612,0.04879530282914638
1761478222325232400,2.459232421875,-0.077964698690176,-0.03658113342225552,0.0060965633094310755
1761478222335268600,2.4692685546875,-0.09112345547080039,-0.03260864959470928,-0.04483750511407852
1761478222345304600,2.4793046875,-0.16022504874765872,-0.008624693547561764,-0.09485241286605596
1761478222355341300,2.48934130859375,-0.21584522916078566,0.006270677767321467,-0.1302327921964228
1761478222365377500,2.49937744140625,-0.18405659071207045,-0.02008672941289842,-0.08717208749651909
1761478222375413500,2.50941357421875,-0.08220598952174187,-0.021810995922237633,-0.025383593712002037
1761478222385449500,2.519449462890625,-0.0631119974732399,-0.028406887055933475,0.02963452915474772
1761478222395486500,2.529486572265625,-0.08511983114182949,-0.015437076976150273,0.029540713391453026
1761478222405522400,2.5395224609375,-0.11510580408275127,0.01695946423783898,0.0013935001850128173
1761478222415558400,2.549558349609375,-0.1289852763533592,-0.0001771101325750351,-0.011683861922472715
1761478222425594400,2.559594482421875,-0.18438275392651557,-0.015231179140508174,-0.0657772711597383
1761478222435630600,2.569630615234375,-0.21359598892927167,0.008404547990858555,-0.09816928232908248
1761478222445667600,2.57966748046875,-0.2249544182896614,-0.012524623595550656,-0.08518588211536407
1761478222455703600,2.58970361328125,-0.18739888687729833,-0.03206299841068685,-0.04675678273886442
1761478222465739500,2.599739501953125,-0.145794956856966,-0.026592750306054947,-0.02919306899756193
1761478222475775500,2.609775390625,-0.09077157329320908,-0.011868278578668833,-0.051425943593680856
1761478222485812500,2.6198125,-0.042644378983974454,-0.015899799117073416,-0.05453413874208927
1761478222495848400,2.629848388671875,0.006432078874111175,-0.02980104482807219,-0.03176058139801025
1761478222505884400,2.639884521484375,0.02212590709030628,-0.013799685032665729,-0.026223990058898923
1761478222515920400,2.64992041015625,-0.0449514868825674,0.020747750604897735,-0.015444383499771355
1761478222525957400,2.659957275390625,-0.13863105657696723,0.022041882068663834,-0.04423354787155986
1761478222535993300,2.669993408203125,-0.2520768184930086,0.026384879709035157,-0.102483930657804
1761478222546029600,2.680029541015625,-0.33285482103824615,0.031817864543199535,-0.1366696933761239
1761478222556065500,2.6900654296875,-0.34436873322129247,-0.01708973955400288,-0.10104951394051313
1761478222566101500,2.7001015625,-0.3153863843649626,-0.058206178318336604,-0.04417465729117393
1761478222576138500,2.710138427734375,-0.2294593284934759,-0.05476743604131042,0.01425078980103135
1761478222586174500,2.720174560546875,-0.14683072964549063,-0.04680953583940863,0.059273442223668094
1761478222596210400,2.73021044921875,-0.07499065131545066,-0.04497516001909971,0.04452829303443431
1761478222606246400,2.740246337890625,-0.033116672182083126,-0.031408333894237875,-0.018785949012637138
1761478222616283400,2.750283447265625,-0.05413900194466114,-0.016369243259727953,-0.0716971627280116
1761478222626319400,2.7603193359375,-0.09609481414258479,-0.009197524999454617,-0.05258914215415716
1761478222636355300,2.770355224609375,-0.13483224881589412,0.012278686010465025,-0.016226619918644426
1761478222646391300,2.780391357421875,-0.18028057930469513,0.019166326632350683,-0.01933569184988737
1761478222656428300,2.79042822265625,-0.20669220089018345,0.025522929117456076,-0.047969957920908926
1761478222666464500,2.800464599609375,-0.2160042191147804,-0.021163637929409743,-0.07257701430246233
1761478222676500500,2.81050048828125,-0.1409761583983898,-0.049830491095781325,-0.0638742140173912
1761478222686536400,2.820536376953125,-0.13026771737933157,-0.05906513323523104,-0.018272300402075052
1761478222696573400,2.830573486328125,-0.13310615567564962,-0.05132737859003245,0.0453949928663671
1761478222706609400,2.840609375,-0.09188742558062075,-0.036979850416257974,0.038535043969005346
1761478222716645400,2.850645263671875,-0.07159457913637161,-0.0028758476972579957,-0.038476007258146996
1761478222726681300,2.860681396484375,-0.07077917110025882,0.018470672518387434,-0.08909107286036014
1761478222736717600,2.870717529296875,-0.13328911102712154,0.02711231720075011,-0.061746992730349295
1761478222746754300,2.88075439453125,-0.21863924379348754,0.020330255845189094,0.03675181381404399
1761478222756790300,2.890790283203125,-0.23673194984495638,-0.004453618407994508,0.09641907766088843
1761478222766826800,2.90082666015625,-0.1879582743257284,-0.009517185407876967,0.016292086370289324
1761478222776862700,2.91086279296875,-0.1303799455821514,-0.04776785947754979,-0.09778890470936893
1761478222786899500,2.9208994140625,-0.09968728567659854,-0.06785210467241704,-0.11191373004317283
1761478222796935700,2.930935791015625,-0.1077718079328537,-0.022214316026121377,-0.06477920003309845
1761478222806971600,2.9409716796875,-0.15178864431381225,0.019425562090426684,0.007712474073469639
1761478222817007600,2.951007568359375,-0.1405401050686836,0.020526509069651363,0.027144027513265608
1761478222827043600,2.961043701171875,-0.10706745905578136,0.01718202094733715,0.00016629647761583327
1761478222837080800,2.971080810546875,-0.07279518709778786,-0.010531477016955613,-0.02694718976691365
1761478222847116800,2.98111669921875,-0.14431202482283115,-0.03531842001006007,-0.027459815464168785
1761478222857152800,2.99115283203125,-0.2498322544366121,-0.03125577368102968,-0.01992766639366746
1761478222867188700,3.001188720703125,-0.35536300544440746,-0.004039265453442931,-0.011965309212356804
1761478222877225700,3.011225830078125,-0.38552725756168366,0.028536504784971474,-0.03591667816415429
1761478222887261700,3.02126171875,-0.2708545841991901,0.021778408826887606,-0.09050342387631535
1761478222897297700,3.031297607421875,-0.08755553385615349,-0.024868629927188156,-0.1366844525538385
1761478222907333600,3.041333740234375,0.07588146267533302,-0.07324205408245325,-0.12446999088600277
1761478222917370600,3.05137060546875,0.16245850688815117,-0.08254925000146031,-0.02122662016302347
1761478222927406600,3.061406494140625,0.15850596987009047,-0.0406997477222234,0.1365089498564601
1761478222937442600,3.071442626953125,0.06635726300477982,-0.01627937301918864,0.22852891577556728
1761478222947478500,3.081478515625,-0.05002689045071602,0.002789776849001646,0.1671627390563488
1761478222957514500,3.091514404296875,-0.14342238250672817,-0.008929813973978162,0.029802140806615352
1761478222967551700,3.1015517578125,-0.2213514253616333,-0.038620164969190955,-0.06882379924878478
1761478222977587700,3.111587646484375,-0.3005260843634605,-0.05129676425606012,-0.10489566797465086
1761478222987623700,3.121623779296875,-0.3520668865084648,-0.03726736212074756,-0.05038783271759748
1761478222997659600,3.13165966796875,-0.3988566947340965,-0.02824855468906462,-0.02665156782120466
1761478223007696600,3.141696533203125,-0.37509997157156466,-0.00605257803723216,-0.10257043989747762
1761478223017732600,3.151732666015625,-0.30343466528654095,0.00044599020183086393,-0.1521818814150989
1761478223027768600,3.1617685546875,-0.2156178501456976,0.018279533860459923,-0.12213131880536675
1761478223037804500,3.171804443359375,-0.12029051324427127,0.030247327290847895,-0.039565117669105525
1761478223047840500,3.181840576171875,-0.08822714950740337,0.045271293421462175,-0.014836919125914573
1761478223057877500,3.19187744140625,-0.0787491270661354,0.05032499661445618,-0.04548179436698556
1761478223067913500,3.20191357421875,-0.05048807822167873,0.035536154413968325,-0.10221870385035872
1761478223077949400,3.211949462890625,-0.011515081226825713,0.0222502641223371,-0.15620120005905627
1761478223087985400,3.2219853515625,-0.009231938725709914,0.007585925084352493,-0.16778978491351007
1761478223098022700,3.232022705078125,-0.032843700459599494,0.0029803309850394725,-0.13761325783655046
1761478223108058600,3.24205859375,-0.08018997352421284,0.00225925016887486,-0.08393953531607985
1761478223118094600,3.252094482421875,-0.09724106156826019,0.00012289572730660438,-0.04627133730947971
1761478223128130600,3.262130615234375,-0.14259586855471135,-0.0033837241541594264,-0.035100101084262134
1761478223138166800,3.272166748046875,-0.158130122295022,-0.017560498870909214,-0.025305852300673722
1761478223148203500,3.28220361328125,-0.10451192935407161,-0.05219057129062712,0.009493804532289504
1761478223158239500,3.292239501953125,-0.06660510028600693,-0.06636274289749562,0.05467457012608647
1761478223168275700,3.302275634765625,-0.09489946687817573,-0.05066643046326935,0.08488178460225462
1761478223178311700,3.312311767578125,-0.1599082378834486,-0.017973390520736574,0.09778466692566871
1761478223188348400,3.322348388671875,-0.2657534616678953,0.01588160587325692,0.07983385356292128
1761478223198384600,3.332384521484375,-0.3426508233875036,0.01310724578909576,0.021170213800668716
1761478223208420600,3.342420654296875,-0.355994289085269,-0.009918313554674386,-0.032780133704096076
1761478223218456600,3.35245654296875,-0.3207055335611105,-0.023652459070459007,-0.08592924782857299
1761478223228492500,3.362492431640625,-0.23757132327854633,-0.03378865315951407,-0.07339256846904754
1761478223238529800,3.37252978515625,-0.13655541934669016,-0.03524937336184084,-0.024365794971585274
1761478223248565800,3.382565673828125,-0.13136194235682486,-0.012383169298246502,0.002045242092013359
1761478223258601700,3.392601806640625,-0.15120295338034628,0.006310132994875312,-0.03635857671275735
1761478223268637700,3.4026376953125,-0.10313304221630096,-0.016502660381048917,-0.08426248366013168
1761478223278674700,3.4126748046875,-0.03185585846602917,-0.024048911042138934,-0.08406871465370058
1761478223288710700,3.422710693359375,0.03176934922635555,-0.00581555441096425,-0.057630058930814264
1761478223298746600,3.43274658203125,0.05319558361470699,-0.020615137201175093,-0.004310702805966139
1761478223308782600,3.442782470703125,0.009418985730409621,-0.0192656953535974,-0.007917202865332365
1761478223318819600,3.452819580078125,-0.13511515741050242,0.01916450000144541,-0.03474032786116004
1761478223328855600,3.46285546875,-0.2909381718069315,0.03567008299194276,-0.027195173178613183
1761478223338891500,3.4728916015625,-0.3524474102586508,0.028448753436282274,-0.056511430164426564
1761478223348927500,3.482927490234375,-0.3183165925979614,-0.020195231288671494,-0.09474164596796035
1761478223358963700,3.492963623046875,-0.27805881648957725,-0.0294203749474138,-0.09030541708618402
1761478223369000700,3.503000732421875,-0.1884726535886526,-0.014701017786562442,-0.06331789530888199
1761478223379036700,3.51303662109375,-0.08342822479307652,-0.05114164675958454,-0.018421207353472708
1761478223389072600,3.52307275390625,-0.05904197155535221,-0.020272388178110123,-0.028681173952668903
1761478223399108600,3.533108642578125,-0.08838906207084656,0.02489303371608257,-0.04933730075135827
1761478223409145600,3.5431455078125,-0.16198913581073282,0.007979600577056408,-0.06810936736911535
1761478223419181600,3.553181640625,-0.17281389668583869,0.028350188432633875,-0.10155950928926467
1761478223429217500,3.563217529296875,-0.15191782365143297,0.014526245741546153,-0.05585121269002556
1761478223439253500,3.57325341796875,-0.11563012021780013,-0.006179857678711414,0.0058364510685205455
1761478223449289500,3.58328955078125,-0.07175123100280761,-0.04687544068247079,0.04898322661668062
1761478223459326500,3.593326416015625,-0.10384382083415984,0.04073196949139237,0.010616671082377432
1761478223469362400,3.603362548828125,-0.15798399182260037,0.01114902439340949,-0.028544834221899507
1761478223479398700,3.613398681640625,-0.153864866065979,-0.03601356266736984,-0.06020955403000116
1761478223489434600,3.6234345703125,-0.10833411799073218,-0.019740692454203963,-0.11044497266486286
1761478223499470600,3.633470703125,-0.05789981578290462,-0.027000600454583763,-0.089766487903893
1761478223509507600,3.643507568359375,0.006856441766023636,-0.025356559574604032,-0.014208704224973915
1761478223519543600,3.65354345703125,0.05983692132532596,-0.020083003085851668,0.07558890946954488
1761478223529579500,3.66357958984375,-0.0030880291432142256,-0.028717633505538104,0.0970778338305652
1761478223539615700,3.67361572265625,-0.17480244015455246,-0.022213439243286847,0.054540422352403396
1761478223549652500,3.683652587890625,-0.34701194120645523,0.02046659557595849,-0.001724339574575424
1761478223559688400,3.6936884765625,-0.39988779134750363,0.025129326689988372,-0.051995121783763164
1761478223569724700,3.703724609375,-0.3226058142244816,-0.019244798696041107,-0.09213497060090303
1761478223579760600,3.7137607421875,-0.19132979658544064,-0.06297689985148608,-0.09190583802014589
1761478223589796600,3.723796630859375,-0.10712357315719127,-0.07247355392798781,-0.03498816514238715
1761478223599833600,3.73383349609375,-0.039106267985701555,-0.046023792289197445,0.054135933204740284
1761478223609869800,3.743869873046875,-0.03409574634730816,-0.019800532882660628,0.11623334680795669
1761478223619905800,3.75390576171875,-0.062298927524685854,-0.0026454730074852704,0.09993599974066018
1761478223629941800,3.763941650390625,-0.1358311967253685,0.023875819497555493,0.04378931123539805
1761478223639978800,3.773978759765625,-0.19765958412885665,-0.017246464485675097,-0.000009936872124671935
1761478223650014700,3.7840146484375,-0.2108943287551403,-0.056126887826249,-0.03072992317602038
1761478223660050700,3.79405078125,-0.20659517025649546,-0.0577187601275742,-0.0835888221822679
1761478223670086700,3.804086669921875,-0.18987725968956945,-0.07736198355667293,-0.10592661845758557
1761478223680122600,3.81412255859375,-0.1603343543410301,-0.06573803512789309,-0.11710545346736907
1761478223690159600,3.82415966796875,-0.12273323022127151,-0.020513357327133417,-0.07672989619821309
1761478223700195600,3.834195556640625,-0.11434475658237933,0.0118707627967,-0.013391542623192072
1761478223710231600,3.8442314453125,-0.14705343248546124,0.028800854809582232,0.02320274254158139
1761478223720267500,3.854267578125,-0.17344927197992802,0.0353854208316654,-0.015603519584238529
1761478223730304800,3.8643046875,-0.14241174415946006,0.018088614398241044,-0.09089709936901927
1761478223740340700,3.8743408203125,-0.07590308998525143,-0.027898353011906147,-0.12308540465980768
1761478223750376700,3.884376708984375,-0.023164017966389654,-0.05136603009998798,-0.09051511431410908
1761478223760412700,3.89441259765625,-0.015415011274814604,-0.0261313433393836,-0.034976328574120995
1761478223770447600,3.904447509765625,-0.05095744929909706,-0.013644786731898784,-0.01646130545735359
1761478223780484900,3.91448486328125,-0.12587211276888846,-0.005349179008230566,-0.04932838679254055
1761478223790520800,3.924520751953125,-0.1992389622747898,-0.0032915888912975785,-0.09718597038015722
1761478223800556800,3.934556884765625,-0.16831950787603855,-0.011045271757990121,-0.09861600318327546
1761478223810592800,3.9445927734375,-0.18041911099255084,-0.011018164555355906,-0.03116641489714384
1761478223820629800,3.954629638671875,-0.2087286751538515,-0.02404503858461976,0.07020239412561059
1761478223830665700,3.964665771484375,-0.2215115843594074,-0.05610372614637017,0.13151114156916738
1761478223840701700,3.97470166015625,-0.19136837503015994,-0.0793168439514935,0.1099281091839075
1761478223850738000,3.984738037109375,-0.17664952932596206,-0.07644691453836858,0.023956045126914977
1761478223860774000,3.99477392578125,-0.17141630484759807,-0.07396664202995598,-0.02113148922547698
1761478223870810600,4.004810546875,-0.16378712514340876,-0.06079539109393954,-0.03177256409674883
1761478223880846800,4.014846923828125,-0.10272972211241721,-0.019037877947092056,-0.02905819057151675
1761478223890882800,4.0248828125,0.038160511568188664,0.014835092495009302,0.008930033169686795
1761478223900918800,4.034918701171875,-0.001343231302499771,0.08388648995459079,0.026399346625804898
1761478223910954800,4.044954833984375,-0.081916651186347,0.0813650817181915,-0.018776012140512464
1761478223920992000,4.054991943359375,-0.2819265978336334,0.08122150852903723,-0.2025489636056125
1761478223931028000,4.065028076171875,-0.3452823409348726,0.04194704436957836,-0.26929186492711304
1761478223941064000,4.07506396484375,-0.3818909468859434,-0.006678600981086492,-0.24321254403591155
1761478223951100000,4.085099853515625,-0.3369534885287285,-0.015969649482890962,-0.20673998555466533
1761478223961137000,4.095136962890625,-0.2539350135803223,-0.048702509979158634,-0.13715513880550861
1761478223971172900,4.1051728515625,-0.16634440841078757,-0.0158537680182606,-0.08995119682103395
1761478223981208800,4.115208740234375,-0.10604045409560203,0.021113588242605327,-0.01883417206853628
1761478223991244800,4.125244873046875,-0.13006547280550002,-0.007451192788779735,0.059257367871701716
1761478224001280800,4.13528076171875,-0.09556465278863906,0.00347637087367475,0.0709646106697619
1761478224011317800,4.14531787109375,-0.059575055518746374,-0.009967267262935639,0.07012216849625111
1761478224021353700,4.155353759765625,-0.07415478501319885,-0.0649199236780405,0.012095949854701757
1761478224031389700,4.1653896484375,-0.08476794896423816,-0.05594634362757206,-0.05799143958911299
1761478224041425700,4.17542578125,-0.07962298729121685,-0.04389306387081742,-0.05360489506796002
1761478224051462000,4.1854619140625,-0.06330605874061584,-0.02570179281570017,0.0034141923576593396
1761478224061499000,4.195498779296875,-0.09187222801148891,-0.0002322743859142065,0.03423252446949482
1761478224071534800,4.205534912109375,-0.12046177815794944,0.003586991641297936,0.037466976346075535
1761478224081570800,4.21557080078125,-0.16334464207291602,0.009303104265779256,0.02337313067242503
1761478224091606800,4.225606689453125,-0.20750585536062716,-0.025704057838022706,0.0005707856252789497
1761478224101642800,4.235642822265625,-0.20972879210710524,-0.04145728809125721,0.0031067338436841963
1761478224111679700,4.2456796875,-0.1949035634189844,-0.05259491430781781,-0.0033650925189256664
1761478224121715700,4.2557158203125,-0.19144260931015014,-0.05140022463053465,-0.03856383167207241
1761478224131751700,4.265751708984375,-0.20290566808879373,0.004811345804482698,-0.07226575639620422
1761478224141787600,4.27578759765625,-0.13606909713447093,0.021258768866956233,-0.024695319186896086
1761478224151824600,4.28582470703125,-0.06733984430134296,-0.01750051231198013,0.04122925148904323
1761478224161860900,4.29586083984375,-0.08895721734762191,-0.026884280598536134,0.07821297436282038
1761478224171896800,4.305896728515625,-0.15299626653790474,-0.010066124527528881,0.04192673223391175
1761478224181932800,4.315932861328125,-0.211189512309432,0.0020715455770492553,-0.04429974497556686
1761478224191969000,4.325968994140625,-0.24103461547493935,0.015257044234126806,-0.16662044887319205
1761478224202005800,4.336005859375,-0.2690373056441545,0.022488164531439543,-0.19124606382474302
1761478224212041700,4.346041748046875,-0.19132336684465406,-0.008558204182609915,-0.14942133066058158
1761478224222078000,4.356077880859375,-0.003471475502848625,-0.05388276216126978,-0.06170490715429187
1761478224232114000,4.366114013671875,0.10996785667240619,-0.06047017772756517,0.014866583611816166
1761478224242150000,4.37614990234375,0.12807342220544815,-0.050692076361179346,0.05609671188369393
1761478224252187000,4.386186767578125,0.07279635614156722,-0.03799626091718673,0.11217544971928
1761478224262222800,4.396222900390625,-0.011415127983689308,-0.016652297984808682,0.14122165759205818
1761478224272258800,4.4062587890625,-0.17629823167026043,0.010270195732265711,0.13073343519493938
1761478224282294800,4.416294677734375,-0.329132585644722,0.006193667008355259,0.0892649681225419
1761478224292332000,4.42633203125,-0.3780751879900694,-0.007566781992465257,0.001924684452265501
1761478224302368000,4.436367919921875,-0.357717459616065,-0.04874693364277482,-0.09303440365865825
1761478224312404000,4.446404052734375,-0.3235989169150591,-0.06606982436552643,-0.1755048893354833
1761478224322440000,4.45643994140625,-0.31438626741170883,-0.0660823915861547,-0.19253917237520216
1761478224332476000,4.466475830078125,-0.28389292947053907,0.006024082595109939,-0.18421674970984458
1761478224342513000,4.476512939453125,-0.24561609804630277,0.044217327389121056,-0.121921037055552
1761478224352548900,4.486548828125,-0.12619418433010576,0.00841843038573861,-0.02022533416599035
1761478224362584800,4.496584716796875,0.002302431723475456,-0.0055156216163188216,0.027854221609234807
1761478224372620800,4.506620849609375,0.07377718387246131,-0.032921149609982964,0.0834707487605512
1761478224382656800,4.51665673828125,0.11108955417871474,-0.013837532825022935,0.07657616694122553
1761478224392693800,4.52669384765625,0.07824643824100494,0.012095000006631017,-0.0006738076083362102
1761478224402729700,4.536729736328125,0.03149403941631317,-0.02637808464206755,-0.10462854147106408
1761478224412765700,4.546765625,-0.012543839752674101,-0.023926380641013382,-0.17564356715381144
1761478224422801700,4.5568017578125,-0.07180091536343097,-0.001612915089353919,-0.15055281890854239
1761478224432839000,4.5668388671875,-0.1090653548747301,-0.00899177329428494,-0.061144789053499696
1761478224442875000,4.576875,-0.10241524933576583,-0.011012830793112516,0.0017433365359902381
1761478224452910800,4.586910888671875,-0.08827683386802673,-0.04091565549522638,0.016654489941895008
1761478224462947800,4.59694775390625,-0.0995586908608675,-0.061470367746055125,0.0060557929076254366
1761478224472983800,4.60698388671875,-0.13174597323834894,-0.06054660396464168,0.021660481535643338
1761478224483019800,4.617019775390625,-0.20697803209424018,-0.06695588648505509,0.07410422386974096
1761478224493055700,4.6270556640625,-0.3054582800686359,-0.02003982153125107,0.10313260382488369
1761478224503092700,4.6370927734375,-0.38335985039472575,0.011123963017389178,0.07186696633696556
1761478224513128700,4.647128662109375,-0.3771919754147529,-0.0026950843028724194,-0.02989186491668224
1761478224523164700,4.65716455078125,-0.3886696472406387,0.01062960362918675,-0.17674217604547737
1761478224533200600,4.66720068359375,-0.3560422198802233,0.02906703146509826,-0.24093436997085807
1761478224543236600,4.677236572265625,-0.2780617390990257,-0.0015963292807340621,-0.1702769255541265
1761478224553273900,4.68727392578125,-0.18156418937444685,-0.016711700021848082,-0.04220715661048889
1761478224563309800,4.697309814453125,-0.09684709381461143,-0.012930427917465567,0.07580898196101188
1761478224573345800,4.707345703125,-0.05256839162707329,-0.019938918440043925,0.13735855242311953
1761478224583382000,4.717382080078125,-0.020219196686148643,-0.021594795888289806,0.09875438874065876
1761478224593418000,4.72741796875,-0.04356207835078239,-0.025058088084682822,0.0010287585258483885
1761478224603454700,4.737454833984375,-0.04398702576458454,-0.001915916623920202,-0.060955403961241245
1761478224613491000,4.747490966796875,-0.03961597107350826,0.007272913612425327,-0.08420593116730452
1761478224623527000,4.75752685546875,-0.049179333710670466,0.0033059827428311107,-0.12158274501189589
1761478224633563000,4.76756298828125,-0.08055413066148757,0.030586642247810956,-0.11714563934728503
1761478224643600000,4.777599853515625,-0.12206687526702881,0.03206029499694705,-0.09969181572124361
1761478224653635800,4.7876357421875,-0.15802198574542997,0.0543682806558907,-0.1434738204330206
1761478224663671800,4.797671875,-0.16480185514390466,0.059475832927972073,-0.20458996791392564
1761478224673707800,4.807707763671875,-0.15614099430441855,0.020691855699196456,-0.18105331724286078
1761478224683743700,4.81774365234375,-0.07525660877525805,-0.003118278151005506,-0.054917731232196086
1761478224693781000,4.827781005859375,-0.016194178953766823,-0.022080022121965883,0.10098740848973393
1761478224703817000,4.83781689453125,-0.046261984959244724,-0.03488850416019559,0.14976079174801707
1761478224713853000,4.84785302734375,-0.13556640830934047,-0.018625643884390593,0.0702376115694642
1761478224723889000,4.857888916015625,-0.2415589316099882,0.007406038472801447,-0.08030190946608781
1761478224733924900,4.8679248046875,-0.31566520130634307,0.005347498507797718,-0.1786871726334095
1761478224743961900,4.8779619140625,-0.28661680147647856,-0.05002119136229157,-0.12849588540121912
1761478224753997800,4.887997802734375,-0.2112158157944679,-0.06359861194640398,-0.00743921009004116
1761478224764033800,4.89803369140625,-0.1307242289751768,-0.09077617640309035,0.12660934100225568
1761478224774070800,4.90807080078125,-0.0721001905709505,-0.12974435109235347,0.1803168196618557
1761478224784107800,4.918107666015625,-0.028383798441290853,-0.09116364135071635,0.15029767510369418
1761478224794143700,4.928143798828125,-0.037545010018348694,-0.02518580611757934,0.07969751383215189
1761478224804179700,4.9381796875,-0.11234276911020279,0.004126651475951076,0.02019406224489212
1761478224814215700,4.948215576171875,-0.1847737990707159,0.00280168648250401,-0.0005151099152863025
1761478224824251600,4.958251708984375,-0.22732173194289207,0.003090367230772972,-0.03863309751600027
1761478224834289000,4.968288818359375,-0.23357553164064881,-0.029921821663528678,-0.0894566913023591
1761478224844324900,4.978324951171875,-0.21053952396810052,-0.043277196994796395,-0.12605024581477045
1761478224854360800,4.98836083984375,-0.16866203770339488,-0.038769437246769664,-0.12086626730561256
1761478224864396800,4.998396728515625,-0.13766250380575656,-0.03649747372679412,-0.07978329241946339
1761478224874433800,5.008433837890625,-0.13522797013521193,-0.022828502401709555,-0.06295958339050411
1761478224884469800,5.0184697265625,-0.10424655641615391,-0.02007167797423899,-0.07178001870587468
1761478224894505700,5.028505615234375,-0.05643792653679847,-0.0053555356837809084,-0.0546679942548275
1761478224904541700,5.038541748046875,-0.057442719665169714,0.01568893284536898,-0.003450871106237173
1761478224914577700,5.04857763671875,-0.1179845743894577,0.023443273299187422,0.01727875932008028
1761478224924614700,5.05861474609375,-0.1607534565359354,0.02969794977977872,-0.020555150642246008
1761478224934650600,5.068650634765625,-0.1988385647803545,0.025165347851440308,-0.0726050713531673
1761478224944686600,5.0786865234375,-0.20511399178802966,-0.0015870499957352875,-0.10792129940614104
1761478224954722600,5.08872265625,-0.19680968930125237,-0.002545300568640232,-0.10050137853845953
1761478224964758500,5.098758544921875,-0.2364128008931875,0.011601079009845852,-0.07792348989695311
1761478224974795800,5.108795654296875,-0.23629648103713988,0.006347907721996307,-0.0739532710917294
1761478224984831700,5.118831787109375,-0.20247429093420505,-0.024631460170447823,-0.09583324059695005
1761478224994867700,5.12886767578125,-0.0639747517824173,-0.054432504998520016,-0.0679727353774011
1761478225004903700,5.138903564453125,0.067350950217247,-0.07081862632781266,-0.012956366076320409
1761478225014940000,5.14893994140625,0.13977730400264263,-0.06883519742563367,0.04195508154556155
1761478225024976600,5.1589765625,0.08509528122246265,-0.041108255457878114,0.08178805637061595
1761478225035012600,5.1690126953125,-0.05275543863177299,-0.01867956602871418,0.11094532340243458
1761478225045048800,5.179048828125,-0.17534546099007128,-0.018057707803323865,0.07619812740907073
1761478225055084800,5.189084716796875,-0.21575404374599455,-0.03880027077645063,0.006338701502233744
1761478225065121500,5.19912158203125,-0.19271569798588753,-0.08487053255587816,-0.02033274006322026
1761478225075157800,5.20915771484375,-0.20157763435542583,-0.10035510193556546,0.014071195450425147
1761478225085193700,5.21919384765625,-0.2164794354110956,-0.08125292658060788,0.05809022378847003
1761478225095229700,5.229229736328125,-0.23607260915338993,-0.05592836957946419,0.09409618767127394
1761478225105266000,5.239265869140625,-0.27259119873344895,-0.047467999748140574,0.06956307330876589
1761478225115303000,5.249302978515625,-0.2372416529327631,-0.04769778991602361,-0.0076233344852924345
1761478225125339000,5.2593388671875,-0.1727437540590763,-0.005238119849190115,-0.038592180983722205
1761478225135374800,5.269374755859375,-0.15099369454383849,0.0025455928295850753,0.006485854887962341
1761478225145410800,5.279410888671875,-0.1770312221199274,0.012610767509043216,0.01918678489848971
1761478225155446800,5.28944677734375,-0.26685820803940297,0.05618906634226441,-0.05386281535178423
1761478225165483800,5.29948388671875,-0.2881704606592655,-0.0021853812150657175,-0.11159867274463176
1761478225175519700,5.309519775390625,-0.30132454126477237,0.07453538182862103,-0.1959755765646696
1761478225185555700,5.3195556640625,-0.2474626026958227,0.07574373470507562,-0.2068877234622836
1761478225195591700,5.329591796875,-0.16041794097125528,0.015683306822180748,-0.11151172511354088
1761478225205628700,5.339628662109375,-0.08748597575128078,0.06017857436984777,-0.1299858316980302
1761478225215664600,5.34966455078125,-0.06378536669015884,0.04613178270831704,-0.19213292966186998
1761478225225700900,5.359700927734375,-0.02665069103837013,0.004994593416899442,-0.20532251997217535
1761478225235736800,5.36973681640625,-0.016374796217679975,0.006523702680319547,-0.18357406789213418
1761478225245772800,5.379772705078125,0.008565583771467208,0.002756312970817089,-0.09489259874597192
1761478225255809800,5.389809814453125,0.04457096313238144,-0.013448022050783038,0.015342384430021047
1761478225265845800,5.399845703125,0.06049626201689243,-0.017079802681878208,0.07000204924792051
1761478225275881700,5.4098818359375,0.050370004799962044,-0.0094498923253268,0.08207856374979018
1761478225285917700,5.419917724609375,-0.03500058623254299,-0.02597600664719939,0.06676145989149808
1761478225295953700,5.42995361328125,-0.14683365225493908,-0.03204261320978403,0.018689941292256117
1761478225305990700,5.43999072265625,-0.269030875903368,-0.0083366703864187,-0.06511383881494402
1761478225316026600,5.450026611328125,-0.31582711386978624,-0.017235870026424526,-0.10297259095758199
1761478225326062600,5.4600625,-0.3021960634022951,-0.037591990965232254,-0.06696370446532965
1761478225336098600,5.4700986328125,-0.22500527169406412,-0.061614598522335286,0.03442453991025686
1761478225346135800,5.4801357421875,-0.14131751918196678,-0.09717018828913569,0.13879589174985885
1761478225356171800,5.490171875,-0.1503442907243967,-0.12355492186769843,0.17647446502000091
1761478225366207700,5.500207763671875,-0.1837356881946325,-0.09701426707506179,0.13188888884037733
1761478225376243700,5.51024365234375,-0.22686405130326748,-0.013776304157078265,0.03760506964251399
1761478225386280000,5.520280029296875,-0.20989771893322468,0.023921046878769992,-0.03764642456620931
1761478225396316700,5.530316650390625,-0.16162147154211998,0.03094524642713368,-0.07977949302718043
1761478225406352600,5.5403525390625,-0.08213993854820728,0.032362127487733955,-0.12803279793411493
1761478225416388900,5.550388916015625,-0.031765842095017434,-0.0012048457451164722,-0.15197452227473257
1761478225426424800,5.5604248046875,0.03391162195205688,-0.04256269204989076,-0.1461127906344831
1761478225436460800,5.570460693359375,0.04128945724368095,-0.0377489350926131,-0.13707359800189733
1761478225446497800,5.580497802734375,-0.0015244330883026121,-0.0440954545751214,-0.08832213431447744
1761478225456533800,5.59053369140625,-0.09291618410646915,-0.02538373984247446,-0.017873948734253645
1761478225466569700,5.60056982421875,-0.20755963137447833,0.020840689585357904,0.020389877077937126
1761478225476605700,5.610605712890625,-0.31938276052474973,-0.004351400142535567,0.004464724323898554
1761478225486641700,5.6206416015625,-0.3561895193964243,-0.0006651859104633331,-0.05464066785648465
1761478225496679000,5.630678955078125,-0.3305564809679985,-0.006865209594368934,-0.07391162390708923
1761478225506715000,5.64071484375,-0.24044834001958368,-0.014535598091781139,-0.05965045884251594
1761478225516750800,5.650750732421875,-0.16255904465317725,-0.04267112086042762,-0.026812895862758156
1761478225526786800,5.660786865234375,-0.08769991076290606,-0.040607247133180494,0.0060742053471505636
1761478225536823800,5.67082373046875,-0.09440086970627308,-0.02025353734716773,0.05207373997792601
1761478225546859800,5.68085986328125,-0.14784545964598655,-0.025126696341484782,0.06847104028835892
1761478225556895700,5.690895751953125,-0.18013970952928066,0.010696166059374809,0.014884411529451608
1761478225566931700,5.700931640625,-0.16165771189928055,0.009760492644459008,-0.05573416218161582
1761478225576967700,5.7109677734375,-0.11813070486187935,-0.020597747674956916,-0.0828881265670061
1761478225587004700,5.721004638671875,-0.06418284157514571,-0.03064282941445708,-0.08798720327168702
1761478225597040600,5.73104052734375,0.01822773060798645,-0.044100934467837215,-0.08570289172679185
1761478225607076600,5.74107666015625,0.043697102907299994,-0.0544607812449336,-0.05771949077993631
1761478225617112600,5.751112548828125,0.0008405424773693085,-0.04564012673385441,-0.045915071217715736
1761478225627148500,5.7611484375,-0.07509118908047675,-0.01982142954021692,-0.04970496501997113
1761478225637185800,5.771185791015625,-0.17741291491389274,0.0007619242832064628,-0.04223185266032815
1761478225647221800,5.7812216796875,-0.25846038205027577,0.026287629879638553,-0.00009776128605008125
1761478225657257700,5.7912578125,-0.30121348210573196,0.006352218570932745,0.06237623054459691
1761478225667293700,5.801293701171875,-0.31541853306889533,-0.024128698280081153,0.08278846558481455
1761478225677329700,5.81132958984375,-0.3085919019192457,-0.027447175178304313,0.04927139590829611
1761478225687366700,5.82136669921875,-0.2526139941096306,-0.02646853940449655,0.0024145137958228586
1761478225697402600,5.831402587890625,-0.11698562647998333,-0.07298143038488925,-0.06251987679898738
1761478225707438600,5.8414384765625,-0.06870645647943019,-0.08714030411876737,-0.1154779983960092
1761478225717474800,5.851474853515625,-0.04522095147371292,-0.030116467452794313,-0.20277268935889003
1761478225727510800,5.8615107421875,-0.061087213647365565,0.0015023673869669436,-0.1848353199996054
1761478225737547500,5.871547607421875,-0.0729103379100561,0.05203793801218271,-0.09392258467003703
1761478225747583700,5.881583740234375,-0.03521919741928577,0.05209828989729285,0.06006649229750037
1761478225757620000,5.891619873046875,-0.057252750051021574,0.04419708831869065,0.14749723073020576
1761478225767655400,5.901655517578125,-0.12847148161232472,0.008397460662946105,0.11404182811304926
1761478225777692400,5.9116923828125,-0.17460311819016933,-0.023694179320335386,-0.029624153891205787
1761478225787728400,5.921728271484375,-0.1963192754358053,-0.045640638190507885,-0.151763948263973
1761478225797764400,5.931764404296875,-0.19342238495051858,-0.07686389784142375,-0.17079320451319216
1761478225807800300,5.94180029296875,-0.20144085623323915,-0.06372092315182089,-0.11687106018960475
1761478225817836300,5.951836181640625,-0.31817396925687785,-0.03360869348272681,-0.04641220708489418
1761478225827873300,5.961873291015625,-0.3819698573410511,-0.018836144829913973,0.012549246580153703
1761478225837909200,5.9719091796875,-0.3641583063185215,-0.03923895445466041,0.06610358050465584
1761478225847945200,5.9819453125,-0.25075930615365505,-0.015241700534522533,0.12604936903193592
1761478225857981200,5.991981201171875,-0.1550017611414194,-0.02641344821639359,0.17567323163971305
1761478225868017400,6.002017333984375,-0.13847206662297248,-0.04417436503022909,0.16474924817383288
1761478225878054400,6.012054443359375,-0.1263315469741821,-0.02519735042490065,0.08526245448291302
1761478225888090400,6.02209033203125,-0.1420961023390293,-0.01235905777029693,0.018395926781743763
1761478225898126300,6.032126220703125,-0.17101707639694214,-0.018796397341415284,-0.058126464145630594
1761478225908162300,6.042162353515625,-0.12788052998185157,-0.04475742561519146,-0.13458397314324974
1761478225918198300,6.0521982421875,-0.009515431842207909,-0.054442661066353315,-0.11993556232675909
1761478225928235300,6.0622353515625,0.11166998441517352,-0.053960138246417044,-0.06695493663698435
1761478225938271200,6.072271240234375,0.0982645593971014,-0.021972177833318708,-0.04698562305867671
1761478225948307200,6.08230712890625,0.01110474686026573,0.032324498891085386,-0.09423048157542943
1761478225958343200,6.09234326171875,-0.0926654242157936,0.06864610459432005,-0.14386165070682763
1761478225968379100,6.102379150390625,-0.14939268908798695,0.057771586293354625,-0.10786226269528269
1761478225978416400,6.11241650390625,-0.14037410085201263,0.015374460068717599,-0.037219431325793265
1761478225988452400,6.122452392578125,-0.07627601495087147,-0.025015710247680543,-0.03349076619148254
1761478225998488300,6.13248828125,-0.06514964078068733,-0.06420037723183632,-0.05685206029564142
1761478226008524500,6.142524658203125,-0.12622516399025915,-0.06529920531921088,-0.043135377371311186
1761478226018560500,6.152560546875,-0.1752495994001627,-0.05335990733094513,-0.0014781097285449503
1761478226028597200,6.16259716796875,-0.20491993052065371,-0.02538644325621426,0.03751037709638476
1761478226038633500,6.172633544921875,-0.25270693309009074,0.01179082942828536,0.05706409561112523
1761478226048669400,6.18266943359375,-0.2765548416674137,-0.02046659557595849,0.04469882729575038
1761478226058705400,6.192705322265625,-0.2827607105702162,-0.029936142449826002,0.012586948242038487
1761478226068741400,6.202741455078125,-0.28078327301740647,-0.049531288953498,-0.03484904893264174
1761478226078778400,6.2127783203125,-0.25719372311532496,-0.031504926136508585,-0.08230375080779194
1761478226088814300,6.222814453125,-0.29225568414628506,-0.004968582192808389,-0.10028013700321316
1761478226098850300,6.232850341796875,-0.31623277206122874,0.0019534721553325653,-0.13198153555989264
1761478226108886300,6.24288623046875,-0.23998130702972412,-0.013088029631972312,-0.11784370461404323
1761478226118922200,6.252922119140625,-0.15262860226929187,-0.02736614583134651,-0.02778524802625179
1761478226128959500,6.26295947265625,-0.062002574926614755,-0.006413228043168783,0.05760185574963689
1761478226138995500,6.272995361328125,0.00987783541381359,0.01938902947232127,0.104983053997159
1761478226149031400,6.283031494140625,0.069268182015419,0.041237142534554,0.0909263254635036
1761478226159067400,6.2930673828125,0.07722118684649466,0.05279496692456305,0.05270575427114963
1761478226169103400,6.303103271484375,0.0647328766733408,0.00602503244318068,-0.018538842383772135
1761478226179140400,6.313140380859375,0.046803252229094504,-0.03155249160528183,-0.116880850931257
1761478226189176300,6.32317626953125,-0.011032266145944594,-0.042594767688587304,-0.13723434152156114
1761478226199212300,6.33321240234375,-0.15254676920473575,-0.03323832580037415,-0.1561114759489894
1761478226209248300,6.343248291015625,-0.26634149068892,0.010715893673151731,-0.1506407894529402
1761478226219284200,6.3532841796875,-0.31535306661725043,-0.014201397701352834,-0.09435045469328761
1761478226229321200,6.3633212890625,-0.3084405107498169,-0.0043897593915462494,-0.04473287569582462
1761478226239357200,6.373357177734375,-0.2722942616134882,0.0008894231203943491,0.03562792435064912
1761478226249393200,6.38339306640625,-0.24838322467207907,-0.006860168093070387,0.13214344812333584
1761478226259429000,6.39342919921875,-0.2236649630010128,-0.02323890983350575,0.1572045318827033
1761478226269465000,6.403465087890625,-0.18255261588990687,-0.03004449819512665,0.08586158941984176
1761478226279502300,6.41350244140625,-0.18673720809817312,-0.010879413671791552,-0.039535453183203936
1761478226289538300,6.423538330078125,-0.19847791477441787,0.022764570320025084,-0.132669956215471
1761478226299574300,6.43357421875,-0.16420096664130687,0.04013349214158952,-0.12931903835237024
1761478226309610200,6.4436103515625,-0.08217617890536785,0.0012259615983814,-0.07822963323667645
1761478226319646500,6.453646484375,-0.002946574845910072,0.013597367393597959,-0.05663812528401613
1761478226329683200,6.46368310546875,0.039267596027255054,-0.01735686605758965,-0.0406653339959681
1761478226339719200,6.47371923828125,0.023830957442522047,-0.009594342297315596,-0.06758256701603531
1761478226349755400,6.48375537109375,-0.03395721465945244,0.02283515133820474,-0.09223623901829123
1761478226359791400,6.493791259765625,-0.11399696605801582,-0.0049589375816285605,-0.08108663010299205
1761478226369827300,6.503827392578125,-0.18673545453250406,-0.015983093486353753,-0.02803907665684819
1761478226379864300,6.5138642578125,-0.2208890685468912,-0.015198518979921936,0.05004018832370639
1761478226389900300,6.523900390625,-0.21203239287436007,-0.01682977344356477,0.08426759822666645
1761478226399936500,6.5339365234375,-0.15690437989234923,-0.018538184796646238,0.036670126879960296
1761478226409972500,6.543972412109375,-0.15803776783645151,-0.043867929429560894,0.01028612395375967
1761478226420008400,6.554008544921875,-0.2302431723475456,-0.058497489415109155,0.0184913499802351
1761478226430044400,6.56404443359375,-0.2921153988927603,-0.02089358881637454,0.029743980878591536
1761478226440081400,6.574081298828125,-0.340255452683568,-0.020159137061983346,0.0057113633841276166
1761478226450117400,6.584117431640625,-0.27517478548586366,-0.008461611940339207,-0.056042789739370345
1761478226460153300,6.5941533203125,-0.15386311250030993,-0.00997808091789484,-0.0695119276434183
1761478226470189300,6.604189208984375,-0.0529337178081274,-0.008922434385120867,-0.02038505477234721
1761478226480225300,6.614225341796875,-0.007669511714577674,0.0020223726730793715,0.028479075509309767
1761478226490262300,6.62426220703125,0.001360182437300682,0.008310805292800068,0.01780877454355359
1761478226500298200,6.63429833984375,-0.06641746875941754,0.023871143322438,-0.07353884507194161
1761478226510334200,6.644334228515625,-0.13714052575826643,0.05591770205497741,-0.18683000094816088
1761478226520370200,6.6543701171875,-0.15341303064525127,0.045204877121746534,-0.2350166703596711
1761478226530406100,6.66440625,-0.10262626173794269,0.00639262364655733,-0.1894279084868729
1761478226540443400,6.674443359375,-0.02516016021966934,-0.04918948977850377,-0.11907982228025793
1761478226550479400,6.684479248046875,0.02739478740394115,-0.08293291555680334,-0.03060103609934449
1761478226560515300,6.694515380859375,0.017369652473926543,-0.08818250664807856,0.07771671527847647
1761478226570551300,6.70455126953125,-0.0016080197185277937,-0.05153422627374529,0.15369170145615935
1761478226580587300,6.714587158203125,-0.039918753412365914,-0.04593757531046867,0.17399930707812308
1761478226590624300,6.724624267578125,-0.11520575732588767,-0.03963365286067128,0.1434787888690829
1761478226600660200,6.73466015625,-0.2405874562293291,-0.04134169888757169,0.05677957958132028
1761478226610696200,6.7446962890625,-0.4131780655533075,-0.016727920504286883,-0.05401406039074063
1761478226620732400,6.754732421875,-0.5080787014752626,0.006523337354138493,-0.12387319403663277
1761478226630768400,6.764768310546875,-0.4914782798081636,-0.01511091376170516,-0.1634017790876329
1761478226640805000,6.77480517578125,-0.3621177404016256,-0.02876695253998041,-0.12055997783541679
1761478226650841300,6.78484130859375,-0.2118921076208353,-0.045730946822464466,-0.009292436741292476
1761478226660877300,6.794877197265625,-0.07647182978391646,-0.05237433035969734,0.06410699985995888
1761478226670913300,6.804913330078125,-0.01696107167303562,-0.05004369545504451,0.08536912972778081
1761478226680949200,6.81494921875,-0.025170681613683698,-0.040482817035913464,0.009266571647673845
1761478226690986500,6.824986572265625,-0.07917115187048912,-0.014312602990865706,-0.11473317137807607
1761478226701022500,6.8350224609375,-0.16144319236576557,0.02365267826616764,-0.16521204337999223
1761478226711058400,6.845058349609375,-0.19512217460572717,0.03236658446714282,-0.14157368590012193
1761478226721094400,6.855094482421875,-0.18915888228714464,0.03283113323897123,-0.09516761629506945
1761478226731130400,6.86513037109375,-0.07989128283858299,0.023975480479747055,-0.06727905402481556
1761478226741166300,6.875166259765625,0.0328869550794363,-0.012675357177853584,-0.03178162418603897
1761478226751203300,6.885203369140625,0.07504384280741214,-0.03465966384038329,0.006015022505819798
1761478226761239300,6.8952392578125,0.025845804396271703,-0.05670987534597516,0.051503392744064326
1761478226771275500,6.905275634765625,-0.0506593431353569,-0.049025312192738056,0.05163096464648843
1761478226781311500,6.9153115234375,-0.15792203250229359,-0.04602634957246482,-0.003642448155581951
1761478226791347500,6.925347412109375,-0.2891483657807112,-0.053867053135484455,-0.055903673529624935
1761478226801384700,6.935384765625,-0.3620785774350166,-0.0003090659491717815,-0.10204480858817697
1761478226811420700,6.945420654296875,-0.3461240524560213,0.02474661098271608,-0.05478723672032356
1761478226821456600,6.95545654296875,-0.29925241116583345,0.019702844661846755,0.05154533218964934
1761478226831492600,6.96549267578125,-0.2569172442615032,0.04878120123855769,0.08899769548848271
1761478226841528600,6.975528564453125,-0.18124620946645736,0.04234466538503766,0.029004268427193163
1761478226851565600,6.985565673828125,-0.10402151548862457,0.012831789848580955,-0.09763926710560918
1761478226861601500,6.9956015625,-0.0581055674880743,0.005048661691695451,-0.18015242288038133
1761478226871637500,7.005637451171875,-0.02944353662729263,0.0019150398410856724,-0.20073402313813565
1761478226881673500,7.015673583984375,-0.026105916637182234,-0.015564868074283002,-0.16006313618421553
1761478226891709400,7.02570947265625,-0.023026070800423622,-0.013410831845551729,-0.07080313649773597
1761478226901746400,7.035746337890625,-0.0648106180846691,-0.014652721665427087,0.009889233590662478
1761478226911782400,7.045782470703125,-0.1586310575544834,0.01759388968385756,0.03630450843796134
1761478226921818600,7.055818603515625,-0.2336421671360731,0.04185110971443355,0.030078619660437105
1761478226931854800,7.065854736328125,-0.28721535189151765,0.01744388675391674,0.0018893208779394626
1761478226941890800,7.075890869140625,-0.2700029358059168,0.007372939920797943,-0.003153933986276388
1761478226951926800,7.0859267578125,-0.21852350845932958,0.0034531361285597083,0.019663170238584278
1761478226961963800,7.0959638671875,-0.1200935293674469,-0.02995674684643745,0.08842807890698313
1761478226971999700,7.105999755859375,-0.061491118273138995,-0.07269625676795839,0.152872640158236
1761478226982035700,7.11603564453125,-0.07321312024891376,-0.05547368461452424,0.09508622162193059
1761478226992071700,7.12607177734375,-0.11343640956580638,-0.05008505037873983,-0.028893647659569976
1761478227002107600,7.136107666015625,-0.1760585776954889,-0.02203969011157751,-0.13367197286486626
1761478227012144600,7.14614453125,-0.2322784775674343,0.006332783218100667,-0.12795710234940053
1761478227022180600,7.1561806640625,-0.25699966184794903,-0.0018725158736109732,-0.06168401049673557
1761478227032216600,7.166216552734375,-0.1640951681792736,-0.025537980556115506,-0.010832651920616627
1761478227042252500,7.17625244140625,-0.04776654430329799,-0.014062939078733324,0.04228226767331362
1761478227052288500,7.18628857421875,0.020234394255280494,-0.007532587461918592,0.0921773484379053
1761478227062324500,7.196324462890625,-0.009665069445967674,0.002230608596280217,0.09883885215371846
1761478227072361700,7.20636181640625,-0.051314007651805875,0.018218670518696307,0.027251725671440363
1761478227082397700,7.216397705078125,-0.1055184760481119,-0.015002777212113141,-0.05932604919373989
1761478227092433700,7.22643359375,-0.1667220095515251,-0.036278424148634074,-0.14320815523415803
1761478227102469600,7.2364697265625,-0.21401450660228727,-0.015538199263066052,-0.15833631239160895
1761478227112505600,7.246505615234375,-0.18676175801753997,-0.03146751673556864,-0.11258198469355701
1761478227122542600,7.25654248046875,-0.13705401651859284,-0.028440643195062874,-0.0379737568244338
1761478227132578600,7.26657861328125,-0.15809563550353048,-0.016340747817605732,0.0368126040905714
1761478227142614500,7.276614501953125,-0.16264321580529212,-0.005051584301143885,0.07128770514428615
1761478227152650500,7.286650390625,-0.1633499027699232,-0.004259264879673719,0.028887071788311004
1761478227162686500,7.2966865234375,-0.17951310206353663,-0.013768047785386442,-0.015312281552702188
1761478227172723500,7.306723388671875,-0.19243629652261732,0.002658697815239429,-0.03465118827298284
1761478227182759400,7.316759521484375,-0.2091162131667137,0.012487944846972823,-0.06002922902703285
1761478227192795400,7.32679541015625,-0.28322131381928917,0.005694996771216392,-0.10033946597501635
1761478227202831600,7.33683154296875,-0.33452129294574257,-0.0016132073502987622,-0.11563523478433489
1761478227212867600,7.34686767578125,-0.3075239804267883,0.018232552913576363,-0.05485533352047205
1761478227222903800,7.35690380859375,-0.17184885104596614,0.0018324761241674422,-0.03569850536882877
1761478227232940800,7.36694091796875,-0.020271219134330748,-0.006845262784883379,-0.04594005952849984
1761478227242976800,7.376976806640625,0.11706044528186321,-0.009464432307332753,-0.055327188815921545
1761478227253012700,7.3870126953125,0.09013561347723006,-0.03501308038793504,-0.08985343553498387
1761478227263048700,7.397048583984375,0.0018570260435342787,-0.020350787176564335,-0.12281769363433122
1761478227273084700,7.407084716796875,-0.02839256626963615,0.008485504272580146,-0.09218728531002998
1761478227283121700,7.41712158203125,-0.08792670525610446,0.009395970181003212,-0.020587737737596035
1761478227293157600,7.42715771484375,-0.13735270720422268,-0.003732464526593685,-0.019238661216199396
1761478227303193600,7.437193603515625,-0.14937047725617886,-0.010459580824524164,0.0018261925138533114
1761478227313229600,7.4472294921875,-0.11449731679558753,-0.05565459413938224,0.03354030442163348
1761478227323265500,7.457265625,-0.1058978307545185,-0.05151099152863026,0.04667407289147377
1761478227333301500,7.467301513671875,-0.13174714228212833,-0.026366394204273818,0.03413490931391716
1761478227343338800,7.4773388671875,-0.18496318416297436,-0.023714564521238206,0.032887685731798406
1761478227353374700,7.487374755859375,-0.20864684208929538,-0.03402713809050619,0.020798457878828048
1761478227363410700,7.49741064453125,-0.3125309949338436,-0.009323343336209653,-0.03219268920496106
1761478227373446700,7.50744677734375,-0.3513438329309225,-0.03618548516817391,-0.09923223538547754
1761478227383482600,7.517482666015625,-0.37096447920203207,-0.03997355233952403,-0.13501067412272094
1761478227393519600,7.52751953125,-0.31563539068996904,0.0070509414248168464,-0.08917144462019204
1761478227403555600,7.5375556640625,-0.20864625756740568,0.0010460019215941428,0.010686813709139823
1761478227413591600,7.547591552734375,-0.11848434060513972,0.04974683140031993,0.0518434383533895
1761478227423627500,7.55762744140625,-0.12325287018120289,0.0700789869416505,0.00811301769837737
1761478227433663500,7.56766357421875,-0.14006313520669936,0.03389437855631113,-0.05041530524641275
1761478227443699700,7.57769970703125,-0.06970131273567676,0.02538746616952121,-0.1297454470708966
1761478227453736400,7.587736328125,0.0010275894820690155,0.007689823850244283,-0.1717168952293694
1761478227463772400,7.5977724609375,0.023130115696787832,-0.004570449720695614,-0.15731515265032647
1761478227473808600,7.60780859375,0.026274843463301657,-0.009953384868055581,-0.09195157685801386
1761478227483844600,7.6178447265625,-0.058632806232571597,-0.0003343465209007263,0.007005202586948871
1761478227493880600,7.627880615234375,-0.15496727434992788,0.01805018208399415,0.05635960060358047
1761478227503917600,7.63791748046875,-0.1961363200843334,0.027050211749970913,0.05418430239111185
1761478227513953800,7.647953857421875,-0.20216917050778865,-0.0067210518833249805,0.005030249252170324
1761478227523989800,7.65798974609375,-0.19227847561240194,-0.02161371978446841,-0.05932371110618114
1761478227534025700,7.668025634765625,-0.18252397431731224,-0.03171805743053555,-0.09725655139833689
1761478227544061700,7.678061767578125,-0.1664139665156603,-0.032747108217328784,-0.09339227718561888
1761478227554097700,7.68809765625,-0.2029202811360359,-0.017501023768633602,-0.07934533939361572
1761478227564134700,7.698134765625,-0.24574527738392352,0.011452537384629249,-0.0868805572040379
1761478227574170600,7.708170654296875,-0.22919103294610976,-0.005606660900637507,0.005128595060110092
1761478227584206600,7.71820654296875,-0.1921767688035965,-0.043875820475071665,0.09672390582635998
1761478227594242600,7.72824267578125,-0.17701953168213366,-0.021436828847602007,0.11897519286200403
1761478227604278500,7.738278564453125,-0.18716741620898245,-0.039321006714925166,0.1047603511571884
1761478227614314500,7.748314453125,-0.11023615221977233,-0.06077208328358829,0.0431435606777668
1761478227624351500,7.7583515625,-0.04608195221722126,-0.0541346910957247,-0.015131956549733877
1761478227634387700,7.7683876953125,0.019958499923348427,-0.06745338767841458,-0.042704876999557016
1761478227644423700,7.778423583984375,0.03124094143807888,-0.04805727087818086,-0.06526362254917621
1761478227654459600,7.788459716796875,-0.013647417080402374,-0.020606223242357374,-0.0421579106412828
1761478227664495600,7.79849560546875,-0.11501578771173954,-0.021528087327629328,0.005347206246852874
1761478227674532600,7.80853271484375,-0.23087211790084838,0.021584639820456504,0.05952697859331965
1761478227684568600,7.818568603515625,-0.23232056314349173,0.03600216449052095,0.05615267985463142
1761478227694604500,7.8286044921875,-0.22804595456421373,-0.0017498393420130012,0.035842590014636515
1761478227704640500,7.838640625,-0.2234720707774162,-0.011893559150397777,-0.029531507171690462
1761478227714676700,7.8486767578125,-0.18281214360892772,-0.033807211729511615,-0.10019596585109829
1761478227724712700,7.858712646484375,-0.21478432193100452,-0.04226626638658344,-0.19248919575363396
1761478227734749400,7.86874951171875,-0.2966115412682295,0.004446896406263113,-0.22673691779226063
1761478227744785700,7.87878564453125,-0.3127051824569702,0.04897423959262669,-0.1715928304582834
1761478227754821600,7.888821533203125,-0.2822550991356373,0.061909197554737325,-0.04282324268221855
1761478227764857600,7.898857666015625,-0.1345072546452284,0.05917480415478348,0.029890549742430446
1761478227774893800,7.908893798828125,0.01668400829732418,0.04959814364463091,0.0351863180629909
1761478227784930800,7.918930908203125,0.03565057457387447,0.008139978770539165,0.04747106848806142
1761478227794966800,7.928966796875,-0.019476269364356993,-0.04981850839704275,0.05799070893675089
1761478227805002800,7.939002685546875,-0.13001052774786948,-0.036021015321463346,-0.01735080164298415
1761478227815038700,7.949038818359375,-0.1681084954738617,-0.030842224444076416,-0.0953198842473328
1761478227825074700,7.95907470703125,-0.1141150394797325,-0.059572352105006575,-0.10244052990749478
1761478227835110700,7.969110595703125,-0.11983867782354354,-0.03585720306187868,-0.0858389391966164
1761478227845147600,7.979147705078125,-0.0406599271684885,-0.02209573114775121,-0.05358604423701763
1761478227855183600,7.98918359375,-0.05292553450167179,-0.03266395997852087,0.015570494097471237
1761478227865219600,7.999219482421875,-0.15126608174443243,-0.010132979218661785,0.0921395006455481
1761478227875255600,8.009255615234375,-0.19542028076946735,0.03445325454808772,0.085724080645293
1761478227885291800,8.019291748046875,-0.22283143478631973,0.002571311792731285,0.04888458854779601
1761478227895327700,8.02932763671875,-0.2278828729569912,-0.00511778140515089,-0.010438099645078181
1761478227905363700,8.03936376953125,-0.19195581952929497,0.010541267758607864,-0.08197174237444996
1761478227915399700,8.049399658203125,-0.15299217488467692,-0.02195968367792666,-0.1597321506641805
1761478227925436000,8.059435791015625,-0.2384697334229946,-0.059463338772580025,-0.22560016884729264
1761478227935472600,8.06947265625,-0.3479319786608219,-0.0064696344055235385,-0.21416955103352664
1761478227945508600,8.079508544921875,-0.28774200611412526,0.03665010700523853,-0.08130816389918327
1761478227955544800,8.089544921875,-0.12979483917057513,0.02829283222220838,0.1408592540204525
1761478227965580800,8.099580810546875,-0.08275544009804725,0.05462086717747151,0.23915143207684159
1761478227975616800,8.10961669921875,-0.045343116548657414,0.022703268586844204,0.1639472841411829
1761478227985652700,8.11965283203125,0.0021498715102672575,-0.017213073672726748,0.0011459551647305488
1761478227995689700,8.129689697265626,0.03906593597531319,0.003232479115203023,-0.13957710525542497
1761478228005725700,8.1397255859375,0.008473813834786414,-0.03384023721627891,-0.15860504633039235
1761478228015761700,8.14976171875,-0.07321253572702408,-0.0942241979651153,-0.12383607689663767
1761478228025797600,8.159797607421876,-0.19199381345212457,-0.0629965544000268,-0.12184855634123086
1761478228035833600,8.16983349609375,-0.19175415947735308,-0.024271686947345734,-0.0745864544287324
1761478228045870800,8.179870849609374,-0.3272404882878065,-0.029754356142133474,-0.03354030442163348
1761478228055906800,8.18990673828125,-0.7142611992776393,0.04887728202417493,0.0018660861328244208
1761478228065942800,8.19994287109375,-0.8778115930557251,0.21853651407137512,-0.14785218164771793
1761478228075978800,8.209978759765624,-0.3214765179336071,0.3535609244585037,-0.2776791695222258
1761478228086014700,8.2200146484375,-0.06276011529564857,0.049406274334341284,-0.04440612795948982
1761478228096050700,8.23005078125,0.7791326076388359,0.04687763263955712,0.37723639907836914
1761478228106087700,8.240087646484374,1.0050152466893196,-0.4455972569905221,0.5998701193355024
1761478228116123600,8.25012353515625,0.18401742774546145,-0.4194819880031049,0.11211100618094205
1761478228126159600,8.26015966796875,-0.35489655697643757,-0.01696625930480659,-0.4109562978506088
1761478228136195600,8.270195556640624,-0.4127344134390354,0.023810499176383018,-0.4675428390778601
1761478228146231600,8.2802314453125,-0.41839141628742216,0.021777385913580655,-0.2594729200936854
1761478228156267500,8.290267578125,-0.20727496921420097,0.2920866111896932,-0.015136340463906526
1761478228166304500,8.300304443359375,0.1962631613343954,0.12040018416382371,0.16514263140559196
