time,seconds_elapsed,z,y,x
1761478219947900400,0.081900390625,-0.998382568359375,-0.0887451171875,-0.1762542724609375
1761478219957936600,0.0919365234375,-0.994110107421875,-0.0936126708984375,-0.1819000244140625
1761478219967973400,0.101973388671875,-0.9897613525390625,-0.093170166015625,-0.1918182373046875
1761478219978009300,0.11200927734375,-0.9859161376953125,-0.092529296875,-0.20025634765625
1761478219988045600,0.122045654296875,-0.9800872802734375,-0.091278076171875,-0.207122802734375
1761478219998081800,0.132081787109375,-0.9840850830078125,-0.0930938720703125,-0.2115478515625
1761478220008118500,0.142118408203125,-0.9847259521484375,-0.094635009765625,-0.2108612060546875
1761478220018154500,0.152154541015625,-0.98809814453125,-0.092926025390625,-0.20635986328125
1761478220028190700,0.162190673828125,-0.98907470703125,-0.0857696533203125,-0.1979522705078125
1761478220038226700,0.172226806640625,-0.99365234375,-0.07928466796875,-0.1843109130859375
1761478220048263400,0.182263427734375,-1.004241943359375,-0.0782623291015625,-0.17706298828125
1761478220058299600,0.192299560546875,-1.0069427490234375,-0.0783233642578125,-0.1866607666015625
1761478220068335600,0.202335693359375,-0.99871826171875,-0.0824737548828125,-0.200958251953125
1761478220078371600,0.21237158203125,-0.98736572265625,-0.09149169921875,-0.21392822265625
1761478220088407600,0.222407470703125,-0.9813995361328125,-0.0933380126953125,-0.2221527099609375
1761478220098444500,0.232444580078125,-0.98052978515625,-0.091033935546875,-0.220123291015625
1761478220108480800,0.242480712890625,-0.9842071533203125,-0.09014892578125,-0.2126922607421875
1761478220118516700,0.252516845703125,-0.988037109375,-0.0838165283203125,-0.2115020751953125
1761478220128552700,0.262552734375,-0.99053955078125,-0.0777130126953125,-0.2133941650390625
1761478220138589700,0.272589599609375,-0.9915924072265625,-0.0829620361328125,-0.2039337158203125
1761478220148625700,0.282625732421875,-0.99102783203125,-0.0826873779296875,-0.19378662109375
1761478220158661600,0.29266162109375,-0.9885711669921875,-0.075836181640625,-0.1941680908203125
1761478220168697600,0.302697509765625,-0.9904937744140625,-0.0789947509765625,-0.1993408203125
1761478220178733600,0.312733642578125,-0.9882354736328125,-0.0879974365234375,-0.2062835693359375
1761478220188770600,0.3227705078125,-0.9865264892578125,-0.0911865234375,-0.2116851806640625
1761478220198806500,0.332806640625,-0.99609375,-0.0913238525390625,-0.2119293212890625
1761478220208842500,0.342842529296875,-0.999664306640625,-0.0910491943359375,-0.203948974609375
1761478220218878500,0.35287841796875,-1.004302978515625,-0.0879669189453125,-0.19549560546875
1761478220228915700,0.362915771484375,-1.0055999755859375,-0.0877227783203125,-0.1925201416015625
1761478220238951700,0.37295166015625,-0.99859619140625,-0.0874481201171875,-0.19464111328125
1761478220248987600,0.382987548828125,-0.994842529296875,-0.088287353515625,-0.195343017578125
1761478220259023600,0.393023681640625,-0.9902801513671875,-0.0882415771484375,-0.194122314453125
1761478220269060600,0.403060546875,-0.983306884765625,-0.08819580078125,-0.192047119140625
1761478220279096600,0.4130966796875,-0.9807891845703125,-0.08929443359375,-0.1929779052734375
1761478220289132500,0.423132568359375,-0.9799346923828125,-0.0890960693359375,-0.196868896484375
1761478220299168500,0.43316845703125,-0.9807891845703125,-0.089324951171875,-0.2040252685546875
1761478220309204500,0.44320458984375,-0.9918975830078125,-0.087738037109375,-0.2139434814453125
1761478220319241500,0.453241455078125,-1.0048675537109375,-0.0839996337890625,-0.2146759033203125
1761478220329277400,0.46327734375,-1.0036468505859375,-0.08544921875,-0.2042694091796875
1761478220339313400,0.4733134765625,-0.996978759765625,-0.0863494873046875,-0.193511962890625
1761478220349349400,0.483349365234375,-0.996337890625,-0.0872802734375,-0.1943359375
1761478220359386600,0.49338671875,-0.99249267578125,-0.088104248046875,-0.2030181884765625
1761478220369422600,0.503422607421875,-0.980438232421875,-0.090972900390625,-0.2095794677734375
1761478220379458600,0.51345849609375,-0.9689788818359375,-0.08966064453125,-0.207794189453125
1761478220389494800,0.523494873046875,-0.9680328369140625,-0.087005615234375,-0.2021942138671875
1761478220399530800,0.53353076171875,-0.9694671630859375,-0.0897979736328125,-0.1901397705078125
1761478220409567500,0.5435673828125,-0.979736328125,-0.089447021484375,-0.1912994384765625
1761478220419603700,0.553603759765625,-0.998321533203125,-0.0865478515625,-0.2027435302734375
1761478220429639700,0.5636396484375,-1.01727294921875,-0.0836181640625,-0.2143096923828125
1761478220439675600,0.573675537109375,-1.02294921875,-0.0815582275390625,-0.21917724609375
1761478220449712600,0.583712646484375,-1.013641357421875,-0.084625244140625,-0.21337890625
1761478220459748600,0.59374853515625,-0.993743896484375,-0.0907440185546875,-0.200103759765625
1761478220469784600,0.60378466796875,-0.9757232666015625,-0.0956268310546875,-0.1890106201171875
1761478220479820500,0.613820556640625,-0.963592529296875,-0.0959930419921875,-0.1870269775390625
1761478220489856500,0.6238564453125,-0.960662841796875,-0.094818115234375,-0.1911163330078125
1761478220499893800,0.633893798828125,-0.9672088623046875,-0.0966644287109375,-0.1944122314453125
1761478220509929700,0.6439296875,-0.9745025634765625,-0.0962982177734375,-0.1990509033203125
1761478220519965700,0.653965576171875,-0.98712158203125,-0.0881500244140625,-0.2018585205078125
1761478220530001700,0.664001708984375,-1.00067138671875,-0.0808258056640625,-0.20172119140625
1761478220540038700,0.67403857421875,-1.0107879638671875,-0.0812225341796875,-0.198699951171875
1761478220550074600,0.68407470703125,-1.00848388671875,-0.083160400390625,-0.196441650390625
1761478220560110600,0.694110595703125,-1.001220703125,-0.0868377685546875,-0.1934356689453125
1761478220570146600,0.704146484375,-0.997894287109375,-0.090850830078125,-0.19091796875
1761478220580183600,0.71418359375,-0.99822998046875,-0.0950927734375,-0.190032958984375
1761478220590219500,0.724219482421875,-0.999542236328125,-0.0937957763671875,-0.194061279296875
1761478220600255500,0.73425537109375,-1.00213623046875,-0.08978271484375,-0.201263427734375
1761478220610291500,0.74429150390625,-0.997955322265625,-0.0872344970703125,-0.20379638671875
1761478220620327400,0.754327392578125,-0.9896392822265625,-0.0843353271484375,-0.200408935546875
1761478220630364700,0.76436474609375,-0.9863128662109375,-0.0826873779296875,-0.196197509765625
1761478220640400600,0.774400634765625,-0.9843597412109375,-0.0843505859375,-0.1978607177734375
1761478220650436600,0.7844365234375,-0.9834747314453125,-0.0858917236328125,-0.2031097412109375
1761478220660472600,0.79447265625,-0.9872589111328125,-0.0899658203125,-0.2043304443359375
1761478220670509600,0.804509521484375,-0.9862823486328125,-0.086456298828125,-0.2050018310546875
1761478220680545500,0.814545654296875,-0.9866485595703125,-0.0846710205078125,-0.2021026611328125
1761478220690581500,0.82458154296875,-0.9830780029296875,-0.085906982421875,-0.20062255859375
1761478220700617500,0.834617431640625,-0.9811553955078125,-0.083770751953125,-0.203094482421875
1761478220710654500,0.844654541015625,-0.9850311279296875,-0.0821990966796875,-0.2042236328125
1761478220720690400,0.8546904296875,-0.989959716796875,-0.08721923828125,-0.2062530517578125
1761478220730726400,0.864726318359375,-0.9930267333984375,-0.088592529296875,-0.210174560546875
1761478220740762400,0.874762451171875,-0.990692138671875,-0.0899658203125,-0.2078704833984375
1761478220750799600,0.884799560546875,-0.9846038818359375,-0.0926361083984375,-0.19921875
1761478220760835800,0.8948359375,-0.9793243408203125,-0.0945281982421875,-0.1934356689453125
1761478220770871800,0.904871826171875,-0.979705810546875,-0.0887603759765625,-0.1923370361328125
1761478220780907800,0.91490771484375,-0.983245849609375,-0.0892333984375,-0.192230224609375
1761478220790943700,0.92494384765625,-0.99334716796875,-0.0884246826171875,-0.1950836181640625
1761478220800980700,0.934980712890625,-1.004241943359375,-0.086395263671875,-0.199676513671875
1761478220811016700,0.9450166015625,-1.012847900390625,-0.08502197265625,-0.2010955810546875
1761478220821052700,0.955052734375,-1.0145721435546875,-0.085113525390625,-0.19952392578125
1761478220831089000,0.9650888671875,-1.0079498291015625,-0.0836029052734375,-0.2019195556640625
1761478220841125600,0.975125732421875,-0.998260498046875,-0.0870513916015625,-0.203094482421875
1761478220851161600,0.98516162109375,-0.9908905029296875,-0.0903167724609375,-0.20086669921875
1761478220861197800,0.99519775390625,-0.98345947265625,-0.0915374755859375,-0.1972503662109375
1761478220871234000,1.005234130859375,-0.977447509765625,-0.0910797119140625,-0.1931304931640625
1761478220881270800,1.015270751953125,-0.9767303466796875,-0.090728759765625,-0.195556640625
1761478220891306800,1.025306640625,-0.9822540283203125,-0.0882415771484375,-0.20263671875
1761478220901343000,1.035343017578125,-0.9926300048828125,-0.0882720947265625,-0.208282470703125
1761478220911379000,1.04537890625,-0.9984130859375,-0.0871429443359375,-0.208221435546875
1761478220921415700,1.055415771484375,-1.001495361328125,-0.085357666015625,-0.207672119140625
1761478220931452000,1.065451904296875,-1.0017547607421875,-0.086273193359375,-0.20697021484375
1761478220941487900,1.07548779296875,-0.99859619140625,-0.08642578125,-0.2061309814453125
1761478220951523800,1.08552392578125,-0.987335205078125,-0.089752197265625,-0.2044219970703125
1761478220961559800,1.095559814453125,-0.97540283203125,-0.091644287109375,-0.19921875
1761478220971596800,1.1055966796875,-0.9690093994140625,-0.0931854248046875,-0.1930084228515625
1761478220981632800,1.1156328125,-0.969268798828125,-0.0912628173828125,-0.1895751953125
1761478220991669000,1.1256689453125,-0.9786529541015625,-0.0894317626953125,-0.1921234130859375
1761478221001705000,1.135705078125,-0.993011474609375,-0.08758544921875,-0.2008514404296875
1761478221011742000,1.145741943359375,-1.00628662109375,-0.0869140625,-0.2076263427734375
1761478221021778000,1.15577783203125,-1.0119476318359375,-0.0876617431640625,-0.2047882080078125
1761478221031814000,1.16581396484375,-1.0083465576171875,-0.0885772705078125,-0.19854736328125
1761478221041849900,1.175849853515625,-1.0018463134765625,-0.0930633544921875,-0.1964111328125
1761478221051886800,1.185886962890625,-0.993499755859375,-0.0950927734375,-0.1972198486328125
1761478221061922800,1.1959228515625,-0.9853057861328125,-0.0923614501953125,-0.19573974609375
1761478221071958800,1.205958740234375,-0.9896240234375,-0.0913543701171875,-0.1909942626953125
1761478221081994800,1.215994873046875,-0.9937744140625,-0.0878753662109375,-0.188079833984375
1761478221092031700,1.22603173828125,-0.9971466064453125,-0.08831787109375,-0.190338134765625
1761478221102067700,1.236067626953125,-0.9926605224609375,-0.0910491943359375,-0.196502685546875
1761478221112104000,1.24610400390625,-0.9875946044921875,-0.09295654296875,-0.2005462646484375
1761478221122140000,1.256139892578125,-0.983917236328125,-0.091217041015625,-0.1983795166015625
1761478221132177000,1.266177001953125,-0.98284912109375,-0.09210205078125,-0.1870574951171875
1761478221142212900,1.276212890625,-0.98101806640625,-0.089996337890625,-0.1805267333984375
1761478221152248800,1.286248779296875,-0.9832763671875,-0.0886383056640625,-0.18609619140625
1761478221162284800,1.296284912109375,-0.9872283935546875,-0.089385986328125,-0.1994476318359375
1761478221172321800,1.30632177734375,-0.9857330322265625,-0.091949462890625,-0.211090087890625
1761478221182357800,1.316357666015625,-0.985321044921875,-0.0858001708984375,-0.217132568359375
1761478221192393700,1.326393798828125,-0.98651123046875,-0.0868988037109375,-0.21270751953125
1761478221202429700,1.3364296875,-0.9968109130859375,-0.0887298583984375,-0.201141357421875
1761478221212465700,1.346465576171875,-1.0027923583984375,-0.0856170654296875,-0.1965789794921875
1761478221222502700,1.356502685546875,-1.005767822265625,-0.0859375,-0.19512939453125
1761478221232539000,1.366538818359375,-1.0029449462890625,-0.0831298828125,-0.203765869140625
1761478221242574800,1.376574951171875,-0.9954071044921875,-0.084136962890625,-0.2107696533203125
1761478221252610800,1.38661083984375,-0.9896087646484375,-0.0865936279296875,-0.212615966796875
1761478221262647800,1.396647705078125,-0.9812774658203125,-0.0901641845703125,-0.20928955078125
1761478221272683800,1.406683837890625,-0.9769287109375,-0.0947265625,-0.204376220703125
1761478221282719700,1.4167197265625,-0.975067138671875,-0.094696044921875,-0.2061004638671875
1761478221292756000,1.426755859375,-0.9749908447265625,-0.0917510986328125,-0.2053680419921875
1761478221302792700,1.436792724609375,-0.97906494140625,-0.0911712646484375,-0.1951751708984375
1761478221312828700,1.44682861328125,-0.98291015625,-0.09136962890625,-0.1849212646484375
1761478221322865000,1.456864990234375,-0.984375,-0.0894317626953125,-0.1824798583984375
1761478221332900900,1.46690087890625,-0.98828125,-0.0878753662109375,-0.186859130859375
1761478221342937600,1.4769375,-0.9946746826171875,-0.09149169921875,-0.1960906982421875
1761478221352973800,1.486973876953125,-0.9999847412109375,-0.0928192138671875,-0.2024993896484375
1761478221363010000,1.497010009765625,-1.0050811767578125,-0.094696044921875,-0.2046661376953125
1761478221373046000,1.5070458984375,-1.0078887939453125,-0.0943450927734375,-0.2017059326171875
1761478221383082800,1.517082763671875,-1.004425048828125,-0.093719482421875,-0.1980438232421875
1761478221393119000,1.527118896484375,-0.997222900390625,-0.0927886962890625,-0.196319580078125
1761478221403155000,1.537155029296875,-0.98968505859375,-0.0895843505859375,-0.1946258544921875
1761478221413191000,1.54719091796875,-0.98828125,-0.086578369140625,-0.1960296630859375
1761478221423228000,1.557227783203125,-0.989166259765625,-0.0858917236328125,-0.19805908203125
1761478221433263900,1.567263916015625,-0.9937591552734375,-0.0872344970703125,-0.198272705078125
1761478221443299800,1.5772998046875,-0.995025634765625,-0.09002685546875,-0.199981689453125
1761478221453335800,1.587335693359375,-0.9948272705078125,-0.0904541015625,-0.20184326171875
1761478221463371800,1.597371826171875,-0.99169921875,-0.092742919921875,-0.1998291015625
1761478221473409000,1.607408935546875,-0.9881744384765625,-0.0938720703125,-0.1989288330078125
1761478221483445000,1.617445068359375,-0.9812164306640625,-0.089813232421875,-0.1996002197265625
1761478221493481000,1.62748095703125,-0.97515869140625,-0.0888824462890625,-0.2007904052734375
1761478221503517000,1.637516845703125,-0.972412109375,-0.08868408203125,-0.2024688720703125
1761478221513554000,1.647553955078125,-0.97625732421875,-0.0859527587890625,-0.20526123046875
1761478221523590000,1.65758984375,-0.9813079833984375,-0.0852203369140625,-0.2060089111328125
1761478221533625900,1.6676259765625,-0.9871368408203125,-0.0849609375,-0.2044677734375
1761478221543661800,1.677661865234375,-0.9956512451171875,-0.0856781005859375,-0.198089599609375
1761478221553698800,1.68769873046875,-0.9999542236328125,-0.086212158203125,-0.196807861328125
1761478221563734800,1.69773486328125,-1.003509521484375,-0.09002685546875,-0.1980743408203125
1761478221573770800,1.707770751953125,-1.006011962890625,-0.09344482421875,-0.200286865234375
1761478221583806700,1.717806640625,-1.006622314453125,-0.0917510986328125,-0.202178955078125
1761478221593844000,1.727843994140625,-1.0001220703125,-0.0906524658203125,-0.2027130126953125
1761478221603880000,1.7378798828125,-0.9989776611328125,-0.0878753662109375,-0.1995697021484375
1761478221613916000,1.747916015625,-0.997161865234375,-0.0888671875,-0.1920623779296875
1761478221623952000,1.757951904296875,-0.9979400634765625,-0.0884552001953125,-0.187652587890625
1761478221633988900,1.76798876953125,-0.9949188232421875,-0.0877227783203125,-0.1887359619140625
1761478221644024800,1.77802490234375,-0.99053955078125,-0.0946044921875,-0.194091796875
1761478221654060800,1.788060791015625,-0.9891510009765625,-0.09466552734375,-0.20306396484375
1761478221664096800,1.7980966796875,-0.99566650390625,-0.0908203125,-0.208709716796875
1761478221674133800,1.8081337890625,-0.99658203125,-0.088897705078125,-0.207977294921875
1761478221684169700,1.818169677734375,-0.9916229248046875,-0.0843505859375,-0.20416259765625
1761478221694205700,1.828205810546875,-0.987335205078125,-0.0835418701171875,-0.1899871826171875
1761478221704241700,1.83824169921875,-0.985107421875,-0.0886688232421875,-0.180816650390625
1761478221714279000,1.84827880859375,-0.9781646728515625,-0.094390869140625,-0.1970672607421875
1761478221724315000,1.85831494140625,-0.9872589111328125,-0.09283447265625,-0.21124267578125
1761478221734350800,1.868350830078125,-0.9877777099609375,-0.0968780517578125,-0.2147979736328125
1761478221744386800,1.87838671875,-0.9875946044921875,-0.09515380859375,-0.2112579345703125
1761478221754423800,1.888423828125,-0.99365234375,-0.088775634765625,-0.204620361328125
1761478221764459300,1.898459228515625,-0.9942169189453125,-0.08795166015625,-0.1988372802734375
1761478221774495500,1.90849560546875,-0.9896697998046875,-0.0897674560546875,-0.20135498046875
1761478221784531500,1.918531494140625,-0.983306884765625,-0.0905609130859375,-0.205810546875
1761478221794567400,1.9285673828125,-0.9791259765625,-0.0930938720703125,-0.20556640625
1761478221804604400,1.9386044921875,-0.9766387939453125,-0.0963287353515625,-0.2032318115234375
1761478221814640600,1.948640625,-0.9835052490234375,-0.0959320068359375,-0.201141357421875
1761478221824676600,1.958676513671875,-0.9904632568359375,-0.0926055908203125,-0.1994476318359375
1761478221834712600,1.968712646484375,-0.99755859375,-0.0931396484375,-0.1939849853515625
1761478221844749600,1.97874951171875,-0.99945068359375,-0.0959014892578125,-0.1924285888671875
1761478221854785500,1.98878564453125,-0.996551513671875,-0.09576416015625,-0.19830322265625
1761478221864821500,1.998821533203125,-0.9935150146484375,-0.0964813232421875,-0.19989013671875
1761478221874857500,2.008857421875,-0.9896240234375,-0.096435546875,-0.196533203125
1761478221884894500,2.01889453125,-0.9865875244140625,-0.0944976806640625,-0.1939544677734375
1761478221894930400,2.028930419921875,-0.9831390380859375,-0.0935821533203125,-0.196746826171875
1761478221904966400,2.03896630859375,-0.983001708984375,-0.0925750732421875,-0.20263671875
1761478221915002400,2.04900244140625,-0.9882965087890625,-0.0909576416015625,-0.2064056396484375
1761478221925039600,2.05903955078125,-0.99383544921875,-0.090087890625,-0.207000732421875
1761478221935075600,2.06907568359375,-0.9946746826171875,-0.0909271240234375,-0.2058563232421875
1761478221945111600,2.079111572265625,-0.9943084716796875,-0.0918426513671875,-0.2072296142578125
1761478221955147500,2.0891474609375,-0.9965057373046875,-0.0913238525390625,-0.208099365234375
1761478221965184500,2.0991845703125,-1.00042724609375,-0.0905914306640625,-0.2066497802734375
1761478221975220500,2.109220458984375,-1.00042724609375,-0.0895233154296875,-0.2045135498046875
1761478221985256400,2.11925634765625,-0.9973297119140625,-0.0916900634765625,-0.205413818359375
1761478221995292400,2.12929248046875,-0.9852294921875,-0.0950164794921875,-0.2116851806640625
1761478222005328400,2.139328369140625,-0.973876953125,-0.0962982177734375,-0.21258544921875
1761478222015365400,2.149365478515625,-0.9721832275390625,-0.09490966796875,-0.20660400390625
1761478222025401300,2.1594013671875,-0.9761199951171875,-0.09326171875,-0.1965789794921875
1761478222035437300,2.169437255859375,-0.9834136962890625,-0.09539794921875,-0.1917877197265625
1761478222045473300,2.179473388671875,-0.9929656982421875,-0.0929718017578125,-0.194061279296875
1761478222055510500,2.189510498046875,-1.0033111572265625,-0.089996337890625,-0.203155517578125
1761478222065546500,2.19954638671875,-1.0009918212890625,-0.0961151123046875,-0.2016448974609375
1761478222075582500,2.20958251953125,-0.9876708984375,-0.101776123046875,-0.189910888671875
1761478222085618400,2.219618408203125,-0.979217529296875,-0.1009521484375,-0.1788482666015625
1761478222095655400,2.229655517578125,-0.98681640625,-0.1032562255859375,-0.1762237548828125
1761478222105691400,2.23969140625,-1.0019989013671875,-0.09796142578125,-0.186737060546875
1761478222115727400,2.249727294921875,-1.01129150390625,-0.0899505615234375,-0.1980133056640625
1761478222125763300,2.259763427734375,-1.0105133056640625,-0.0905914306640625,-0.2050933837890625
1761478222135800300,2.26980029296875,-1.001922607421875,-0.091278076171875,-0.2102203369140625
1761478222145836300,2.279836181640625,-0.989288330078125,-0.09515380859375,-0.2094879150390625
1761478222155872300,2.289872314453125,-0.9791259765625,-0.0973358154296875,-0.2090606689453125
1761478222165908200,2.299908203125,-0.972808837890625,-0.097015380859375,-0.20611572265625
1761478222175945500,2.309945556640625,-0.971343994140625,-0.097381591796875,-0.199737548828125
1761478222185981400,2.3199814453125,-0.976837158203125,-0.092193603515625,-0.1982574462890625
1761478222196017400,2.330017333984375,-0.985198974609375,-0.089202880859375,-0.19720458984375
1761478222206053400,2.340053466796875,-0.9917144775390625,-0.0904998779296875,-0.1954193115234375
1761478222216089600,2.350089599609375,-0.993896484375,-0.093994140625,-0.1968536376953125
1761478222226126300,2.360126220703125,-0.9920501708984375,-0.093780517578125,-0.20245361328125
1761478222236162300,2.370162353515625,-0.99212646484375,-0.097137451171875,-0.203460693359375
1761478222246198500,2.380198486328125,-0.9952239990234375,-0.1001739501953125,-0.2027130126953125
1761478222256234500,2.390234375,-0.9991912841796875,-0.0955352783203125,-0.2021484375
1761478222266271200,2.400271240234375,-1.001129150390625,-0.09326171875,-0.2001800537109375
1761478222276307500,2.410307373046875,-1.0041961669921875,-0.09234619140625,-0.2017669677734375
1761478222286343400,2.420343505859375,-0.9992218017578125,-0.0879058837890625,-0.2042694091796875
1761478222296379600,2.430379638671875,-0.9886016845703125,-0.0934600830078125,-0.1989288330078125
1761478222306416400,2.44041650390625,-0.9822540283203125,-0.095306396484375,-0.1936798095703125
1761478222316452600,2.45045263671875,-0.983734130859375,-0.095306396484375,-0.1931915283203125
1761478222326488600,2.460488525390625,-0.9836578369140625,-0.0959014892578125,-0.1982269287109375
1761478222336524500,2.470524658203125,-0.98565673828125,-0.09515380859375,-0.2032470703125
1761478222346560500,2.480560546875,-0.9931488037109375,-0.092681884765625,-0.2084503173828125
1761478222356597500,2.490597412109375,-0.9980621337890625,-0.0919342041015625,-0.21148681640625
1761478222366633500,2.500633544921875,-0.9934844970703125,-0.0946502685546875,-0.20611572265625
1761478222376669400,2.51066943359375,-0.983154296875,-0.09478759765625,-0.1997528076171875
1761478222386705400,2.520705322265625,-0.982513427734375,-0.095733642578125,-0.19439697265625
1761478222396742400,2.530742431640625,-0.9847869873046875,-0.0936737060546875,-0.1954193115234375
1761478222406778400,2.5407783203125,-0.98779296875,-0.09063720703125,-0.1979827880859375
1761478222416814600,2.550814697265625,-0.9895172119140625,-0.0926971435546875,-0.1998138427734375
1761478222426850600,2.5608505859375,-0.995208740234375,-0.0935516357421875,-0.2059478759765625
1761478222436887600,2.570887451171875,-0.9976959228515625,-0.0915069580078125,-0.2085418701171875
1761478222446923500,2.580923583984375,-0.99859619140625,-0.0940399169921875,-0.206695556640625
1761478222456959500,2.59095947265625,-0.9942474365234375,-0.095703125,-0.202362060546875
1761478222466995500,2.600995361328125,-0.990081787109375,-0.095001220703125,-0.2010955810546875
1761478222477032400,2.611032470703125,-0.984527587890625,-0.09375,-0.2033843994140625
1761478222487068400,2.621068359375,-0.9794769287109375,-0.0944671630859375,-0.20361328125
1761478222497104400,2.6311044921875,-0.974517822265625,-0.0954742431640625,-0.2014007568359375
1761478222507140400,2.641140380859375,-0.9739837646484375,-0.0929412841796875,-0.2008056640625
1761478222517176300,2.65117626953125,-0.98175048828125,-0.0893707275390625,-0.1998138427734375
1761478222527213300,2.66121337890625,-0.99139404296875,-0.0890960693359375,-0.2037200927734375
1761478222537249500,2.67124951171875,-1.0030975341796875,-0.0882720947265625,-0.209259033203125
1761478222547285500,2.681285400390625,-1.0101165771484375,-0.08831787109375,-0.21221923828125
1761478222557321500,2.691321533203125,-1.0110931396484375,-0.093841552734375,-0.207427978515625
1761478222567358500,2.7013583984375,-1.007080078125,-0.0975341796875,-0.2017822265625
1761478222577394400,2.71139453125,-0.9980926513671875,-0.0971221923828125,-0.195770263671875
1761478222587430400,2.721430419921875,-0.989898681640625,-0.0968780517578125,-0.1918792724609375
1761478222597466400,2.73146630859375,-0.98284912109375,-0.09674072265625,-0.1941986083984375
1761478222607503400,2.74150341796875,-0.97918701171875,-0.095123291015625,-0.2012481689453125
1761478222617539300,2.751539306640625,-0.981719970703125,-0.09381103515625,-0.20599365234375
1761478222627575300,2.7615751953125,-0.9860076904296875,-0.092681884765625,-0.203399658203125
1761478222637611300,2.771611328125,-0.9900360107421875,-0.09063720703125,-0.199859619140625
1761478222647647500,2.7816474609375,-0.9945831298828125,-0.0898590087890625,-0.200714111328125
1761478222657684500,2.7916845703125,-0.997100830078125,-0.08984375,-0.2034912109375
1761478222667720400,2.801720458984375,-0.9973907470703125,-0.094970703125,-0.2057952880859375
1761478222677756700,2.811756591796875,-0.9892425537109375,-0.0980224609375,-0.2045135498046875
1761478222687792600,2.821792724609375,-0.98907470703125,-0.098724365234375,-0.1992340087890625
1761478222697829400,2.831829345703125,-0.9889984130859375,-0.0978851318359375,-0.1935272216796875
1761478222707865600,2.841865478515625,-0.9845123291015625,-0.096221923828125,-0.19549560546875
1761478222717901600,2.851901611328125,-0.9827728271484375,-0.0926971435546875,-0.20361328125
1761478222727937500,2.8619375,-0.983489990234375,-0.090728759765625,-0.2078399658203125
1761478222737974500,2.871974609375,-0.9902496337890625,-0.0895843505859375,-0.2039947509765625
1761478222748010500,2.882010498046875,-0.9987030029296875,-0.09088134765625,-0.1932830810546875
1761478222758046500,2.89204638671875,-0.999542236328125,-0.09320068359375,-0.1887054443359375
1761478222768082700,2.902082763671875,-0.994293212890625,-0.0939178466796875,-0.1984100341796875
1761478222778118700,2.91211865234375,-0.988311767578125,-0.09814453125,-0.2088623046875
1761478222788155600,2.92215576171875,-0.98583984375,-0.0993804931640625,-0.2093505859375
1761478222798191600,2.932191650390625,-0.9872894287109375,-0.094482421875,-0.2039337158203125
1761478222808227600,2.9422275390625,-0.9914398193359375,-0.0906219482421875,-0.196685791015625
1761478222818263600,2.952263671875,-0.9898834228515625,-0.0906524658203125,-0.195953369140625
1761478222828300800,2.96230078125,-0.9858856201171875,-0.0908966064453125,-0.1986236572265625
1761478222838336800,2.972336669921875,-0.9835968017578125,-0.09429931640625,-0.2009124755859375
1761478222848372700,2.982372802734375,-0.9917755126953125,-0.0960693359375,-0.201141357421875
1761478222858408700,2.99240869140625,-1.002685546875,-0.095306396484375,-0.2000732421875
1761478222868445700,3.00244580078125,-1.0129547119140625,-0.09228515625,-0.2001190185546875
1761478222878481700,3.012481689453125,-1.0144500732421875,-0.0896453857421875,-0.20294189453125
1761478222888517600,3.022517578125,-1.0008697509765625,-0.0914459228515625,-0.2086639404296875
1761478222898553600,3.0325537109375,-0.982421875,-0.096893310546875,-0.2128448486328125
1761478222908589600,3.042589599609375,-0.9660797119140625,-0.1017608642578125,-0.2103118896484375
1761478222918626600,3.05262646484375,-0.958709716796875,-0.1017303466796875,-0.1986083984375
1761478222928662500,3.06266259765625,-0.960174560546875,-0.097412109375,-0.182342529296875
1761478222938698500,3.072698486328125,-0.970733642578125,-0.0945892333984375,-0.1748504638671875
1761478222948734500,3.082734375,-0.9819793701171875,-0.092529296875,-0.182586669921875
1761478222958771700,3.092771728515625,-0.991851806640625,-0.093475341796875,-0.196624755859375
1761478222968807700,3.1028076171875,-0.9995269775390625,-0.0960235595703125,-0.2057647705078125
1761478222978843600,3.11284375,-1.007415771484375,-0.0966644287109375,-0.208160400390625
1761478222988879600,3.122879638671875,-1.0125579833984375,-0.0951080322265625,-0.2022247314453125
1761478222998915600,3.13291552734375,-1.0167388916015625,-0.09423828125,-0.200714111328125
1761478223008952600,3.14295263671875,-1.0135345458984375,-0.09234619140625,-0.20892333984375
1761478223018988500,3.152988525390625,-1.0057220458984375,-0.0922088623046875,-0.2131195068359375
1761478223029024500,3.1630244140625,-0.996673583984375,-0.0906219482421875,-0.2088775634765625
1761478223039060500,3.173060546875,-0.9873809814453125,-0.089935302734375,-0.2006378173828125
1761478223049097500,3.183097412109375,-0.98486328125,-0.0885009765625,-0.199310302734375
1761478223059133400,3.193133544921875,-0.9833831787109375,-0.0884246826171875,-0.202911376953125
1761478223069169400,3.20316943359375,-0.9805755615234375,-0.0902862548828125,-0.2087249755859375
1761478223079205600,3.21320556640625,-0.9764251708984375,-0.09185791015625,-0.21392822265625
1761478223089241600,3.22324169921875,-0.976654052734375,-0.0930938720703125,-0.214508056640625
1761478223099278600,3.233278564453125,-0.979949951171875,-0.0936737060546875,-0.211395263671875
1761478223109314600,3.243314453125,-0.984100341796875,-0.093292236328125,-0.2059173583984375
1761478223119350800,3.253350830078125,-0.986297607421875,-0.0936126708984375,-0.2025299072265625
1761478223129386800,3.26338671875,-0.990875244140625,-0.093597412109375,-0.2012939453125
1761478223139423500,3.273423583984375,-0.991455078125,-0.0954437255859375,-0.19989013671875
1761478223149459700,3.283459716796875,-0.985565185546875,-0.098846435546875,-0.1960601806640625
1761478223159495700,3.29349560546875,-0.9827880859375,-0.099639892578125,-0.1912841796875
1761478223169531600,3.30353173828125,-0.98614501953125,-0.0976409912109375,-0.1887664794921875
1761478223179568600,3.313568603515625,-0.9930572509765625,-0.0933990478515625,-0.1880035400390625
1761478223189604600,3.3236044921875,-1.0043792724609375,-0.0902252197265625,-0.190643310546875
1761478223199640600,3.333640625,-1.0111846923828125,-0.09100341796875,-0.1966400146484375
1761478223209676500,3.343676513671875,-1.011871337890625,-0.0934600830078125,-0.202301025390625
1761478223219712800,3.353712646484375,-1.007659912109375,-0.0948486328125,-0.20703125
1761478223229749800,3.363749755859375,-0.9984588623046875,-0.0966644287109375,-0.2050323486328125
1761478223239785700,3.37378564453125,-0.9889984130859375,-0.09686279296875,-0.199920654296875
1761478223249821700,3.38382177734375,-0.9895782470703125,-0.0944976806640625,-0.198028564453125
1761478223259857700,3.393857666015625,-0.99053955078125,-0.0933990478515625,-0.2025604248046875
1761478223269894700,3.403894775390625,-0.9853668212890625,-0.096099853515625,-0.2068328857421875
1761478223279930600,3.4139306640625,-0.97784423828125,-0.096466064453125,-0.20648193359375
1761478223289966600,3.423966552734375,-0.9718475341796875,-0.094879150390625,-0.2031707763671875
1761478223300002600,3.43400244140625,-0.970184326171875,-0.0966033935546875,-0.198211669921875
1761478223310038500,3.44403857421875,-0.9761505126953125,-0.0954742431640625,-0.19921875
1761478223320075500,3.454075439453125,-0.9915924072265625,-0.09124755859375,-0.20172119140625
1761478223330111500,3.464111572265625,-1.006805419921875,-0.089874267578125,-0.201141357421875
1761478223340147700,3.474147705078125,-1.01165771484375,-0.0912628173828125,-0.20440673828125
1761478223350183700,3.48418359375,-1.0077056884765625,-0.09674072265625,-0.2078399658203125
1761478223360220700,3.494220703125,-1.002899169921875,-0.0972442626953125,-0.2069854736328125
1761478223370256600,3.504256591796875,-0.9930877685546875,-0.0967864990234375,-0.2037811279296875
1761478223380292600,3.514292724609375,-0.9835052490234375,-0.100830078125,-0.19952392578125
1761478223390328600,3.52432861328125,-0.9814453125,-0.0965118408203125,-0.2017974853515625
1761478223400364500,3.534364501953125,-0.9853515625,-0.0930328369140625,-0.2036895751953125
1761478223410401500,3.544401611328125,-0.992279052734375,-0.0948944091796875,-0.2061614990234375
1761478223420437500,3.5544375,-0.9927825927734375,-0.0927276611328125,-0.2092437744140625
1761478223430473500,3.564473388671875,-0.9902191162109375,-0.0943603515625,-0.2037506103515625
1761478223440509400,3.574509521484375,-0.9866180419921875,-0.0981292724609375,-0.19781494140625
1761478223450545700,3.584545654296875,-0.9824981689453125,-0.100006103515625,-0.193817138671875
1761478223460582700,3.594582763671875,-0.986724853515625,-0.09185791015625,-0.1988372802734375
1761478223470618600,3.60461865234375,-0.9915771484375,-0.0962066650390625,-0.2021636962890625
1761478223480654600,3.614654541015625,-0.9902496337890625,-0.100311279296875,-0.206329345703125
1761478223490690800,3.62469091796875,-0.9856109619140625,-0.0983123779296875,-0.2106475830078125
1761478223500727600,3.6347275390625,-0.980438232421875,-0.0994720458984375,-0.20745849609375
1761478223510763500,3.644763427734375,-0.9735565185546875,-0.0992584228515625,-0.19915771484375
1761478223520799700,3.6547998046875,-0.969329833984375,-0.0983734130859375,-0.190399169921875
1761478223530835700,3.664835693359375,-0.97705078125,-0.0987396240234375,-0.18939208984375
1761478223540871700,3.67487158203125,-0.9957427978515625,-0.0970611572265625,-0.194488525390625
1761478223550908700,3.68490869140625,-1.01226806640625,-0.09228515625,-0.2002410888671875
1761478223560944600,3.694944580078125,-1.0157012939453125,-0.092681884765625,-0.2056732177734375
1761478223570980600,3.704980712890625,-1.0064544677734375,-0.0977630615234375,-0.209136962890625
1761478223581016600,3.7150166015625,-0.993377685546875,-0.102203369140625,-0.20819091796875
1761478223591053800,3.7250537109375,-0.9851837158203125,-0.1029052734375,-0.2018280029296875
1761478223601089800,3.73508984375,-0.9789581298828125,-0.0999908447265625,-0.1925048828125
1761478223611125800,3.745125732421875,-0.97894287109375,-0.09771728515625,-0.18707275390625
1761478223621161700,3.75516162109375,-0.982208251953125,-0.09576416015625,-0.1895294189453125
1761478223631197700,3.76519775390625,-0.9902801513671875,-0.0931549072265625,-0.19537353515625
1761478223641234700,3.775234619140625,-0.9956817626953125,-0.0979461669921875,-0.1994476318359375
1761478223651270700,3.785270751953125,-0.997039794921875,-0.1009979248046875,-0.202667236328125
1761478223661306600,3.795306640625,-0.99615478515625,-0.1013336181640625,-0.2080535888671875
1761478223671342600,3.805342529296875,-0.994537353515625,-0.103668212890625,-0.2097625732421875
1761478223681379600,3.815379638671875,-0.9912261962890625,-0.101654052734375,-0.2105712890625
1761478223691415600,3.82541552734375,-0.9875946044921875,-0.0970916748046875,-0.2053680419921875
1761478223701451500,3.835451416015625,-0.987396240234375,-0.0942535400390625,-0.1987152099609375
1761478223711487500,3.845487548828125,-0.9910888671875,-0.09283447265625,-0.1956329345703125
1761478223721523500,3.8555234375,-0.9930419921875,-0.0924530029296875,-0.2005615234375
1761478223731560700,3.865560791015625,-0.9893798828125,-0.09466552734375,-0.2077484130859375
1761478223741596700,3.8755966796875,-0.98248291015625,-0.0996246337890625,-0.210235595703125
1761478223751632600,3.885632568359375,-0.9774169921875,-0.1009674072265625,-0.206512451171875
1761478223761667800,3.895667724609375,-0.9773101806640625,-0.0980987548828125,-0.2006683349609375
1761478223771704800,3.905704833984375,-0.981353759765625,-0.0969390869140625,-0.1998443603515625
1761478223781740800,3.91574072265625,-0.989776611328125,-0.095489501953125,-0.2035369873046875
1761478223791776800,3.92577685546875,-0.9959564208984375,-0.095733642578125,-0.207794189453125
1761478223801813000,3.93581298828125,-0.992767333984375,-0.0961151123046875,-0.2069549560546875
1761478223811849000,3.945848876953125,-0.9945831298828125,-0.096160888671875,-0.1990203857421875
1761478223821886000,3.955885986328125,-0.997406005859375,-0.097747802734375,-0.1884918212890625
1761478223831922000,3.965921875,-0.9983062744140625,-0.100982666015625,-0.1835479736328125
1761478223841958000,3.9759580078125,-0.9947967529296875,-0.1030731201171875,-0.1867523193359375
1761478223851993900,3.985993896484375,-0.9936370849609375,-0.102569580078125,-0.1958465576171875
1761478223862029800,3.99602978515625,-0.9931182861328125,-0.102142333984375,-0.199951171875
1761478223872064800,4.006064697265625,-0.992156982421875,-0.1003875732421875,-0.2007904052734375
1761478223882100700,4.016100830078125,-0.9844970703125,-0.09600830078125,-0.200592041015625
1761478223892137700,4.0261376953125,-0.9719696044921875,-0.092010498046875,-0.1957550048828125
1761478223902173700,4.036173583984375,-0.9759368896484375,-0.084564208984375,-0.194549560546875
1761478223912209700,4.046209716796875,-0.9870758056640625,-0.08538818359375,-0.2015533447265625
1761478223922245600,4.05624560546875,-1.005950927734375,-0.084686279296875,-0.2197113037109375
1761478223932281900,4.06628173828125,-1.0116119384765625,-0.090057373046875,-0.22454833984375
1761478223942318800,4.07631884765625,-1.0148468017578125,-0.0944976806640625,-0.2211761474609375
1761478223952354800,4.086354736328125,-1.0092620849609375,-0.09588623046875,-0.2167816162109375
1761478223962390800,4.096390869140625,-1.0008697509765625,-0.0995941162109375,-0.209930419921875
1761478223972427000,4.106427001953125,-0.9918670654296875,-0.095703125,-0.2048187255859375
1761478223982463000,4.116462890625,-0.986663818359375,-0.0933990478515625,-0.1973114013671875
1761478223992499700,4.126499755859375,-0.98931884765625,-0.0965423583984375,-0.19012451171875
1761478224002536000,4.136535888671875,-0.98480224609375,-0.09552001953125,-0.189361572265625
1761478224012572000,4.146572021484375,-0.98175048828125,-0.0977935791015625,-0.190185546875
1761478224022608000,4.15660791015625,-0.9835662841796875,-0.1030426025390625,-0.197052001953125
1761478224032644900,4.166644775390625,-0.984344482421875,-0.1016693115234375,-0.203399658203125
1761478224042680800,4.176680908203125,-0.9835662841796875,-0.1009368896484375,-0.20245361328125
1761478224052716800,4.186716796875,-0.9821929931640625,-0.098876953125,-0.19647216796875
1761478224062752800,4.196752685546875,-0.985260009765625,-0.0962371826171875,-0.1934661865234375
1761478224072788700,4.206788818359375,-0.988433837890625,-0.0961456298828125,-0.1935577392578125
1761478224082826000,4.216825927734375,-0.9929351806640625,-0.095428466796875,-0.195098876953125
1761478224092862000,4.226862060546875,-0.997039794921875,-0.0998382568359375,-0.1971893310546875
1761478224102898000,4.23689794921875,-0.996734619140625,-0.100799560546875,-0.1965484619140625
1761478224112934000,4.246933837890625,-0.9951019287109375,-0.1020660400390625,-0.1977691650390625
1761478224122969900,4.256969970703125,-0.9954986572265625,-0.10162353515625,-0.20196533203125
1761478224133006800,4.2670068359375,-0.995758056640625,-0.095733642578125,-0.20452880859375
1761478224143042800,4.277042724609375,-0.9884185791015625,-0.0953521728515625,-0.1988067626953125
1761478224153078800,4.287078857421875,-0.982269287109375,-0.0994110107421875,-0.192108154296875
1761478224163114800,4.29711474609375,-0.985260009765625,-0.099609375,-0.189453125
1761478224173151700,4.30715185546875,-0.9919586181640625,-0.098388671875,-0.1937103271484375
1761478224183187700,4.317187744140625,-0.997406005859375,-0.096832275390625,-0.2036895751953125
1761478224193223700,4.3272236328125,-1.0002593994140625,-0.0958099365234375,-0.2158050537109375
1761478224203259600,4.337259765625,-1.0026397705078125,-0.0955810546875,-0.2169647216796875
1761478224213295900,4.3472958984375,-0.9928436279296875,-0.0997772216796875,-0.212066650390625
1761478224223332900,4.357332763671875,-0.9734039306640625,-0.10443115234375,-0.20245361328125
1761478224233368800,4.367368896484375,-0.963714599609375,-0.1046600341796875,-0.1948394775390625
1761478224243404800,4.37740478515625,-0.9627227783203125,-0.1038360595703125,-0.1904449462890625
1761478224253440800,4.387440673828125,-0.9688720703125,-0.102020263671875,-0.1845245361328125
1761478224263476700,4.397476806640625,-0.97845458984375,-0.0990447998046875,-0.18218994140625
1761478224273513700,4.407513671875,-0.9961395263671875,-0.0959014892578125,-0.1837158203125
1761478224283549700,4.4175498046875,-1.010406494140625,-0.0966949462890625,-0.1884613037109375
1761478224293585700,4.427585693359375,-1.014007568359375,-0.0980987548828125,-0.1977996826171875
1761478224303622000,4.437621826171875,-1.0115814208984375,-0.1025543212890625,-0.207550048828125
1761478224313658600,4.44765869140625,-1.00823974609375,-0.104034423828125,-0.2151336669921875
1761478224323694600,4.457694580078125,-1.0073699951171875,-0.103729248046875,-0.216522216796875
1761478224333730800,4.467730712890625,-1.0040283203125,-0.095977783203125,-0.2155914306640625
1761478224343767000,4.47776708984375,-0.9995269775390625,-0.09429931640625,-0.207916259765625
1761478224353803000,4.487802978515625,-0.9861297607421875,-0.09844970703125,-0.197906494140625
1761478224363839700,4.49783984375,-0.973968505859375,-0.10015869140625,-0.19305419921875
1761478224373876000,4.5078759765625,-0.96697998046875,-0.103118896484375,-0.1877899169921875
1761478224383912000,4.517911865234375,-0.9640960693359375,-0.1004180908203125,-0.1897125244140625
1761478224393948000,4.527947998046875,-0.9681243896484375,-0.0984649658203125,-0.1984405517578125
1761478224403984000,4.53798388671875,-0.9726104736328125,-0.102081298828125,-0.2092132568359375
1761478224414020900,4.548020751953125,-0.977264404296875,-0.1007232666015625,-0.21551513671875
1761478224424056800,4.558056884765625,-0.983489990234375,-0.0982513427734375,-0.2113494873046875
1761478224434092800,4.5680927734375,-0.9866790771484375,-0.09906005859375,-0.2020416259765625
1761478224444128800,4.578128662109375,-0.98602294921875,-0.0988311767578125,-0.1958770751953125
1761478224454164700,4.588164794921875,-0.9844818115234375,-0.10198974609375,-0.1946258544921875
1761478224464202000,4.598201904296875,-0.9861907958984375,-0.1031646728515625,-0.19537353515625
1761478224474238000,4.608238037109375,-0.9898529052734375,-0.102691650390625,-0.19317626953125
1761478224484274000,4.61827392578125,-0.9981689453125,-0.1026458740234375,-0.1881256103515625
1761478224494310000,4.628309814453125,-1.0083770751953125,-0.0969085693359375,-0.1859283447265625
1761478224504347000,4.638346923828125,-1.0153656005859375,-0.09393310546875,-0.1902313232421875
1761478224514382800,4.6483828125,-1.014007568359375,-0.0955047607421875,-0.2014007568359375
1761478224524418800,4.658418701171875,-1.0155792236328125,-0.0938262939453125,-0.2165069580078125
1761478224534454800,4.668454833984375,-1.01104736328125,-0.09326171875,-0.2211456298828125
1761478224544490800,4.67849072265625,-1.0029754638671875,-0.0971527099609375,-0.2123260498046875
1761478224554527700,4.68852783203125,-0.99273681640625,-0.0987548828125,-0.1992645263671875
1761478224564563700,4.698563720703125,-0.98504638671875,-0.099334716796875,-0.1871490478515625
1761478224574599700,4.708599609375,-0.98016357421875,-0.1001434326171875,-0.1821136474609375
1761478224584635600,4.7186357421875,-0.9779205322265625,-0.100677490234375,-0.1873626708984375
1761478224594671600,4.728671630859375,-0.97998046875,-0.1010284423828125,-0.1975555419921875
1761478224604708900,4.738708984375,-0.9799346923828125,-0.0984954833984375,-0.2033538818359375
1761478224614744800,4.748744873046875,-0.97918701171875,-0.097900390625,-0.205810546875
1761478224624780800,4.75878076171875,-0.980987548828125,-0.0981597900390625,-0.209869384765625
1761478224634816800,4.768816650390625,-0.9838104248046875,-0.095184326171875,-0.2087860107421875
1761478224644853800,4.778853759765625,-0.9885711669921875,-0.094970703125,-0.2079315185546875
1761478224654889700,4.7888896484375,-0.9915771484375,-0.0924835205078125,-0.21270751953125
1761478224664925700,4.79892578125,-0.9923553466796875,-0.0927276611328125,-0.218505859375
1761478224674962000,4.8089619140625,-0.9905242919921875,-0.0970458984375,-0.214111328125
1761478224684998000,4.818997802734375,-0.9821014404296875,-0.0992431640625,-0.2001495361328125
1761478224695034600,4.82903466796875,-0.9769134521484375,-0.100982666015625,-0.18487548828125
1761478224705070800,4.83907080078125,-0.9811859130859375,-0.1016387939453125,-0.1820831298828125
1761478224715106800,4.84910693359375,-0.9906768798828125,-0.099578857421875,-0.191802978515625
1761478224725142800,4.859142822265625,-1.0013885498046875,-0.0963134765625,-0.2075347900390625
1761478224735178800,4.8691787109375,-1.0077667236328125,-0.097747802734375,-0.2159271240234375
1761478224745216000,4.879216064453125,-1.0036773681640625,-0.1031036376953125,-0.2095489501953125
1761478224755252000,4.889251953125,-0.9959716796875,-0.1044921875,-0.19635009765625
1761478224765288000,4.899287841796875,-0.987945556640625,-0.10791015625,-0.1829833984375
1761478224775325000,4.909324951171875,-0.9821929931640625,-0.1115264892578125,-0.178802490234375
1761478224785361700,4.919361572265625,-0.977935791015625,-0.1068115234375,-0.1823883056640625
1761478224795397600,4.929397705078125,-0.980072021484375,-0.1002960205078125,-0.1895751953125
1761478224805433900,4.939433837890625,-0.987823486328125,-0.0978240966796875,-0.1954345703125
1761478224815469800,4.9494697265625,-0.9952239990234375,-0.0975189208984375,-0.19744873046875
1761478224825505800,4.959505859375,-0.998626708984375,-0.0982208251953125,-0.201690673828125
1761478224835542800,4.969542724609375,-0.99932861328125,-0.1011962890625,-0.206573486328125
1761478224845578800,4.979578857421875,-0.9963836669921875,-0.102447509765625,-0.2100067138671875
1761478224855614700,4.98961474609375,-0.9923553466796875,-0.1023101806640625,-0.2086944580078125
1761478224865650700,4.999650634765625,-0.9892730712890625,-0.1021881103515625,-0.204254150390625
1761478224875688000,5.00968798828125,-0.989013671875,-0.1007843017578125,-0.203399658203125
1761478224885724000,5.019723876953125,-0.985565185546875,-0.1008758544921875,-0.2039337158203125
1761478224895760000,5.029759765625,-0.9809722900390625,-0.0992431640625,-0.2015838623046875
1761478224905795800,5.0397958984375,-0.98199462890625,-0.0971832275390625,-0.196380615234375
1761478224915831800,5.049831787109375,-0.9881439208984375,-0.0962066650390625,-0.19512939453125
1761478224925868800,5.059868896484375,-0.9922637939453125,-0.0954437255859375,-0.19964599609375
1761478224935904800,5.06990478515625,-0.996185302734375,-0.0963287353515625,-0.2049102783203125
1761478224945940700,5.079940673828125,-0.9959716796875,-0.098724365234375,-0.20843505859375
1761478224955976700,5.089976806640625,-0.9959716796875,-0.0985870361328125,-0.2072296142578125
1761478224966012700,5.1000126953125,-0.9995880126953125,-0.09735107421875,-0.2052459716796875
1761478224976049700,5.110049560546875,-0.999420166015625,-0.0987701416015625,-0.205352783203125
1761478224986085600,5.120085693359375,-0.994720458984375,-0.1021728515625,-0.2071075439453125
1761478224996121600,5.13012158203125,-0.9796600341796875,-0.1054840087890625,-0.2031402587890625
1761478225006157600,5.140157470703125,-0.9669647216796875,-0.106964111328125,-0.1975555419921875
1761478225016193500,5.150193603515625,-0.961151123046875,-0.10595703125,-0.192230224609375
1761478225026230800,5.160230712890625,-0.968109130859375,-0.1029205322265625,-0.1881103515625
1761478225036266800,5.170266845703125,-0.9824676513671875,-0.100341796875,-0.1859893798828125
1761478225046302700,5.180302734375,-0.994537353515625,-0.0999603271484375,-0.1901702880859375
1761478225056338700,5.190338623046875,-0.9972991943359375,-0.1023101806640625,-0.197174072265625
1761478225066375700,5.200375732421875,-0.9952392578125,-0.1064605712890625,-0.1986236572265625
1761478225076411600,5.21041162109375,-0.9963531494140625,-0.1076812744140625,-0.194488525390625
1761478225086447600,5.220447509765625,-0.9978485107421875,-0.105133056640625,-0.1899566650390625
1761478225096483600,5.230483642578125,-1.0003662109375,-0.1028289794921875,-0.18682861328125
1761478225106519800,5.240519775390625,-1.003509521484375,-0.1021881103515625,-0.189971923828125
1761478225116556500,5.250556640625,-0.9990997314453125,-0.10186767578125,-0.197784423828125
1761478225126592500,5.260592529296875,-0.9927520751953125,-0.09765625,-0.1995086669921875
1761478225136628700,5.270628662109375,-0.9911346435546875,-0.097503662109375,-0.1944732666015625
1761478225146665000,5.2806650390625,-0.9948577880859375,-0.0953216552734375,-0.1941680908203125
1761478225156701000,5.290700927734375,-1.003662109375,-0.093353271484375,-0.2026214599609375
1761478225166738000,5.300738037109375,-1.005401611328125,-0.097564697265625,-0.2076568603515625
1761478225176774000,5.31077392578125,-1.00604248046875,-0.090057373046875,-0.2169342041015625
1761478225186809900,5.320809814453125,-0.9999237060546875,-0.0921478271484375,-0.2156829833984375
1761478225196845800,5.330845703125,-0.9906463623046875,-0.0979156494140625,-0.20648193359375
1761478225206882800,5.3408828125,-0.9840850830078125,-0.0932159423828125,-0.2098846435546875
1761478225216918800,5.350918701171875,-0.98162841796875,-0.0964202880859375,-0.21563720703125
1761478225226954800,5.360954833984375,-0.97760009765625,-0.1001129150390625,-0.2168121337890625
1761478225236990700,5.37099072265625,-0.9768524169921875,-0.10003662109375,-0.213897705078125
1761478225247026700,5.381026611328125,-0.97418212890625,-0.1004638671875,-0.2042083740234375
1761478225257063700,5.391063720703125,-0.970428466796875,-0.1020355224609375,-0.1936187744140625
1761478225267100000,5.401099853515625,-0.9690704345703125,-0.1016998291015625,-0.1887054443359375
1761478225277136000,5.411135986328125,-0.97100830078125,-0.100677490234375,-0.1879730224609375
1761478225287171800,5.421171875,-0.9805755615234375,-0.1019439697265625,-0.190093994140625
1761478225297207800,5.431207763671875,-0.992034912109375,-0.101776123046875,-0.19549560546875
1761478225307244800,5.441244873046875,-1.0037384033203125,-0.099212646484375,-0.2041168212890625
1761478225317280800,5.45128076171875,-1.0079345703125,-0.100189208984375,-0.2067413330078125
1761478225327316700,5.461316650390625,-1.005767822265625,-0.102569580078125,-0.20208740234375
1761478225337352700,5.471352783203125,-0.9972991943359375,-0.1051177978515625,-0.1910400390625
1761478225347389700,5.4813896484375,-0.98992919921875,-0.1086578369140625,-0.1808319091796875
1761478225357425700,5.49142578125,-0.9913482666015625,-0.1108856201171875,-0.1780853271484375
1761478225367461600,5.501461669921875,-0.99493408203125,-0.1071319580078125,-0.1837310791015625
1761478225377497600,5.51149755859375,-0.99908447265625,-0.0985107421875,-0.193878173828125
1761478225387533600,5.521533447265625,-0.9965362548828125,-0.095428466796875,-0.2005615234375
1761478225397570800,5.53157080078125,-0.991119384765625,-0.094940185546875,-0.2050628662109375
1761478225407606800,5.541606689453125,-0.9832916259765625,-0.09552001953125,-0.209503173828125
1761478225417642800,5.551642822265625,-0.97821044921875,-0.099029541015625,-0.2111358642578125
1761478225427678700,5.5616787109375,-0.9718780517578125,-0.10321044921875,-0.21002197265625
1761478225437714700,5.571714599609375,-0.972137451171875,-0.1021270751953125,-0.208251953125
1761478225447751700,5.581751708984375,-0.977142333984375,-0.102630615234375,-0.2028350830078125
1761478225457787600,5.59178759765625,-0.9866485595703125,-0.099334716796875,-0.195556640625
1761478225467823600,5.60182373046875,-0.9989471435546875,-0.0948638916015625,-0.1925506591796875
1761478225477859800,5.61185986328125,-1.0095977783203125,-0.097412109375,-0.194976806640625
1761478225487895800,5.621895751953125,-1.0125274658203125,-0.0966033935546875,-0.2011871337890625
1761478225497932800,5.631932861328125,-1.0089111328125,-0.09735107421875,-0.2020721435546875
1761478225507968800,5.64196875,-0.9993896484375,-0.0983428955078125,-0.20050048828125
1761478225518004700,5.652004638671875,-0.991668701171875,-0.1016387939453125,-0.196929931640625
1761478225528040700,5.662040771484375,-0.9846954345703125,-0.1009674072265625,-0.193511962890625
1761478225538078000,5.672077880859375,-0.986297607421875,-0.0993499755859375,-0.1888275146484375
1761478225548114000,5.682114013671875,-0.9914703369140625,-0.0994720458984375,-0.188079833984375
1761478225558150000,5.69214990234375,-0.9945526123046875,-0.09564208984375,-0.1942901611328125
1761478225568185900,5.702185791015625,-0.9920501708984375,-0.09649658203125,-0.20098876953125
1761478225578221800,5.712221923828125,-0.987335205078125,-0.0995330810546875,-0.2034454345703125
1761478225588258800,5.7222587890625,-0.9816436767578125,-0.10009765625,-0.20379638671875
1761478225598294800,5.732294677734375,-0.9735107421875,-0.1017608642578125,-0.203094482421875
1761478225608330800,5.742330810546875,-0.972015380859375,-0.1021728515625,-0.200042724609375
1761478225618366700,5.75236669921875,-0.976959228515625,-0.1007843017578125,-0.1992950439453125
1761478225628402700,5.762402587890625,-0.9851837158203125,-0.097869873046875,-0.199127197265625
1761478225638439700,5.772439697265625,-0.9955902099609375,-0.095245361328125,-0.198455810546875
1761478225648475600,5.7824755859375,-1.0032196044921875,-0.0925445556640625,-0.193359375
1761478225658511600,5.79251171875,-1.007537841796875,-0.0948944091796875,-0.1873626708984375
1761478225668547600,5.802547607421875,-1.0085296630859375,-0.0977935791015625,-0.18603515625
1761478225678583600,5.81258349609375,-1.007110595703125,-0.0976409912109375,-0.1900177001953125
1761478225688620800,5.822620849609375,-1.0012054443359375,-0.098114013671875,-0.1950531005859375
1761478225698656800,5.83265673828125,-0.9857330322265625,-0.103179931640625,-0.2014617919921875
1761478225708692700,5.842692626953125,-0.983642578125,-0.1031494140625,-0.2078399658203125
1761478225718728700,5.852728759765625,-0.9804534912109375,-0.0972900390625,-0.21575927734375
1761478225728764700,5.8627646484375,-0.9831390380859375,-0.0938568115234375,-0.2125701904296875
1761478225738801700,5.8728017578125,-0.9834136962890625,-0.08917236328125,-0.2018890380859375
1761478225748837600,5.882837646484375,-0.9800262451171875,-0.0892791748046875,-0.18572998046875
1761478225758873600,5.89287353515625,-0.9833526611328125,-0.09002685546875,-0.1780853271484375
1761478225768909300,5.902909423828125,-0.9904022216796875,-0.0937042236328125,-0.183074951171875
1761478225778946300,5.9129462890625,-0.99493408203125,-0.0966033935546875,-0.1983642578125
1761478225788982300,5.922982177734375,-0.996795654296875,-0.0988311767578125,-0.2097015380859375
1761478225799018500,5.9330185546875,-0.996246337890625,-0.1015472412109375,-0.21044921875
1761478225809054500,5.943054443359375,-0.9983367919921875,-0.0994720458984375,-0.20440673828125
1761478225819090400,5.95309033203125,-1.010345458984375,-0.096405029296875,-0.1973419189453125
1761478225829127400,5.96312744140625,-1.0160369873046875,-0.0955047607421875,-0.191497802734375
1761478225839163400,5.973163330078125,-1.0126190185546875,-0.097930908203125,-0.1858062744140625
1761478225849199400,5.983199462890625,-1.0007171630859375,-0.095703125,-0.17962646484375
1761478225859235300,5.9932353515625,-0.991851806640625,-0.097747802734375,-0.175018310546875
1761478225869271300,6.003271240234375,-0.9905242919921875,-0.0991973876953125,-0.177734375
1761478225879308300,6.013308349609375,-0.989044189453125,-0.097442626953125,-0.1862335205078125
1761478225889344300,6.02334423828125,-0.991058349609375,-0.0966949462890625,-0.19329833984375
1761478225899380200,6.033380126953125,-0.99371337890625,-0.0977783203125,-0.201690673828125
1761478225909416400,6.04341650390625,-0.987884521484375,-0.100921630859375,-0.20843505859375
1761478225919452400,6.053452392578125,-0.97576904296875,-0.1019439697265625,-0.20587158203125
1761478225929489400,6.063489501953125,-0.963958740234375,-0.101593017578125,-0.2005767822265625
1761478225939525400,6.073525390625,-0.9673004150390625,-0.0976104736328125,-0.1991424560546875
1761478225949561300,6.083561279296875,-0.976409912109375,-0.09185791015625,-0.2046356201171875
1761478225959597300,6.093597412109375,-0.9866180419921875,-0.088348388671875,-0.2087554931640625
1761478225969633300,6.10363330078125,-0.9920196533203125,-0.0899200439453125,-0.2037353515625
1761478225979670300,6.113670166015625,-0.990020751953125,-0.0941314697265625,-0.1971588134765625
1761478225989706200,6.123706298828125,-0.983551025390625,-0.098236083984375,-0.1973724365234375
1761478225999742200,6.1337421875,-0.983551025390625,-0.1014404296875,-0.199249267578125
1761478226009778200,6.143778076171875,-0.99029541015625,-0.1009979248046875,-0.1973114013671875
1761478226019814100,6.153814208984375,-0.994781494140625,-0.0991668701171875,-0.1931915283203125
1761478226029851400,6.163851318359375,-0.99798583984375,-0.0958404541015625,-0.18939208984375
1761478226039887400,6.173887451171875,-1.0028533935546875,-0.0923004150390625,-0.1880950927734375
1761478226049923300,6.18392333984375,-1.0048675537109375,-0.0955352783203125,-0.1896514892578125
1761478226059959300,6.193959228515625,-1.0055389404296875,-0.09613037109375,-0.193450927734375
1761478226069995500,6.20399560546875,-1.0048370361328125,-0.0981903076171875,-0.198150634765625
1761478226080032300,6.2140322265625,-1.002655029296875,-0.0962677001953125,-0.203033447265625
1761478226090068200,6.224068115234375,-1.0071258544921875,-0.0943145751953125,-0.2045745849609375
1761478226100104400,6.2341044921875,-1.0081329345703125,-0.0939178466796875,-0.2079010009765625
1761478226110140400,6.244140380859375,-0.9999847412109375,-0.0966033935546875,-0.205047607421875
1761478226120176400,6.25417626953125,-0.9905242919921875,-0.0980224609375,-0.1957855224609375
1761478226130213400,6.26421337890625,-0.981689453125,-0.0959930419921875,-0.1874237060546875
1761478226140249300,6.274249267578125,-0.9741363525390625,-0.09375,-0.1834259033203125
1761478226150285300,6.284285400390625,-0.96881103515625,-0.0914306640625,-0.185516357421875
1761478226160321300,6.2943212890625,-0.968414306640625,-0.0906219482421875,-0.189727783203125
1761478226170357200,6.304357177734375,-0.9701080322265625,-0.0955810546875,-0.1976165771484375
1761478226180394500,6.31439453125,-0.9717254638671875,-0.0983428955078125,-0.2069244384765625
1761478226190430500,6.324430419921875,-0.97900390625,-0.0990753173828125,-0.20831298828125
1761478226200466400,6.334466552734375,-0.9938812255859375,-0.0968017578125,-0.210540771484375
1761478226210502400,6.34450244140625,-1.0045166015625,-0.0926666259765625,-0.20904541015625
1761478226220538400,6.354538330078125,-1.0089263916015625,-0.095428466796875,-0.202911376953125
1761478226230575400,6.364575439453125,-1.00738525390625,-0.0938720703125,-0.197509765625
1761478226240611300,6.374611328125,-1.0039520263671875,-0.0936431884765625,-0.18878173828125
1761478226250647300,6.384647216796875,-1.00164794921875,-0.0945587158203125,-0.17950439453125
1761478226260683300,6.394683349609375,-0.998779296875,-0.0962371826171875,-0.17840576171875
1761478226270719200,6.40471923828125,-0.9950103759765625,-0.09698486328125,-0.1869049072265625
1761478226280756200,6.414756103515625,-0.9957275390625,-0.094818115234375,-0.200042724609375
1761478226290792200,6.424792236328125,-0.9964752197265625,-0.0915679931640625,-0.2086181640625
1761478226300828200,6.434828125,-0.99224853515625,-0.0908050537109375,-0.207183837890625
1761478226310864100,6.444864013671875,-0.9835205078125,-0.094451904296875,-0.201995849609375
1761478226320900400,6.454900390625,-0.975799560546875,-0.0933380126953125,-0.2000732421875
1761478226330937300,6.464937255859375,-0.9721832275390625,-0.09674072265625,-0.1985015869140625
1761478226340973300,6.474973388671875,-0.9744720458984375,-0.094696044921875,-0.2014923095703125
1761478226351009300,6.48500927734375,-0.9807891845703125,-0.09173583984375,-0.2035675048828125
1761478226361045200,6.495045166015625,-0.989288330078125,-0.0946807861328125,-0.201873779296875
1761478226371081500,6.50508154296875,-0.9961700439453125,-0.0950164794921875,-0.195892333984375
1761478226381118200,6.5151181640625,-0.99945068359375,-0.094879150390625,-0.1878204345703125
1761478226391154200,6.525154296875,-0.997467041015625,-0.0946807861328125,-0.1857757568359375
1761478226401190400,6.5351904296875,-0.99200439453125,-0.0951080322265625,-0.190765380859375
1761478226411226400,6.545226318359375,-0.9935150146484375,-0.0977783203125,-0.193145751953125
1761478226421262300,6.555262451171875,-1.00091552734375,-0.098358154296875,-0.1923065185546875
1761478226431298300,6.56529833984375,-1.0072784423828125,-0.0943603515625,-0.1914520263671875
1761478226441335600,6.57533544921875,-1.0108184814453125,-0.0946197509765625,-0.1945953369140625
1761478226451371500,6.58537158203125,-1.00341796875,-0.093719482421875,-0.200775146484375
1761478226461407500,6.595407470703125,-0.990692138671875,-0.094635009765625,-0.2010040283203125
1761478226471443500,6.605443359375,-0.9811553955078125,-0.094390869140625,-0.1956329345703125
1761478226481479400,6.6154794921875,-0.9766693115234375,-0.09344482421875,-0.191009521484375
1761478226491516400,6.625516357421875,-0.9768829345703125,-0.092681884765625,-0.193603515625
1761478226501552400,6.635552490234375,-0.9843902587890625,-0.0904083251953125,-0.2034912109375
1761478226511588400,6.64558837890625,-0.9908294677734375,-0.0875396728515625,-0.2147369384765625
1761478226521624300,6.655624267578125,-0.991851806640625,-0.089080810546875,-0.2182769775390625
1761478226531660300,6.665660400390625,-0.9857025146484375,-0.09344482421875,-0.2125091552734375
1761478226541697300,6.675697265625,-0.9783172607421875,-0.0986785888671875,-0.2049102783203125
1761478226551733200,6.685733154296875,-0.9737548828125,-0.1020050048828125,-0.195343017578125
1761478226561769200,6.695769287109375,-0.9752349853515625,-0.1013336181640625,-0.184234619140625
1761478226571805200,6.70580517578125,-0.9772491455078125,-0.0974273681640625,-0.1770172119140625
1761478226581841200,6.715841064453125,-0.9817962646484375,-0.0961761474609375,-0.1754913330078125
1761478226591878400,6.72587841796875,-0.98968505859375,-0.0948486328125,-0.1796875
1761478226601914400,6.735914306640625,-1.0038299560546875,-0.0941619873046875,-0.18951416015625
1761478226611950300,6.745950439453125,-1.0208740234375,-0.0908203125,-0.2007293701171875
1761478226621986300,6.755986328125,-1.029083251953125,-0.089080810546875,-0.2074737548828125
1761478226632022300,6.766022216796875,-1.0256805419921875,-0.091705322265625,-0.210479736328125
1761478226642059300,6.776059326171875,-1.0120849609375,-0.093719482421875,-0.2047119140625
1761478226652095200,6.78609521484375,-0.9967193603515625,-0.09600830078125,-0.1929168701171875
1761478226662131200,6.796131103515625,-0.983367919921875,-0.0966644287109375,-0.186004638671875
1761478226672167400,6.80616748046875,-0.97845458984375,-0.096588134765625,-0.1851654052734375
1761478226682203400,6.816203369140625,-0.9797821044921875,-0.09521484375,-0.19439697265625
1761478226692240100,6.826240234375,-0.9857635498046875,-0.0921173095703125,-0.2070159912109375
1761478226702276400,6.8362763671875,-0.9940032958984375,-0.0883026123046875,-0.2112579345703125
1761478226712312300,6.846312255859375,-0.9968109130859375,-0.0881195068359375,-0.208221435546875
1761478226722348300,6.856348388671875,-0.9952239990234375,-0.08807373046875,-0.203521728515625
1761478226732384300,6.86638427734375,-0.98333740234375,-0.0897369384765625,-0.2006683349609375
1761478226742420500,6.87642041015625,-0.972442626953125,-0.0933990478515625,-0.196502685546875
1761478226752457500,6.88645751953125,-0.9692230224609375,-0.095458984375,-0.1928253173828125
1761478226762493400,6.896493408203125,-0.9748687744140625,-0.0974884033203125,-0.18841552734375
1761478226772529700,6.90652978515625,-0.9830780029296875,-0.0958251953125,-0.189239501953125
1761478226782565600,6.916565673828125,-0.9944915771484375,-0.0954742431640625,-0.1954803466796875
1761478226792601600,6.9266015625,-1.007659912109375,-0.095245361328125,-0.200714111328125
1761478226802638600,6.936638671875,-1.0137786865234375,-0.08941650390625,-0.2048492431640625
1761478226812674600,6.946674560546875,-1.0116119384765625,-0.08770751953125,-0.198486328125
1761478226822710500,6.95671044921875,-1.00634765625,-0.0880279541015625,-0.188232421875
1761478226832746500,6.96674658203125,-1.0024566650390625,-0.085601806640625,-0.1855316162109375
1761478226842782500,6.976782470703125,-0.9942474365234375,-0.0868988037109375,-0.193206787109375
1761478226852819700,6.98681982421875,-0.9864959716796875,-0.09002685546875,-0.205963134765625
1761478226862855700,6.996855712890625,-0.9821014404296875,-0.090423583984375,-0.2137298583984375
1761478226872891600,7.0068916015625,-0.9795684814453125,-0.0913543701171875,-0.215118408203125
1761478226882927600,7.016927734375,-0.979156494140625,-0.0926971435546875,-0.209869384765625
1761478226892963600,7.026963623046875,-0.9789886474609375,-0.09234619140625,-0.2008209228515625
1761478226903000600,7.03700048828125,-0.984405517578125,-0.0918731689453125,-0.1929779052734375
1761478226913036500,7.04703662109375,-0.9937744140625,-0.0880126953125,-0.19122314453125
1761478226923072500,7.057072509765625,-1.0012054443359375,-0.086334228515625,-0.19232177734375
1761478226933108500,7.0671083984375,-1.006103515625,-0.0887451171875,-0.1953582763671875
1761478226943144400,7.07714453125,-1.0037078857421875,-0.089691162109375,-0.1954345703125
1761478226953180700,7.0871806640625,-0.99761962890625,-0.0904693603515625,-0.1927032470703125
1761478226963217400,7.097217529296875,-0.987884521484375,-0.09454345703125,-0.185150146484375
1761478226973253600,7.107253662109375,-0.9827117919921875,-0.09814453125,-0.179534912109375
1761478226983289600,7.11728955078125,-0.9844207763671875,-0.0961151123046875,-0.1871490478515625
1761478226993325800,7.127325927734375,-0.9886322021484375,-0.095245361328125,-0.2003021240234375
1761478227003361800,7.13736181640625,-0.9950714111328125,-0.0919036865234375,-0.2099609375
1761478227013398500,7.1473984375,-1.000885009765625,-0.0893402099609375,-0.2079925537109375
1761478227023434800,7.157434814453125,-1.002044677734375,-0.090606689453125,-0.2015228271484375
1761478227033470700,7.167470703125,-0.991546630859375,-0.0930633544921875,-0.195831298828125
1761478227043506700,7.177506591796875,-0.98004150390625,-0.0921173095703125,-0.1902008056640625
1761478227053542700,7.187542724609375,-0.9748077392578125,-0.0914154052734375,-0.1851654052734375
1761478227063578600,7.19757861328125,-0.978057861328125,-0.0897979736328125,-0.185760498046875
1761478227073615600,7.20761572265625,-0.9823150634765625,-0.0885009765625,-0.1935882568359375
1761478227083651600,7.217651611328125,-0.98834228515625,-0.0921478271484375,-0.202484130859375
1761478227093687600,7.2276875,-0.994232177734375,-0.0930328369140625,-0.210540771484375
1761478227103723500,7.2377236328125,-0.99871826171875,-0.0910797119140625,-0.2110443115234375
1761478227113759500,7.247759521484375,-0.9949493408203125,-0.0926361083984375,-0.2057037353515625
1761478227123796700,7.257796630859375,-0.990753173828125,-0.092041015625,-0.1977691650390625
1761478227133832700,7.267832763671875,-0.9931182861328125,-0.0907440185546875,-0.1901702880859375
1761478227143868700,7.27786865234375,-0.9933929443359375,-0.089385986328125,-0.1876373291015625
1761478227153904600,7.287904541015625,-0.9937896728515625,-0.089263916015625,-0.1922454833984375
1761478227163940600,7.297940673828125,-0.995452880859375,-0.0902099609375,-0.196502685546875
1761478227173977600,7.3079775390625,-0.9962921142578125,-0.0879669189453125,-0.19866943359375
1761478227184013600,7.318013671875,-0.99908447265625,-0.087554931640625,-0.20147705078125
1761478227194049500,7.328049560546875,-1.00634765625,-0.088287353515625,-0.2057952880859375
1761478227204085500,7.33808544921875,-1.01129150390625,-0.08905029296875,-0.2060699462890625
1761478227214121500,7.34812158203125,-1.006683349609375,-0.0874176025390625,-0.1997222900390625
1761478227224157700,7.35815771484375,-0.992156982421875,-0.09039306640625,-0.1984100341796875
1761478227234194400,7.3681943359375,-0.9770965576171875,-0.090850830078125,-0.199188232421875
1761478227244230400,7.37823046875,-0.9637603759765625,-0.091705322265625,-0.2007598876953125
1761478227254266600,7.3882666015625,-0.969268798828125,-0.0938720703125,-0.2041015625
1761478227264302800,7.398302734375,-0.9769744873046875,-0.0916900634765625,-0.2076263427734375
1761478227274338800,7.4083388671875,-0.9801025390625,-0.08868408203125,-0.2031402587890625
1761478227284375600,7.41837548828125,-0.9867706298828125,-0.08843994140625,-0.1963043212890625
1761478227294411800,7.428411865234375,-0.9912261962890625,-0.0894622802734375,-0.196441650390625
1761478227304447700,7.43844775390625,-0.992034912109375,-0.09033203125,-0.1936187744140625
1761478227314483700,7.448483642578125,-0.9883270263671875,-0.0946807861328125,-0.19024658203125
1761478227324519700,7.458519775390625,-0.9880218505859375,-0.093109130859375,-0.1894683837890625
1761478227334555600,7.4685556640625,-0.9910888671875,-0.090362548828125,-0.1908416748046875
1761478227344592600,7.478592529296875,-0.9959869384765625,-0.090240478515625,-0.190948486328125
1761478227354628600,7.488628662109375,-0.999176025390625,-0.090576171875,-0.1928863525390625
1761478227364664600,7.49866455078125,-1.0098419189453125,-0.0878448486328125,-0.1988525390625
1761478227374700500,7.508700439453125,-1.013336181640625,-0.091278076171875,-0.2053375244140625
1761478227384736500,7.518736572265625,-1.0147552490234375,-0.09075927734375,-0.2081146240234375
1761478227394773800,7.528773681640625,-1.00799560546875,-0.086761474609375,-0.202178955078125
1761478227404809700,7.538809814453125,-0.996734619140625,-0.0877227783203125,-0.192138671875
1761478227414845700,7.548845703125,-0.9884796142578125,-0.0823211669921875,-0.18939208984375
1761478227424881700,7.558881591796875,-0.990020751953125,-0.0817413330078125,-0.1944732666015625
1761478227434917600,7.568917724609375,-0.9905853271484375,-0.085723876953125,-0.2009124755859375
1761478227444953600,7.57895361328125,-0.9830169677734375,-0.0863800048828125,-0.2089385986328125
1761478227454990600,7.588990478515625,-0.9762420654296875,-0.0884857177734375,-0.2122344970703125
1761478227465026600,7.599026611328125,-0.974151611328125,-0.0894317626953125,-0.2103271484375
1761478227475062500,7.6090625,-0.97509765625,-0.089752197265625,-0.2026824951171875
1761478227485098500,7.619098388671875,-0.984222412109375,-0.08819580078125,-0.193084716796875
1761478227495134700,7.629134765625,-0.993560791015625,-0.0862884521484375,-0.18829345703125
1761478227505171500,7.63917138671875,-0.9971923828125,-0.0855865478515625,-0.1892852783203125
1761478227515207400,7.64920751953125,-0.9975738525390625,-0.089111328125,-0.1943817138671875
1761478227525243600,7.65924365234375,-0.99652099609375,-0.090301513671875,-0.201171875
1761478227535279600,7.669279541015625,-0.995361328125,-0.091156005859375,-0.204681396484375
1761478227545315600,7.679315673828125,-0.9936981201171875,-0.0908966064453125,-0.2039794921875
1761478227555351800,7.689351806640625,-0.9987640380859375,-0.0890655517578125,-0.202911376953125
1761478227565388800,7.699388916015625,-1.001556396484375,-0.08648681640625,-0.2032012939453125
1761478227575424800,7.7094248046875,-1.000152587890625,-0.089508056640625,-0.1920318603515625
1761478227585460700,7.719460693359375,-0.9958953857421875,-0.0924530029296875,-0.1842193603515625
1761478227595496700,7.72949658203125,-0.99542236328125,-0.09051513671875,-0.1822357177734375
1761478227605532700,7.73953271484375,-0.9951934814453125,-0.093048095703125,-0.18438720703125
1761478227615568600,7.749568603515625,-0.9871978759765625,-0.095062255859375,-0.1912384033203125
1761478227625605600,7.759605712890625,-0.9807586669921875,-0.094512939453125,-0.1963653564453125
1761478227635641600,7.7696416015625,-0.974212646484375,-0.095947265625,-0.199127197265625
1761478227645677600,7.779677490234375,-0.9740753173828125,-0.092864990234375,-0.2010650634765625
1761478227655713500,7.789713623046875,-0.9793243408203125,-0.0906219482421875,-0.19793701171875
1761478227665749500,7.79974951171875,-0.9907379150390625,-0.0902252197265625,-0.1925811767578125
1761478227675786800,7.809786865234375,-1.0011138916015625,-0.0852813720703125,-0.1876678466796875
1761478227685822700,7.81982275390625,-1.000701904296875,-0.0846099853515625,-0.1879425048828125
1761478227695858700,7.829858642578125,-1.000335693359375,-0.088623046875,-0.1904449462890625
1761478227705894700,7.839894775390625,-0.9995574951171875,-0.0893096923828125,-0.197113037109375
1761478227715930600,7.8499306640625,-0.9954986572265625,-0.091949462890625,-0.20489501953125
1761478227725966600,7.859966552734375,-0.9999847412109375,-0.091949462890625,-0.214202880859375
1761478227736003600,7.870003662109375,-1.0080718994140625,-0.0874481201171875,-0.2166900634765625
1761478227746039600,7.88003955078125,-1.008880615234375,-0.0833740234375,-0.2097015380859375
1761478227756075500,7.890075439453125,-1.0047607421875,-0.082855224609375,-0.196502685546875
1761478227766111500,7.900111572265625,-0.9881134033203125,-0.0836944580078125,-0.1900177001953125
1761478227776147700,7.910147705078125,-0.97467041015625,-0.08502197265625,-0.189544677734375
1761478227786184700,7.920184814453125,-0.973541259765625,-0.0899810791015625,-0.1879730224609375
1761478227796220700,7.930220703125,-0.9802093505859375,-0.09527587890625,-0.1879119873046875
1761478227806257000,7.9402568359375,-0.9915008544921875,-0.09344482421875,-0.1965484619140625
1761478227816292900,7.95029296875,-0.9933013916015625,-0.093597412109375,-0.203704833984375
1761478227826328800,7.960328857421875,-0.988525390625,-0.096405029296875,-0.2039794921875
1761478227836364800,7.97036474609375,-0.98870849609375,-0.0933990478515625,-0.201904296875
1761478227846401800,7.98040185546875,-0.9803924560546875,-0.092376708984375,-0.198089599609375
1761478227856437800,7.990437744140625,-0.983612060546875,-0.0932464599609375,-0.1902008056640625
1761478227866473700,8.0004736328125,-0.99322509765625,-0.090240478515625,-0.1834869384765625
1761478227876509700,8.010509765625,-0.9973297119140625,-0.0863494873046875,-0.1847686767578125
1761478227886545700,8.020545654296875,-1.000244140625,-0.0898284912109375,-0.1886749267578125
1761478227896581600,8.03058154296875,-1.0000457763671875,-0.0897979736328125,-0.1951751708984375
1761478227906618600,8.04061865234375,-0.9960784912109375,-0.088775634765625,-0.2026824951171875
1761478227916654600,8.050654541015625,-0.992950439453125,-0.092681884765625,-0.21038818359375
1761478227926690800,8.06069091796875,-1.003021240234375,-0.0960235595703125,-0.2166748046875
1761478227936726800,8.070726806640625,-1.012725830078125,-0.0900115966796875,-0.214019775390625
1761478227946762800,8.0807626953125,-1.00433349609375,-0.08709716796875,-0.1987762451171875
1761478227956798700,8.090798828125,-0.98858642578125,-0.0882568359375,-0.1764373779296875
1761478227966835700,8.100835693359375,-0.9852447509765625,-0.0857696533203125,-0.168731689453125
1761478227976871700,8.11087158203125,-0.9806976318359375,-0.0902099609375,-0.178253173828125
1761478227986907600,8.12090771484375,-0.975982666015625,-0.0934600830078125,-0.19500732421875
1761478227996943600,8.130943603515625,-0.972808837890625,-0.0913543701171875,-0.2086181640625
1761478228006979600,8.1409794921875,-0.97674560546875,-0.095855712890625,-0.2086639404296875
1761478228017016600,8.1510166015625,-0.98602294921875,-0.10101318359375,-0.2060546875
1761478228027052500,8.161052490234376,-0.9971160888671875,-0.096832275390625,-0.20538330078125
1761478228037088500,8.171088623046876,-0.9965972900390625,-0.093475341796875,-0.1998443603515625
1761478228047124700,8.181124755859376,-1.0139617919921875,-0.0936126708984375,-0.196258544921875
1761478228057160700,8.19116064453125,-1.0551300048828125,-0.0851287841796875,-0.1928558349609375
1761478228067196700,8.20119677734375,-1.061187744140625,-0.0675506591796875,-0.21087646484375
1761478228077233700,8.211233642578126,-1.0058746337890625,-0.060577392578125,-0.218109130859375
1761478228087270000,8.221269775390626,-0.9758453369140625,-0.0953826904296875,-0.18896484375
1761478228097305900,8.231305908203124,-0.8870086669921875,-0.09619140625,-0.144195556640625
1761478228107341800,8.241341796875,-0.8827972412109375,-0.1462554931640625,-0.1295013427734375
1761478228117377800,8.251377685546874,-0.9685516357421875,-0.1343231201171875,-0.1865692138671875
1761478228127413800,8.261413818359374,-1.015625,-0.09246826171875,-0.2353515625
1761478228137450800,8.27145068359375,-1.019561767578125,-0.0929107666015625,-0.2369232177734375
1761478228147486700,8.28148681640625,-1.0184783935546875,-0.0883941650390625,-0.21380615234375
1761478228157522700,8.291522705078124,-0.994110107421875,-0.062225341796875,-0.189727783203125
