time,seconds_elapsed,z,y,x
1761478219947900400,0.081900390625,0.003721501212567091,-0.009975935332477093,0.003942277282476425
1761478219957936600,0.0919365234375,0.006166016682982445,-0.02370825968682766,0.0003312972257845104
1761478219967973400,0.101973388671875,0.014652179554104805,-0.020351344719529152,0.0013156015193089843
1761478219978009300,0.11200927734375,0.015929697081446648,-0.009812151081860065,0.0005795038305222988
1761478219988045600,0.122045654296875,0.012240154668688774,-0.0036485306918621063,-0.0004117247008252889
1761478219998081800,0.132081787109375,0.008047806099057198,-0.0009347695158794522,-0.0006609965930692852
1761478220008118500,0.142118408203125,0.005775331053882837,-0.008300540037453175,-0.007601460441946983
1761478220018154500,0.152154541015625,-0.0011259844759479165,-0.008044877089560032,-0.009643838740885258
1761478220028190700,0.162190673828125,-0.001535046030767262,0.0006796387024223804,-0.01142948865890503
1761478220038226700,0.172226806640625,0.014391189441084862,-0.006434996146708727,-0.012428972870111465
1761478220048263400,0.182263427734375,0.02870727889239788,-0.00891093723475933,0.00355904852040112
1761478220058299600,0.192299560546875,0.02804468385875225,-0.0006977482116781175,0.013866014778614044
1761478220068335600,0.202335693359375,0.025166606530547142,-0.004430701024830341,0.01381062064319849
1761478220078371600,0.21237158203125,0.01101376861333847,-0.008064850233495235,0.002240783767774701
1761478220088407600,0.222407470703125,-0.0034522556234151125,-0.006343649700284004,-0.006262689363211393
1761478220098444500,0.232444580078125,-0.006003564223647118,-0.017055949196219444,-0.012376775033771992
1761478220108480800,0.242480712890625,-0.006278402172029018,-0.020478377118706703,-0.012823120690882206
1761478220118516700,0.252516845703125,-0.01877741515636444,-0.004220577888190746,-0.007194796111434698
1761478220128552700,0.262552734375,-0.03350416570901871,0.008724781684577465,-0.002597380895167589
1761478220138589700,0.272589599609375,-0.03442268818616867,-0.00019494339358061552,-0.00777589762583375
1761478220148625700,0.282625732421875,-0.03377314284443855,-0.000006391586794052273,-0.011697934940457344
1761478220158661600,0.29266162109375,-0.02815360762178898,0.007651794236153364,-0.009195095859467983
1761478220168697600,0.302697509765625,-0.02478870376944542,0.0006793724023737013,-0.012704343535006046
1761478220178733600,0.312733642578125,-0.033417344093322754,-0.006646184716373682,-0.022012624889612198
1761478220188770600,0.3227705078125,-0.0409889779984951,-0.017728397622704506,-0.027399932965636253
1761478220198806500,0.332806640625,-0.049318548291921616,-0.013313674367964268,-0.018184063956141472
1761478220208842500,0.342842529296875,-0.04474616423249245,-0.002778742229565978,-0.00267727579921484
1761478220218878500,0.35287841796875,-0.034205906093120575,0.0012713931500911713,0.01188302505761385
1761478220228915700,0.362915771484375,-0.024344487115740776,0.013362943194806576,0.027714984491467476
1761478220238951700,0.37295166015625,-0.018076738342642784,0.022405439987778664,0.034759845584630966
1761478220248987600,0.382987548828125,-0.010804444551467896,0.01013971958309412,0.03397953882813454
1761478220259023600,0.393023681640625,-0.005952164996415377,0.0021222729701548815,0.026257170364260674
1761478220269060600,0.403060546875,0.001270327833481133,-0.0018453042721375823,0.011084342375397682
1761478220279096600,0.4130966796875,0.007588677573949099,-0.00758015550673008,0.0034759577829390764
1761478220289132500,0.423132568359375,0.008674981072545052,-0.018615495413541794,-0.010977284051477909
1761478220299168500,0.43316845703125,0.0018977685831487179,-0.019355854019522667,-0.014909973368048668
1761478220309204500,0.44320458984375,-0.009789513424038887,-0.006391054019331932,0.0006892260862514377
1761478220319241500,0.453241455078125,-0.014023407362401485,0.004056260455399752,0.01696060784161091
1761478220329277400,0.46327734375,-0.01278770063072443,0.002555303042754531,0.023261645808815956
1761478220339313400,0.4733134765625,-0.00173744629137218,-0.0024762072134763002,0.02828782983124256
1761478220349349400,0.483349365234375,0.0026881948579102755,-0.013010607101023197,0.03405703604221344
1761478220359386600,0.49338671875,-0.0012945625931024551,-0.0186621006578207,0.028237497434020042
1761478220369422600,0.503422607421875,-0.012116317637264729,-0.007325290702283382,0.012296080589294434
1761478220379458600,0.51345849609375,-0.015989352017641068,-0.0052472264505922794,-0.008892294950783253
1761478220389494800,0.523494873046875,-0.010164220817387104,-0.020918598398566246,-0.03218323737382889
1761478220399530800,0.53353076171875,0.0005784385721199214,-0.02966921217739582,-0.056532252579927444
1761478220409567500,0.5435673828125,0.001086037140339613,-0.04182787239551544,-0.062073491513729095
1761478220419603700,0.553603759765625,-0.004974784795194864,-0.03670262172818184,-0.04766232892870903
1761478220429639700,0.5636396484375,-0.023086410015821457,-0.022462964057922363,-0.010149306617677212
1761478220439675600,0.573675537109375,-0.0366554819047451,0.001999235013499856,0.029410086572170258
1761478220449712600,0.583712646484375,-0.04433683678507805,0.021864818409085274,0.04821892827749252
1761478220459748600,0.59374853515625,-0.03918948024511337,0.01696566678583622,0.042272355407476425
1761478220469784600,0.60378466796875,-0.027047596871852875,0.0001328917423961684,0.017175791785120964
1761478220479820500,0.613820556640625,-0.015955263748764992,-0.005596366710960865,-0.012260394170880318
1761478220489856500,0.6238564453125,-0.011739480309188366,-0.017349429428577423,-0.03729544207453728
1761478220499893800,0.633893798828125,-0.009503756649792194,-0.019577695056796074,-0.056252621114254
1761478220509929700,0.6439296875,-0.012293151579797268,-0.007192931603640318,-0.06308282911777496
1761478220519965700,0.653965576171875,-0.01636512391269207,0.010295247659087181,-0.05465392395853996
1761478220530001700,0.664001708984375,-0.01672624982893467,0.019422966986894608,-0.03338991478085518
1761478220540038700,0.67403857421875,-0.012414591386914253,0.029354427009820938,-0.012912869453430176
1761478220550074600,0.68407470703125,-0.014304903335869312,0.03976951539516449,0.005566272884607315
1761478220560110600,0.694110595703125,-0.0038607846945524216,0.0312199704349041,0.003686613868921995
1761478220570146600,0.704146484375,0.002368349116295576,0.003151052165776491,0.0023031015880405903
1761478220580183600,0.71418359375,0.01600932702422142,-0.01630973070859909,0.004035487771034241
1761478220590219500,0.724219482421875,0.016801083460450172,-0.028088891878724098,0.009851565584540367
1761478220600255500,0.73425537109375,0.017363011837005615,-0.01768392138183117,0.021038172766566277
1761478220610291500,0.74429150390625,0.009952765889465809,-0.004162254277616739,0.02628859505057335
1761478220620327400,0.754327392578125,0.012204734608530998,0.006357764359563589,0.028321387246251106
1761478220630364700,0.76436474609375,0.017910556867718697,0.012829512357711792,0.02737676352262497
1761478220640400600,0.774400634765625,0.01720748282968998,0.014627145603299141,0.02177347242832184
1761478220650436600,0.7844365234375,0.011582620441913605,-0.013453224673867226,0.006986536551266909
1761478220660472600,0.79447265625,0.01076715998351574,-0.013747237622737885,0.003163036424666643
1761478220670509600,0.804509521484375,0.005169728305190802,-0.0041497377678751945,0.002689526416361332
1761478220680545500,0.814545654296875,0.0038511971943080425,0.003739344421774149,-0.002123870886862278
1761478220690581500,0.82458154296875,0.0062818643637001514,0.009974869899451733,-0.0057681407779455185
1761478220700617500,0.834617431640625,0.002770486520603299,0.015866314992308617,-0.005504221189767122
1761478220710654500,0.844654541015625,0.001065264455974102,0.012574114836752415,-0.006934072356671095
1761478220720690400,0.8546904296875,-0.004620584659278393,0.01997157745063305,-0.004202201962471008
1761478220730726400,0.864726318359375,-0.013769341632723808,0.024404142051935196,-0.0008346347021870315
1761478220740762400,0.874762451171875,-0.016140887513756752,0.02195669710636139,-0.004489290527999401
1761478220750799600,0.884799560546875,-0.01182203833013773,0.0117927435785532,-0.014547251164913177
1761478220760835800,0.8948359375,-0.004232561681419611,-0.0021078919526189566,-0.032103076577186584
1761478220770871800,0.904871826171875,0.0005478122038766742,-0.008560198359191418,-0.04243187978863716
1761478220780907800,0.91490771484375,0.003878627670928836,-0.012570386752486229,-0.046894803643226624
1761478220790943700,0.92494384765625,-0.0006356965750455856,-0.007051517721265554,-0.04018763452768326
1761478220800980700,0.934980712890625,-0.006344981025904417,0.003025350859388709,-0.02057851105928421
1761478220811016700,0.9450166015625,-0.009212939068675041,0.00908830389380455,0.0003861583536490798
1761478220821052700,0.955052734375,-0.013411945663392544,0.0052173989824950695,0.0192559864372015
1761478220831089000,0.9650888671875,-0.017342504113912582,0.012410330586135387,0.02803962305188179
1761478220841125600,0.975125732421875,-0.02178492397069931,0.008529838174581528,0.03314623609185219
1761478220851161600,0.98516162109375,-0.014842595905065536,0.004779575392603874,0.03039412386715412
1761478220861197800,0.99519775390625,-0.006962568499147892,0.0025864620693027973,0.023968715220689774
1761478220871234000,1.005234130859375,0.007709318771958351,0.00013022858183830976,0.00826991442590952
1761478220881270800,1.015270751953125,0.009786584414541721,-0.0065652248449623585,-0.0034906051587313414
1761478220891306800,1.025306640625,0.002927080262452364,-0.008734369650483131,-0.006680539343506098
1761478220901343000,1.035343017578125,-0.00495188171043992,-0.011841479688882828,-0.005082376766949892
1761478220911379000,1.04537890625,-0.016771523281931877,-0.00640809815376997,0.0027867318131029606
1761478220921415700,1.055415771484375,-0.024715732783079147,-0.002366218715906143,0.012442022562026978
1761478220931452000,1.065451904296875,-0.03148255869746208,0.00812184251844883,0.02611895278096199
1761478220941487900,1.07548779296875,-0.03292306140065193,0.006843258626759052,0.029212746769189835
1761478220951523800,1.08552392578125,-0.03586931899189949,0.0000655137628200464,0.02113085240125656
1761478220961559800,1.095559814453125,-0.031794946640729904,-0.006025668233633041,0.0036075180396437645
1761478220971596800,1.1055966796875,-0.02610830031335354,-0.018153171986341476,-0.02010553516447544
1761478220981632800,1.1156328125,-0.013249492272734642,-0.022760439664125443,-0.03212811052799225
1761478220991669000,1.1256689453125,-0.010782606899738312,-0.02269146405160427,-0.03827202320098877
1761478221001705000,1.135705078125,-0.018380338326096535,-0.004770786967128515,-0.02209331840276718
1761478221011742000,1.145741943359375,-0.031439948827028275,0.013716344721615314,-0.002510828198865056
1761478221021778000,1.15577783203125,-0.035055190324783325,0.020186228677630424,0.01918967254459858
1761478221031814000,1.16581396484375,-0.033840253949165344,0.01429078821092844,0.024213194847106934
1761478221041849900,1.175849853515625,-0.035715918987989426,-0.007998804561793804,0.024028636515140533
1761478221051886800,1.185886962890625,-0.03133342042565346,-0.01751481182873249,0.020478377118706703
1761478221061922800,1.1959228515625,-0.02942313626408577,-0.030046315863728523,0.01089525781571865
1761478221071958800,1.205958740234375,-0.02382330782711506,-0.03293531388044357,0.009910687804222107
1761478221081994800,1.215994873046875,-0.01435390580445528,-0.029714219272136688,0.016023440286517143
1761478221092031700,1.22603173828125,-0.004234958905726671,-0.01769058033823967,0.026257170364260674
1761478221102067700,1.236067626953125,-0.00564084155485034,-0.000624777574557811,0.029409021139144897
1761478221112104000,1.24610400390625,-0.009415872395038605,0.009661948308348656,0.029982931911945343
1761478221122140000,1.256139892578125,-0.004305266309529543,0.014358166605234146,0.01937343180179596
1761478221132177000,1.266177001953125,0.014376542530953884,0.00304612354375422,0.01022680476307869
1761478221142212900,1.276212890625,0.032527584582567215,-0.013010873459279537,0.00449807895347476
1761478221152248800,1.286248779296875,0.03772687166929245,-0.019120696932077408,-0.0008751147543080151
1761478221162284800,1.296284912109375,0.027398867532610893,-0.008407332934439182,-0.0025995115283876657
1761478221172321800,1.30632177734375,0.01474831998348236,0.000949150591623038,-0.005850964691489935
1761478221182357800,1.316357666015625,-0.0010988202411681414,0.012065984308719635,-0.014288658276200294
1761478221192393700,1.326393798828125,-0.0054333810694515705,0.001764344167895615,-0.019144399091601372
1761478221202429700,1.3364296875,0.001205080421641469,-0.004568652715533972,-0.011023090220987797
1761478221212465700,1.346465576171875,0.0059660132974386215,-0.01344576757401228,-0.002419215627014637
1761478221222502700,1.356502685546875,0.010753312148153782,-0.021343903616070747,0.01164600346237421
1761478221232539000,1.366538818359375,0.00020453077740967274,-0.01889805682003498,0.02281237207353115
1761478221242574800,1.376574951171875,-0.010497381910681725,-0.02527899108827114,0.02345952019095421
1761478221252610800,1.38661083984375,-0.017136909067630768,-0.02147706225514412,0.0183518435806036
1761478221262647800,1.396647705078125,-0.02473064698278904,-0.020262926816940308,0.009926666505634785
1761478221272683800,1.406683837890625,-0.03261147439479828,-0.014090784825384617,0.0004546015989035368
1761478221282719700,1.4167197265625,-0.041541583836078644,0.0025249430909752846,-0.01050297450274229
1761478221292756000,1.426755859375,-0.04747137799859047,0.014105166308581829,-0.018208565190434456
1761478221302792700,1.436792724609375,-0.04024063050746918,0.00953864399343729,-0.021891450509428978
1761478221312828700,1.44682861328125,-0.024232635274529457,0.006713029928505421,-0.02828490175306797
1761478221322865000,1.456864990234375,-0.012544287368655205,0.010979147627949715,-0.03586186096072197
1761478221332900900,1.46690087890625,-0.00552366254851222,0.007200655061751604,-0.03537610173225403
1761478221342937600,1.4769375,-0.003939614165574312,-0.002915628720074892,-0.031445808708667755
1761478221352973800,1.486973876953125,-0.011197526939213276,0.0010657970560714602,-0.025534121319651604
1761478221363010000,1.497010009765625,-0.009698167443275452,0.005797701422125101,-0.010578075423836708
1761478221373046000,1.5070458984375,-0.0065199509263038635,0.00669492082670331,0.005265069659799337
1761478221383082800,1.517082763671875,-0.00155288923997432,0.00446958327665925,0.01543248537927866
1761478221393119000,1.527118896484375,-0.001731320982798934,-0.007095726206898689,0.016104402020573616
1761478221403155000,1.537155029296875,0.0013725932221859694,-0.008979912847280502,0.011091266758739948
1761478221413191000,1.54719091796875,-0.00013395700079854578,-0.008585498668253422,0.009167132899165154
1761478221423228000,1.557227783203125,0.0021222729701548815,-0.012473180890083313,0.008013717830181122
1761478221433263900,1.567263916015625,0.0011456918437033892,-0.011982360854744911,0.012774384580552578
1761478221443299800,1.5772998046875,0.0008636631537228823,-0.005989449098706245,0.019838685169816017
1761478221453335800,1.587335693359375,-0.0004753742541652173,0.007417702581733465,0.022829148918390274
1761478221463371800,1.597371826171875,0.006678408943116665,0.0014391721924766898,0.02268720231950283
1761478221473409000,1.607408935546875,0.011139203794300556,0.0015715312911197543,0.017052752897143364
1761478221483445000,1.617445068359375,0.010450510308146477,-0.009214270859956741,0.005785184912383556
1761478221493481000,1.62748095703125,0.010583136230707169,-0.00944756343960762,-0.010309629142284393
1761478221503517000,1.637516845703125,0.0051534827798604965,-0.0110457269474864,-0.023901870474219322
1761478221513554000,1.647553955078125,-0.002575809368863702,-0.00948111992329359,-0.032214660197496414
1761478221523590000,1.65758984375,-0.008325573988258839,0.0017022925894707441,-0.036910079419612885
1761478221533625900,1.6676259765625,-0.013234312646090984,0.012695022858679295,-0.032341159880161285
1761478221543661800,1.677661865234375,-0.011329087428748608,0.013851100578904152,-0.02545182965695858
1761478221553698800,1.68769873046875,-0.01239541731774807,0.015970710664987564,-0.017311612144112587
1761478221563734800,1.69773486328125,-0.00860041193664074,0.011752530001103878,-0.005406483076512814
1761478221573770800,1.707770751953125,-0.006841394584625959,0.005876797717064619,0.007620369084179401
1761478221583806700,1.717806640625,-0.01335921511054039,0.004462658893316984,0.015617575496435165
1761478221593844000,1.727843994140625,-0.015727031975984573,0.004181429278105497,0.020328175276517868
1761478221603880000,1.7378798828125,-0.01369477342814207,-0.006079996936023235,0.02293434366583824
1761478221613916000,1.747916015625,-0.005031776614487171,-0.007763913366943598,0.023988157510757446
1761478221623952000,1.757951904296875,0.0059963734820485115,-0.013487312942743301,0.030664701014757156
1761478221633988900,1.76798876953125,0.010302971117198467,-0.025962624698877335,0.029890786856412888
1761478221644024800,1.77802490234375,0.012124840170145035,-0.026998061686754227,0.022974824532866478
1761478221654060800,1.788060791015625,0.001817341079004109,-0.025951439514756203,0.02274872176349163
1761478221664096800,1.7980966796875,-0.004633633885532618,-0.01930738426744938,0.029355226084589958
1761478221674133800,1.8081337890625,-0.01173335500061512,-0.0067812069319188595,0.03957643732428551
1761478221684169700,1.818169677734375,-0.007700263988226652,-0.0038360171020030975,0.03995859995484352
1761478221694205700,1.828205810546875,0.01871829479932785,-0.045882269740104675,0.02798369713127613
1761478221704241700,1.83824169921875,0.031928639858961105,-0.033123333007097244,0.021697305142879486
1761478221714279000,1.84827880859375,0.02552027441561222,-0.018491126596927643,0.012237757444381714
1761478221724315000,1.85831494140625,0.01139966119080782,-0.0178181454539299,0.006631004624068737
1761478221734350800,1.868350830078125,-0.0023278691805899143,-0.009376457892358303,0.0036780918017029762
1761478221744386800,1.87838671875,-0.008334895595908165,0.0013930995482951403,0.011817777529358864
1761478221754423800,1.888423828125,-0.007447796408087015,0.003338538808748126,0.020111393183469772
1761478221764459300,1.898459228515625,-0.005307413637638092,0.007692806888371706,0.0220352616161108
1761478221774495500,1.90849560546875,-0.007993478327989578,0.006251237820833921,0.022486133500933647
1761478221784531500,1.918531494140625,-0.015089470893144608,-0.0016823188634589314,0.014219948090612888
1761478221794567400,1.9285673828125,-0.021339377388358116,-0.005279982928186655,-0.004020041786134243
1761478221804604400,1.9386044921875,-0.02106666937470436,-0.012921124696731567,-0.01691773161292076
1761478221814640600,1.948640625,-0.02600070834159851,-0.0062970444560050964,-0.019000856205821037
1761478221824676600,1.958676513671875,-0.020923657342791557,-0.0023329290561378,-0.013306750915944576
1761478221834712600,1.968712646484375,-0.009396963752806187,0.00675297761335969,-0.0015033544041216373
1761478221844749600,1.97874951171875,-0.0017979000695049763,0.010906177572906017,0.01028352975845337
1761478221854785500,1.98878564453125,-0.0022594258189201355,0.012061722576618195,0.013624199666082859
1761478221864821500,1.998821533203125,-0.0008474178612232208,0.007917843759059906,0.01318318024277687
1761478221874857500,2.008857421875,0.0029523803386837244,0.0057252636179327965,0.006952980998903513
1761478221884894500,2.01889453125,0.008950884453952312,-0.0029348034877330065,-0.0005486111622303724
1761478221894930400,2.028930419921875,0.008738364093005657,-0.009154349565505981,-0.009165002964437008
1761478221904966400,2.03896630859375,0.007985754869878292,-0.007786017842590809,-0.013220463879406452
1761478221915002400,2.04900244140625,-0.0015371765475720167,-0.008496016263961792,-0.01324043795466423
1761478221925039600,2.05903955078125,0.0012034825049340725,-0.003043993143364787,-0.007288272958248854
1761478221935075600,2.06907568359375,-0.002572879893705249,-0.004515123087912798,-0.004071174189448357
1761478221945111600,2.079111572265625,-0.009693640284240246,-0.005049087107181549,-0.003369963960722089
1761478221955147500,2.0891474609375,-0.016270050778985023,-0.010017214342951775,-0.0012668657582253218
1761478221965184500,2.0991845703125,-0.016804279759526253,-0.005004079546779394,0.006993460934609175
1761478221975220500,2.109220458984375,-0.019825635477900505,-0.008582835085690022,0.01606791652739048
1761478221985256400,2.11925634765625,-0.022282402962446213,-0.0014839133946225047,0.02322329767048359
1761478221995292400,2.12929248046875,-0.03358086198568344,0.0009709885343909264,0.012210593558847904
1761478222005328400,2.139328369140625,-0.03827868029475212,-0.011274758726358414,-0.007542072329670191
1761478222015365400,2.149365478515625,-0.03764910623431206,-0.016278572380542755,-0.025794578716158867
1761478222025401300,2.1594013671875,-0.03820277750492096,-0.022009428590536118,-0.031870581209659576
1761478222035437300,2.169437255859375,-0.03110998310148716,-0.025287246331572533,-0.03334437310695648
1761478222045473300,2.179473388671875,-0.029283853247761726,-0.0017446368001401424,-0.017495369538664818
1761478222055510500,2.189510498046875,-0.03744084760546684,0.02689739502966404,0.004012851044535637
1761478222065546500,2.19954638671875,-0.0347135066986084,0.033838655799627304,0.010488860309123993
1761478222075582500,2.20958251953125,-0.01667351834475994,0.01617790386080742,-0.0028671592008322477
1761478222085618400,2.219618408203125,0.0022154836915433407,-0.016441024839878082,-0.025128522887825966
1761478222095655400,2.229655517578125,0.022248581051826477,-0.04068431258201599,-0.032524652779102325
1761478222105691400,2.23969140625,0.026738137006759644,-0.04649639502167702,-0.017302824184298515
1761478222115727400,2.249727294921875,0.026707777753472328,-0.0290518905967474,0.007185741327702999
1761478222125763300,2.259763427734375,0.016753146424889565,-0.00686190091073513,0.03172597289085388
1761478222135800300,2.26980029296875,0.006246977020055056,0.011156514286994934,0.04074263572692871
1761478222145836300,2.279836181640625,0.0019595539197325706,0.016412528231739998,0.04301990568637848
1761478222155872300,2.289872314453125,-0.008510930463671684,0.019895942881703377,0.032400283962488174
1761478222165908200,2.299908203125,-0.007336742244660854,0.009009740315377712,0.014403440058231354
1761478222175945500,2.309945556640625,-0.008808138780295849,-0.008371113799512386,-0.010775416158139706
1761478222185981400,2.3199814453125,-0.00945102609694004,-0.01330035924911499,-0.022300777956843376
1761478222196017400,2.330017333984375,-0.006654706783592701,-0.012954148463904858,-0.026186330243945122
1761478222206053400,2.340053466796875,-0.004085821565240622,-0.004309793468564749,-0.022837139666080475
1761478222216089600,2.350089599609375,-0.0008953547803685069,0.00794207863509655,-0.018424812704324722
1761478222226126300,2.360126220703125,-0.002953445538878441,0.006873885169625282,-0.018547052517533302
1761478222236162300,2.370162353515625,-0.0031228226143866777,0.0034085798542946577,-0.020312462002038956
1761478222246198500,2.380198486328125,-0.002808303339406848,0.00572925852611661,-0.009649431332945824
1761478222256234500,2.390234375,-0.0018247979460284114,0.0009584716754034162,0.001725728390738368
1761478222266271200,2.400271240234375,0.00005166532355360687,0.0025068335235118866,0.01025423500686884
1761478222276307500,2.410307373046875,-0.004494616761803627,0.0037819549906998873,0.02015400491654873
1761478222286343400,2.420343505859375,-0.005949501879513264,-0.0021441110875457525,0.02431892231106758
1761478222296379600,2.430379638671875,-0.004840295296162367,-0.009396431036293507,0.013377591036260128
1761478222306416400,2.44041650390625,0.0029726203065365553,-0.01187823060899973,0.0007392935222014785
1761478222316452600,2.45045263671875,0.013401559554040432,-0.01798965223133564,-0.0041161817498505116
1761478222326488600,2.460488525390625,0.013703561387956142,-0.020356137305498123,-0.006307696923613548
1761478222336524500,2.470524658203125,0.013834056444466114,-0.01606631837785244,-0.0026815368328243494
1761478222346560500,2.480560546875,0.006731139495968819,0.003885552054271102,0.009913084097206593
1761478222356597500,2.490597412109375,0.004131628200411797,0.006985205225646496,0.022098643705248833
1761478222366633500,2.500633544921875,-0.0009480853332206607,0.013278787024319172,0.02087358944118023
1761478222376669400,2.51066943359375,0.0033129723742604256,0.002880475018173456,0.01092508528381586
1761478222386705400,2.520705322265625,0.009216934442520142,-0.006732471287250519,-0.002600576728582382
1761478222396742400,2.530742431640625,0.01155518926680088,-0.019462380558252335,-0.009575662203133106
1761478222406778400,2.5407783203125,0.011858257465064526,-0.01986531727015972,-0.00942253042012453
1761478222416814600,2.550814697265625,0.006941263098269701,-0.01655660569667816,-0.01363165583461523
1761478222426850600,2.5608505859375,0.0019089538836851716,-0.007552991155534983,-0.005624063778668642
1761478222436887600,2.570887451171875,-0.0006386260502040386,0.009696036577224731,0.003020557342097163
1761478222446923500,2.580923583984375,-0.0038400120101869106,0.016889235004782677,0.011826831847429276
1761478222456959500,2.59095947265625,0.0009052084642462432,0.004340686369687319,0.01320954505354166
1761478222466995500,2.600995361328125,0.0004625910660251975,-0.004474110435694456,0.012604208663105965
1761478222477032400,2.611032470703125,-0.0026676885318011045,-0.008298143744468689,0.0038802255876362324
1761478222487068400,2.621068359375,-0.003870105603709817,-0.013035374693572521,-0.014122476801276207
1761478222497104400,2.6311044921875,-0.007303453050553799,-0.011080880649387836,-0.029821544885635376
1761478222507140400,2.641140380859375,-0.00848296657204628,-0.007033142261207104,-0.03824964910745621
1761478222517176300,2.65117626953125,-0.009471798315644264,-0.004752677399665117,-0.0420161597430706
1761478222527213300,2.66121337890625,-0.01267158705741167,-0.0033161682076752186,-0.03680888190865517
1761478222537249500,2.67124951171875,-0.02027491107583046,0.006317018065601587,-0.01786235347390175
1761478222547285500,2.681285400390625,-0.028089424595236778,0.013336844742298126,-0.0009041432058438659
1761478222557321500,2.691321533203125,-0.029870014637708664,0.009041964076459408,0.013496100902557373
1761478222567358500,2.7013583984375,-0.026319222524762154,0.0016700683627277613,0.024480309337377548
1761478222577394400,2.71139453125,-0.011982893571257591,-0.006356166675686836,0.024877386167645454
1761478222587430400,2.721430419921875,-0.005141764879226685,-0.018677547574043274,0.017008544877171516
1761478222597466400,2.73146630859375,-0.004601143300533295,-0.017051154747605324,0.006996656768023968
1761478222607503400,2.74150341796875,-0.010117082856595516,-0.01594248041510582,-0.004421113524585962
1761478222617539300,2.751539306640625,-0.018038921058177948,-0.011149856261909008,-0.009740511886775494
1761478222627575300,2.7615751953125,-0.01877635158598423,-0.005775863770395517,-0.00714632635936141
1761478222637611300,2.771611328125,-0.018566759303212166,-0.005215534474700689,-0.004030960611999035
1761478222647647500,2.7816474609375,-0.019577961415052414,0.001213868847116828,0.003326820908114314
1761478222657684500,2.7916845703125,-0.023119168356060982,0.0009036105475388467,0.010685134679079056
1761478222667720400,2.801720458984375,-0.024294687435030937,-0.003132942598313093,0.013134177774190903
1761478222677756700,2.811756591796875,-0.021996112540364265,-0.0031555795576423407,0.009405752643942833
1761478222687792600,2.821792724609375,-0.01426335796713829,-0.010392453521490097,0.007399859372526407
1761478222697829400,2.831829345703125,-0.005049353465437889,-0.013313142582774162,0.0026354643050581217
1761478222707865600,2.841865478515625,-0.002837331732735038,-0.010490457527339458,-0.003299123840406537
1761478222717901600,2.851901611328125,-0.011083809658885002,-0.007448861375451088,-0.008755408227443695
1761478222727937500,2.8619375,-0.02334420382976532,-0.004366518929600716,-0.013581056147813797
1761478222737974500,2.871974609375,-0.027039339765906334,0.00800492987036705,-0.005520999431610107
1761478222748010500,2.882010498046875,-0.01305348426103592,0.014110758900642395,0.0029284118209034204
1761478222758046500,2.89204638671875,-0.000806138850748539,0.011088337749242783,0.012884639203548431
1761478222768082700,2.902082763671875,0.0006255765329115093,0.0036096484400331974,0.0075689698569476604
1761478222778118700,2.91211865234375,-0.006615824531763792,-0.0022359900176525116,0.001719603082165122
1761478222788155600,2.92215576171875,-0.010400975123047829,-0.007768707349896431,-0.004659466445446014
1761478222798191600,2.932191650390625,-0.012487296015024185,-0.013000487349927425,-0.00621182331815362
1761478222808227600,2.9422275390625,-0.008313589729368687,-0.004011785611510277,-0.0037286917213350534
1761478222818263600,2.952263671875,-0.006794789340347052,-0.0008873652550391853,-0.0025385250337421894
1761478222828300800,2.96230078125,-0.008390555158257484,-0.002305232221260667,-0.01065370999276638
1761478222838336800,2.972336669921875,-0.006895722821354866,-0.011918711476027966,-0.020001139491796494
1761478222848372700,2.982372802734375,-0.007507184520363808,-0.01955985277891159,-0.021446170285344124
1761478222858408700,2.99240869140625,-0.007199855986982584,-0.019991550594568253,-0.005821403581649065
1761478222868445700,3.00244580078125,-0.005344964098185301,-0.01561145018786192,0.017902834340929985
1761478222878481700,3.012481689453125,-0.00875114742666483,-0.008460596203804016,0.04401006922125816
1761478222888517600,3.022517578125,-0.015210377983748913,0.006277070846408606,0.049201369285583496
1761478222898553600,3.0325537109375,-0.028438299894332886,0.008755674585700035,0.03448900207877159
1761478222908589600,3.042589599609375,-0.03469912335276604,0.010713630355894566,0.013287309557199478
1761478222918626600,3.05262646484375,-0.028553880751132965,0.007957525551319122,-0.01546151377260685
1761478222928662500,3.06266259765625,-0.004875182639807463,-0.0004474110610317439,-0.037395309656858444
1761478222938698500,3.072698486328125,0.014591459184885025,-0.0035412053111940622,-0.047029025852680206
1761478222948734500,3.082734375,0.018321482464671135,0.0013731258222833276,-0.04821519926190376
1761478222958771700,3.092771728515625,0.018371816724538803,0.01124839298427105,-0.04092506319284439
1761478222968807700,3.1028076171875,0.011781025677919388,0.014079865999519825,-0.03261733055114746
1761478222978843600,3.11284375,0.007334345486015081,0.020541494712233543,-0.018030665814876556
1761478222988879600,3.122879638671875,0.01452914159744978,0.014001569710671902,0.0010724549647420645
1761478222998915600,3.13291552734375,0.018561966717243195,0.006956975441426039,0.02027677558362484
1761478223008952600,3.14295263671875,0.00717508839443326,0.0019744676537811756,0.03629728779196739
1761478223018988500,3.152988525390625,-0.0001757686259225011,-0.007681355345994234,0.042392995208501816
1761478223029024500,3.1630244140625,-0.005089567042887211,-0.010653975419700146,0.03816203400492668
1761478223039060500,3.173060546875,-0.004295678809285164,-0.014902250841259956,0.030364030972123146
1761478223049097500,3.183097412109375,-0.0011358382180333138,-0.008958874270319939,0.02688727341592312
1761478223059133400,3.193133544921875,-0.0036914076190441847,-0.00523710623383522,0.022712502628564835
1761478223069169400,3.20316943359375,-0.009179383516311646,-0.005357214715331793,0.010613761842250824
1761478223079205600,3.21320556640625,-0.021854432299733162,-0.013903032056987286,-0.003802194958552718
1761478223089241600,3.22324169921875,-0.025734923779964447,-0.010894992388784885,-0.01173628494143486
1761478223099278600,3.233278564453125,-0.03227271884679794,-0.014130732975900173,-0.015671370550990105
1761478223109314600,3.243314453125,-0.032172318547964096,-0.007114634849131107,-0.017044764012098312
1761478223119350800,3.253350830078125,-0.029951507225632668,0.001508414396084845,-0.015805328264832497
1761478223129386800,3.26338671875,-0.02954750508069992,0.007479221560060978,-0.009934922680258751
1761478223139423500,3.273423583984375,-0.027832962572574615,0.014122476801276207,-0.01125025749206543
1761478223149459700,3.283459716796875,-0.023619841784238815,0.012916331179440022,-0.018807776272296906
1761478223159495700,3.29349560546875,-0.012141085229814053,0.0005797701887786388,-0.031387750059366226
1761478223169531600,3.30353173828125,-0.003078614128753543,-0.0101362569257617,-0.03755936026573181
1761478223179568600,3.313568603515625,0.004737763665616512,-0.007937551476061344,-0.030958447605371475
1761478223189604600,3.3236044921875,0.008459797129034996,-0.009529589675366879,-0.013264140114188194
1761478223199640600,3.333640625,0.006892526987940073,-0.00911386962980032,0.004974518436938524
1761478223209676500,3.343676513671875,0.004760933108627796,0.0007470166892744601,0.02364674024283886
1761478223219712800,3.353712646484375,-0.0021616879384964705,0.005122323986142874,0.0390067882835865
1761478223229749800,3.363749755859375,-0.005531385540962219,-0.0019142802339047194,0.03575293719768524
1761478223239785700,3.37378564453125,0.0005432848702184856,-0.007306915242224932,0.03189587965607643
1761478223249821700,3.38382177734375,0.0035601137205958366,-0.019055983051657677,0.030233535915613174
1761478223259857700,3.393857666015625,0.002918558195233345,-0.010931743308901787,0.03353425860404968
1761478223269894700,3.403894775390625,-0.003174754325300455,-0.00526613462716341,0.028895830735564232
1761478223279930600,3.4139306640625,-0.006087986286729574,0.001618136651813984,0.012298744171857834
1761478223289966600,3.423966552734375,-0.005948969163000584,-0.0028932581190019846,-0.005940713454037905
1761478223300002600,3.43400244140625,0.0008596684201620519,-0.007428355049341917,-0.022289326414465904
1761478223310038500,3.44403857421875,-0.0008010788587853312,-0.007527690846472979,-0.027651067823171616
1761478223320075500,3.454075439453125,-0.0003105245705228299,-0.004203266929835081,-0.017364343628287315
1761478223330111500,3.464111572265625,0.003451723139733076,-0.0022359900176525116,0.003005377249792218
1761478223340147700,3.474147705078125,-0.0013960290234535933,0.009498963132500648,0.02082378976047039
1761478223350183700,3.48418359375,0.001207477180287242,0.0073655047453939915,0.03900225833058357
1761478223360220700,3.494220703125,0.003173955250531435,0.007636880502104759,0.04701251536607742
1761478223370256600,3.504256591796875,0.004291151650249958,-0.0007060039788484573,0.03922490030527115
1761478223380292600,3.514292724609375,0.007123156916350126,-0.018675949424505234,0.026937074959278107
1761478223390328600,3.52432861328125,0.010742392390966415,-0.02725159376859665,0.013346165418624878
1761478223400364500,3.534364501953125,0.006780407857149839,-0.03674602881073952,0.012619122862815857
1761478223410401500,3.544401611328125,0.00022690132027491927,-0.0249082800000906,0.016027169302105904
1761478223420437500,3.5544375,-0.0092936335131526,-0.016702547669410706,0.01655048131942749
1761478223430473500,3.564473388671875,-0.009470733813941479,-0.0054429685696959496,0.021274395287036896
1761478223440509400,3.574509521484375,-0.011267301626503468,-0.0017329188995063305,0.014120878651738167
1761478223450545700,3.584545654296875,-0.0016085492679849267,-0.00929176900535822,0.010307764634490013
1761478223460582700,3.594582763671875,-0.0020996362436562777,-0.013375193811953068,0.01008166279643774
1761478223470618600,3.60461865234375,-0.00430100504308939,-0.013397830538451672,0.010499779134988785
1761478223480654600,3.614654541015625,-0.010757839307188988,-0.00637906976044178,0.010847854427993298
1761478223490690800,3.62469091796875,-0.01864638924598694,0.006490389816462994,0.007139668334275484
1761478223500727600,3.6347275390625,-0.019344935193657875,0.015723835676908493,0.001270061475224793
1761478223510763500,3.644763427734375,-0.01599867455661297,0.007195328362286091,-0.021736187860369682
1761478223520799700,3.6547998046875,-0.005055745132267475,-0.012949886731803417,-0.043650541454553604
1761478223530835700,3.664835693359375,0.0024311996530741453,-0.031263645738363266,-0.05413514003157616
1761478223540871700,3.67487158203125,0.005677326582372189,-0.030343791469931602,-0.04315519332885742
1761478223550908700,3.68490869140625,0.0051905009895563126,-0.019221631810069084,-0.014112357050180435
1761478223560944600,3.694944580078125,-0.0020090886391699314,0.0018485001055523753,0.012542955577373505
1761478223570980600,3.704980712890625,-0.009840114042162895,0.014591725543141365,0.026101374998688698
1761478223581016600,3.7150166015625,-0.012026036158204079,0.007483216468244791,0.023480825126171112
1761478223591053800,3.7250537109375,-0.009276056662201881,0.008156463503837585,0.013859356753528118
1761478223601089800,3.73508984375,-0.0009068063227459788,-0.007505320478230715,-0.000404534162953496
1761478223611125800,3.745125732421875,0.006874417886137962,-0.005863215308636427,-0.006054430268704891
1761478223621161700,3.75516162109375,0.012526976875960827,-0.004544151946902275,-0.013369334861636162
1761478223631197700,3.76519775390625,0.013532586395740509,-0.0030423952266573906,-0.012537096627056599
1761478223641234700,3.775234619140625,0.01799364760518074,0.009186574257910252,-0.005881058517843485
1761478223651270700,3.785270751953125,0.019459718838334084,0.006050701718777418,-0.0013560815714299679
1761478223661306600,3.795306640625,0.015564312227070332,0.007260309532284737,0.00478277076035738
1761478223671342600,3.805342529296875,0.007363906595855951,0.011154649779200554,0.006952448282390833
1761478223681379600,3.815379638671875,0.002183792181313038,0.012161857448518276,0.011298460885882378
1761478223691415600,3.82541552734375,-0.00013129384024068713,0.016501478850841522,0.013617275282740593
1761478223701451500,3.835451416015625,0.0023153522051870823,0.011006046086549759,0.0088789789006114
1761478223711487500,3.845487548828125,0.006648315116763115,0.004806739278137684,0.014053234830498695
1761478223721523500,3.8555234375,0.005178516730666161,0.002210956299677491,0.011571701616048813
1761478223731560700,3.865560791015625,-0.0035167040769010782,0.00580702256411314,0.0028575719334185123
1761478223741596700,3.8755966796875,-0.011180216446518898,0.0024831313639879227,-0.010667557828128338
1761478223751632600,3.885632568359375,-0.011688347905874252,-0.0012713931500911713,-0.018192052841186523
1761478223761667800,3.895667724609375,-0.004833370912820101,0.0025097629986703396,-0.02677249163389206
1761478223771704800,3.905704833984375,-0.003029345767572522,-0.004820588044822216,-0.027727767825126648
1761478223781740800,3.91574072265625,-0.005199822131544352,0.009616142138838768,-0.020010460168123245
1761478223791776800,3.92577685546875,-0.01158368494361639,0.02526247873902321,-0.008528240956366062
1761478223801813000,3.93581298828125,-0.013787184841930866,0.023914387449622154,-0.00911227148026228
1761478223811849000,3.945848876953125,-0.007673099637031555,0.011141601018607616,-0.009194563142955303
1761478223821886000,3.955885986328125,0.002412291243672371,0.004335626028478146,-0.005666141398251057
1761478223831922000,3.965921875,0.02099263295531273,-0.005420065484941006,-0.004223507363349199
1761478223841958000,3.9759580078125,0.026939472183585167,-0.008780175819993019,-0.0038575888611376286
1761478223851993900,3.985993896484375,0.028565598651766777,-0.010434531606733799,-0.002641855739057064
1761478223862029800,3.99602978515625,0.032281242311000824,-0.007713047321885824,-0.0032676986884325743
1761478223872064800,4.006064697265625,0.0308681670576334,-0.00663553224876523,-0.002606702037155628
1761478223882100700,4.016100830078125,0.034385669976472855,0.012032427825033665,-0.012536830268800259
1761478223892137700,4.0261376953125,0.03971412405371666,-0.0023041670210659504,-0.029944317415356636
1761478223902173700,4.036173583984375,0.047931574285030365,-0.012723784893751144,-0.044024448841810226
1761478223912209700,4.046209716796875,0.038655251264572144,-0.013630058616399765,-0.033362749963998795
1761478223922245600,4.05624560546875,0.01581864431500435,0.013304353691637516,-0.005964948330074549
1761478223932281900,4.06628173828125,-0.003861317178234458,0.019537216052412987,0.01630094274878502
1761478223942318800,4.07631884765625,-0.01619281806051731,0.020930049940943718,0.03760330006480217
1761478223952354800,4.086354736328125,-0.028736572712659836,0.01859925128519535,0.045580003410577774
1761478223962390800,4.096390869140625,-0.03188363090157509,0.0017209346406161785,0.04355280473828316
1761478223972427000,4.106427001953125,-0.036375850439071655,-0.010002033784985542,0.03681394085288048
1761478223982463000,4.116462890625,-0.0357835628092289,-0.02002856880426407,0.02991262450814247
1761478223992499700,4.126499755859375,-0.026429476216435432,-0.013231382705271244,0.029151227325201035
1761478224002536000,4.136535888671875,-0.022826751694083214,-0.00947739090770483,0.022105302661657333
1761478224012572000,4.146572021484375,-0.015540077351033688,-0.015149657614529133,0.016095079481601715
1761478224022608000,4.15660791015625,-0.01943441852927208,-0.014624482952058315,0.014414358884096146
1761478224032644900,4.166644775390625,-0.023999875411391258,-0.005005944054573774,0.011198326013982296
1761478224042680800,4.176680908203125,-0.02051832526922226,-0.002377137541770935,0.005314604379236698
1761478224052716800,4.186716796875,-0.020803548395633698,0.001907355966977775,-0.0006261091912165284
1761478224062752800,4.196752685546875,-0.01170699018985033,0.00595456175506115,-0.003890878288075328
1761478224072788700,4.206788818359375,-0.003859453136101365,0.00003834952076431364,-0.005093828309327364
1761478224082826000,4.216825927734375,-0.00049082055920735,-0.002037584548816085,-0.001561677665449679
1761478224092862000,4.226862060546875,0.003693005535751581,-0.001859152689576149,0.002005093963816762
1761478224102898000,4.23689794921875,0.007336209993809462,-0.01696593314409256,0.004265584982931614
1761478224112934000,4.246933837890625,0.011449994519352913,-0.018757442012429237,0.007888815365731716
1761478224122969900,4.256969970703125,0.005080778617411852,-0.006105829495936632,0.016263658180832863
1761478224133006800,4.2670068359375,0.002956907730549574,0.01077062264084816,0.02305764891207218
1761478224143042800,4.277042724609375,0.007280283607542515,0.008326106704771519,0.02136760577559471
1761478224153078800,4.287078857421875,0.012979714199900627,-0.004402738064527512,0.008415589109063148
1761478224163114800,4.29711474609375,0.019179020076990128,-0.012863334268331528,0.003890878288075328
1761478224173151700,4.30715185546875,0.017934525385499,-0.024704547598958015,0.002560629276558757
1761478224183187700,4.317187744140625,0.004504736978560686,-0.029086779803037643,0.005567338317632675
1761478224193223700,4.3272236328125,-0.010776215232908726,-0.017052752897143364,0.02117026597261429
1761478224203259600,4.337259765625,-0.024818263947963715,-0.0029206888284534216,0.03750236704945564
1761478224213295900,4.3472958984375,-0.02955549582839012,0.017943046987056732,0.040523722767829895
1761478224223332900,4.357332763671875,-0.030644994229078293,0.027239343151450157,0.02365819178521633
1761478224233368800,4.367368896484375,-0.021760422736406326,0.018258366733789444,-0.0007579356315545738
1761478224243404800,4.37740478515625,-0.014117683283984661,0.004475442226976156,-0.026005767285823822
1761478224253440800,4.387440673828125,-0.002168079372495413,0.0009331716573797166,-0.041665952652692795
1761478224263476700,4.397476806640625,0.006578007712960243,-0.0012860405258834362,-0.04869962856173515
1761478224273513700,4.407513671875,0.018934808671474457,0.007482950109988451,-0.03533188998699188
1761478224283549700,4.4175498046875,0.02468164451420307,0.01073813159018755,-0.013289706781506538
1761478224293585700,4.427585693359375,0.021692512556910515,0.013003949075937271,0.002272475278005004
1761478224303622000,4.437621826171875,0.013042032718658447,0.0014343785587698221,0.012562396936118603
1761478224313658600,4.44765869140625,0.002968092914670706,-0.01811082661151886,0.019640812650322914
1761478224323694600,4.457694580078125,-0.0030045784078538418,-0.014271614141762257,0.03532177209854126
1761478224333730800,4.467730712890625,-0.01128035131841898,-0.006091448478400707,0.04975610598921776
1761478224343767000,4.47776708984375,-0.01022813655436039,-0.0037766287568956614,0.05746648833155632
1761478224353803000,4.487802978515625,-0.00968698225915432,0.0021193434949964285,0.0505950003862381
1761478224363839700,4.49783984375,-0.003745203372091055,-0.005203017964959145,0.029209550470113754
1761478224373876000,4.5078759765625,0.004481034819036722,-0.01318051666021347,0.0070459251292049885
1761478224383912000,4.517911865234375,0.011283546686172485,-0.012830844148993492,-0.011775166727602482
1761478224393948000,4.527947998046875,0.008146343752741814,-0.013849502429366112,-0.029569875448942184
1761478224403984000,4.53798388671875,-0.002642122097313404,-0.009562612511217594,-0.03634708747267723
1761478224414020900,4.548020751953125,-0.014719025231897831,0.006619819439947605,-0.03858520835638046
1761478224424056800,4.558056884765625,-0.01684156432747841,0.01732412911951542,-0.03418619930744171
1761478224434092800,4.5680927734375,-0.017949173226952553,0.02978452667593956,-0.032171253114938736
1761478224444128800,4.578128662109375,-0.011620170436799526,0.02984577976167202,-0.03281493857502937
1761478224454164700,4.588164794921875,-0.008213721215724945,0.017241571098566055,-0.04442152753472328
1761478224464202000,4.598201904296875,-0.008469385094940662,0.006000900641083717,-0.053814761340618134
1761478224474238000,4.608238037109375,-0.00782703049480915,-0.00261841993778944,-0.05756901949644089
1761478224484274000,4.61827392578125,0.0026069683954119682,-0.008919458836317062,-0.05307333916425705
1761478224494310000,4.628309814453125,0.01991298794746399,-0.016410665586590767,-0.0366341769695282
1761478224504347000,4.638346923828125,0.027149328961968422,-0.005814213305711746,-0.012805543839931488
1761478224514382800,4.6483828125,0.02225550450384617,-0.008554605767130852,0.01261219847947359
1761478224524418800,4.658418701171875,0.005595567636191845,-0.004743888974189758,0.03425730764865875
1761478224534454800,4.668454833984375,-0.013471334241330624,0.007435545790940523,0.05362993851304054
1761478224544490800,4.67849072265625,-0.01998808979988098,0.011408449150621891,0.06251104921102524
1761478224554527700,4.68852783203125,-0.01053120382130146,0.006178267300128937,0.0636410266160965
1761478224564563700,4.698563720703125,0.003123355330899358,-0.007108775898814201,0.04940696433186531
1761478224574599700,4.708599609375,0.01810337044298649,-0.014427941292524338,0.03929760307073593
1761478224584635600,4.7186357421875,0.018729746341705322,-0.0171507578343153,0.02780073881149292
1761478224594671600,4.728671630859375,0.017884990200400352,-0.016387229785323143,0.014728079549968243
1761478224604708900,4.738708984375,0.014677213504910469,-0.01824291981756687,0.004172374494373798
1761478224614744800,4.748744873046875,0.00791704561561346,-0.017737185582518578,-0.004238953348249197
1761478224624780800,4.75878076171875,-0.0014152037911117077,-0.014852982014417648,-0.012383699417114258
1761478224634816800,4.768816650390625,-0.003943076357245445,-0.0191971305757761,-0.013610883615911007
1761478224644853800,4.778853759765625,-0.0065561700612306595,-0.01384231261909008,-0.008310927078127861
1761478224654889700,4.7888896484375,-0.020901819691061974,0.005082909017801285,0.003067428944632411
1761478224664925700,4.79892578125,-0.034814972430467606,0.012471317313611507,0.012887036427855492
1761478224674962000,4.8089619140625,-0.040103211998939514,0.021937523037195206,0.008895490318536758
1761478224684998000,4.818997802734375,-0.036015525460243225,0.0065377941355109215,-0.005832056514918804
1761478224695034600,4.82903466796875,-0.019932428374886513,-0.011122958734631538,-0.027589550241827965
1761478224705070800,4.83907080078125,-0.010336260311305523,-0.02467631734907627,-0.037270139902830124
1761478224715106800,4.84910693359375,-0.011864915490150452,-0.027234816923737526,-0.03689649701118469
1761478224725142800,4.859142822265625,-0.026550384238362312,-0.014508634805679321,-0.019118567928671837
1761478224735178800,4.8691787109375,-0.040290430188179016,0.00914289802312851,0.004462126176804304
1761478224745216000,4.879216064453125,-0.043589554727077484,0.013027384877204895,0.01727779023349285
1761478224755252000,4.889251953125,-0.02895042486488819,0.00965449120849371,0.01961071975529194
1761478224765288000,4.899287841796875,-0.010289655067026615,0.006491188891232014,0.021347632631659508
1761478224775325000,4.909324951171875,0.00413482403382659,0.0037116475868970156,0.011023356579244137
1761478224785361700,4.919361572265625,0.01176531333476305,-0.006631537340581417,-0.0038488004356622696
1761478224795397600,4.929397705078125,0.00987153872847557,-0.007818774320185184,-0.009896572679281235
1761478224805433900,4.939433837890625,0.005826463922858238,-0.0036575854755938053,-0.010208961553871632
1761478224815469800,4.9494697265625,0.0011893677292391658,0.004805407952517271,-0.0033073797821998596
1761478224825505800,4.959505859375,-0.0029145635198801756,0.009532252326607704,0.00027031084755435586
1761478224835542800,4.969542724609375,-0.006657103542238474,0.005486910697072744,0.005609150044620037
1761478224845578800,4.979578857421875,-0.010160491801798344,-0.006393184419721365,0.00589570589363575
1761478224855614700,4.98961474609375,-0.011836419813334942,-0.009355684742331505,0.011137872003018856
1761478224865650700,4.999650634765625,-0.005161472596228123,-0.0038224351592361927,0.014610900543630123
1761478224875688000,5.00968798828125,-0.004752943757921457,0.0008596684201620519,0.016945427283644676
1761478224885724000,5.019723876953125,-0.004591289907693863,0.0020780644845217466,0.012062788009643555
1761478224895760000,5.029759765625,-0.005229915492236614,-0.0007384945638477802,-0.0003352919884491712
1761478224905795800,5.0397958984375,-0.0021076255943626165,-0.0073713636957108974,-0.010211625136435032
1761478224915831800,5.049831787109375,0.0024343954864889383,-0.009587380103766918,-0.012406069785356522
1761478224925868800,5.059868896484375,-0.0027710190042853355,-0.011999671347439289,-0.01492089219391346
1761478224935904800,5.06990478515625,-0.01005023717880249,-0.017768876627087593,-0.008717591874301434
1761478224945940700,5.079940673828125,-0.015007179230451584,-0.020903950557112694,-0.00729359919205308
1761478224955976700,5.089976806640625,-0.020597953349351883,-0.022310364991426468,0.0011574097443372011
1761478224966012700,5.1000126953125,-0.0173875130712986,-0.010912036523222923,0.014624749310314655
1761478224976049700,5.110049560546875,-0.02016359195113182,0.0036075180396437645,0.03044712170958519
1761478224986085600,5.120085693359375,-0.02545369416475296,0.012011655606329441,0.035468246787786484
1761478224996121600,5.13012158203125,-0.022233933210372925,0.015093465335667133,0.02130209282040596
1761478225006157600,5.140157470703125,-0.01998009905219078,0.010401774197816849,-0.0037819549906998873
1761478225016193500,5.150193603515625,-0.01335681788623333,-0.00392762990668416,-0.031809061765670776
1761478225026230800,5.160230712890625,-0.0065015750005841255,-0.010573548264801502,-0.04866953566670418
1761478225036266800,5.170266845703125,0.004973187111318111,-0.007867776788771152,-0.048103079199790955
1761478225046302700,5.180302734375,0.008110923692584038,0.007516772020608187,-0.03822195529937744
1761478225056338700,5.190338623046875,0.003534813644364476,0.020065320655703545,-0.027412716299295425
1761478225066375700,5.200375732421875,0.005979329347610474,0.019753998145461082,-0.023806529119610786
1761478225076411600,5.21041162109375,0.014561631716787815,0.012621252797544003,-0.017792312428355217
1761478225086447600,5.220447509765625,0.026577282696962357,0.014902516268193722,-0.005396629683673382
1761478225096483600,5.230483642578125,0.03738012909889221,0.01769244484603405,0.005877862684428692
1761478225106519800,5.240519775390625,0.04490622133016586,0.016153402626514435,0.016947558149695396
1761478225116556500,5.250556640625,0.043420445173978806,0.017721738666296005,0.01794065162539482
1761478225126592500,5.260592529296875,0.04440155252814293,0.009161806665360928,0.013109676539897919
1761478225136628700,5.270628662109375,0.04952627420425415,-0.006323143374174833,0.005405684467405081
1761478225146665000,5.2806650390625,0.05164215341210365,-0.012617258355021477,0.012378105893731117
1761478225156701000,5.290700927734375,0.043892890214920044,-0.012017514556646347,0.019601929932832718
1761478225166738000,5.300738037109375,0.034094054251909256,0.003695402294397354,0.04092080146074295
1761478225176774000,5.31077392578125,0.02299213409423828,0.009632120840251446,0.05553196743130684
1761478225186809900,5.320809814453125,0.005855225957930088,-0.0019233349012210965,0.054364170879125595
1761478225196845800,5.330845703125,0.00392816262319684,-0.0015270565636456013,0.05166985094547272
1761478225206882800,5.3408828125,-0.004758536349982023,-0.012864133343100548,0.04109417274594307
1761478225216918800,5.350918701171875,-0.019346000626683235,-0.01613422855734825,0.02882152795791626
1761478225226954800,5.360954833984375,-0.033843450248241425,-0.016577910631895065,0.019166769459843636
1761478225236990700,5.37099072265625,-0.045936331152915955,-0.014623151160776615,0.005085572600364685
1761478225247026700,5.381026611328125,-0.04423510655760765,-0.009387643076479435,-0.009069927968084812
1761478225257063700,5.391063720703125,-0.038109567016363144,-0.01230353768914938,-0.028738969936966896
1761478225267100000,5.401099853515625,-0.027634290978312492,-0.00866273045539856,-0.04280365630984306
1761478225277136000,5.411135986328125,-0.022829681634902954,-0.007131412625312805,-0.05543742701411247
1761478225287171800,5.421171875,-0.016524914652109146,-0.004311125259846449,-0.05728938803076744
1761478225297207800,5.431207763671875,-0.01791987754404545,-0.0015566176734864712,-0.0432787649333477
1761478225307244800,5.441244873046875,-0.024582041427493095,0.013714746572077274,-0.023966586217284203
1761478225317280800,5.45128076171875,-0.028667330741882324,0.030793864279985428,-0.005872003734111786
1761478225327316700,5.461316650390625,-0.03056776337325573,0.026016686111688614,0.001913214917294681
1761478225337352700,5.471352783203125,-0.01242151577025652,0.009701629169285297,0.0014447649009525776
1761478225347389700,5.4813896484375,0.0068267472088336945,-0.012976785190403461,-0.014108361676335335
1761478225357425700,5.49142578125,0.02616768889129162,-0.024296285584568977,-0.014219416305422783
1761478225367461600,5.501461669921875,0.03153662011027336,-0.021857095882296562,-0.010122409090399742
1761478225377497600,5.51149755859375,0.026277409866452217,-0.009845173917710781,-0.0005872269975952804
1761478225387533600,5.521533447265625,0.018385931849479675,0.004830707795917988,0.009544236585497856
1761478225397570800,5.53157080078125,0.011217234656214714,0.018459435552358627,0.013604491949081421
1761478225407606800,5.541606689453125,0.0006628608098253608,0.024325579404830933,0.009858756326138973
1761478225417642800,5.551642822265625,-0.011229218915104866,0.031678035855293274,0.002004827605560422
1761478225427678700,5.5616787109375,-0.016082296147942543,0.03620647266507149,-0.013251889497041702
1761478225437714700,5.571714599609375,-0.02166348323225975,0.0182903241366148,-0.034447457641363144
1761478225447751700,5.581751708984375,-0.02185230143368244,-0.004062385763972998,-0.05324697494506836
1761478225457787600,5.59178759765625,-0.014338991604745388,-0.010489125736057758,-0.05374259129166603
1761478225467823600,5.60182373046875,-0.009652893990278244,-0.01679043099284172,-0.045392781496047974
1761478225477859800,5.61185986328125,-0.00974477268755436,-0.008388690650463104,-0.024276310577988625
1761478225487895800,5.621895751953125,-0.013331517577171326,0.007757255341857672,-0.002763562137261033
1761478225497932800,5.631932861328125,-0.01901097595691681,0.015690546482801437,0.01236558984965086
1761478225507968800,5.64196875,-0.01985333301126957,0.016317719593644142,0.016936639323830605
1761478225518004700,5.652004638671875,-0.019229620695114136,0.00398648576810956,0.008139952085912228
1761478225528040700,5.662040771484375,-0.014250308275222778,-0.003939347807317972,-0.0014397049089893699
1761478225538078000,5.672077880859375,-0.007866178639233112,-0.012028167024254799,-0.004037618637084961
1761478225548114000,5.682114013671875,0.0013379721203818917,-0.012509666383266449,-0.0009542105835862458
1761478225558150000,5.69214990234375,0.0010381002211943269,-0.01056476030498743,0.0006301039247773588
1761478225568185900,5.702185791015625,-0.003317499766126275,-0.005255215801298618,0.0015811186749488115
1761478225578221800,5.712221923828125,-0.004886634182184935,-0.0018690064316615462,0.000290018244413659
1761478225588258800,5.7222587890625,-0.00788508728146553,0.004257595632225275,-0.005503688473254442
1761478225598294800,5.732294677734375,-0.011976235546171665,0.00657694274559617,-0.019962789490818977
1761478225608330800,5.742330810546875,-0.013067065738141537,0.01082921214401722,-0.03485758230090141
1761478225618366700,5.75236669921875,-0.014099041000008583,0.008460596203804016,-0.04354880750179291
1761478225628402700,5.762402587890625,-0.020436566323041916,-0.003980626817792654,-0.047749146819114685
1761478225638439700,5.772439697265625,-0.018936673179268837,-0.0028543761000037193,-0.039507996290922165
1761478225648475600,5.7824755859375,-0.016697753220796585,-0.0002620550512801856,-0.03081304021179676
1761478225658511600,5.79251171875,-0.007257380057126284,-0.0034109766129404306,-0.019604593515396118
1761478225668547600,5.802547607421875,-0.0013044163351878524,-0.0036541232839226723,-0.009692574851214886
1761478225678583600,5.81258349609375,0.004581968765705824,-0.009423329494893551,-0.003318032482638955
1761478225688620800,5.822620849609375,0.003338538808748126,-0.0043859598226845264,0.004054929129779339
1761478225698656800,5.83265673828125,0.00040772996726445854,-0.011006312444806099,-0.0062712118960917
1761478225708692700,5.842692626953125,-0.011530954390764236,-0.016694026067852974,-0.01104732509702444
1761478225718728700,5.852728759765625,-0.027293140068650246,0.0038485340774059296,-0.013717143796384335
1761478225728764700,5.8627646484375,-0.03645095229148865,0.018546253442764282,-0.012062521651387215
1761478225738801700,5.8728017578125,-0.03834312781691551,0.0248427651822567,-0.014726215042173862
1761478225748837600,5.882837646484375,-0.018907111138105392,0.021265607327222824,-0.021339111030101776
1761478225758873600,5.89287353515625,-0.005515939090400934,0.006870689336210489,-0.027344539761543274
1761478225768909300,5.902909423828125,0.001586178783327341,0.0006263754912652075,-0.027467044070363045
1761478225778946300,5.9129462890625,-0.008952482603490353,0.0036543896421790123,-0.02684785984456539
1761478225788982300,5.922982177734375,-0.02046266384422779,-0.0007728493656031787,-0.02570163458585739
1761478225799018500,5.9330185546875,-0.02594078704714775,0.002511360915377736,-0.020561201497912407
1761478225809054500,5.943054443359375,-0.02508378215134144,-0.002037584548816085,-0.01486256904900074
1761478225819090400,5.95309033203125,-0.015333415940403938,-0.0016972325975075364,0.007664577569812536
1761478225829127400,5.96312744140625,-0.009410812519490719,0.0057348511181771755,0.032096683979034424
1761478225839163400,5.973163330078125,-0.004519117996096611,0.006487726699560881,0.04566575586795807
1761478225849199400,5.983199462890625,0.003085272153839469,-0.00959536898881197,0.03930346295237541
1761478225859235300,5.9932353515625,0.01552596315741539,-0.030817300081253052,0.030841801315546036
1761478225869271300,6.003271240234375,0.020122045651078224,-0.03936817869544029,0.02406139485538006
1761478225879308300,6.013308349609375,0.022726617753505707,-0.02966282144188881,0.021261878311634064
1761478225889344300,6.02334423828125,0.0256947111338377,-0.021280787885189056,0.029920082539319992
1761478225899380200,6.033380126953125,0.022649651393294334,-0.000035686356568476185,0.042204178869724274
1761478225909416400,6.04341650390625,0.01552543044090271,0.007934622466564178,0.03479606285691261
1761478225919452400,6.053452392578125,0.015894543379545212,-0.0014223942998796701,0.015793077647686005
1761478225929489400,6.063489501953125,0.013938718475401402,-0.008971923030912876,-0.011285144835710526
1761478225939525400,6.073525390625,0.010151171125471592,-0.018859442323446274,-0.02799008972942829
1761478225949561300,6.083561279296875,0.0014223942998796701,-0.01332699041813612,-0.03350096940994263
1761478225959597300,6.093597412109375,-0.01593662239611149,0.008066182024776936,-0.02521001547574997
1761478225969633300,6.10363330078125,-0.019757725298404694,0.023125559091567993,-0.019714849069714546
1761478225979670300,6.113670166015625,-0.022973492741584778,0.02382064424455166,-0.024156734347343445
1761478225989706200,6.123706298828125,-0.019658390432596207,0.019578760489821434,-0.03617105260491371
1761478225999742200,6.1337421875,-0.019032547250390053,0.008294681087136269,-0.037638988345861435
1761478226009778200,6.143778076171875,-0.019784091040492058,0.0001816275907913223,-0.042870502918958664
1761478226019814100,6.153814208984375,-0.012102202512323856,-0.0029590383637696505,-0.03960439935326576
1761478226029851400,6.163851318359375,-0.007960454560816288,-0.008970857597887516,-0.03332919627428055
1761478226039887400,6.173887451171875,-0.0027691549621522427,-0.011062238365411758,-0.025437982752919197
1761478226049923300,6.18392333984375,0.0017294568242505193,-0.010801248252391815,-0.01278663519769907
1761478226059959300,6.193959228515625,0.0020759340841323137,-0.007892810739576817,-0.0007741809240542352
1761478226069995500,6.20399560546875,0.0013699301052838564,-0.0024730113800615072,0.012836703099310398
1761478226080032300,6.2140322265625,0.0006655239267274737,0.0002596582053229213,0.026392724364995956
1761478226090068200,6.224068115234375,-0.0021193434949964285,-0.00571833923459053,0.03845284879207611
1761478226100104400,6.2341044921875,-0.008916796185076237,-0.005376123357564211,0.053765758872032166
1761478226110140400,6.244140380859375,-0.014421016909182072,-0.0070427292957901955,0.05582038685679436
1761478226120176400,6.25417626953125,-0.012292618863284588,-0.013285178691148758,0.04319993406534195
1761478226130213400,6.26421337890625,-0.002508165081962943,-0.015536881983280182,0.02845774032175541
1761478226140249300,6.274249267578125,0.00561207951977849,-0.010088853538036346,0.012922190129756927
1761478226150285300,6.284285400390625,0.013715012930333614,-0.0049766493029892445,-0.0032320122700184584
1761478226160321300,6.2943212890625,0.017720673233270645,-0.002968625631183386,-0.02232181653380394
1761478226170357200,6.304357177734375,0.014217019081115723,0.0024887239560484886,-0.03327060490846634
1761478226180394500,6.31439453125,0.007797469384968281,0.009279518388211727,-0.041730403900146484
1761478226190430500,6.324430419921875,0.00009747169679030776,0.005547630600631237,-0.046911049634218216
1761478226200466400,6.334466552734375,-0.009856625460088253,-0.00006205165118444711,-0.03780490159988403
1761478226210502400,6.34450244140625,-0.01720322109758854,0.007929561659693718,-0.026337064802646637
1761478226220538400,6.354538330078125,-0.02352689765393734,0.006044310517609119,-0.01067821029573679
1761478226230575400,6.364575439453125,-0.022538332268595695,-0.002356364857405424,-0.008167915046215057
1761478226240611300,6.374611328125,-0.013229519128799438,-0.008699748665094376,0.0013411679537966847
1761478226250647300,6.384647216796875,0.0010343717876821756,-0.01073679979890585,0.005359079223126173
1761478226260683300,6.394683349609375,0.011461446061730385,-0.009491239674389362,0.006959639023989439
1761478226270719200,6.40471923828125,0.01474645547568798,-0.007423028815537691,0.010318949818611145
1761478226280756200,6.414756103515625,0.005992378573864698,-0.010871290229260921,0.01757393404841423
1761478226290792200,6.424792236328125,-0.0073655047453939915,-0.00583605095744133,0.026023078709840775
1761478226300828200,6.434828125,-0.008784702979028225,-0.004180363845080137,0.022771891206502914
1761478226310864100,6.444864013671875,-0.007721036672592163,0.0011675298446789384,0.013493704609572887
1761478226320900400,6.454900390625,-0.008930910378694534,-0.0030035129748284817,-0.005845638457685709
1761478226330937300,6.464937255859375,-0.011009774170815945,-0.0008191883680410683,-0.021214740350842476
1761478226340973300,6.474973388671875,-0.010395648889243603,-0.005505020264536142,-0.029678532853722572
1761478226351009300,6.48500927734375,-0.02087625302374363,-0.0025041704066097736,-0.03175952658057213
1761478226361045200,6.495045166015625,-0.02197294309735298,0.006369748618453741,-0.023805996403098106
1761478226371081500,6.50508154296875,-0.01671905815601349,0.007309844717383385,-0.020666928961873055
1761478226381118200,6.5151181640625,-0.0038064562249928713,0.005093828309327364,-0.01793079636991024
1761478226391154200,6.525154296875,0.0007536745979450643,-0.003816842334344983,-0.017556089907884598
1761478226401190400,6.5351904296875,0.003930825740098953,-0.005847502965480089,-0.02292369119822979
1761478226411226400,6.545226318359375,0.0023004384711384773,-0.00785659160465002,-0.021877335384488106
1761478226421262300,6.555262451171875,0.00518757151439786,-0.008498413488268852,-0.012230301275849342
1761478226431298300,6.56529833984375,0.011159710586071014,-0.00896899402141571,0.010270480997860432
1761478226441335600,6.57533544921875,0.00980336219072342,0.005645635072141886,0.033123597502708435
1761478226451371500,6.58537158203125,0.0027531760279089212,0.005003280472010374,0.036742568016052246
1761478226461407500,6.595407470703125,-0.0006077333819121122,0.0018996327416971326,0.030940072610974312
1761478226471443500,6.605443359375,0.0009126652730628848,-0.011960522271692753,0.011808455921709538
1761478226481479400,6.6154794921875,0.0029502499382942915,-0.021689049899578094,-0.007676561828702688
1761478226491516400,6.625516357421875,0.003999535460025072,-0.021870411932468414,-0.01697126030921936
1761478226501552400,6.635552490234375,-0.008461128920316696,-0.017179518938064575,-0.01889193244278431
1761478226511588400,6.64558837890625,-0.025023328140378,0.00036724991514347494,-0.009749832563102245
1761478226521624300,6.655624267578125,-0.040045153349637985,0.018199510872364044,-0.0019646140281111
1761478226531660300,6.665660400390625,-0.04384947940707207,0.025898441672325134,-0.005257346201688051
1761478226541697300,6.675697265625,-0.04530249908566475,0.019709521904587746,-0.022189725190401077
1761478226551733200,6.685733154296875,-0.03518301993608475,0.016347281634807587,-0.035228293389081955
1761478226561769200,6.695769287109375,-0.022698653861880302,0.01344816479831934,-0.04661357402801514
1761478226571805200,6.70580517578125,-0.004186489153653383,0.010873686522245407,-0.05949395149946213
1761478226581841200,6.715841064453125,0.009441704489290714,-0.005637645721435547,-0.0688171461224556
1761478226591878400,6.72587841796875,0.020440293475985527,-0.015081214718520641,-0.07232639193534851
1761478226601914400,6.735914306640625,0.0199808981269598,-0.012139220722019672,-0.057024404406547546
1761478226611950300,6.745950439453125,0.015588014386594296,-0.004099670331925154,-0.027303526178002357
1761478226621986300,6.755986328125,0.004027498420327902,0.012937103398144245,0.010318949818611145
1761478226632022300,6.766022216796875,-0.003229881636798382,0.029194103553891182,0.04152347519993782
1761478226642059300,6.776059326171875,-0.004774515051394701,0.023392140865325928,0.052930593490600586
1761478226652095200,6.78609521484375,0.008716260083019733,-0.0017174725653603673,0.041786596179008484
1761478226662131200,6.796131103515625,0.0198016669601202,-0.02389175072312355,0.023090671747922897
1761478226672167400,6.80616748046875,0.028309136629104614,-0.03767387568950653,0.0054845139384269714
1761478226682203400,6.816203369140625,0.024113059043884277,-0.043113380670547485,-0.007753793615847826
1761478226692240100,6.826240234375,0.008548746816813946,-0.033901240676641464,-0.004930043593049049
1761478226702276400,6.8362763671875,-0.00192200334277004,-0.009789779782295227,0.009128251112997532
1761478226712312300,6.846312255859375,-0.010545585304498672,0.006518885493278503,0.018208298832178116
1761478226722348300,6.856348388671875,-0.013659353367984295,0.014090784825384617,0.019899139180779457
1761478226732384300,6.86638427734375,-0.01726633869111538,0.011141334660351276,0.010971425101161003
1761478226742420500,6.87642041015625,-0.01799764297902584,0.003385410411283374,-0.00980629213154316
1761478226752457500,6.88645751953125,-0.013923006132245064,-0.0073228939436376095,-0.02893737517297268
1761478226762493400,6.896493408203125,-0.0024463797453790903,-0.011446000076830387,-0.04145556315779686
1761478226772529700,6.90652978515625,0.0007273092633113265,-0.012178102508187294,-0.04272722452878952
1761478226782565600,6.916565673828125,0.0017028251895681024,-0.009500826708972454,-0.036009665578603745
1761478226792601600,6.9266015625,-0.005939914379268885,-0.006918626371771097,-0.01920245587825775
1761478226802638600,6.936638671875,-0.019847208634018898,0.005510346498340368,-0.0009070726810023189
1761478226812674600,6.946674560546875,-0.016208531334996223,0.001749430550262332,0.010421748273074627
1761478226822710500,6.95671044921875,-0.00815166998654604,-0.008049936965107918,0.014406636357307434
1761478226832746500,6.96674658203125,0.002311623888090253,-0.024220118299126625,0.01829272136092186
1761478226842782500,6.976782470703125,-0.0006567355012521148,-0.01792999729514122,0.017842380329966545
1761478226852819700,6.98681982421875,-0.012134427204728127,-0.009917079471051693,0.011107511818408966
1761478226862855700,6.996855712890625,-0.020015252754092216,-0.00555242458358407,0.005092230159789324
1761478226872891600,7.0068916015625,-0.027523769065737724,-0.002013616031035781,-0.0015656723408028483
1761478226882927600,7.016927734375,-0.03129533678293228,-0.008790561929345131,-0.015244199894368649
1761478226892963600,7.026963623046875,-0.02502971887588501,-0.017527062445878983,-0.027580760419368744
1761478226903000600,7.03700048828125,-0.019463978707790375,-0.02401532046496868,-0.03038480319082737
1761478226913036500,7.04703662109375,-0.013622068800032139,-0.027112843468785286,-0.027366643771529198
1761478226923072500,7.057072509765625,-0.011322695761919022,-0.023380955681204796,-0.010968228802084923
1761478226933108500,7.0671083984375,-0.01739496923983097,-0.003364904085174203,0.005833121482282877
1761478226943144400,7.07714453125,-0.017608022317290306,0.01155891828238964,0.017407752573490143
1761478226953180700,7.0871806640625,-0.009370865300297737,0.018731342628598213,0.01817367784678936
1761478226963217400,7.097217529296875,-0.000391218374716118,0.0006948187365196645,0.004120443016290665
1761478226973253600,7.107253662109375,0.01631505787372589,-0.019510850310325623,-0.006988134700804949
1761478226983289600,7.11728955078125,0.018008295446634293,-0.03241493180394173,-0.015782691538333893
1761478226993325800,7.127325927734375,0.012862801551818848,-0.028851356357336044,-0.01678883284330368
1761478227003361800,7.13736181640625,-0.0015022892039269209,-0.011516041122376919,-0.0037292244378477335
1761478227013398500,7.1473984375,-0.004203533288091421,0.0006410228670574725,0.010447048582136631
1761478227023434800,7.157434814453125,-0.003424558788537979,0.015049257315695286,0.023673903197050095
1761478227033470700,7.167470703125,-0.00027324032271280885,0.016705211251974106,0.018867164850234985
1761478227043506700,7.177506591796875,0.004770254250615835,0.005533515941351652,0.0017624800093472004
1761478227053542700,7.187542724609375,0.016333166509866714,-0.012679043225944042,-0.018102305009961128
1761478227063578600,7.19757861328125,0.019829364493489265,-0.017164606600999832,-0.02292848564684391
1761478227073615600,7.20761572265625,0.015370966866612434,-0.008312790654599667,-0.02948572114109993
1761478227083651600,7.217651611328125,0.0028040423057973385,0.0043561323545873165,-0.029410086572170258
1761478227093687600,7.2276875,-0.005919408053159714,0.010944526642560959,-0.021440576761960983
1761478227103723500,7.2377236328125,-0.013853497803211212,0.012345349416136742,-0.017769675701856613
1761478227113759500,7.247759521484375,-0.014260428957641125,0.015074290335178375,-0.015320898965001106
1761478227123796700,7.257796630859375,-0.007050452753901482,0.0037800907157361507,-0.015327823348343372
1761478227133832700,7.267832763671875,0.007411577273160219,-0.0029262814205139875,-0.013350958935916424
1761478227143868700,7.27786865234375,0.014593590050935745,0.0029286781791597605,-0.009120794013142586
1761478227153904600,7.287904541015625,0.015326491557061672,0.0012034825049340725,-0.006161223165690899
1761478227163940600,7.297940673828125,0.01041482388973236,-0.007244064472615719,-0.005831257440149784
1761478227173977600,7.3079775390625,0.007791610434651375,-0.00768748065456748,-0.0067662931978702545
1761478227184013600,7.318013671875,0.0019355855183675885,-0.007958856411278248,0.00011611382069531828
1761478227194049500,7.328049560546875,-0.003944940399378538,0.00017603494052309543,0.01477628294378519
1761478227204085500,7.33808544921875,-0.005607019178569317,0.0052110073156654835,0.03458647429943085
1761478227214121500,7.34812158203125,-0.0026770094409585,0.009754892438650131,0.04436693340539932
1761478227224157700,7.35815771484375,0.0024865935556590557,0.008095743134617805,0.04530170187354088
1761478227234194400,7.3681943359375,-0.002269545802846551,-0.002441852353513241,0.023179087787866592
1761478227244230400,7.37823046875,-0.0029356025625020266,-0.013454290106892586,-0.004573446698486805
1761478227254266600,7.3882666015625,-0.013685451820492744,-0.018818428739905357,-0.021397434175014496
1761478227264302800,7.398302734375,-0.019894879311323166,-0.0035542547702789307,-0.02719540148973465
1761478227274338800,7.4083388671875,-0.025743180885910988,0.007534082513302565,-0.030588269233703613
1761478227284375600,7.41837548828125,-0.024470455944538116,0.013970144093036652,-0.0322711206972599
1761478227294411800,7.428411865234375,-0.021337779238820076,0.014814898371696472,-0.02845853939652443
1761478227304447700,7.43844775390625,-0.013909690082073212,0.005945506971329451,-0.030571224167943
1761478227314483700,7.448483642578125,-0.007660582661628723,-0.003340935567393899,-0.036310337483882904
1761478227324519700,7.458519775390625,0.00022556974727194756,0.00301736150868237,-0.04060681536793709
1761478227334555600,7.4685556640625,0.005351089406758547,-0.0046181874349713326,-0.03717959299683571
1761478227344592600,7.478592529296875,0.009854228235781193,-0.002767290687188506,-0.03741128742694855
1761478227354628600,7.488628662109375,0.016331834718585014,-0.005732720717787743,-0.02617274783551693
1761478227364664600,7.49866455078125,0.006000900641083717,-0.0032293491531163454,-0.012221512384712696
1761478227374700500,7.508700439453125,-0.00006338323146337643,0.007730357814580202,0.009397230111062527
1761478227384736500,7.518736572265625,-0.008669921196997166,0.014367753639817238,0.028026841580867767
1761478227394773800,7.528773681640625,-0.008840629830956459,0.003787281457334757,0.03545013442635536
1761478227404809700,7.538809814453125,0.003626160090789199,-0.016752881929278374,0.031742215156555176
1761478227414845700,7.548845703125,0.004277569241821766,-0.019041601568460464,0.028538433834910393
1761478227424881700,7.558881591796875,0.0046544065698981285,-0.024602815508842468,0.02456020377576351
1761478227434917600,7.568917724609375,-0.003052248852327466,-0.013609551824629307,0.020238691940903664
1761478227444953600,7.57895361328125,-0.01350382436066866,-0.005769205745309591,0.01028725877404213
1761478227454990600,7.588990478515625,-0.02123551443219185,0.0007408913807012141,-0.005305815953761339
1761478227465026600,7.599026611328125,-0.028318457305431366,0.003855724586173892,-0.020419254899024963
1761478227475062500,7.6090625,-0.022530609741806984,0.0015883093001320958,-0.025500832125544548
1761478227485098500,7.619098388671875,-0.014540859498083591,0.00410499656572938,-0.024086426943540573
1761478227495134700,7.629134765625,-0.00669225724413991,0.013195430859923363,-0.013264939188957214
1761478227505171500,7.63917138671875,-0.0027020431589335203,0.0037593182642012835,-0.011872371658682823
1761478227515207400,7.64920751953125,-0.008375375531613827,-0.00923504400998354,-0.01317998394370079
1761478227525243600,7.65924365234375,-0.017673801630735397,-0.012006862089037895,-0.012113122269511223
1761478227535279600,7.669279541015625,-0.021735122427344322,-0.011117632500827312,-0.016924921423196793
1761478227545315600,7.679315673828125,-0.025363946333527565,0.0011768508702516556,-0.012461196631193161
1761478227555351800,7.689351806640625,-0.029505427926778793,0.01347825862467289,0.0032565132714807987
1761478227565388800,7.699388916015625,-0.02081979438662529,0.009984989650547504,0.01492328941822052
1761478227575424800,7.7094248046875,-0.01569480635225773,-0.009195095859467983,0.014913436025381088
1761478227585460700,7.719460693359375,-0.007698932196944952,-0.00794394314289093,0.02056892402470112
1761478227595496700,7.72949658203125,0.0019315907265990973,-0.015202389098703861,0.022589465603232384
1761478227605532700,7.73953271484375,0.0042733084410429,-0.008297078311443329,0.023917317390441895
1761478227615568600,7.749568603515625,0.002924150787293911,0.0003462109307292849,0.017354222014546394
1761478227625605600,7.759605712890625,0.002540922025218606,0.006143113598227501,0.003982224967330694
1761478227635641600,7.7696416015625,0.0020423782989382744,0.011206049472093582,-0.009526926092803478
1761478227645677600,7.779677490234375,0.003713511861860752,0.015266038477420807,-0.016591493040323257
1761478227655713500,7.789713623046875,0.006551376078277826,0.01420636661350727,-0.02449735254049301
1761478227665749500,7.79974951171875,0.012921923771500587,0.0010269149206578732,-0.01949247531592846
1761478227675786800,7.809786865234375,0.01936863735318184,0.008305334486067295,-0.006100236903876066
1761478227685822700,7.81982275390625,0.02003016695380211,0.01882854849100113,0.0005033374181948602
1761478227695858700,7.829858642578125,0.019631225615739822,0.010855576954782009,0.003931358456611633
1761478227705894700,7.839894775390625,0.019408851861953735,-0.001662877737544477,0.0006330333999358118
1761478227715930600,7.8499306640625,0.010758372023701668,-0.011691543273627758,-0.0019166769925504923
1761478227725966600,7.859966552734375,-0.0059841228649020195,-0.020380638539791107,0.001157143502496183
1761478227736003600,7.870003662109375,-0.013525928370654583,-0.0067758806981146336,0.025117870420217514
1761478227746039600,7.88003955078125,-0.018603511154651642,-0.0004719121498055756,0.04061293974518776
1761478227756075500,7.890075439453125,-0.01341620646417141,-0.0005022721597924829,0.04652808606624603
1761478227766111500,7.900111572265625,-0.013254553079605103,0.013364274986088276,0.042502451688051224
1761478227776147700,7.910147705078125,-0.012662798166275024,0.0032706281635910273,0.022419821470975876
1761478227786184700,7.920184814453125,-0.005853095557540655,-0.004970257636159658,0.003547064261510968
1761478227796220700,7.930220703125,0.0034946000669151545,-0.015528359450399876,0.0017659420846030116
1761478227806257000,7.9402568359375,0.0010546117555350065,-0.007552724797278643,0.008280833251774311
1761478227816292900,7.95029296875,-0.00375958438962698,0.010745855048298836,0.008824650198221207
1761478227826328800,7.960328857421875,-0.0059569585137069225,0.011269432492554188,0.009158611297607422
1761478227836364800,7.97036474609375,-0.009289638139307499,0.009909089654684067,-0.0013203952694311738
1761478227846401800,7.98040185546875,-0.008893360383808613,0.003993410151451826,-0.012886503711342812
1761478227856437800,7.990437744140625,-0.0046512107364833355,-0.0010306433541700244,-0.016816264018416405
1761478227866473700,8.0004736328125,0.0038157771341502666,-0.002590989461168647,-0.015163772739470005
1761478227876509700,8.010509765625,0.005795304663479328,-0.007446997333317995,-0.007574296556413174
1761478227886545700,8.020545654296875,0.005800098646432161,-0.007733287289738655,-0.002369148191064596
1761478227896581600,8.03058154296875,0.0032551817130297422,-0.0007302387384697795,0.002046905690804124
1761478227906618600,8.04061865234375,-0.007812915369868279,-0.001270594191737473,0.0009486179915256798
1761478227916654600,8.050654541015625,-0.01769004762172699,0.00021198761533014476,0.0014745922526344657
1761478227926690800,8.06069091796875,-0.022359900176525116,0.006405168678611517,0.02257561683654785
1761478227936726800,8.070726806640625,-0.02677195891737938,-0.01398905273526907,0.0409354493021965
1761478227946762800,8.0807626953125,-0.027997812256217003,-0.0031214910559356213,0.046788010746240616
1761478227956798700,8.090798828125,-0.013954698108136654,-0.003576891729608178,0.036496225744485855
1761478227966835700,8.100835693359375,0.0018290589796379209,-0.01290514599531889,0.021995579823851585
1761478227976871700,8.11087158203125,0.009386844001710415,-0.006895989179611206,0.014003166928887367
1761478227986907600,8.12090771484375,0.006707437336444855,0.0017840516520664096,0.0002798982313834131
1761478227996943600,8.130943603515625,-0.002977946773171425,-0.0034061830956488848,-0.013704360462725163
1761478228006979600,8.1409794921875,-0.004148139618337154,0.0035657063126564026,-0.020531905815005302
1761478228017016600,8.1510166015625,-0.002685797866433859,0.009414274245500565,-0.014160027727484703
1761478228027052500,8.161052490234376,-0.0027632960118353367,-0.003960919566452503,-0.00899509247392416
1761478228037088500,8.171088623046876,-0.00983478780835867,-0.008519185706973076,-0.010977017693221569
1761478228047124700,8.181124755859376,-0.010186591185629368,-0.018021078780293465,0.014512630179524422
1761478228057160700,8.19116064453125,-0.017410416156053543,-0.007269097957760096,0.09248466044664383
1761478228067196700,8.20119677734375,-0.03466397151350975,0.157728910446167,0.173304945230484
1761478228077233700,8.211233642578126,-0.05324617773294449,0.14551831781864166,0.1953393965959549
1761478228087270000,8.221269775390626,-0.0651337280869484,0.13837598264217377,0.20087452232837677
1761478228097305900,8.231305908203124,-0.002656769473105669,0.06738968938589096,0.002148105762898922
1761478228107341800,8.241341796875,0.04204518720507622,-0.08350235223770142,-0.1440618336200714
1761478228117377800,8.251377685546874,0.04905755817890167,-0.12538215517997742,-0.13013909757137299
1761478228127413800,8.261413818359374,0.006631537340581417,-0.08660812675952911,-0.09404953569173813
1761478228137450800,8.27145068359375,-0.040236636996269226,-0.03073953650891781,-0.05446750298142433
1761478228147486700,8.28148681640625,-0.048652756959199905,0.01053599826991558,-0.0006934871198609471
1761478228157522700,8.291522705078124,-0.04255012422800064,0.01961444690823555,-0.0020327907986938953
