time,seconds_elapsed,z,y,x
1761478288737627600,0.077627685546875,-0.9595489501953125,-0.150665283203125,-0.130706787109375
1761478288747663600,0.08766357421875,-0.9548797607421875,-0.1510772705078125,-0.1491241455078125
1761478288757699800,0.097699951171875,-0.9453125,-0.1606903076171875,-0.1620635986328125
1761478288767735800,0.10773583984375,-0.950347900390625,-0.1537628173828125,-0.1792755126953125
1761478288777771800,0.117771728515625,-0.9534912109375,-0.1519622802734375,-0.1937713623046875
1761478288787807700,0.127807861328125,-0.987030029296875,-0.1456756591796875,-0.195953369140625
1761478288797843700,0.13784375,-1.028472900390625,-0.13336181640625,-0.20843505859375
1761478288807879700,0.147879638671875,-1.0330657958984375,-0.1370086669921875,-0.181610107421875
1761478288817916000,0.157916015625,-1.0160980224609375,-0.139984130859375,-0.1446990966796875
1761478288827951900,0.167951904296875,-0.999847412109375,-0.14251708984375,-0.1383514404296875
1761478288837987800,0.17798779296875,-0.99267578125,-0.1478118896484375,-0.16064453125
1761478288848023800,0.18802392578125,-0.9824981689453125,-0.151885986328125,-0.1846771240234375
1761478288858059800,0.198059814453125,-0.9806976318359375,-0.148162841796875,-0.191436767578125
1761478288868096000,0.208095947265625,-0.9911651611328125,-0.141510009765625,-0.183258056640625
1761478288878132000,0.218132080078125,-0.9940338134765625,-0.139251708984375,-0.1725921630859375
1761478288888168000,0.22816796875,-0.9835052490234375,-0.142059326171875,-0.167572021484375
1761478288898204000,0.238203857421875,-0.9712066650390625,-0.1443939208984375,-0.172637939453125
1761478288908240000,0.248239990234375,-0.968658447265625,-0.1473541259765625,-0.1808013916015625
1761478288918275800,0.25827587890625,-0.9650726318359375,-0.1460418701171875,-0.1856689453125
1761478288928311800,0.268311767578125,-0.970123291015625,-0.1421356201171875,-0.1881866455078125
1761478288938347800,0.27834765625,-0.991180419921875,-0.1389007568359375,-0.1881103515625
1761478288948383700,0.2883837890625,-1.0066375732421875,-0.1361236572265625,-0.1864166259765625
1761478288958419700,0.298419677734375,-1.0070648193359375,-0.1396484375,-0.1738739013671875
1761478288968455700,0.30845556640625,-1.0054168701171875,-0.144317626953125,-0.1631011962890625
1761478288978492000,0.318491943359375,-1.0107574462890625,-0.14404296875,-0.1705474853515625
1761478288988527900,0.32852783203125,-1.00701904296875,-0.14361572265625,-0.176177978515625
1761478288998563800,0.338563720703125,-1.0020904541015625,-0.14776611328125,-0.1755218505859375
1761478289008599800,0.348599853515625,-0.9940948486328125,-0.1478271484375,-0.1746978759765625
1761478289018635800,0.3586357421875,-0.98431396484375,-0.14898681640625,-0.1735382080078125
1761478289028671700,0.368671630859375,-0.9768524169921875,-0.1541290283203125,-0.168975830078125
1761478289038707700,0.378707763671875,-0.96771240234375,-0.152587890625,-0.166534423828125
1761478289048743700,0.38874365234375,-0.9653778076171875,-0.1474761962890625,-0.1665802001953125
1761478289058780000,0.39877978515625,-0.9829254150390625,-0.140625,-0.1686859130859375
1761478289068816000,0.40881591796875,-1.0091705322265625,-0.1356658935546875,-0.1820831298828125
1761478289078851800,0.418851806640625,-1.01593017578125,-0.1404266357421875,-0.1855010986328125
1761478289088887800,0.4288876953125,-1.0016021728515625,-0.1486663818359375,-0.1785736083984375
1761478289098924000,0.438924072265625,-0.9842529296875,-0.15435791015625,-0.1710052490234375
1761478289108960000,0.4489599609375,-0.97259521484375,-0.1540679931640625,-0.168853759765625
1761478289118996000,0.458995849609375,-0.9651031494140625,-0.15167236328125,-0.16754150390625
1761478289129032000,0.469031982421875,-0.9674835205078125,-0.1493377685546875,-0.16448974609375
1761478289139068000,0.47906787109375,-0.9786224365234375,-0.1453704833984375,-0.1663360595703125
1761478289149103900,0.489103759765625,-0.993438720703125,-0.139678955078125,-0.174713134765625
1761478289159139800,0.499139892578125,-1.00482177734375,-0.14727783203125,-0.1772308349609375
1761478289169175800,0.50917578125,-1.005706787109375,-0.150665283203125,-0.1792755126953125
1761478289179211800,0.519211669921875,-0.9942626953125,-0.149993896484375,-0.1831512451171875
1761478289189247700,0.529247802734375,-0.9879913330078125,-0.152984619140625,-0.1811065673828125
1761478289199283700,0.53928369140625,-0.97998046875,-0.152130126953125,-0.17657470703125
1761478289209320700,0.54932080078125,-0.9752349853515625,-0.147186279296875,-0.1696624755859375
1761478289219356700,0.559356689453125,-0.9788360595703125,-0.14837646484375,-0.1613311767578125
1761478289229392600,0.569392578125,-0.9850921630859375,-0.1490936279296875,-0.1661224365234375
1761478289239428900,0.579428955078125,-0.9955291748046875,-0.1463470458984375,-0.1768798828125
1761478289249464800,0.58946484375,-0.9979095458984375,-0.1508941650390625,-0.1801605224609375
1761478289259500800,0.599500732421875,-0.9896697998046875,-0.15020751953125,-0.1814727783203125
1761478289269536800,0.609536865234375,-0.986663818359375,-0.1466064453125,-0.1796112060546875
1761478289279572700,0.61957275390625,-0.988006591796875,-0.145477294921875,-0.17498779296875
1761478289289609000,0.62960888671875,-0.9850006103515625,-0.150238037109375,-0.1651153564453125
1761478289299645000,0.63964501953125,-0.978912353515625,-0.1515655517578125,-0.1571044921875
1761478289309681000,0.649680908203125,-0.9780731201171875,-0.149200439453125,-0.160186767578125
1761478289319716900,0.659716796875,-0.9891204833984375,-0.1478729248046875,-0.1729583740234375
1761478289329752800,0.6697529296875,-0.9962158203125,-0.1478424072265625,-0.1788330078125
1761478289339788800,0.679788818359375,-0.9929962158203125,-0.14813232421875,-0.17462158203125
1761478289349825000,0.689824951171875,-0.98663330078125,-0.1497955322265625,-0.16778564453125
1761478289359861000,0.699861083984375,-0.9889984130859375,-0.1507415771484375,-0.170013427734375
1761478289369897000,0.70989697265625,-0.990081787109375,-0.1524810791015625,-0.176788330078125
1761478289379933000,0.719932861328125,-0.981170654296875,-0.1552276611328125,-0.1759033203125
1761478289389969000,0.729968994140625,-0.984649658203125,-0.1536407470703125,-0.1716766357421875
1761478289400004900,0.7400048828125,-1.0000457763671875,-0.146514892578125,-0.169189453125
1761478289410040800,0.750040771484375,-1.00360107421875,-0.1446990966796875,-0.1604156494140625
1761478289420076800,0.760076904296875,-0.9962921142578125,-0.1458587646484375,-0.1578369140625
1761478289430112800,0.77011279296875,-0.988922119140625,-0.14801025390625,-0.167724609375
1761478289440148700,0.780148681640625,-0.9894866943359375,-0.1472320556640625,-0.1785430908203125
1761478289450184700,0.790184814453125,-0.9900665283203125,-0.1469268798828125,-0.1875152587890625
1761478289460221000,0.800220947265625,-0.98785400390625,-0.1446380615234375,-0.189483642578125
1761478289470257000,0.8102568359375,-0.985595703125,-0.14593505859375,-0.187652587890625
1761478289480292900,0.82029296875,-0.9742279052734375,-0.148468017578125,-0.1890106201171875
1761478289490328800,0.830328857421875,-0.965576171875,-0.1483306884765625,-0.1906890869140625
1761478289500364800,0.84036474609375,-0.9627838134765625,-0.1490325927734375,-0.1873779296875
1761478289510400800,0.85040087890625,-0.963287353515625,-0.1507415771484375,-0.1826019287109375
1761478289520436700,0.860436767578125,-0.979461669921875,-0.1479949951171875,-0.17840576171875
1761478289530472700,0.87047265625,-1.0084075927734375,-0.14495849609375,-0.1783905029296875
1761478289540508700,0.8805087890625,-1.0155792236328125,-0.145355224609375,-0.177215576171875
1761478289550544600,0.890544677734375,-1.00921630859375,-0.149566650390625,-0.1719970703125
1761478289560580600,0.90058056640625,-0.9940185546875,-0.1505889892578125,-0.165802001953125
1761478289570617000,0.9106171875,-0.9820098876953125,-0.1535186767578125,-0.162353515625
1761478289580653000,0.920653076171875,-0.9763031005859375,-0.15478515625,-0.1586151123046875
1761478289590689000,0.93068896484375,-0.982177734375,-0.1527099609375,-0.15838623046875
1761478289600725000,0.94072509765625,-0.9940643310546875,-0.149932861328125,-0.16748046875
1761478289610762000,0.950761962890625,-0.9991455078125,-0.1490325927734375,-0.1761474609375
1761478289620798000,0.9607978515625,-0.998443603515625,-0.1488189697265625,-0.1729583740234375
1761478289630834000,0.970833984375,-0.99285888671875,-0.14837646484375,-0.1671905517578125
1761478289640870000,0.980869873046875,-0.9858245849609375,-0.149566650390625,-0.1706695556640625
1761478289650905900,0.99090576171875,-0.98016357421875,-0.1515045166015625,-0.1768035888671875
1761478289660941800,1.00094189453125,-0.9817962646484375,-0.1479034423828125,-0.1812896728515625
1761478289670977800,1.010977783203125,-0.984161376953125,-0.146392822265625,-0.1794891357421875
1761478289681013800,1.021013671875,-0.98663330078125,-0.144317626953125,-0.173980712890625
1761478289691049700,1.0310498046875,-0.990142822265625,-0.14117431640625,-0.174896240234375
1761478289701085700,1.041085693359375,-0.995849609375,-0.1377410888671875,-0.180084228515625
1761478289711122000,1.051121826171875,-0.9920806884765625,-0.14068603515625,-0.183074951171875
1761478289721158000,1.061157958984375,-0.9831085205078125,-0.1454315185546875,-0.18719482421875
1761478289731193900,1.07119384765625,-0.9810943603515625,-0.145660400390625,-0.195159912109375
1761478289741229800,1.081229736328125,-0.9742431640625,-0.1474761962890625,-0.1923828125
1761478289751265800,1.091265869140625,-0.9725189208984375,-0.1476898193359375,-0.180084228515625
1761478289761301800,1.1013017578125,-0.977691650390625,-0.141693115234375,-0.1676025390625
1761478289771337700,1.111337646484375,-0.9870452880859375,-0.140716552734375,-0.162017822265625
1761478289781373700,1.121373779296875,-0.98809814453125,-0.144805908203125,-0.163177490234375
1761478289791409700,1.13140966796875,-0.9853057861328125,-0.1473236083984375,-0.168609619140625
1761478289801446000,1.14144580078125,-0.9898223876953125,-0.1467132568359375,-0.1737060546875
1761478289811481900,1.15148193359375,-0.9957733154296875,-0.14544677734375,-0.170989990234375
1761478289821518000,1.16151806640625,-1.0030517578125,-0.1453399658203125,-0.1668243408203125
1761478289831554000,1.171553955078125,-1.0056304931640625,-0.1438751220703125,-0.165771484375
1761478289841590300,1.18159033203125,-1.003875732421875,-0.14697265625,-0.1617889404296875
1761478289851626200,1.191626220703125,-1.007232666015625,-0.1502227783203125,-0.162353515625
1761478289861662200,1.201662109375,-1.0086212158203125,-0.1480865478515625,-0.166259765625
1761478289871698200,1.2116982421875,-1.0075836181640625,-0.1454620361328125,-0.1710968017578125
1761478289881734100,1.221734130859375,-1.005126953125,-0.143463134765625,-0.1783447265625
1761478289891770000,1.23177001953125,-0.9880523681640625,-0.145660400390625,-0.1775970458984375
1761478289901807000,1.24180712890625,-0.9676513671875,-0.1516571044921875,-0.1687469482421875
1761478289911843000,1.251843017578125,-0.9636993408203125,-0.1495361328125,-0.1658782958984375
1761478289921879000,1.261879150390625,-0.9781036376953125,-0.1450958251953125,-0.1703948974609375
1761478289931915000,1.2719150390625,-0.990234375,-0.1408538818359375,-0.1735992431640625
1761478289941951000,1.281950927734375,-0.9912261962890625,-0.13812255859375,-0.1790618896484375
1761478289951987000,1.291987060546875,-0.9884796142578125,-0.1378021240234375,-0.1883697509765625
1761478289962023000,1.30202294921875,-0.9800567626953125,-0.1408538818359375,-0.19598388671875
1761478289972059100,1.31205908203125,-0.97113037109375,-0.1444854736328125,-0.1949920654296875
1761478289982095000,1.32209521484375,-0.962493896484375,-0.1453704833984375,-0.187408447265625
1761478289992131000,1.332131103515625,-0.9697265625,-0.1441802978515625,-0.1805877685546875
1761478290002167000,1.3421669921875,-0.982269287109375,-0.1419677734375,-0.1764984130859375
1761478290012203000,1.352203125,-0.9886322021484375,-0.1443939208984375,-0.1725311279296875
1761478290022239200,1.3622392578125,-0.9910125732421875,-0.1489410400390625,-0.1654815673828125
1761478290032275200,1.372275146484375,-0.9970703125,-0.1497955322265625,-0.1633758544921875
1761478290042311200,1.382311279296875,-1.0087738037109375,-0.14654541015625,-0.16754150390625
1761478290052347100,1.39234716796875,-1.0174713134765625,-0.1465301513671875,-0.1718597412109375
1761478290062383000,1.402383056640625,-1.0193939208984375,-0.14642333984375,-0.1702423095703125
1761478290072419000,1.412419189453125,-1.0097503662109375,-0.1468963623046875,-0.1672210693359375
1761478290082455000,1.422455078125,-0.9962921142578125,-0.1462554931640625,-0.1653289794921875
1761478290092491300,1.4324912109375,-0.9798126220703125,-0.143585205078125,-0.1696929931640625
1761478290102527200,1.44252734375,-0.9644775390625,-0.1446533203125,-0.1707000732421875
1761478290112563200,1.452563232421875,-0.9569854736328125,-0.1405487060546875,-0.1693115234375
1761478290122599200,1.46259912109375,-0.9604949951171875,-0.138397216796875,-0.172821044921875
1761478290132635100,1.47263525390625,-0.9755706787109375,-0.1376953125,-0.1824493408203125
1761478290142671000,1.482671142578125,-0.9949493408203125,-0.1357269287109375,-0.1901702880859375
1761478290152708000,1.4927080078125,-1.006866455078125,-0.1383209228515625,-0.189727783203125
1761478290162744000,1.502744140625,-1.003570556640625,-0.142486572265625,-0.1852874755859375
1761478290172780000,1.512780029296875,-0.993011474609375,-0.142425537109375,-0.1813812255859375
1761478290182816000,1.52281591796875,-0.985107421875,-0.1430816650390625,-0.1792755126953125
1761478290192852000,1.53285205078125,-0.9741363525390625,-0.1414794921875,-0.1766510009765625
1761478290202888000,1.542887939453125,-0.9737396240234375,-0.141326904296875,-0.17352294921875
1761478290212924000,1.552923828125,-0.982696533203125,-0.1387176513671875,-0.175567626953125
1761478290222959900,1.5629599609375,-0.9937744140625,-0.1364288330078125,-0.1757965087890625
1761478290232996000,1.57299609375,-1.00341796875,-0.137054443359375,-0.1715087890625
1761478290243032000,1.583031982421875,-1.010009765625,-0.1379852294921875,-0.171722412109375
1761478290253068300,1.593068359375,-1.0076446533203125,-0.138763427734375,-0.17498779296875
1761478290263104300,1.603104248046875,-0.9993743896484375,-0.14385986328125,-0.1772613525390625
1761478290273140200,1.61314013671875,-0.9926300048828125,-0.1462249755859375,-0.1782379150390625
1761478290283176200,1.62317626953125,-0.98919677734375,-0.1456298828125,-0.179229736328125
1761478290293212200,1.633212158203125,-0.987579345703125,-0.145233154296875,-0.174346923828125
1761478290303248100,1.643248046875,-0.9851226806640625,-0.143707275390625,-0.1707763671875
1761478290313284000,1.6532841796875,-0.982818603515625,-0.1399078369140625,-0.169891357421875
1761478290323320000,1.663320068359375,-0.9831695556640625,-0.1378326416015625,-0.1686859130859375
1761478290333356000,1.67335595703125,-0.9893341064453125,-0.1358489990234375,-0.173675537109375
1761478290343392300,1.683392333984375,-0.9936981201171875,-0.134002685546875,-0.1808929443359375
1761478290353428200,1.69342822265625,-0.99609375,-0.1386260986328125,-0.1840057373046875
1761478290363464200,1.703464111328125,-0.990325927734375,-0.1427459716796875,-0.1865386962890625
1761478290373501200,1.713501220703125,-0.983856201171875,-0.142547607421875,-0.182403564453125
1761478290383537200,1.723537109375,-0.9785308837890625,-0.1390228271484375,-0.1781768798828125
1761478290393573000,1.733572998046875,-0.98052978515625,-0.1388397216796875,-0.1788177490234375
1761478290403609000,1.743609130859375,-0.98504638671875,-0.1361846923828125,-0.179168701171875
1761478290413645000,1.75364501953125,-0.9961395263671875,-0.1304473876953125,-0.1767120361328125
1761478290423681000,1.763680908203125,-1.00677490234375,-0.130218505859375,-0.1728515625
1761478290433717000,1.773717041015625,-1.0069122314453125,-0.133087158203125,-0.168060302734375
1761478290443753000,1.7837529296875,-1.006744384765625,-0.1373138427734375,-0.1707611083984375
1761478290453789000,1.793788818359375,-1.0055084228515625,-0.1422119140625,-0.176544189453125
1761478290463825000,1.803824951171875,-0.996185302734375,-0.1431732177734375,-0.180023193359375
1761478290473860900,1.81386083984375,-0.9827880859375,-0.1416015625,-0.1810455322265625
1761478290483897000,1.82389697265625,-0.974945068359375,-0.1385650634765625,-0.180694580078125
1761478290493933300,1.833933349609375,-0.97113037109375,-0.136962890625,-0.1781005859375
1761478290503969300,1.84396923828125,-0.9738006591796875,-0.13739013671875,-0.1697235107421875
1761478290514005200,1.854005126953125,-0.98388671875,-0.137237548828125,-0.1648712158203125
1761478290524041200,1.864041259765625,-0.998809814453125,-0.1363677978515625,-0.1678924560546875
1761478290534077200,1.8740771484375,-1.0027618408203125,-0.138397216796875,-0.1737518310546875
1761478290544113200,1.884113037109375,-0.9923095703125,-0.1417694091796875,-0.182708740234375
1761478290554149000,1.894149169921875,-0.9828948974609375,-0.1412200927734375,-0.1881256103515625
1761478290564185000,1.90418505859375,-0.976470947265625,-0.144683837890625,-0.18414306640625
1761478290574221000,1.914220947265625,-0.97039794921875,-0.1451263427734375,-0.1733856201171875
1761478290584257000,1.924257080078125,-0.9718780517578125,-0.14044189453125,-0.164093017578125
1761478290594294000,1.9342939453125,-0.9841766357421875,-0.13885498046875,-0.1642303466796875
1761478290604330000,1.944330078125,-0.99835205078125,-0.1378936767578125,-0.16717529296875
1761478290614366000,1.954365966796875,-1.0035552978515625,-0.1363067626953125,-0.16790771484375
1761478290624402000,1.96440185546875,-1.004058837890625,-0.13818359375,-0.1685333251953125
1761478290634438100,1.974438232421875,-1.0022125244140625,-0.1389617919921875,-0.1700286865234375
1761478290644474000,1.98447412109375,-1.0023345947265625,-0.1413726806640625,-0.1739654541015625
1761478290654510000,1.994510009765625,-0.99993896484375,-0.1451416015625,-0.1764678955078125
1761478290664546000,2.004546142578125,-0.9971923828125,-0.14453125,-0.1802825927734375
1761478290674582000,2.01458203125,-0.9954071044921875,-0.1405029296875,-0.1778106689453125
1761478290684618000,2.024617919921875,-0.9899444580078125,-0.1341400146484375,-0.1731719970703125
1761478290694654000,2.034654052734375,-0.9876708984375,-0.1303253173828125,-0.169921875
1761478290704690000,2.04468994140625,-0.9842987060546875,-0.132781982421875,-0.1681060791015625
1761478290714726100,2.05472607421875,-0.9834747314453125,-0.1334686279296875,-0.169921875
1761478290724762000,2.06476220703125,-0.9909820556640625,-0.1333770751953125,-0.1756591796875
1761478290734798000,2.074798095703125,-0.993377685546875,-0.137542724609375,-0.18243408203125
1761478290744834300,2.084834228515625,-0.9850006103515625,-0.1435089111328125,-0.1849517822265625
1761478290754870300,2.094870361328125,-0.976654052734375,-0.142730712890625,-0.18438720703125
1761478290764906200,2.10490625,-0.976806640625,-0.1396942138671875,-0.178985595703125
1761478290774942200,2.114942138671875,-0.98089599609375,-0.1366424560546875,-0.1724700927734375
1761478290784978200,2.124978271484375,-0.9866180419921875,-0.1326446533203125,-0.1716156005859375
1761478290795014100,2.13501416015625,-0.9879150390625,-0.130615234375,-0.175567626953125
1761478290805050000,2.145050048828125,-0.986358642578125,-0.1361083984375,-0.177734375
1761478290815086000,2.155086181640625,-0.9826507568359375,-0.1371612548828125,-0.17291259765625
1761478290825123600,2.16512353515625,-0.98846435546875,-0.1388397216796875,-0.169891357421875
1761478290835159600,2.17515966796875,-0.998779296875,-0.1413421630859375,-0.172698974609375
1761478290845195500,2.185195556640625,-1.013763427734375,-0.139617919921875,-0.1826019287109375
1761478290855231500,2.1952314453125,-1.019744873046875,-0.141265869140625,-0.186279296875
1761478290865267500,2.205267333984375,-1.0156402587890625,-0.1437225341796875,-0.1799468994140625
1761478290875303400,2.215303466796875,-1.000335693359375,-0.139007568359375,-0.1710205078125
1761478290885339400,2.22533935546875,-0.9894256591796875,-0.1365203857421875,-0.161376953125
1761478290895375600,2.235375732421875,-0.981689453125,-0.134307861328125,-0.1569061279296875
1761478290905411600,2.24541162109375,-0.977294921875,-0.1342926025390625,-0.1614990234375
1761478290915447600,2.255447509765625,-0.9786376953125,-0.1356658935546875,-0.1721343994140625
1761478290925483500,2.2654833984375,-0.9825439453125,-0.13922119140625,-0.1786346435546875
1761478290935519500,2.27551953125,-0.980926513671875,-0.137725830078125,-0.181396484375
1761478290945555500,2.285555419921875,-0.9858551025390625,-0.13604736328125,-0.180694580078125
1761478290955591400,2.29559130859375,-0.9912109375,-0.13714599609375,-0.1768646240234375
1761478290965627400,2.30562744140625,-0.998443603515625,-0.135711669921875,-0.1739654541015625
1761478290975663400,2.315663330078125,-1.0006561279296875,-0.134552001953125,-0.1782073974609375
1761478290985699300,2.32569921875,-1.003387451171875,-0.135894775390625,-0.182525634765625
1761478290995735300,2.3357353515625,-1.0022125244140625,-0.134918212890625,-0.1832275390625
1761478291005771500,2.345771484375,-0.996246337890625,-0.136016845703125,-0.175537109375
1761478291015807500,2.355807373046875,-0.98663330078125,-0.1378326416015625,-0.166961669921875
1761478291025843500,2.365843505859375,-0.9807891845703125,-0.1397705078125,-0.1618499755859375
1761478291035879400,2.37587939453125,-0.9833221435546875,-0.1396026611328125,-0.162200927734375
1761478291045916700,2.385916748046875,-0.9893035888671875,-0.139923095703125,-0.1645355224609375
1761478291055952600,2.39595263671875,-0.9947662353515625,-0.13751220703125,-0.1746978759765625
1761478291065988600,2.405988525390625,-0.9949493408203125,-0.1380157470703125,-0.1837310791015625
1761478291076024600,2.416024658203125,-0.9923248291015625,-0.1400299072265625,-0.1786346435546875
1761478291086060500,2.426060546875,-0.9856414794921875,-0.139984130859375,-0.1675262451171875
1761478291096096500,2.436096435546875,-0.9868316650390625,-0.1390228271484375,-0.15753173828125
1761478291106132500,2.446132568359375,-0.9949493408203125,-0.139251708984375,-0.1539154052734375
1761478291116168400,2.45616845703125,-0.9992218017578125,-0.139007568359375,-0.161285400390625
1761478291126204400,2.466204345703125,-1.0029296875,-0.1382293701171875,-0.1738128662109375
1761478291136240400,2.476240478515625,-0.996734619140625,-0.138763427734375,-0.184051513671875
1761478291146276400,2.4862763671875,-0.9866485595703125,-0.1406402587890625,-0.18218994140625
1761478291156312600,2.4963125,-0.974578857421875,-0.14166259765625,-0.1759185791015625
1761478291166348500,2.5063486328125,-0.9745635986328125,-0.140228271484375,-0.1714935302734375
1761478291176384500,2.516384521484375,-0.980743408203125,-0.139801025390625,-0.16680908203125
1761478291186420500,2.52642041015625,-0.9836883544921875,-0.1398773193359375,-0.1660919189453125
1761478291196456400,2.53645654296875,-0.9844207763671875,-0.137786865234375,-0.1682586669921875
1761478291206492400,2.546492431640625,-0.9805145263671875,-0.1383514404296875,-0.1699981689453125
1761478291216528400,2.5565283203125,-0.9772796630859375,-0.14019775390625,-0.171173095703125
1761478291226564400,2.566564453125,-0.98101806640625,-0.140594482421875,-0.1693267822265625
1761478291236600300,2.576600341796875,-0.99212646484375,-0.13739013671875,-0.1702880859375
1761478291246636300,2.58663623046875,-1.0093536376953125,-0.1349639892578125,-0.1750946044921875
1761478291256673500,2.596673583984375,-1.02069091796875,-0.133636474609375,-0.1817169189453125
1761478291266709500,2.60670947265625,-1.020904541015625,-0.131561279296875,-0.1866302490234375
1761478291276745500,2.616745361328125,-1.00640869140625,-0.135955810546875,-0.180511474609375
1761478291286781400,2.626781494140625,-0.9880828857421875,-0.1383514404296875,-0.1710357666015625
1761478291296817700,2.636817626953125,-0.9777069091796875,-0.13818359375,-0.1690826416015625
1761478291306853600,2.646853515625,-0.9790496826171875,-0.13714599609375,-0.1704254150390625
1761478291316889600,2.6568896484375,-0.98834228515625,-0.13427734375,-0.1759185791015625
1761478291326925600,2.666925537109375,-0.9991607666015625,-0.1295013427734375,-0.1848602294921875
1761478291336961500,2.67696142578125,-1.001129150390625,-0.1310577392578125,-0.191436767578125
1761478291346997500,2.68699755859375,-0.9916534423828125,-0.1353607177734375,-0.187591552734375
1761478291357033500,2.697033447265625,-0.98272705078125,-0.1359100341796875,-0.1803741455078125
1761478291367069400,2.7070693359375,-0.9790191650390625,-0.1361083984375,-0.177490234375
1761478291377105400,2.71710546875,-0.9805450439453125,-0.1361541748046875,-0.17529296875
1761478291387141400,2.727141357421875,-0.985382080078125,-0.1343841552734375,-0.1752166748046875
1761478291397177300,2.73717724609375,-0.9900360107421875,-0.13800048828125,-0.173095703125
1761478291407213600,2.747213623046875,-0.9895172119140625,-0.140533447265625,-0.173065185546875
1761478291417249500,2.75724951171875,-0.9855499267578125,-0.1407012939453125,-0.1722412109375
1761478291427285500,2.767285400390625,-0.983062744140625,-0.1413421630859375,-0.166778564453125
1761478291437321500,2.777321533203125,-0.9853057861328125,-0.1416015625,-0.16497802734375
1761478291447357400,2.787357421875,-0.99853515625,-0.1369171142578125,-0.1683349609375
1761478291457393400,2.797393310546875,-1.013153076171875,-0.1346893310546875,-0.1673736572265625
1761478291467429400,2.807429443359375,-1.0142059326171875,-0.1367950439453125,-0.1629486083984375
1761478291477465300,2.81746533203125,-1.002685546875,-0.13885498046875,-0.1637420654296875
1761478291487502600,2.827502685546875,-0.9911651611328125,-0.1420135498046875,-0.166046142578125
1761478291497537300,2.837537353515625,-0.9811553955078125,-0.14227294921875,-0.17205810546875
1761478291507574500,2.847574462890625,-0.977081298828125,-0.1415252685546875,-0.1802825927734375
1761478291517610500,2.857610595703125,-0.981903076171875,-0.13885498046875,-0.182220458984375
1761478291527646500,2.867646484375,-0.99566650390625,-0.13092041015625,-0.1839599609375
1761478291537682400,2.877682373046875,-1.00421142578125,-0.1272735595703125,-0.181884765625
1761478291547718400,2.887718505859375,-1.0014495849609375,-0.1316375732421875,-0.175689697265625
1761478291557754600,2.897754638671875,-0.991607666015625,-0.1360015869140625,-0.17413330078125
1761478291567790600,2.90779052734375,-0.9825439453125,-0.1397857666015625,-0.176483154296875
1761478291577826600,2.91782666015625,-0.977508544921875,-0.1402587890625,-0.1811370849609375
1761478291587862500,2.927862548828125,-0.973236083984375,-0.138641357421875,-0.1777496337890625
1761478291597898500,2.9378984375,-0.974945068359375,-0.1372833251953125,-0.1704559326171875
1761478291607934500,2.9479345703125,-0.981475830078125,-0.135833740234375,-0.163604736328125
1761478291617970400,2.957970458984375,-0.9907379150390625,-0.1343231201171875,-0.1561431884765625
1761478291628006400,2.96800634765625,-1.0025634765625,-0.13507080078125,-0.1620025634765625
1761478291638042400,2.97804248046875,-1.0074615478515625,-0.140838623046875,-0.176605224609375
1761478291648078300,2.988078369140625,-1.009613037109375,-0.142303466796875,-0.1902618408203125
1761478291658114600,2.998114501953125,-1.00823974609375,-0.138397216796875,-0.1930694580078125
1761478291668150500,3.008150634765625,-0.999298095703125,-0.1397552490234375,-0.1787109375
1761478291678186500,3.0181865234375,-0.9850616455078125,-0.140228271484375,-0.1619415283203125
1761478291688222500,3.028222412109375,-0.977508544921875,-0.13861083984375,-0.1529693603515625
1761478291698258400,3.038258544921875,-0.981781005859375,-0.139923095703125,-0.1530609130859375
1761478291708294400,3.04829443359375,-0.9861907958984375,-0.14019775390625,-0.163360595703125
1761478291718330400,3.058330322265625,-0.9922637939453125,-0.1394805908203125,-0.1728515625
1761478291728367600,3.06836767578125,-0.9956817626953125,-0.1396331787109375,-0.178955078125
1761478291738403600,3.078403564453125,-0.996307373046875,-0.1391448974609375,-0.183349609375
1761478291748439600,3.088439453125,-0.9920654296875,-0.13897705078125,-0.1808319091796875
1761478291758475500,3.0984755859375,-0.9845733642578125,-0.137420654296875,-0.1776123046875
1761478291768511500,3.108511474609375,-0.98052978515625,-0.1384124755859375,-0.175628662109375
1761478291778547500,3.11854736328125,-0.9822540283203125,-0.1376800537109375,-0.175537109375
1761478291788583400,3.12858349609375,-0.9887542724609375,-0.13629150390625,-0.173187255859375
1761478291798619400,3.138619384765625,-0.988311767578125,-0.1367034912109375,-0.1700592041015625
1761478291808655600,3.148655517578125,-0.9852294921875,-0.135406494140625,-0.1692352294921875
1761478291818691600,3.158691650390625,-0.983917236328125,-0.1390380859375,-0.172088623046875
1761478291828727000,3.16872705078125,-0.9902801513671875,-0.13916015625,-0.177001953125
1761478291838763000,3.178762939453125,-1.0021514892578125,-0.1385650634765625,-0.1803436279296875
1761478291848799000,3.188799072265625,-1.0107574462890625,-0.1366424560546875,-0.1799163818359375
1761478291858835000,3.1988349609375,-1.0088348388671875,-0.1336517333984375,-0.1776123046875
1761478291868871000,3.208870849609375,-1.0035858154296875,-0.1346893310546875,-0.173309326171875
1761478291878907000,3.218906982421875,-0.9968109130859375,-0.13543701171875,-0.1673736572265625
1761478291888942800,3.22894287109375,-0.9869232177734375,-0.136505126953125,-0.1657867431640625
1761478291898979000,3.23897900390625,-0.98114013671875,-0.1397705078125,-0.1678466796875
1761478291909015000,3.24901513671875,-0.97760009765625,-0.1389617919921875,-0.1718292236328125
1761478291919051000,3.259051025390625,-0.9754180908203125,-0.136627197265625,-0.1773834228515625
1761478291929087000,3.2690869140625,-0.9758758544921875,-0.1354522705078125,-0.1806640625
1761478291939123000,3.279123046875,-0.983428955078125,-0.1366424560546875,-0.18341064453125
1761478291949159000,3.289158935546875,-0.9887542724609375,-0.136383056640625,-0.1840362548828125
1761478291959195000,3.29919482421875,-0.9921417236328125,-0.139923095703125,-0.18035888671875
1761478291969230800,3.30923095703125,-0.9933624267578125,-0.1381072998046875,-0.1761932373046875
1761478291979268000,3.31926806640625,-0.9971466064453125,-0.1355438232421875,-0.1678466796875
1761478291989304000,3.329303955078125,-0.998443603515625,-0.138214111328125,-0.161102294921875
1761478291999340000,3.339340087890625,-0.995330810546875,-0.138824462890625,-0.167572021484375
1761478292009376000,3.3493759765625,-0.995147705078125,-0.1399688720703125,-0.175689697265625
1761478292019412000,3.359411865234375,-1.0013427734375,-0.1384124755859375,-0.181915283203125
1761478292029448000,3.369447998046875,-1.001312255859375,-0.13885498046875,-0.18133544921875
1761478292039484000,3.37948388671875,-0.996612548828125,-0.139892578125,-0.1771392822265625
1761478292049520000,3.38952001953125,-0.9958343505859375,-0.1370086669921875,-0.1724090576171875
1761478292059556000,3.39955615234375,-0.991668701171875,-0.135467529296875,-0.1694183349609375
1761478292069592000,3.409592041015625,-0.98321533203125,-0.1341705322265625,-0.172760009765625
1761478292079628000,3.4196279296875,-0.9827728271484375,-0.13580322265625,-0.1790924072265625
1761478292089664000,3.4296640625,-0.9806976318359375,-0.1383056640625,-0.1815948486328125
1761478292099700000,3.439699951171875,-0.978485107421875,-0.13983154296875,-0.1774444580078125
1761478292109736000,3.44973583984375,-0.9751129150390625,-0.13818359375,-0.174957275390625
1761478292119772000,3.45977197265625,-0.979400634765625,-0.137908935546875,-0.1761322021484375
1761478292129808000,3.469807861328125,-0.9843292236328125,-0.1363677978515625,-0.1772613525390625
1761478292139843800,3.47984375,-0.992767333984375,-0.1353302001953125,-0.1790924072265625
1761478292149879800,3.4898798828125,-0.994415283203125,-0.1380767822265625,-0.1821746826171875
1761478292159916000,3.499916015625,-0.993896484375,-0.1411285400390625,-0.1807861328125
1761478292169952000,3.509951904296875,-0.9961395263671875,-0.1388702392578125,-0.17694091796875
1761478292179988000,3.519988037109375,-0.99786376953125,-0.1380462646484375,-0.16680908203125
1761478292190024000,3.53002392578125,-0.993133544921875,-0.137176513671875,-0.1567535400390625
1761478292200060000,3.540059814453125,-0.9906463623046875,-0.1370697021484375,-0.151702880859375
1761478292210095900,3.550095947265625,-0.99505615234375,-0.1416168212890625,-0.1578369140625
1761478292220133000,3.560133056640625,-1.00384521484375,-0.143035888671875,-0.171173095703125
1761478292230169000,3.570169189453125,-1.007354736328125,-0.14105224609375,-0.1807403564453125
1761478292240205000,3.580205078125,-1.00372314453125,-0.1404571533203125,-0.1820220947265625
1761478292250241000,3.590240966796875,-0.99249267578125,-0.13665771484375,-0.177032470703125
1761478292260277000,3.600277099609375,-0.98681640625,-0.1340484619140625,-0.1688232421875
1761478292270313000,3.61031298828125,-0.982330322265625,-0.1348419189453125,-0.162933349609375
1761478292280349000,3.620348876953125,-0.9771881103515625,-0.1348876953125,-0.16412353515625
1761478292290385000,3.630385009765625,-0.9783172607421875,-0.1361541748046875,-0.175140380859375
1761478292300421000,3.640421142578125,-0.98211669921875,-0.1360321044921875,-0.18743896484375
1761478292310457000,3.65045703125,-0.985076904296875,-0.1359405517578125,-0.1942596435546875
1761478292320493000,3.6604931640625,-0.9857177734375,-0.1368408203125,-0.192962646484375
1761478292330529000,3.670529052734375,-0.985565185546875,-0.136627197265625,-0.18896484375
1761478292340565000,3.68056494140625,-0.985015869140625,-0.137603759765625,-0.180694580078125
1761478292350601000,3.69060107421875,-0.9851531982421875,-0.1376800537109375,-0.171539306640625
1761478292360637000,3.700636962890625,-0.9890899658203125,-0.1372833251953125,-0.165130615234375
1761478292370673000,3.7106728515625,-0.993499755859375,-0.1347503662109375,-0.16339111328125
1761478292380708900,3.720708984375,-0.9954986572265625,-0.1362762451171875,-0.16705322265625
1761478292390744800,3.730744873046875,-0.9958648681640625,-0.1370849609375,-0.1728668212890625
1761478292400780800,3.74078076171875,-0.9985504150390625,-0.139923095703125,-0.1741485595703125
1761478292410817000,3.750817138671875,-1.0018310546875,-0.1410675048828125,-0.172576904296875
1761478292420853000,3.76085302734375,-1.00360107421875,-0.1396484375,-0.1717681884765625
1761478292430889000,3.770888916015625,-1.0003814697265625,-0.1407318115234375,-0.1746826171875
1761478292440925000,3.780925048828125,-0.9924163818359375,-0.138885498046875,-0.1763916015625
1761478292450961000,3.7909609375,-0.98486328125,-0.1366424560546875,-0.1725311279296875
1761478292460996900,3.800996826171875,-0.9813690185546875,-0.1369476318359375,-0.1663055419921875
1761478292471034000,3.8110341796875,-0.986541748046875,-0.1363067626953125,-0.164306640625
1761478292481070000,3.821070068359375,-0.992889404296875,-0.1366119384765625,-0.1692657470703125
1761478292491106000,3.83110595703125,-1.00238037109375,-0.137481689453125,-0.1779632568359375
1761478292501142000,3.84114208984375,-1.0042877197265625,-0.138702392578125,-0.1833648681640625
1761478292511178000,3.851177978515625,-0.9949493408203125,-0.1385498046875,-0.184234619140625
1761478292521214000,3.8612138671875,-0.982940673828125,-0.139068603515625,-0.1785888671875
1761478292531250000,3.87125,-0.9769744873046875,-0.1370849609375,-0.172882080078125
1761478292541286000,3.881285888671875,-0.9790496826171875,-0.1347503662109375,-0.1692352294921875
1761478292551321900,3.89132177734375,-0.984893798828125,-0.134857177734375,-0.1697540283203125
1761478292561358000,3.901358154296875,-0.990447998046875,-0.134735107421875,-0.1741180419921875
1761478292571394000,3.91139404296875,-0.9876556396484375,-0.1346588134765625,-0.17919921875
1761478292581430000,3.921429931640625,-0.98431396484375,-0.136962890625,-0.1797943115234375
1761478292591466000,3.931466064453125,-0.985137939453125,-0.1392669677734375,-0.174774169921875
1761478292601502000,3.941501953125,-0.9920196533203125,-0.1364898681640625,-0.17156982421875
1761478292611538000,3.951537841796875,-1.0074310302734375,-0.1339874267578125,-0.1715240478515625
1761478292621574000,3.961573974609375,-1.01153564453125,-0.1352691650390625,-0.1736907958984375
1761478292631609900,3.97160986328125,-1.008575439453125,-0.1342010498046875,-0.177734375
1761478292641645800,3.981645751953125,-0.9938507080078125,-0.136627197265625,-0.1749114990234375
1761478292651681800,3.991681884765625,-0.9765625,-0.13653564453125,-0.1690521240234375
1761478292661718000,4.001718017578125,-0.968994140625,-0.1342010498046875,-0.1676483154296875
1761478292671753000,4.0117529296875,-0.971832275390625,-0.134765625,-0.1744537353515625
1761478292681789000,4.021788818359375,-0.9844818115234375,-0.135894775390625,-0.183868408203125
1761478292691825000,4.031824951171875,-0.9951629638671875,-0.1363677978515625,-0.18914794921875
1761478292701860900,4.04186083984375,-1.0022430419921875,-0.1372528076171875,-0.1873321533203125
1761478292711896800,4.051896728515625,-1.0056610107421875,-0.1385498046875,-0.183135986328125
1761478292721932800,4.061932861328125,-1.003204345703125,-0.1370086669921875,-0.1769866943359375
1761478292731968800,4.07196875,-1.0024871826171875,-0.1388702392578125,-0.1677093505859375
1761478292742005000,4.0820048828125,-0.9957733154296875,-0.1368865966796875,-0.1656494140625
1761478292752041000,4.092041015625,-0.984283447265625,-0.1384124755859375,-0.16790771484375
1761478292762077000,4.102076904296875,-0.9764556884765625,-0.14068603515625,-0.1670989990234375
1761478292772113200,4.112113037109375,-0.97235107421875,-0.140411376953125,-0.1666412353515625
1761478292782149000,4.122149169921875,-0.9693145751953125,-0.13946533203125,-0.16534423828125
1761478292792185000,4.13218505859375,-0.9741363525390625,-0.1388702392578125,-0.165618896484375
1761478292802221000,4.142220947265625,-0.984893798828125,-0.13861083984375,-0.16815185546875
1761478292812257000,4.152257080078125,-0.99884033203125,-0.13739013671875,-0.1725006103515625
1761478292822293000,4.16229296875,-1.0077667236328125,-0.1385040283203125,-0.1810760498046875
1761478292832328200,4.172328125,-1.0041961669921875,-0.1408233642578125,-0.18536376953125
1761478292842364400,4.182364501953125,-0.994293212890625,-0.14093017578125,-0.1772613525390625
1761478292852400400,4.192400390625,-0.98138427734375,-0.140655517578125,-0.16253662109375
1761478292862436400,4.202436279296875,-0.9698333740234375,-0.1399078369140625,-0.1497802734375
1761478292872472300,4.212472412109375,-0.972808837890625,-0.1381988525390625,-0.142364501953125
1761478292882509300,4.22250927734375,-0.9875946044921875,-0.1369781494140625,-0.1508636474609375
1761478292892545300,4.232545166015625,-1.012481689453125,-0.1338348388671875,-0.1700897216796875
1761478292902581200,4.242581298828125,-1.0281829833984375,-0.1304931640625,-0.19256591796875
1761478292912617200,4.2526171875,-1.0259857177734375,-0.133056640625,-0.2023162841796875
1761478292922653200,4.262653076171875,-1.006256103515625,-0.1359710693359375,-0.1995697021484375
1761478292932689200,4.272689208984375,-0.986572265625,-0.1374664306640625,-0.1905059814453125
1761478292942725000,4.28272509765625,-0.9741058349609375,-0.1371002197265625,-0.1790924072265625
1761478292952761000,4.292760986328125,-0.972808837890625,-0.1350860595703125,-0.1728057861328125
1761478292962797000,4.302797119140625,-0.9717254638671875,-0.133453369140625,-0.17071533203125
1761478292972833300,4.312833251953125,-0.9777679443359375,-0.133819580078125,-0.1697998046875
1761478292982869200,4.322869140625,-0.9832916259765625,-0.132171630859375,-0.170989990234375
1761478292992905200,4.3329052734375,-0.9850616455078125,-0.1340484619140625,-0.170196533203125
1761478293002941200,4.342941162109375,-0.9878692626953125,-0.13775634765625,-0.170684814453125
1761478293012977200,4.35297705078125,-0.9947052001953125,-0.1387939453125,-0.1741943359375
1761478293023013000,4.36301318359375,-1.005706787109375,-0.13720703125,-0.181304931640625
1761478293033049000,4.373049072265625,-1.0120086669921875,-0.1363067626953125,-0.181732177734375
1761478293043085300,4.383085205078125,-1.0089569091796875,-0.13922119140625,-0.1745452880859375
1761478293053121300,4.393121337890625,-1.0001068115234375,-0.14013671875,-0.165740966796875
1761478293063157200,4.4031572265625,-0.997222900390625,-0.137237548828125,-0.162994384765625
1761478293073193200,4.413193115234375,-0.9909210205078125,-0.1354522705078125,-0.165863037109375
1761478293083229200,4.423229248046875,-0.9859771728515625,-0.1355133056640625,-0.1741790771484375
1761478293093265400,4.433265380859375,-0.9831695556640625,-0.1355743408203125,-0.1847076416015625
1761478293103301400,4.44330126953125,-0.97894287109375,-0.13470458984375,-0.18603515625
1761478293113337300,4.45333740234375,-0.977203369140625,-0.1341094970703125,-0.1833343505859375
1761478293123373300,4.463373291015625,-0.980560302734375,-0.13494873046875,-0.1790313720703125
1761478293133409300,4.4734091796875,-0.9843597412109375,-0.135650634765625,-0.17364501953125
1761478293143445200,4.4834453125,-0.988372802734375,-0.1355743408203125,-0.1708221435546875
1761478293153481200,4.493481201171875,-0.994110107421875,-0.1352386474609375,-0.171722412109375
1761478293163518200,4.503518310546875,-0.9935302734375,-0.137847900390625,-0.1712799072265625
1761478293173554200,4.51355419921875,-0.9892425537109375,-0.1386566162109375,-0.171356201171875
1761478293183590100,4.523590087890625,-0.989410400390625,-0.1388397216796875,-0.1744842529296875
1761478293193626000,4.533626220703125,-0.9951324462890625,-0.1394500732421875,-0.1721343994140625
1761478293203662000,4.543662109375,-0.997955322265625,-0.138397216796875,-0.170074462890625
1761478293213698000,4.553697998046875,-1.00152587890625,-0.1365966796875,-0.170684814453125
1761478293223734000,4.563734130859375,-1.0017242431640625,-0.137054443359375,-0.17022705078125
1761478293233770200,4.573770263671875,-0.99847412109375,-0.1378173828125,-0.171630859375
1761478293243806200,4.58380615234375,-0.9920501708984375,-0.136962890625,-0.17388916015625
1761478293253843200,4.59384326171875,-0.984771728515625,-0.13836669921875,-0.1734619140625
1761478293263879400,4.60387939453125,-0.9804534912109375,-0.137847900390625,-0.168731689453125
1761478293273915400,4.613915283203125,-0.9818572998046875,-0.134185791015625,-0.169921875
1761478293283951400,4.623951416015625,-0.988525390625,-0.13433837890625,-0.1734619140625
1761478293293987300,4.6339873046875,-0.9939117431640625,-0.133514404296875,-0.175811767578125
1761478293304024300,4.6440244140625,-0.9931793212890625,-0.1349334716796875,-0.1808013916015625
1761478293314060300,4.654060302734375,-0.9879302978515625,-0.138092041015625,-0.184844970703125
1761478293324096300,4.66409619140625,-0.9835357666015625,-0.1401214599609375,-0.184783935546875
1761478293334132200,4.67413232421875,-0.976287841796875,-0.1400299072265625,-0.1802978515625
1761478293344168200,4.684168212890625,-0.9756622314453125,-0.1392822265625,-0.1709747314453125
1761478293354204200,4.6942041015625,-0.976104736328125,-0.1400146484375,-0.1638336181640625
1761478293364240100,4.704240234375,-0.9829254150390625,-0.1387939453125,-0.1660308837890625
1761478293374276000,4.714276123046875,-0.99072265625,-0.1357421875,-0.1696624755859375
1761478293384312000,4.72431201171875,-1.0006866455078125,-0.1398162841796875,-0.167938232421875
1761478293394348000,4.73434814453125,-1.011932373046875,-0.1402130126953125,-0.1688995361328125
1761478293404384300,4.74438427734375,-1.015594482421875,-0.13970947265625,-0.170196533203125
1761478293414420200,4.754420166015625,-1.0102691650390625,-0.1426544189453125,-0.17230224609375
1761478293424456200,4.764456298828125,-0.999908447265625,-0.1421051025390625,-0.174835205078125
1761478293434492200,4.7744921875,-0.9886627197265625,-0.137481689453125,-0.172607421875
1761478293444528000,4.784528076171875,-0.9814605712890625,-0.136322021484375,-0.1666259765625
1761478293454564400,4.794564453125,-0.9806060791015625,-0.1354827880859375,-0.163726806640625
1761478293464600300,4.804600341796875,-0.9839630126953125,-0.1376953125,-0.16839599609375
1761478293474636300,4.81463623046875,-0.9892730712890625,-0.1401519775390625,-0.17877197265625
1761478293484672300,4.82467236328125,-0.9888153076171875,-0.13897705078125,-0.1841278076171875
1761478293494708200,4.834708251953125,-0.9832763671875,-0.138763427734375,-0.1834869384765625
1761478293504744200,4.844744140625,-0.978607177734375,-0.1395111083984375,-0.182586669921875
1761478293514780200,4.8547802734375,-0.974822998046875,-0.1411285400390625,-0.179840087890625
1761478293524816400,4.86481640625,-0.975250244140625,-0.1380615234375,-0.1724395751953125
1761478293534853000,4.87485302734375,-0.9790496826171875,-0.1348419189453125,-0.164703369140625
1761478293544889000,4.88488916015625,-0.985504150390625,-0.1367645263671875,-0.1644287109375
1761478293554925300,4.89492529296875,-0.993927001953125,-0.13604736328125,-0.1666717529296875
1761478293564961300,4.904961181640625,-0.999420166015625,-0.13958740234375,-0.1688385009765625
1761478293574997200,4.914997314453125,-1.0029144287109375,-0.14239501953125,-0.17333984375
1761478293585033200,4.925033203125,-1.0079345703125,-0.1412506103515625,-0.178955078125
1761478293595069200,4.935069091796875,-1.0101165771484375,-0.1407012939453125,-0.181915283203125
1761478293605105200,4.945105224609375,-1.00921630859375,-0.135528564453125,-0.1790618896484375
1761478293615141000,4.95514111328125,-1.006805419921875,-0.131866455078125,-0.173553466796875
1761478293625177000,4.965177001953125,-0.9985198974609375,-0.1343536376953125,-0.1670684814453125
1761478293635213000,4.975213134765625,-0.9865875244140625,-0.13720703125,-0.1651611328125
1761478293645249000,4.9852490234375,-0.9798736572265625,-0.140380859375,-0.1646881103515625
1761478293655285200,4.99528515625,-0.9801177978515625,-0.1414794921875,-0.1699676513671875
1761478293665321200,5.0053212890625,-0.9819183349609375,-0.1385345458984375,-0.1784820556640625
1761478293675357200,5.015357177734375,-0.9797821044921875,-0.1335906982421875,-0.1882476806640625
1761478293685393400,5.025393310546875,-0.975738525390625,-0.130767822265625,-0.1977691650390625
1761478293695429400,5.035429443359375,-0.978912353515625,-0.1284332275390625,-0.201568603515625
1761478293705465300,5.04546533203125,-0.9862060546875,-0.1288299560546875,-0.1973876953125
1761478293715501300,5.055501220703125,-0.9910888671875,-0.1335601806640625,-0.190155029296875
1761478293725537300,5.065537353515625,-0.9937286376953125,-0.13616943359375,-0.185089111328125
1761478293735573200,5.0755732421875,-0.995391845703125,-0.1386566162109375,-0.17742919921875
1761478293745609200,5.085609130859375,-0.9888916015625,-0.139892578125,-0.1724853515625
1761478293755646200,5.095646240234375,-0.9799346923828125,-0.1429443359375,-0.166168212890625
1761478293765682200,5.10568212890625,-0.9788970947265625,-0.145233154296875,-0.1610260009765625
1761478293775718100,5.11571826171875,-0.988861083984375,-0.1398162841796875,-0.1549072265625
1761478293785754000,5.125754150390625,-1.00006103515625,-0.1357574462890625,-0.1414947509765625
1761478293795790000,5.1357900390625,-1.0016937255859375,-0.1412200927734375,-0.135711669921875
1761478293805826300,5.145826416015625,-0.9993133544921875,-0.14166259765625,-0.146697998046875
1761478293815862300,5.1558623046875,-0.9993133544921875,-0.1407318115234375,-0.158355712890625
1761478293825899000,5.16589892578125,-0.9972686767578125,-0.1447601318359375,-0.16357421875
1761478293835935000,5.17593505859375,-0.9952545166015625,-0.143096923828125,-0.1692047119140625
1761478293845971000,5.185970947265625,-0.9928741455078125,-0.1407470703125,-0.1737060546875
1761478293856007000,5.1960068359375,-0.989471435546875,-0.13885498046875,-0.1745147705078125
1761478293866043000,5.20604296875,-0.9898529052734375,-0.1332855224609375,-0.176055908203125
1761478293876078800,5.216078857421875,-0.9888763427734375,-0.1309967041015625,-0.1783599853515625
1761478293886114800,5.22611474609375,-0.9846649169921875,-0.1305389404296875,-0.175018310546875
1761478293896150800,5.23615087890625,-0.981231689453125,-0.1339569091796875,-0.1703948974609375
1761478293906186800,5.246186767578125,-0.9824676513671875,-0.135345458984375,-0.17169189453125
1761478293916222700,5.25622265625,-0.9878387451171875,-0.1320037841796875,-0.176055908203125
1761478293926259000,5.266259033203125,-0.993621826171875,-0.131072998046875,-0.1787872314453125
1761478293936295000,5.276294921875,-0.99542236328125,-0.1321258544921875,-0.1852874755859375
1761478293946331100,5.2863310546875,-0.991607666015625,-0.1346588134765625,-0.189422607421875
1761478293956367000,5.2963671875,-0.990203857421875,-0.1354217529296875,-0.1874542236328125
1761478293966403000,5.306403076171875,-0.9922332763671875,-0.134765625,-0.1846923828125
1761478293976439000,5.31643896484375,-0.99676513671875,-0.1341705322265625,-0.17926025390625
1761478293986476000,5.32647607421875,-0.9975433349609375,-0.1353912353515625,-0.1793365478515625
1761478293996512000,5.336511962890625,-0.995880126953125,-0.1359710693359375,-0.18408203125
1761478294006548000,5.3465478515625,-0.9921722412109375,-0.134918212890625,-0.1791839599609375
1761478294016584000,5.356583984375,-0.988494873046875,-0.134002685546875,-0.16961669921875
1761478294026620000,5.366619873046875,-0.986541748046875,-0.13623046875,-0.1637725830078125
1761478294036655900,5.37665576171875,-0.986785888671875,-0.1396636962890625,-0.164825439453125
1761478294046691800,5.38669189453125,-0.9907379150390625,-0.138092041015625,-0.170379638671875
1761478294056727800,5.396727783203125,-0.9935760498046875,-0.1382598876953125,-0.1756439208984375
1761478294066763800,5.406763671875,-0.99072265625,-0.1385955810546875,-0.1792449951171875
1761478294076799700,5.4167998046875,-0.9839324951171875,-0.1366729736328125,-0.1798095703125
1761478294086836000,5.4268359375,-0.982452392578125,-0.139007568359375,-0.1707000732421875
1761478294096872000,5.436871826171875,-0.9827880859375,-0.139251708984375,-0.1637115478515625
1761478294106908000,5.446907958984375,-0.9839019775390625,-0.1361541748046875,-0.166717529296875
1761478294116944000,5.45694384765625,-0.9901275634765625,-0.1349945068359375,-0.171051025390625
1761478294126979800,5.466979736328125,-0.99688720703125,-0.1340484619140625,-0.1731414794921875
1761478294137015800,5.477015869140625,-1.0025787353515625,-0.1305389404296875,-0.1734466552734375
1761478294147051800,5.4870517578125,-1.003692626953125,-0.13177490234375,-0.173858642578125
1761478294157088000,5.497087890625,-1.004364013671875,-0.135711669921875,-0.1763916015625
1761478294167124000,5.5071240234375,-1.0041656494140625,-0.13531494140625,-0.1793670654296875
1761478294177160000,5.517159912109375,-1.0001373291015625,-0.1398468017578125,-0.1805419921875
1761478294187196000,5.52719580078125,-0.9976806640625,-0.1385498046875,-0.18310546875
1761478294197232000,5.537232177734375,-0.995391845703125,-0.13330078125,-0.1821746826171875
1761478294207268900,5.547268798828125,-0.992828369140625,-0.13262939453125,-0.1740264892578125
1761478294217304800,5.557304931640625,-0.9859466552734375,-0.13214111328125,-0.1669769287109375
1761478294227341000,5.567341064453125,-0.98199462890625,-0.131256103515625,-0.16326904296875
1761478294237377000,5.577376953125,-0.9815521240234375,-0.1343841552734375,-0.1682891845703125
1761478294247413000,5.5874130859375,-0.98223876953125,-0.137847900390625,-0.1793975830078125
1761478294257449000,5.597448974609375,-0.9816131591796875,-0.1389007568359375,-0.1845703125
1761478294267485000,5.60748486328125,-0.9815216064453125,-0.138763427734375,-0.185546875
1761478294277521000,5.61752099609375,-0.979095458984375,-0.1380157470703125,-0.1817474365234375
1761478294287556900,5.627556884765625,-0.9795074462890625,-0.1387786865234375,-0.179962158203125
1761478294297592800,5.6375927734375,-0.9922332763671875,-0.1353759765625,-0.17816162109375
1761478294307628800,5.64762890625,-1.0005340576171875,-0.1336517333984375,-0.1708221435546875
1761478294317664800,5.657664794921875,-1.0001373291015625,-0.1343231201171875,-0.1612701416015625
1761478294327700700,5.66770068359375,-0.996673583984375,-0.135284423828125,-0.1639251708984375
1761478294337737000,5.677737060546875,-1.000518798828125,-0.1365814208984375,-0.16802978515625
1761478294347773000,5.68777294921875,-0.9988861083984375,-0.1366424560546875,-0.1764373779296875
1761478294357809000,5.697808837890625,-0.9970855712890625,-0.1360321044921875,-0.1812591552734375
1761478294367844900,5.707844970703125,-0.9929351806640625,-0.137451171875,-0.1839599609375
1761478294377880800,5.717880859375,-0.9861602783203125,-0.1373443603515625,-0.1835479736328125
1761478294387917000,5.7279169921875,-0.9837799072265625,-0.1376953125,-0.1714324951171875
1761478294397953000,5.737953125,-0.9874267578125,-0.1373291015625,-0.157928466796875
1761478294407989000,5.747989013671875,-0.9887847900390625,-0.1380615234375,-0.1566009521484375
1761478294418025000,5.75802490234375,-0.9912109375,-0.141326904296875,-0.1602020263671875
1761478294428061000,5.76806103515625,-0.9918365478515625,-0.139556884765625,-0.1658477783203125
1761478294438098000,5.778097900390625,-0.9919281005859375,-0.13934326171875,-0.1702117919921875
1761478294448134000,5.7881337890625,-0.992645263671875,-0.1406402587890625,-0.1712646484375
1761478294458169900,5.798169921875,-0.9930419921875,-0.137725830078125,-0.1751251220703125
1761478294468205800,5.808205810546875,-0.9943389892578125,-0.13818359375,-0.1750335693359375
1761478294478242000,5.818241943359375,-0.994354248046875,-0.1388397216796875,-0.175628662109375
1761478294488278000,5.828278076171875,-0.9917755126953125,-0.138275146484375,-0.1781158447265625
1761478294498314000,5.83831396484375,-0.99078369140625,-0.1373138427734375,-0.1765594482421875
1761478294508350000,5.848349853515625,-0.9900970458984375,-0.1351776123046875,-0.175811767578125
1761478294518386000,5.858385986328125,-0.990936279296875,-0.1344757080078125,-0.1740264892578125
1761478294528422000,5.868421875,-0.98516845703125,-0.1325531005859375,-0.1710205078125
1761478294538457900,5.878457763671875,-0.9861907958984375,-0.1329345703125,-0.1695404052734375
1761478294548493800,5.888493896484375,-0.99127197265625,-0.1368408203125,-0.17236328125
1761478294558529800,5.89852978515625,-0.990966796875,-0.1390533447265625,-0.18377685546875
1761478294568565800,5.908565673828125,-0.98321533203125,-0.142425537109375,-0.18902587890625
1761478294578601700,5.918601806640625,-0.979827880859375,-0.14178466796875,-0.1828765869140625
1761478294588638000,5.928637939453125,-0.976470947265625,-0.1372222900390625,-0.1717529296875
1761478294598674000,5.938673828125,-0.9775848388671875,-0.1362152099609375,-0.161712646484375
1761478294608710000,5.9487099609375,-0.98870849609375,-0.1371612548828125,-0.15460205078125
1761478294618746000,5.95874609375,-1.0026702880859375,-0.13641357421875,-0.1586456298828125
1761478294628782000,5.968781982421875,-1.0126953125,-0.13677978515625,-0.1689300537109375
1761478294638818000,5.978818115234375,-1.015167236328125,-0.13726806640625,-0.177734375
1761478294648854000,5.98885400390625,-1.0009765625,-0.1424407958984375,-0.17877197265625
1761478294658890000,5.998889892578125,-0.9831390380859375,-0.1463165283203125,-0.176666259765625
1761478294668926000,6.008926025390625,-0.9732208251953125,-0.1452789306640625,-0.17535400390625
1761478294678962000,6.0189619140625,-0.972503662109375,-0.1428985595703125,-0.174285888671875
1761478294688999000,6.0289990234375,-0.9816131591796875,-0.1381378173828125,-0.1689605712890625
1761478294699035000,6.039034912109375,-0.9935150146484375,-0.1341094970703125,-0.1621856689453125
1761478294709070800,6.04907080078125,-0.994903564453125,-0.1344146728515625,-0.1614990234375
1761478294719106800,6.05910693359375,-0.9913330078125,-0.13665771484375,-0.1629486083984375
1761478294729142800,6.069142822265625,-0.9897308349609375,-0.137115478515625,-0.17132568359375
1761478294739179000,6.079178955078125,-0.9975738525390625,-0.136383056640625,-0.1829986572265625
1761478294749215000,6.089215087890625,-1.01019287109375,-0.1364898681640625,-0.191192626953125
1761478294759251000,6.0992509765625,-1.0153045654296875,-0.1322784423828125,-0.1936492919921875
1761478294769287000,6.109286865234375,-1.0164642333984375,-0.132720947265625,-0.1860504150390625
1761478294779323000,6.119322998046875,-1.002777099609375,-0.1345367431640625,-0.1787109375
1761478294789358800,6.12935888671875,-0.978973388671875,-0.1365509033203125,-0.1771087646484375
1761478294799394800,6.139394775390625,-0.9603271484375,-0.1402435302734375,-0.1765289306640625
1761478294809430800,6.1494306640625,-0.95672607421875,-0.140045166015625,-0.1739044189453125
1761478294819466800,6.159466796875,-0.9662322998046875,-0.1368408203125,-0.172088623046875
1761478294829503500,6.16950341796875,-0.9799346923828125,-0.1316375732421875,-0.177032470703125
1761478294839539500,6.17953955078125,-0.9936370849609375,-0.1298980712890625,-0.1818084716796875
1761478294849575400,6.189575439453125,-0.9976654052734375,-0.1338958740234375,-0.1819915771484375
1761478294859611400,6.199611328125,-0.9931793212890625,-0.1412811279296875,-0.180450439453125
1761478294869647600,6.209647705078125,-0.9897003173828125,-0.146575927734375,-0.177459716796875
1761478294879683600,6.21968359375,-0.9918365478515625,-0.145843505859375,-0.1715850830078125
1761478294889719600,6.229719482421875,-0.999267578125,-0.143341064453125,-0.16412353515625
1761478294899755500,6.239755615234375,-1.0049285888671875,-0.1384735107421875,-0.1612548828125
1761478294909791500,6.24979150390625,-1.00482177734375,-0.135498046875,-0.1623992919921875
1761478294919828700,6.259828857421875,-1.00103759765625,-0.1364288330078125,-0.1660308837890625
1761478294929864700,6.26986474609375,-0.9970550537109375,-0.136322021484375,-0.1730194091796875
1761478294939900700,6.279900634765625,-0.9932098388671875,-0.1357879638671875,-0.1769256591796875
1761478294949936600,6.2899365234375,-0.9918365478515625,-0.1365814208984375,-0.1788177490234375
1761478294959972600,6.29997265625,-0.993377685546875,-0.136566162109375,-0.1794586181640625
1761478294970008600,6.310008544921875,-0.994476318359375,-0.1379852294921875,-0.18292236328125
1761478294980044500,6.32004443359375,-0.986846923828125,-0.1380462646484375,-0.1837158203125
1761478294990080500,6.33008056640625,-0.976837158203125,-0.14007568359375,-0.178131103515625
1761478295000116500,6.340116455078125,-0.9762725830078125,-0.139129638671875,-0.173248291015625
1761478295010152700,6.350152587890625,-0.9799652099609375,-0.1386260986328125,-0.17132568359375
1761478295020188700,6.360188720703125,-0.9834442138671875,-0.1344757080078125,-0.17401123046875
1761478295030224600,6.370224609375,-0.9844818115234375,-0.1352081298828125,-0.175445556640625
1761478295040260600,6.380260498046875,-0.987701416015625,-0.1388397216796875,-0.1753997802734375
1761478295050296600,6.390296630859375,-0.990234375,-0.138671875,-0.17724609375
1761478295060332500,6.40033251953125,-0.9946136474609375,-0.13824462890625,-0.1751708984375
1761478295070368500,6.410368408203125,-1.00006103515625,-0.14044189453125,-0.1673431396484375
1761478295080404500,6.420404541015625,-0.998565673828125,-0.1410980224609375,-0.1646881103515625
1761478295090440400,6.4304404296875,-1.001953125,-0.1396484375,-0.16558837890625
1761478295100476400,6.440476318359375,-1.0031585693359375,-0.144317626953125,-0.16693115234375
1761478295110512400,6.450512451171875,-1.003173828125,-0.143280029296875,-0.167999267578125
1761478295120548600,6.460548583984375,-0.99749755859375,-0.1439208984375,-0.1688995361328125
1761478295130584600,6.47058447265625,-0.9904327392578125,-0.1430816650390625,-0.17254638671875
1761478295140620500,6.48062060546875,-0.98681640625,-0.138427734375,-0.1740264892578125
1761478295150656500,6.490656494140625,-0.9849090576171875,-0.1373138427734375,-0.1681365966796875
1761478295160692500,6.5006923828125,-0.9852447509765625,-0.1397247314453125,-0.16162109375
1761478295170728400,6.510728515625,-0.98883056640625,-0.1398773193359375,-0.160491943359375
1761478295180764400,6.520764404296875,-0.994140625,-0.14031982421875,-0.1664581298828125
1761478295190801700,6.5308017578125,-0.999481201171875,-0.139801025390625,-0.1809234619140625
1761478295200837600,6.540837646484375,-0.997406005859375,-0.1375579833984375,-0.1915130615234375
1761478295210873600,6.55087353515625,-0.9855194091796875,-0.1385955810546875,-0.1937713623046875
1761478295220909600,6.56090966796875,-0.9761810302734375,-0.1383209228515625,-0.186737060546875
1761478295230945500,6.570945556640625,-0.97125244140625,-0.1390838623046875,-0.178924560546875
1761478295240981500,6.5809814453125,-0.9744873046875,-0.1392059326171875,-0.1749267578125
1761478295251017500,6.591017578125,-0.9775390625,-0.1397247314453125,-0.1752777099609375
1761478295261053400,6.601053466796875,-0.9777374267578125,-0.141082763671875,-0.1778106689453125
1761478295271089700,6.611089599609375,-0.9740753173828125,-0.1400909423828125,-0.1772003173828125
1761478295281125600,6.621125732421875,-0.9762115478515625,-0.139892578125,-0.176361083984375
1761478295291161600,6.63116162109375,-0.9880828857421875,-0.140472412109375,-0.1736907958984375
1761478295301197600,6.641197509765625,-1.003692626953125,-0.14154052734375,-0.1741943359375
1761478295311233500,6.651233642578125,-1.0149688720703125,-0.1396331787109375,-0.1726837158203125
1761478295321269500,6.66126953125,-1.021331787109375,-0.139007568359375,-0.176239013671875
1761478295331305500,6.671305419921875,-1.0150909423828125,-0.14093017578125,-0.1800537109375
1761478295341341400,6.681341552734375,-0.99822998046875,-0.14300537109375,-0.1784820556640625
1761478295351377400,6.69137744140625,-0.985076904296875,-0.1433868408203125,-0.17156982421875
1761478295361413400,6.701413330078125,-0.9812774658203125,-0.1421661376953125,-0.1620330810546875
1761478295371449300,6.711449462890625,-0.9855499267578125,-0.1419830322265625,-0.1565399169921875
1761478295381485600,6.721485595703125,-0.9885101318359375,-0.14276123046875,-0.160003662109375
1761478295391521500,6.731521484375,-0.989654541015625,-0.141082763671875,-0.1761474609375
1761478295401557500,6.7415576171875,-0.98663330078125,-0.1420135498046875,-0.1887054443359375
1761478295411593500,6.751593505859375,-0.980316162109375,-0.14569091796875,-0.1934661865234375
1761478295421629700,6.761629638671875,-0.9813995361328125,-0.142547607421875,-0.1902008056640625
1761478295431665700,6.771665771484375,-0.988983154296875,-0.1402435302734375,-0.185791015625
1761478295441701600,6.78170166015625,-0.9967498779296875,-0.1375579833984375,-0.177703857421875
1761478295451738600,6.791738525390625,-0.9976043701171875,-0.135589599609375,-0.170562744140625
1761478295461774600,6.801774658203125,-0.996917724609375,-0.14093017578125,-0.1656494140625
1761478295471810600,6.811810546875,-0.9935302734375,-0.144622802734375,-0.162567138671875
1761478295481846500,6.821846435546875,-0.9884796142578125,-0.146484375,-0.161712646484375
1761478295491882500,6.831882568359375,-0.987579345703125,-0.1476287841796875,-0.162322998046875
1761478295501918500,6.84191845703125,-0.9877777099609375,-0.14666748046875,-0.1702728271484375
1761478295511954400,6.851954345703125,-0.98358154296875,-0.1439208984375,-0.1806182861328125
1761478295521990700,6.86199072265625,-0.9772186279296875,-0.1417083740234375,-0.18890380859375
1761478295532026600,6.872026611328125,-0.983551025390625,-0.13946533203125,-0.18695068359375
1761478295542062600,6.8820625,-0.9958343505859375,-0.1373443603515625,-0.1797637939453125
1761478295552098600,6.8920986328125,-0.99871826171875,-0.137603759765625,-0.1742706298828125
1761478295562134500,6.902134521484375,-0.9980010986328125,-0.14056396484375,-0.1687469482421875
1761478295572170500,6.91217041015625,-0.99127197265625,-0.1435546875,-0.16961669921875
1761478295582206500,6.92220654296875,-0.9845428466796875,-0.1445159912109375,-0.1708221435546875
1761478295592242400,6.932242431640625,-0.9832763671875,-0.1480712890625,-0.170501708984375
1761478295602278400,6.9422783203125,-0.9821319580078125,-0.1475982666015625,-0.1710052490234375
1761478295612314400,6.952314453125,-0.98150634765625,-0.1446685791015625,-0.1671600341796875
1761478295622350300,6.962350341796875,-0.987548828125,-0.1417388916015625,-0.161834716796875
1761478295632386600,6.972386474609375,-0.9961090087890625,-0.1410369873046875,-0.1629486083984375
1761478295642422500,6.982422607421875,-1.0030975341796875,-0.1417083740234375,-0.1683502197265625
1761478295652458800,6.992458740234375,-1.005157470703125,-0.1429901123046875,-0.1791839599609375
1761478295662494700,7.00249462890625,-1.0111236572265625,-0.14471435546875,-0.1807098388671875
1761478295672530700,7.01253076171875,-1.0139923095703125,-0.144561767578125,-0.174957275390625
1761478295682566700,7.022566650390625,-1.001617431640625,-0.1422576904296875,-0.1703338623046875
1761478295692602600,7.0326025390625,-0.9842987060546875,-0.1410064697265625,-0.1683197021484375
1761478295702638600,7.042638671875,-0.9659576416015625,-0.14166259765625,-0.1712799072265625
1761478295712674600,7.052674560546875,-0.9599761962890625,-0.1428985595703125,-0.1718902587890625
1761478295722711600,7.062711669921875,-0.9594573974609375,-0.142425537109375,-0.1725006103515625
1761478295732747500,7.07274755859375,-0.972625732421875,-0.1426849365234375,-0.1712646484375
1761478295742783500,7.082783447265625,-0.9897308349609375,-0.144622802734375,-0.1728363037109375
1761478295752819500,7.0928193359375,-0.9978790283203125,-0.1428070068359375,-0.17572021484375
1761478295762855400,7.10285546875,-0.997314453125,-0.143890380859375,-0.179840087890625
1761478295772891600,7.1128916015625,-0.9974517822265625,-0.14154052734375,-0.1849212646484375
1761478295782927600,7.122927734375,-0.999053955078125,-0.1392669677734375,-0.1851959228515625
1761478295792963600,7.132963623046875,-1.0009918212890625,-0.140380859375,-0.182373046875
1761478295802999600,7.14299951171875,-0.998291015625,-0.141876220703125,-0.1714019775390625
1761478295813035500,7.153035400390625,-0.986968994140625,-0.144927978515625,-0.1558685302734375
1761478295823071500,7.163071533203125,-0.9748687744140625,-0.14593505859375,-0.148773193359375
1761478295833107000,7.17310693359375,-0.9725494384765625,-0.146759033203125,-0.154876708984375
1761478295843143000,7.183142822265625,-0.98095703125,-0.1461029052734375,-0.1641387939453125
1761478295853179000,7.193178955078125,-0.9946746826171875,-0.1409454345703125,-0.1745758056640625
1761478295863214800,7.20321484375,-1.005645751953125,-0.1352386474609375,-0.18560791015625
1761478295873251000,7.2132509765625,-1.0117950439453125,-0.13427734375,-0.18914794921875
1761478295883287000,7.223287109375,-1.00567626953125,-0.1377410888671875,-0.187469482421875
1761478295893323000,7.233322998046875,-0.9983367919921875,-0.1377410888671875,-0.1900177001953125
1761478295903359000,7.24335888671875,-0.98480224609375,-0.139556884765625,-0.18634033203125
1761478295913395000,7.25339501953125,-0.977996826171875,-0.1412353515625,-0.167755126953125
1761478295923431000,7.263430908203125,-0.977813720703125,-0.14105224609375,-0.157562255859375
1761478295933467000,7.273466796875,-0.985382080078125,-0.139312744140625,-0.166015625
1761478295943502800,7.2835029296875,-0.9964141845703125,-0.1364593505859375,-0.1742401123046875
1761478295953538800,7.293538818359375,-1.004302978515625,-0.136383056640625,-0.1781463623046875
1761478295963574800,7.30357470703125,-1.0050811767578125,-0.136993408203125,-0.185028076171875
1761478295973610800,7.31361083984375,-1.0035858154296875,-0.139984130859375,-0.192840576171875
1761478295983647000,7.32364697265625,-0.995452880859375,-0.145233154296875,-0.1854705810546875
1761478295993683000,7.333682861328125,-0.981231689453125,-0.1477508544921875,-0.1714630126953125
1761478296003719000,7.343718994140625,-0.973358154296875,-0.14776611328125,-0.15887451171875
1761478296013755100,7.353755126953125,-0.9716949462890625,-0.1462554931640625,-0.1536712646484375
1761478296023792000,7.363792236328125,-0.97467041015625,-0.1416168212890625,-0.1591033935546875
1761478296033828000,7.373828125,-0.9810333251953125,-0.1405029296875,-0.16656494140625
1761478296043864000,7.383864013671875,-0.9874114990234375,-0.141815185546875,-0.1695556640625
1761478296053900000,7.393900146484375,-0.9935302734375,-0.141448974609375,-0.172393798828125
1761478296063936000,7.40393603515625,-0.9992218017578125,-0.14434814453125,-0.17608642578125
1761478296073972000,7.413971923828125,-1.0024261474609375,-0.1466217041015625,-0.1770782470703125
1761478296084008000,7.424008056640625,-1.0033111572265625,-0.1448822021484375,-0.1802215576171875
1761478296094044000,7.4340439453125,-0.9954986572265625,-0.144378662109375,-0.1739501953125
1761478296104080000,7.444079833984375,-0.9866485595703125,-0.145965576171875,-0.16497802734375
1761478296114115800,7.45411572265625,-0.98577880859375,-0.1397705078125,-0.1633148193359375
1761478296124152000,7.464152099609375,-0.9886322021484375,-0.13995361328125,-0.1602020263671875
1761478296134188000,7.47418798828125,-0.99176025390625,-0.1436614990234375,-0.16510009765625
1761478296144224000,7.48422412109375,-0.9954681396484375,-0.1424407958984375,-0.173675537109375
1761478296154260000,7.494260009765625,-0.9976959228515625,-0.1431121826171875,-0.17620849609375
1761478296164296000,7.5042958984375,-0.99932861328125,-0.1420135498046875,-0.177032470703125
1761478296174332000,7.514331787109375,-1.0024871826171875,-0.1418304443359375,-0.17999267578125
1761478296184367900,7.524367919921875,-1.0044097900390625,-0.1412200927734375,-0.182708740234375
1761478296194403800,7.53440380859375,-0.9967498779296875,-0.1436309814453125,-0.1757659912109375
1761478296204439800,7.544439697265625,-0.98138427734375,-0.143310546875,-0.1695709228515625
1761478296214475800,7.554475830078125,-0.9680938720703125,-0.1473846435546875,-0.1666717529296875
1761478296224511700,7.56451171875,-0.9696807861328125,-0.1468353271484375,-0.1580352783203125
1761478296234548000,7.5745478515625,-0.9788970947265625,-0.14459228515625,-0.1529388427734375
1761478296244584200,7.584584228515625,-0.99578857421875,-0.140289306640625,-0.157379150390625
1761478296254620200,7.5946201171875,-1.0111236572265625,-0.1448822021484375,-0.165924072265625
1761478296264656100,7.60465625,-1.010101318359375,-0.15106201171875,-0.173309326171875
1761478296274692000,7.614692138671875,-0.9977264404296875,-0.150970458984375,-0.1722869873046875
1761478296284728000,7.62472802734375,-0.981414794921875,-0.1504669189453125,-0.163055419921875
1761478296294764000,7.634763916015625,-0.976593017578125,-0.1512298583984375,-0.1551361083984375
1761478296304800000,7.644800048828125,-0.9757843017578125,-0.147918701171875,-0.1619110107421875
1761478296314837000,7.6548369140625,-0.986663818359375,-0.145599365234375,-0.1732635498046875
1761478296324872000,7.664871826171875,-1.0037078857421875,-0.1384124755859375,-0.181427001953125
1761478296334909000,7.674908935546875,-1.0125579833984375,-0.1323699951171875,-0.193572998046875
1761478296344945000,7.68494482421875,-1.004486083984375,-0.1371002197265625,-0.1992340087890625
1761478296354980900,7.69498095703125,-0.984405517578125,-0.1489410400390625,-0.1892242431640625
1761478296365016800,7.705016845703125,-0.9609375,-0.15179443359375,-0.173919677734375
1761478296375053000,7.715052978515625,-0.947265625,-0.15069580078125,-0.161529541015625
1761478296385089000,7.725089111328125,-0.954925537109375,-0.1506195068359375,-0.156494140625
1761478296395125000,7.735125,-0.966400146484375,-0.14666748046875,-0.161376953125
1761478296405161000,7.745160888671875,-0.979705810546875,-0.1446380615234375,-0.16680908203125
1761478296415197000,7.755197021484375,-0.99444580078125,-0.1448516845703125,-0.16778564453125
1761478296425233000,7.76523291015625,-1.0142059326171875,-0.1415557861328125,-0.1722564697265625
1761478296435268900,7.775268798828125,-1.0278778076171875,-0.138336181640625,-0.1810302734375
1761478296445304800,7.785304931640625,-1.0267791748046875,-0.1445465087890625,-0.1847686767578125
1761478296455340800,7.7953408203125,-1.015106201171875,-0.1469879150390625,-0.182708740234375
1761478296465376800,7.805376708984375,-0.9976806640625,-0.1480255126953125,-0.1744232177734375
1761478296475413000,7.8154130859375,-0.9858245849609375,-0.1487274169921875,-0.166961669921875
1761478296485449000,7.825448974609375,-0.98101806640625,-0.1477203369140625,-0.1631317138671875
1761478296495485200,7.835485107421875,-0.9846343994140625,-0.14239501953125,-0.1641998291015625
1761478296505521200,7.845521240234375,-0.991180419921875,-0.138885498046875,-0.170196533203125
1761478296515557000,7.85555712890625,-0.994537353515625,-0.14080810546875,-0.1749267578125
1761478296525593000,7.865593017578125,-0.9869842529296875,-0.1444091796875,-0.181243896484375
1761478296535629000,7.875629150390625,-0.975677490234375,-0.146759033203125,-0.188507080078125
1761478296545665000,7.8856650390625,-0.9646453857421875,-0.1488037109375,-0.1883697509765625
1761478296555701000,7.895700927734375,-0.960174560546875,-0.1503143310546875,-0.182891845703125
1761478296565737000,7.905737060546875,-0.9652862548828125,-0.145599365234375,-0.1715545654296875
1761478296575773000,7.91577294921875,-0.9788970947265625,-0.1398162841796875,-0.16278076171875
1761478296585809000,7.925808837890625,-1.0006866455078125,-0.1384124755859375,-0.169769287109375
1761478296595844900,7.935844970703125,-1.015899658203125,-0.1384429931640625,-0.1777801513671875
1761478296605881000,7.945881103515625,-1.0158538818359375,-0.144561767578125,-0.173248291015625
1761478296615917000,7.9559169921875,-1.0087738037109375,-0.146453857421875,-0.16522216796875
1761478296625953000,7.965953125,-0.9962310791015625,-0.147613525390625,-0.16552734375
1761478296635990000,7.975989990234375,-0.98333740234375,-0.150634765625,-0.1719207763671875
1761478296646026000,7.98602587890625,-0.976470947265625,-0.1493072509765625,-0.1757049560546875
1761478296656062000,7.99606201171875,-0.987060546875,-0.14642333984375,-0.171112060546875
1761478296666098000,8.006097900390625,-1.0045166015625,-0.1405181884765625,-0.167327880859375
1761478296676131800,8.0161318359375,-1.0181732177734375,-0.13580322265625,-0.169158935546875
1761478296686168000,8.02616796875,-1.0111846923828125,-0.139129638671875,-0.174346923828125
1761478296696204000,8.0362041015625,-0.9921417236328125,-0.1468048095703125,-0.18182373046875
1761478296706240000,8.046239990234374,-0.9747467041015625,-0.1495208740234375,-0.181854248046875
1761478296716276000,8.05627587890625,-0.9610748291015625,-0.150238037109375,-0.17425537109375
1761478296726312000,8.06631201171875,-0.95611572265625,-0.1504669189453125,-0.169036865234375
1761478296736348000,8.076347900390624,-0.9569091796875,-0.1485137939453125,-0.168182373046875
1761478296746384000,8.0863837890625,-0.9723663330078125,-0.1441192626953125,-0.16778564453125
1761478296756419800,8.096419921875,-0.996002197265625,-0.1374359130859375,-0.1699981689453125
1761478296766455800,8.106455810546874,-1.0117645263671875,-0.136505126953125,-0.1727752685546875
1761478296776491800,8.11649169921875,-1.0125732421875,-0.143524169921875,-0.1764068603515625
1761478296786528000,8.126528076171875,-0.9974365234375,-0.1496429443359375,-0.1776580810546875
1761478296796564000,8.13656396484375,-0.991607666015625,-0.153961181640625,-0.182830810546875
1761478296806600000,8.146599853515625,-0.9943389892578125,-0.1548004150390625,-0.187713623046875
1761478296816637000,8.156636962890625,-0.9911651611328125,-0.1499176025390625,-0.187225341796875
1761478296826672000,8.166672119140625,-0.984527587890625,-0.144317626953125,-0.177581787109375
1761478296836709400,8.17670947265625,-0.9315643310546875,-0.08148193359375,-0.1637420654296875
1761478296846745300,8.186745361328125,-0.89337158203125,-0.1419677734375,-0.12548828125
1761478296856781300,8.19678125,-1.0009918212890625,-0.20086669921875,-0.1312255859375
1761478296866817300,8.2068173828125,-1.073516845703125,-0.1451416015625,-0.2045135498046875
1761478296876853200,8.216853271484375,-1.101348876953125,-0.1353302001953125,-0.202545166015625
1761478296886889200,8.22688916015625,-1.10693359375,-0.165740966796875,-0.19354248046875
1761478296896925200,8.23692529296875,-1.076263427734375,-0.1327362060546875,-0.1951141357421875
1761478296906961200,8.246961181640625,-0.9921722412109375,-0.154876708984375,-0.15972900390625
1761478296916997000,8.2569970703125,-0.917724609375,-0.16973876953125,-0.12939453125
1761478296927033000,8.267033203125,-0.878021240234375,-0.1548309326171875,-0.132293701171875
1761478296937069300,8.2770693359375,-0.878631591796875,-0.1398468017578125,-0.150787353515625
1761478296947105300,8.287105224609375,-0.9048309326171875,-0.1151123046875,-0.167724609375
