time,seconds_elapsed,z,y,x
1761478801887599000,0.09859912109375,-0.5049234523147345,-0.060169696943648154,-0.2399482815429568
1761478801897636400,0.10863623046875,-0.4898486327797174,0.015847995864599944,-0.149792648191005
1761478801907672300,0.11867236328125,-0.5724082580447196,0.13058569728732108,0.03669862232208252
1761478801917709300,0.128709228515625,-0.5855360351651907,0.2455019701473415,0.18664193103015422
1761478801927745300,0.138745361328125,-0.5248433737933635,0.273978524906002,0.27829627850726246
1761478801937782300,0.1487822265625,-0.4769797988563776,0.2108666735632345,0.21580109775811432
1761478801947818200,0.158818359375,-0.5330062219828366,0.14659947817288338,0.012371990317106247
1761478801957854200,0.168854248046875,-0.5452805971443653,0.08769486926160752,-0.08530307875424623
1761478801967891200,0.17889111328125,-0.5112403803765774,0.10309778823982924,-0.062379007023572915
1761478801977927200,0.18892724609375,-0.3783002289175987,0.19414098154865203,-0.021040303810685872
1761478801987964400,0.19896435546875,-0.2618886029332876,0.2824638830481097,0.04218216829970479
1761478801998000400,0.20900048828125,-0.11076105287671088,0.3316881153464317,0.15890256797224284
1761478802008036400,0.219036376953125,0.02198386827111244,0.35443156981319185,0.22393062819987533
1761478802018073300,0.2290732421875,0.0631897388845682,0.34666257977951315,0.13673413691446185
1761478802028109300,0.239109375,0.04471884717047214,0.3251519550433382,-0.02656725053861737
1761478802038146300,0.249146240234375,0.016667641684412954,0.2451551660036668,-0.17642478065937756
1761478802048182300,0.259182373046875,-0.06462064847052097,0.1162570564771071,-0.3341948374703526
1761478802058218200,0.26921826171875,-0.09787935947179793,0.006802519621700048,-0.46314767285883424
1761478802068255500,0.27925537109375,-0.14345745382010935,0.0021405556926503777,-0.5523270085245371
1761478802078291500,0.28929150390625,-0.1564876157850027,0.06432363828532398,-0.47907487143948674
1761478802088328400,0.299328369140625,-0.10818740299642085,0.112139757351391,-0.3429058210618794
1761478802098364400,0.309364501953125,0.08397007658481598,0.09853778684791177,-0.19029826158061622
1761478802108401400,0.3194013671875,0.2840969276100397,0.0008812032813206315,-0.011351268967241049
1761478802118437400,0.329437255859375,0.399948581624031,-0.04728961097393185,0.10080664509534835
1761478802128473300,0.339473388671875,0.38146599947214127,-0.05031531547065824,0.15062266927435994
1761478802138510300,0.34951025390625,0.3025456074923277,-0.027179244957119226,0.180719993635267
1761478802148546300,0.35954638671875,0.11056114639043807,0.014555800629593432,0.23827990993931888
1761478802158583300,0.369583251953125,-0.10391513250470161,0.07928005560506135,0.2895024399153888
1761478802168619500,0.37961962890625,-0.38931671297252174,0.16414390269182622,0.30531346477046606
1761478802178655500,0.389655517578125,-0.6691103904306889,0.2737118733264506,0.3086633597202599
1761478802188692200,0.399692138671875,-0.8797972139149903,0.29940767479278146,0.26707638083472846
1761478802198728400,0.409728515625,-0.8715940337151289,0.256918559435755,0.12215016963630913
1761478802208765200,0.41976513671875,-0.6614724428981542,0.15823957401886582,0.0016799159109592437
1761478802218801200,0.42980126953125,-0.5072609553515911,0.04765040711034089,-0.09231851047426462
1761478802228837400,0.43983740234375,-0.4003863885194063,0.05800064580887556,-0.22638430496230721
1761478802238874000,0.4498740234375,-0.31682723082304,0.17060809373725205,-0.24271496977731585
1761478802248910000,0.45991015625,-0.23572306506335733,0.36086784993838517,0.0038411855980753896
1761478802258947300,0.469947265625,-0.07744096707701682,0.31298016347344965,0.25871713329032064
1761478802268983300,0.4799833984375,-0.008403671208024025,0.2970034997278824,0.3192658561468124
1761478802279019300,0.490019287109375,0.08506722417175769,0.2828262500870973,0.27835020065158605
1761478802289056300,0.50005615234375,0.1216179624557495,0.08417663200758398,0.2192776878274977
1761478802299092200,0.51009228515625,0.14902444029748438,-0.05318053217604756,-0.022279636347293852
1761478802309129200,0.520129150390625,0.16239245591461657,0.06878379603195935,-0.31862989633083344
1761478802319165200,0.530165283203125,0.13012626308202743,0.27607206311915067,-0.3673487729229033
1761478802329201200,0.540201171875,0.046910219734907145,0.3536901768613607,-0.14338058919161556
1761478802339238400,0.55023828125,-0.1307721597701311,0.2886032625859603,0.14894801406040786
1761478802349274400,0.5602744140625,-0.33424773670136926,0.2761046136818826,0.3484541028387844
1761478802359311400,0.570311279296875,-0.4494856427311897,0.24912432536296544,0.3867861715815961
1761478802369347300,0.580347412109375,-0.4275754242181778,0.1955658997852355,0.34355011031478644
1761478802379384300,0.59038427734375,-0.3242483207345009,0.07615932976864277,0.30876126713678237
1761478802389420500,0.600420654296875,-0.25516075598299504,-0.06481741315163672,0.22673487196564673
1761478802399456500,0.61045654296875,-0.19284253923594952,-0.165918620746769,0.09323708662390709
1761478802409493500,0.620493408203125,-0.22145430121421814,-0.16624178828652947,-0.044737990262359376
1761478802419529500,0.630529541015625,-0.32833237517774105,-0.06870196296740323,-0.12201368377506733
1761478802429566500,0.64056640625,-0.4267904113203287,0.013551445892639458,-0.08834493066817521
1761478802439602400,0.6506025390625,-0.49422202555835243,0.07391819977834821,0.037246611593663694
1761478802449638400,0.660638427734375,-0.5782920553863048,0.0886210076631978,0.12501067363396287
1761478802459675400,0.67067529296875,-0.5722241336494683,0.15414072386529296,0.1831819998346269
1761478802469711400,0.68071142578125,-0.5126403103023767,0.1700967832142487,0.2531130296729505
1761478802479748600,0.69074853515625,-0.3496154017031193,0.18687113667614758,0.2591084706954658
1761478802489784600,0.70078466796875,-0.12090133861899376,0.1720343271480873,0.19419176188781856
1761478802499820500,0.710820556640625,0.05912672722935676,0.013969634772092104,0.009700140759348868
1761478802509857500,0.720857421875,0.22156185324192046,-0.17894286442752927,-0.2689266848765314
1761478802519893500,0.7308935546875,0.4114098868370056,-0.3897198138806969,-0.5372581803388893
1761478802529930200,0.74093017578125,0.5588818369954824,-0.5031994050011038,-0.702034754911065
1761478802539966500,0.750966552734375,0.5224819053590297,-0.606130129578337,-0.7165802898749709
1761478802550003200,0.761003173828125,0.27529695056080816,-0.6031602469220757,-0.762184979969263
1761478802560039200,0.7710390625,-0.025871523359417913,-0.5102048267837613,-0.9348018927782773
1761478802570075400,0.781075439453125,-0.21083938369750976,-0.4737712851386517,-1.1355167728245257
1761478802580112400,0.7911123046875,-0.25602701742351053,-0.573145888136886,-1.2275921221926807
1761478802590148400,0.8011484375,-0.2090554228901863,-0.6355184288870542,-1.2614198652535675
1761478802600185300,0.811185302734375,-0.1458691911369562,-0.6786012723535298,-1.1909269637487827
1761478802610221300,0.82122119140625,-0.07684826188087462,-0.6672432813845575,-1.0279656219050288
1761478802620257300,0.83125732421875,-0.1586404099047184,-0.5815453580938279,-0.8380315174616872
1761478802630294300,0.841294189453125,-0.37695699761509893,-0.5714710502598435,-0.6884162716642022
1761478802640330200,0.851330322265625,-0.45185938612520693,-0.591329085483402,-0.5523366531357169
1761478802650367500,0.861367431640625,-0.3908838161587715,-0.5484759225869551,-0.36999826451838014
1761478802660403500,0.871403564453125,-0.25657471443414687,-0.48867969859819854,-0.17609131092131136
1761478802670439400,0.881439453125,-0.11932371403872966,-0.4874062445962801,-0.04265110098570585
1761478802680476400,0.891476318359375,-0.09298574221134186,-0.4768970159437507,-0.0376753583997488
1761478802690512400,0.901512451171875,0.008213701593875885,-0.41851613864563403,-0.05863382914587855
1761478802700549400,0.91154931640625,0.1722778901129961,-0.40466523488238454,0.035262598169595004
1761478802710585300,0.92158544921875,0.28441666108369823,-0.4332578172361478,0.10482990926206111
1761478802720621300,0.931621337890625,0.3117465665578842,-0.3591705810338259,0.05665551481023431
1761478802730658300,0.941658203125,0.3579378243684768,-0.2753180664140731,0.04017769660949707
1761478802740694300,0.9516943359375,0.32625439985990523,-0.2530475632213056,0.04671557394564151
1761478802750731500,0.9617314453125,0.2582289113819599,-0.23462825556397437,-0.029847733514010905
1761478802760767500,0.971767578125,0.26547230663895605,-0.2527289257261902,-0.18730185624361037
1761478802770804500,0.981804443359375,0.21368892790973185,-0.311793985896185,-0.3976118092395365
1761478802780840400,0.99184033203125,0.15405366663634776,-0.3969617113003507,-0.5158588339574635
1761478802790876400,1.00187646484375,0.1491068578839302,-0.4967287842148915,-0.5497558428622782
1761478802800913400,1.011913330078125,0.07787585136294364,-0.5147180298918858,-0.5589058023929596
1761478802810949400,1.021949462890625,-0.08618015384972096,-0.47679680697228755,-0.5267948001220822
1761478802820986600,1.031986572265625,-0.38257834462821483,-0.36225755073111504,-0.4524433234930038
1761478802831022600,1.042022705078125,-0.5451847355544567,-0.27352672601789235,-0.29058365928083657
1761478802841058600,1.05205859375,-0.659322571387887,-0.24132724174596368,-0.08574088564962148
1761478802851095600,1.062095458984375,-0.6255196705073118,-0.22923392223976552,0.0630722499847412
1761478802861131500,1.072131591796875,-0.438714657869935,-0.2757050199050456,0.1877671356678009
1761478802871168300,1.082168212890625,-0.13470540756583213,-0.3680295947939157,0.3055067953854799
1761478802881204500,1.09220458984375,0.21224340527653693,-0.477463052328676,0.34796558866947885
1761478802891241200,1.1022412109375,0.5213005866199731,-0.6154707893755287,0.3052738634124398
1761478802901277200,1.112277099609375,0.7389747847735881,-0.7358107677847147,0.25796733783632514
1761478802911313400,1.1223134765625,0.809306212106347,-0.7408793032206594,0.24402093780934808
1761478802921350400,1.132350341796875,0.6225649123549462,-0.6857967368155717,0.16509616191536186
1761478802931386400,1.142386474609375,0.4394470637977123,-0.6642484834827482,0.07261953826993703
1761478802941423400,1.15242333984375,0.2469184128165245,-0.6477885662648827,-0.03256634482294321
1761478802951459300,1.162459228515625,0.10261164869070052,-0.5842043481700122,-0.16253683282136916
1761478802961495300,1.172495361328125,0.07768763531446457,-0.5787830537736416,-0.28243980805277824
1761478802971532300,1.1825322265625,0.11207564260661601,-0.7242057432521134,-0.4200748393297195
1761478802981568300,1.192568359375,0.18846505480408668,-0.8716508784689009,-0.5427224370941519
1761478802991605200,1.202605224609375,0.24071137486994265,-0.920019480318576,-0.6204562496379017
1761478803001641200,1.21264111328125,0.25113632277250286,-0.8628400146994739,-0.6405611722946166
1761478803011678500,1.222678466796875,0.22555472227036952,-0.8034666922979057,-0.5696951996937394
1761478803021714400,1.23271435546875,0.21571488077938555,-0.7544384574957191,-0.4650961765781045
1761478803031750400,1.24275048828125,0.19708090745806692,-0.7085306197363883,-0.4049067885532975
1761478803041787400,1.252787353515625,0.16897417239248752,-0.6953109996140002,-0.4123465831652283
1761478803051823400,1.2628232421875,0.03521101411283016,-0.698708679228276,-0.4659489940151572
1761478803061860400,1.2728603515625,-0.14698212081491946,-0.6507279076524078,-0.45886371192932124
1761478803071896300,1.282896240234375,-0.27613924660384653,-0.5636600111827254,-0.3469707324132323
1761478803081932300,1.292932373046875,-0.31170448098182674,-0.48038222771100697,-0.15912643985599279
1761478803091969500,1.302969482421875,-0.2515805594086647,-0.44156507886499163,-0.027581249886751175
1761478803102005500,1.313005615234375,-0.15207330647408962,-0.4322554717931896,-0.04995879365056753
1761478803112042500,1.32304248046875,-0.02273848603069782,-0.4611141212046146,-0.17516922764033077
1761478803122078500,1.333078369140625,0.08754442794024944,-0.5474890669740736,-0.2898766800552606
1761478803132114400,1.343114501953125,0.13887538672685623,-0.6433374320749193,-0.40642537642270327
1761478803142151400,1.3531513671875,0.20502631350457667,-0.6530528434686362,-0.5116171047344803
1761478803152187400,1.3631875,0.28607728777229785,-0.6132906688574701,-0.532839633244276
1761478803162224400,1.373224365234375,0.34022681111097336,-0.5169286551460623,-0.5214528545722366
1761478803172260400,1.38326025390625,0.3003437135338783,-0.39085364021621644,-0.5752674468681216
1761478803182297300,1.39329736328125,0.13750935907065867,-0.22824900285564362,-0.6340213952623307
1761478803192333600,1.40333349609375,-0.18573942923247813,-0.04631963343061506,-0.6156196232616901
1761478803202369500,1.41336962890625,-0.6274304725646972,0.10790274083614348,-0.574192511112988
1761478803212406300,1.42340625,-1.0514128407269716,0.20830803858898578,-0.5432246875278651
1761478803222442500,1.4334423828125,-1.2606237464398145,0.2719933059055358,-0.4839784255720675
1761478803232479200,1.443479248046875,-1.2708587247282266,0.41235746988542377,-0.4147022063806653
1761478803242515200,1.45351513671875,-1.1872516362369059,0.5363723374150693,-0.3245455501154065
1761478803252551400,1.463551513671875,-1.0301806676059961,0.6137423581477254,-0.2227691832050681
1761478803262588400,1.47358837890625,-0.7501479206949472,0.6639949471130967,-0.14016630332022906
1761478803272624400,1.483624267578125,-0.46667175533175465,0.6037064095627516,-0.01688552221879363
1761478803282661400,1.493661376953125,-0.20015607711970804,0.4682780945498496,0.06228285317271948
1761478803292697300,1.503697265625,0.014018588480353355,0.3335984790123999,0.013145020516216754
1761478803302733300,1.5137333984375,0.1543605406284332,0.2427856969259679,-0.13060381746590136
1761478803312770300,1.523770263671875,0.2747983533889055,0.22913170397430657,-0.25145897885560986
1761478803322806300,1.53380615234375,0.3680617434978485,0.21748773567080495,-0.20948972265422344
1761478803332843300,1.54384326171875,0.40741584876477716,0.25023075223490593,-0.1011883378893137
1761478803342879200,1.553879150390625,0.42172494462430477,0.32830972495451566,-0.004986994632333517
1761478803352916500,1.56391650390625,0.3916898718446493,0.38284780921936035,0.05779226375520229
1761478803362952400,1.573952392578125,0.3354617886662483,0.37841041129380465,0.05684446151107549
1761478803372988400,1.583988525390625,0.2716261530935764,0.2929443970628083,0.08291004613786936
1761478803383025400,1.594025390625,0.16187456952035426,0.248273334556818,0.1593999961003661
1761478803393061400,1.604061279296875,0.01427753167748451,0.2791486575528979,0.24551994419544934
1761478803403098400,1.614098388671875,-0.14989011721611023,0.34663770106658337,0.27594708503261206
1761478803413134300,1.62413427734375,-0.3199024004846811,0.5075824423909187,0.2446380467943847
1761478803423170300,1.63417041015625,-0.39664311033785343,0.6674002255119383,0.24653467419594524
1761478803433207600,1.64420751953125,-0.3925526261538267,0.7282328798763453,0.27606033614873887
1761478803443243500,1.654243408203125,-0.29454233377873895,0.6905719883933663,0.2752440513297915
1761478803453280500,1.664280517578125,-0.22114041295945644,0.6309620076917112,0.15913243120536208
1761478803463316500,1.67431640625,-0.18981705393493176,0.6052918521232903,-0.03909063202515244
1761478803473353500,1.684353515625,-0.17179682859778403,0.5214956708006561,-0.242440536750108
1761478803483389400,1.694389404296875,-0.1409071848154068,0.447070836674422,-0.3434701769463718
1761478803493425400,1.70442529296875,-0.146304075422883,0.43089010172411796,-0.4163004353575408
1761478803503462400,1.71446240234375,-0.19191256490945816,0.4830294542841613,-0.38711072736084456
1761478803513498600,1.72449853515625,-0.2509504448115826,0.5169583196319639,-0.30359029423967004
1761478803523535600,1.73453564453125,-0.27390169681012627,0.578996696524322,-0.19700944965705275
1761478803533571600,1.744571533203125,-0.2605786893785,0.5289007594253867,-0.13643120844513176
1761478803543607600,1.754607666015625,-0.13556582378745077,0.5042277251355349,-0.15101152246147392
1761478803553644500,1.76464453125,-0.019687866288423537,0.5404952625639736,-0.09794920983761549
1761478803563680500,1.774680419921875,-0.03186813342571258,0.5558057905510068,0.02912994063347578
1761478803573717200,1.78471728515625,-0.06221592541635036,0.6157424459237605,0.25365210498571394
1761478803583753500,1.79475341796875,-0.08699380832016468,0.6955261036694049,0.4762514845818281
1761478803593789400,1.80478955078125,-0.15412147117555142,0.7762394434805959,0.6407314142949879
1761478803603826400,1.814826416015625,-0.3170756526261568,0.8137140916764736,0.7160711713090538
1761478803613862400,1.8248623046875,-0.5118669878423213,0.9023688189461827,0.6766520379818975
1761478803623899400,1.8348994140625,-0.591296498388052,0.9529738746110349,0.617538900886476
1761478803633935400,1.844935302734375,-0.5660872383296489,0.9478769167982042,0.5429539077624679
1761478803643972400,1.854972412109375,-0.38943361735045906,0.9099874041911215,0.42862975557669997
1761478803654008300,1.86500830078125,-0.178613522875309,0.9021274114057422,0.26868366990089415
1761478803664044300,1.875044189453125,-0.012026537880301474,0.864843536541611,0.17524448483362792
1761478803674081300,1.885081298828125,0.10452128170430659,0.8095848098520189,0.20651348332241176
1761478803684117200,1.8951171875,0.16068682104051113,0.7251561027795076,0.28472587316334247
1761478803694154500,1.905154541015625,0.19290742116570472,0.7047461327616125,0.29851372162774203
1761478803704190500,1.9151904296875,0.2050514479458332,0.6619079117059707,0.18957739996016024
1761478803714226400,1.925226318359375,0.18949030619859694,0.5421919104140251,0.07591346524879336
1761478803724263400,1.935263427734375,0.10046820692121981,0.4836378685060888,-0.03115691641643643
1761478803734299400,1.94529931640625,0.016485855376720426,0.4429928466457873,-0.15940554905831814
1761478803744336400,1.95533642578125,-0.07691548189818859,0.3529964224435389,-0.2229750810407102
1761478803754372400,1.965372314453125,-0.1731137564152479,0.25829481622502204,-0.253403975443542
1761478803764409600,1.97540966796875,-0.31651509613394735,0.2650647487513721,-0.28974560102149843
1761478803774445600,1.985445556640625,-0.45026714849770066,0.3067931819342077,-0.2514619014650583
1761478803784481500,1.9954814453125,-0.5343909543395042,0.3681090897709131,-0.16454539616480468
1761478803794518500,2.0055185546875,-0.564542931497097,0.4080042431119829,0.010252952336519955
1761478803804554500,2.015554443359375,-0.44740006862878795,0.3888711611621082,0.2876788777500391
1761478803814591500,2.025591552734375,-0.3033165918648243,0.3532847378656268,0.5657547915048897
1761478803824627500,2.03562744140625,-0.19813304685950278,0.3599820435471833,0.7207771570429206
1761478803834663400,2.045663330078125,-0.1388929223835468,0.37413200332224367,0.7613615347571671
1761478803844700400,2.055700439453125,-0.129194535189867,0.3569794276650995,0.7405825122311711
1761478803854736400,2.065736328125,-0.09189210175573825,0.27021877051368354,0.7685121371641754
1761478803864773600,2.075773681640625,-0.05211772525012493,0.17662110694907604,0.7018330948591232
1761478803874809600,2.0858095703125,-0.023225977286696432,0.1675225122794509,0.5163086235515773
1761478803884845600,2.095845458984375,0.028019056782126427,0.23058825945816933,0.4000364060379564
1761478803894882600,2.105882568359375,0.013070493975281714,0.25068974804878236,0.35361849986463784
1761478803904918500,2.11591845703125,0.0063601826816797255,0.28634207618832586,0.32771029775664207
1761478803914955300,2.125955322265625,-0.061032268589735025,0.27941088868565855,0.3075127283804118
1761478803924991500,2.135991455078125,-0.1608054789841175,0.21337255543693898,0.24927096729204057
1761478803935027500,2.14602734375,-0.18386545205414295,0.18061229547709226,0.20172639517635105
1761478803945064400,2.156064453125,-0.2959597993612289,0.15945435663610696,0.13676584722697735
1761478803955100400,2.166100341796875,-0.41737668628692626,0.16511077496260404,0.07218304654881358
1761478803965137400,2.176137451171875,-0.5352525396049023,0.2110273805502802,0.03457885368913412
1761478803975173400,2.18617333984375,-0.6619792233765125,0.21293891326002776,0.02352846736460924
1761478803985209300,2.196209228515625,-0.7026894194275141,0.16314568543471394,0.03359276526123285
1761478803995246300,2.206246337890625,-0.6522779135733843,0.1502726867929101,0.03436038863286376
1761478804005282300,2.2162822265625,-0.48820554174780845,0.13802088878937066,0.04936594232395291
1761478804015319300,2.2263193359375,-0.33698154557943344,0.07041187215782702,0.10918956577628851
1761478804025355300,2.236355224609375,-0.19211714757084844,-0.010779971885308623,0.12582768910527228
1761478804035391200,2.24639111328125,-0.11693418855369091,-0.09684943190217017,0.11281111727431416
1761478804045428500,2.256428466796875,-0.10671499235630034,-0.16014920703247187,0.0890961874268949
1761478804055464400,2.26646435546875,-0.09853343946635723,-0.19582520830854772,0.09738485395312309
1761478804065501400,2.27650146484375,-0.13171850070953367,-0.19786160950697956,0.15206687673330307
1761478804075537400,2.286537353515625,-0.22605565752983092,-0.17308102318942545,0.2178754198141396
1761478804085574400,2.296574462890625,-0.26738077060878274,-0.07279431031495333,0.2104063991077244
1761478804095610400,2.3066103515625,-0.2864016974210739,-0.13324289726521818,0.15525281329303978
1761478804105646300,2.316646240234375,-0.21352526178061962,-0.2645079185862094,0.03130187784507871
1761478804115683300,2.326683349609375,-0.14883914685845373,-0.28231176122631874,-0.1404217393860221
1761478804125719600,2.336719482421875,-0.028356910434365272,-0.28996636763270944,-0.19779826194718478
1761478804135756500,2.346756591796875,0.09496142619848251,-0.3085743662625551,-0.19251082306355236
1761478804145792500,2.35679248046875,0.22332827839255331,-0.3194822753764689,-0.14961553805842995
1761478804155828500,2.366828369140625,0.2988637041091919,-0.35054362246394155,-0.0463185374520719
1761478804165865500,2.376865478515625,0.24335925903022287,-0.3924663361098617,0.045248277872055764
1761478804175901400,2.3869013671875,0.15793196937441825,-0.4300923754751682,0.07884761900454759
1761478804185938400,2.3969384765625,0.07431611305475234,-0.48493674921020863,0.028248189362883567
1761478804195974400,2.406974365234375,0.006335632762312889,-0.4943082790696993,-0.01960179544016719
1761478804206010400,2.41701025390625,-0.098233579736948,-0.428110955866985,-0.04450198954939842
1761478804216047600,2.427047607421875,-0.22669512447714804,-0.40073348492402583,-0.07280351653471588
1761478804226083600,2.43708349609375,-0.38964521427452564,-0.42357082821931685,-0.10992007200792431
1761478804236120600,2.44712060546875,-0.4247042526960373,-0.47924456545058636,-0.11881079608052968
1761478804246156500,2.457156494140625,-0.4536760801583528,-0.5080845101615413,-0.09038169719278812
1761478804256192500,2.467192626953125,-0.4438526052802801,-0.4900031292216852,-0.04002586704865098
1761478804266229500,2.4772294921875,-0.4520522783488035,-0.4835680546728894,0.037771658381074665
1761478804276265500,2.487265380859375,-0.4359294110655784,-0.4927331021748483,0.11756006536707281
1761478804286302200,2.49730224609375,-0.3452630517125129,-0.5238561893869191,0.18919862977564333
1761478804296338400,2.50733837890625,-0.27155367237925526,-0.5192796021863818,0.25583485585227606
1761478804306374700,2.517374755859375,-0.18820844969451425,-0.5182474095944315,0.30422376983761784
1761478804316411400,2.527411376953125,-0.16599895597398281,-0.5293315520580858,0.30914179088696836
1761478804326447400,2.537447265625,-0.17424129914045333,-0.5598489284619689,0.3002250555902719
1761478804336484400,2.547484375,-0.22859306705296037,-0.6141394677065313,0.30666034933477637
1761478804346520300,2.557520263671875,-0.3157090404480696,-0.6350051456026733,0.3165153883948922
1761478804356556800,2.567556884765625,-0.4337906454712152,-0.6657100804679096,0.33638898651376364
1761478804366593800,2.57759375,-0.6210960088461637,-0.6515148202463984,0.3372361048623919
1761478804376629800,2.587629638671875,-0.8086661606371403,-0.6056930533353239,0.3313575682178139
1761478804386666800,2.597666748046875,-0.9626315644681454,-0.5396637801758944,0.33210254136621953
1761478804396703000,2.607702880859375,-1.002804000380635,-0.45093335732147094,0.35653964800834653
1761478804406739000,2.617739013671875,-0.9385743970543146,-0.363281669614464,0.3923584187559783
1761478804416776000,2.62777587890625,-0.859314397856593,-0.2587809923067689,0.438150448115915
1761478804426812000,2.63781201171875,-0.8254986374944449,-0.17105580097213385,0.5074611540988088
1761478804436849000,2.647848876953125,-0.9553601121604443,-0.11808635426349937,0.6467509668454527
1761478804446884900,2.657884765625,-1.2430167780786752,-0.11257701625749468,0.8180930374130606
1761478804456920800,2.6679208984375,-1.5492834519207477,-0.0853028595585376,0.9916605289451778
1761478804466957800,2.677957763671875,-1.8880606487452982,0.05029650117233395,1.066022380837798
1761478804476993800,2.687993896484375,-2.1419845564097164,0.2446297904226929,0.9802832487538456
1761478804487031000,2.698031005859375,-2.2301935857385398,0.3692225309055298,0.7719602317914366
1761478804497067000,2.70806689453125,-1.9696312629729509,0.4310091249939054,0.5457439768724143
1761478804507103000,2.71810302734375,-1.4875480034977198,0.3785056883618235,0.25703970159739253
1761478804517140000,2.728139892578125,-0.8939841446995734,0.29636896468400953,-0.06697948655635118
1761478804527176000,2.738176025390625,-0.2814963897228241,0.19761318770386277,-0.285377615070343
1761478804537213000,2.748212890625,0.2383259410381317,0.1499020999148488,-0.3665326342344284
1761478804547249000,2.758248779296875,0.6309095468521118,0.14029051422178745,-0.34378216550499197
1761478804557284900,2.768284912109375,0.8365688975632191,0.18744871736839414,-0.2315656531229615
1761478804567321900,2.77832177734375,0.9516396303325891,0.27111593854911625,-0.11548398974537849
1761478804577358000,2.788358154296875,1.0286685094773769,0.36447540944367646,0.02018237180709839
1761478804587395000,2.79839501953125,1.09787297860682,0.4317920189999044,0.11158113708794117
1761478804597431000,2.80843115234375,1.2716051591813564,0.4045704692710191,0.19454729732722043
1761478804607467000,2.818467041015625,1.3928379217118023,0.33921178884953257,0.2855713840767741
1761478804617504000,2.82850390625,1.4278607197761535,0.20580401987880467,0.3347223684757948
1761478804627540000,2.8385400390625,1.419855107975006,0.13111644316315652,0.30197248377949
1761478804637576700,2.84857666015625,1.2935025182127953,0.15272241803258657,0.25559680931270123
1761478804647613000,2.858613037109375,1.0225801294744015,0.1433314893528819,0.29006109671145675
1761478804657649000,2.86864892578125,0.7038637239038944,0.14990831045992672,0.32681261826455593
1761478804667686000,2.878685791015625,0.3250701585114002,0.20222331184782086,0.2846463781863451
1761478804677721900,2.888721923828125,-0.12598551001548766,0.23129852661937475,0.19529460856318473
1761478804687758800,2.8987587890625,-0.5253408019214868,0.2792653427351266,0.1590726638421416
1761478804697794800,2.908794921875,-0.9572428571671246,0.4137546233322471,0.06268646553754806
1761478804707830800,2.918830810546875,-1.3083154719412327,0.4743646479219198,-0.04721563242226839
1761478804717867800,2.92886767578125,-1.623601318541169,0.43936143134087324,-0.1692813386455178
1761478804727903700,2.93890380859375,-1.6455091989666222,0.4563290788851678,-0.3092994656667113
1761478804737940700,2.948940673828125,-1.468181039726734,0.5085045256718993,-0.3877405496969819
1761478804747976700,2.958976806640625,-1.1200783806741237,0.5577659116428345,-0.37518794211596246
1761478804758012700,2.9690126953125,-0.6605471447467803,0.6365719565279782,-0.27552900575101374
1761478804768050000,2.9790498046875,-0.26784546551108357,0.6974944811329246,-0.13221534431576729
1761478804778086000,2.9890859375,-0.00043722237348556514,0.7429269564654678,-0.053234162059426306
1761478804788121900,2.999121826171875,0.15820026492178438,0.7176148936197161,0.008886778549849986
1761478804798158800,3.009158935546875,0.243558580994606,0.628903321596235,0.024637597650289535
1761478804808194800,3.01919482421875,0.31723113544881343,0.5367297725506126,0.02392360416203737
1761478804818231800,3.029231689453125,0.2722580212563276,0.561702082047984,-0.006414835478365421
1761478804828267800,3.039267822265625,0.18653613256812093,0.6896546543527394,0.0354468686953187
1761478804838303700,3.0493037109375,0.0641091918170452,0.9059626056544482,0.18845277984440326
1761478804848341000,3.059341064453125,-0.011714403191208839,1.0433373785600066,0.3485875199601054
1761478804858377000,3.069376953125,-0.05475158088505268,1.0812343438211829,0.41855946633070706
1761478804868414000,3.0794140625,-0.029426000970602034,1.071621223758161,0.32910277502834795
1761478804878450000,3.089449951171875,0.2041109522253275,0.9580405834160745,0.12669570411145686
1761478804888486000,3.09948583984375,0.42639235191345215,0.7858622081547975,-0.194535022367537
1761478804898523000,3.10952294921875,0.46055999445319173,0.720693132021278,-0.5457999448433518
1761478804908558800,3.119558837890625,0.2975274870693683,0.7134466680243611,-0.7638081972569227
1761478804918595800,3.129595947265625,0.05596154119670391,0.6078759503323584,-0.8187713750660419
1761478804928631800,3.1396318359375,-0.23975451253652572,0.4286569358445704,-0.9133920250028371
1761478804938667800,3.149667724609375,-0.46610184648931025,0.3524962178364396,-1.157182076665759
1761478804948705000,3.159705078125,-0.4772837502390146,0.2623186649136245,-1.42251468257308
1761478804958741000,3.169740966796875,-0.311017667761445,0.1913661100078374,-1.6350129393935202
1761478804968778000,3.179778076171875,-0.07633388261795043,0.12779402074217797,-1.6842451723352074
1761478804978814000,3.18981396484375,0.10694763206839561,0.07735058537982403,-1.5198077665895222
1761478804988850000,3.199849853515625,0.18419103074669838,0.053273471156507726,-1.2375465299740434
1761478804998887000,3.209886962890625,0.12485036850571632,0.13810206426680088,-0.9723667765408753
1761478805008923000,3.2199228515625,-0.016424480578303337,0.2613748812574893,-0.6395695309087633
1761478805018958800,3.229958740234375,-0.20401625967919826,0.2791028456497937,-0.3223068312779069
1761478805028996000,3.23999609375,-0.4043827646791935,0.37177842593342064,-0.12205576935112476
1761478805039032000,3.250031982421875,-0.5625596487253904,0.44805882479846476,0.02580108847171068
1761478805049068800,3.26006884765625,-0.5689315218448638,0.48592941350936886,0.16921148827970026
1761478805059105000,3.27010498046875,-0.3937853828191757,0.554568284645304,0.24387743768543005
1761478805069141000,3.28014111328125,-0.17604864082336424,0.6004780221007764,0.2097568491578102
1761478805079178000,3.290177978515625,0.09488602287471294,0.5731715705674141,0.12178221310675144
1761478805089214000,3.3002138671875,0.307123582932353,0.4611184320535511,-0.024295652344822883
1761478805099250700,3.310250732421875,0.5652437732428311,0.3191150494992733,-0.18463585190474985
1761478805109287000,3.320286865234375,0.6303986747205257,0.1586687592163682,-0.33344752623438834
1761478805119323000,3.330322998046875,0.5518892016291618,0.07977671654820442,-0.4794271920084953
1761478805129360000,3.34035986328125,0.3557926290333271,0.06522621314823628,-0.6039359074696898
1761478805139395800,3.350395751953125,0.017680618119239808,0.12365275621898472,-0.7122340773642063
1761478805149432000,3.36043212890625,-0.3281856601834297,0.28808921211659905,-0.8101829949408769
1761478805159468800,3.37046875,-0.3269569951713085,0.2321517093826085,-0.6760007344663143
1761478805169504800,3.3805048828125,0.09145195677280425,0.19326566001884637,-0.37697336422801014
1761478805179541800,3.390541748046875,0.25335166073441506,0.36822760158404705,-0.2656809809535742
1761478805189577700,3.40057763671875,0.3861164556264877,0.3842511732112616,-0.10794307284653186
1761478805199613700,3.41061376953125,0.49482174501717086,0.2890284657280892,-0.08496347153633832
1761478805209651000,3.42065087890625,0.5594160900026559,0.18273308702334762,-0.18356471554189918
1761478805219687000,3.43068701171875,0.6351309639394283,0.05227817650884389,-0.22864538176208732
1761478805229724000,3.440723876953125,0.5252449403315782,-0.03456241401098668,-0.318074892796576
1761478805239760000,3.450759765625,0.40003099921047686,-0.07673727578707039,-0.3774839440986514
1761478805249795800,3.4607958984375,0.2965484129041433,-0.10138042639531195,-0.40689328619539733
1761478805259832800,3.470832763671875,0.2282388467878103,-0.1296522158294916,-0.41618075450062747
1761478805269868800,3.480868896484375,0.2211018345147371,-0.2155843132022768,-0.42187955066412686
1761478805279905800,3.49090576171875,0.18454934266507625,-0.33503004618547855,-0.5233014050483703
1761478805289941800,3.500941650390625,0.1296691669642925,-0.4867774086408317,-0.6637085313871502
1761478805299977700,3.510977783203125,0.04931260470151901,-0.5959995615124702,-0.7094552603006362
1761478805310015000,3.521014892578125,-0.011411620852351189,-0.660401452665776,-0.5931809969604015
1761478805320051000,3.531051025390625,-0.1429495042979717,-0.6609895547520369,-0.3585179623439908
1761478805330087000,3.5410869140625,-0.3322995252430439,-0.6182546479403972,-0.11505553520023822
1761478805340124000,3.5511240234375,-0.5145259779185056,-0.5731216670110821,0.10240326663702726
1761478805350160000,3.561159912109375,-0.6407371133834123,-0.5411370675988495,0.21912878087610005
1761478805360196600,3.571196533203125,-0.5893868653744458,-0.5188049704119563,0.27170184867829084
1761478805370232600,3.581232666015625,-0.41152211503982544,-0.5399701427113265,0.3287710588559508
1761478805380268500,3.5912685546875,-0.14038871389925478,-0.6083840459849685,0.38969811350554223
1761478805390305800,3.601305908203125,0.11383563801646232,-0.7139012068588286,0.4110732022285461
1761478805400341800,3.611341796875,0.29206279192268847,-0.86063030276075,0.4074021125003695
1761478805410377700,3.621377685546875,0.35809506075680253,-1.0477144246004522,0.3298839885339141
1761478805420414700,3.631414794921875,0.2758358797430992,-1.170134862545505,0.14202595971226692
1761478805430450700,3.64145068359375,0.1517728622227907,-1.2857859524860977,-0.072716568903625
1761478805440487700,3.65148779296875,-0.014800678768754004,-1.3171378069527446,-0.23061025209426878
1761478805450523600,3.661523681640625,-0.15185060363411904,-1.237129181344807,-0.30893443174660207
1761478805460559600,3.6715595703125,-0.23494155929684638,-1.216857158492878,-0.1904486298367381
1761478805470596900,3.681596923828125,-0.2513701315283775,-1.2532704610675574,-0.056120238889753815
1761478805480632800,3.6916328125,-0.176843590593338,-1.2783698310106992,-0.05478840576410293
1761478805490669800,3.701669921875,-0.09687164373397826,-1.3088023786753415,-0.15666706400513647
1761478805500705800,3.711705810546875,-0.09838906255960464,-1.3475029884696006,-0.24835224501192568
1761478805510741800,3.72174169921875,-0.07635960158109664,-1.346736826402694,-0.33455081130117176
1761478805520778800,3.73177880859375,0.03533259466588497,-1.2844582110136746,-0.39376404777020213
1761478805530814700,3.741814697265625,0.14554127435684203,-1.1087269655764103,-0.4600210652709007
1761478805540850700,3.7518505859375,0.30430560290217396,-0.752664287430048,-0.4864750646933913
1761478805550887700,3.7618876953125,0.45607671155929563,-0.31453722018972036,-0.3401125370815396
1761478805560923600,3.771923583984375,0.42628655345141886,-0.10038827355280518,-0.06380085652023554
1761478805570960600,3.781960693359375,0.0665144993931055,0.07031235730610788,0.03598784370422363
1761478805580996900,3.791996826171875,-0.4790887538343668,0.3239352361973375,-0.09337240344136953
1761478805591032800,3.80203271484375,-0.9170072928905486,0.5420541824437678,-0.21598025371730326
1761478805601069600,3.812069580078125,-1.2241180163413286,0.6678495767146349,-0.2625394680574536
1761478805611105800,3.822105712890625,-1.5379016416847704,0.8041847774393857,-0.33439562073946
1761478805621141800,3.832141845703125,-1.7753788569390774,0.976914722168818,-0.39773558174967766
1761478805631178500,3.842178466796875,-1.9449609320968388,1.1519232793547212,-0.35645196972489357
1761478805641214700,3.852214599609375,-1.7064859379768371,1.2447057540789246,-0.16139643061459064
1761478805651251700,3.862251708984375,-0.8661345992654561,1.3033597492299973,0.03385287750214338
1761478805661287700,3.87228759765625,-0.21150281604230403,1.3451046951562164,0.0443067592382431
1761478805671324000,3.882323974609375,-0.2128191593378782,1.1726882002901284,0.0008761983126401901
1761478805681360600,3.892360595703125,-0.5710948373585939,1.0197531624201686,-0.03748100487142801
1761478805691396600,3.902396728515625,-0.45847500487267967,0.9663967622205615,-0.17146335885971783
1761478805701432800,3.912432861328125,-0.13212474342286587,0.8375639730151743,-0.3463093458950519
1761478805711469600,3.922469482421875,0.10438917975723742,0.575973549310863,-0.48202714537382124
1761478805721505500,3.932505615234375,0.2616699917465448,0.4002459571354091,-0.7464569572225213
1761478805731542500,3.94254248046875,0.4403133252382278,0.3861865251880139,-1.003595150758326
1761478805741578500,3.95257861328125,0.5799836617350578,0.3912064722418785,-1.0224363370895384
1761478805751614500,3.962614501953125,0.7592746454805135,0.38024909796305,-0.8541168292135
1761478805761651700,3.972651611328125,0.9442325689464807,0.4232207361400127,-0.5698775705233216
1761478805771687700,3.982687744140625,0.9909399595856666,0.46993894043415785,-0.2757300812810659
1761478805781723600,3.9927236328125,0.9347785119026899,0.5540442607712001,0.0038546296015381813
1761478805791760600,4.0027607421875,0.8551374044328928,0.6000044132396578,0.22687281913161275
1761478805801796600,4.012796630859375,0.7268196520775556,0.6228474556233734,0.459526267491281
1761478805811833600,4.02283349609375,0.5297726468890905,0.5007478471305221,0.6562570463374257
1761478805821869600,4.03286962890625,0.30035540397167204,0.3893834945984185,0.5848685111671685
1761478805831905500,4.042905517578125,0.02475976272523403,0.4111043280191719,0.34068741436004635
1761478805841942800,4.05294287109375,-0.3415864090263843,0.39202034590803087,0.07688947067409753
1761478805851978800,4.062978759765625,-0.6568477057069539,0.3370356138542294,-0.16350363202691076
1761478805862015700,4.073015625,-0.7738526214092969,0.30472843142412603,-0.24548633418679236
1761478805872051700,4.0830517578125,-0.760655870705843,0.351796983525902,-0.22049656209796667
1761478805882087700,4.093087646484375,-0.5719324572265148,0.49334575418047605,-0.10091156677454709
1761478805892124700,4.103124755859375,-0.3327612975358963,0.6585818360231817,0.09278437442034482
1761478805902160600,4.11316064453125,-0.2108902371019125,0.7914476070716977,0.36190146730244155
1761478805912196600,4.123196533203125,-0.21875322556197643,0.8408993279829621,0.7165048865512013
1761478805922233600,4.133233642578125,-0.30957389869391916,0.8126791956707835,0.9733823833242058
1761478805932269600,4.14326953125,-0.47694005136787887,0.7791581074062734,0.9992205889359116
1761478805942305500,4.153305419921875,-0.7203431495398283,0.8592118873301893,0.8033709768384695
1761478805952342800,4.1633427734375,-0.8575070561736822,1.0216472325384616,0.5931479714736342
1761478805962378800,4.173378662109375,-0.855360691794753,1.0880899088043718,0.4943927059501409
1761478805972415700,4.183415771484375,-0.6376105057954787,1.0815883448906243,0.41426001557111736
1761478805982451700,4.19345166015625,-0.2932897033691406,1.0702391217499971,0.2934793807223439
1761478805992487700,4.20348779296875,0.020743512821197508,1.026766182987392,0.1774336654409766
1761478806002524700,4.213524658203125,0.3375099533677101,0.9073310444634407,0.13926234021782874
1761478806012560600,4.223560546875,0.5488578711092472,0.7755453968018293,0.23671295288354158
1761478806022596600,4.2335966796875,0.6075760175377131,0.7090700603753328,0.3586497720301151
1761478806032633900,4.2436337890625,0.5395440993189812,0.6492619267530739,0.42169513400793074
1761478806042669800,4.253669921875,0.36736265531778334,0.5771938848860562,0.4144783344969153
1761478806052706800,4.263706787109375,0.1112269168227911,0.5697825126510113,0.3402139516294002
1761478806062742800,4.27374267578125,-0.12147241650521755,0.5672432764969766,0.2944622542798519
1761478806072778800,4.28377880859375,-0.36065351306796073,0.5194900300666689,0.23859102171510457
1761478806082815700,4.293815673828125,-0.5541413644701242,0.4816852000683546,0.14012509452700614
1761478806092851700,4.303851806640625,-0.6150532215505838,0.4727511483106762,0.09263444455564021
1761478806102887700,4.3138876953125,-0.5669119987159967,0.4330976947709918,0.1751674740746617
1761478806112924700,4.323924560546875,-0.4734808508247137,0.41910782092846927,0.3682007135771215
1761478806122960600,4.333960693359375,-0.3600274901241064,0.46195955905281005,0.535444116654247
1761478806132997600,4.34399755859375,-0.3028653409659862,0.5014611099664121,0.6440754640258848
1761478806143033900,4.354033935546875,-0.2940869912266731,0.47105632709152995,0.6598768442697822
1761478806153069800,4.36406982421875,-0.249300924038887,0.4240739919684827,0.6189850080415606
1761478806163106600,4.3741064453125,-0.14539105223119259,0.36793643661774694,0.591453150254488
1761478806173142800,4.384142822265625,-0.07590776616036891,0.3022975510153919,0.5224807363152504
1761478806183178800,4.3941787109375,-0.09016308600604533,0.23744404363706706,0.39254838837012646
1761478806193215500,4.404215576171875,-0.1470809050142765,0.17475874714329837,0.25202128891348835
1761478806203251700,4.414251708984375,-0.2366442715615034,0.14672602716200053,0.13993863204419613
1761478806213288700,4.424288818359375,-0.3110059773236513,0.13781820582412183,0.10077259669527411
1761478806223324700,4.43432470703125,-0.3485515718638897,0.17588384218309075,0.09280205620750784
1761478806233360600,4.444360595703125,-0.3394844683110714,0.1573619144015014,0.06474076771885157
1761478806243397600,4.454397705078125,-0.2713169410139322,0.07255947864577174,-0.03473068324998021
1761478806253433600,4.46443359375,-0.16961831551492212,-0.013714746695570646,-0.2614018423296511
1761478806263469800,4.4744697265625,-0.024157120656967162,-0.01841141661182046,-0.5011567932575941
1761478806273506600,4.484506591796875,0.11850304530560969,-0.004456614082679152,-0.657323214264214
1761478806283542500,4.49454248046875,0.21674831548035142,0.0008110241219401359,-0.6329179640650748
1761478806293578800,4.504578857421875,0.16765081483423708,0.009774630767665804,-0.5221440517067909
1761478806303615500,4.514615478515625,0.1208078151166439,0.05200067474171519,-0.3249032775118947
1761478806313651700,4.524651611328125,0.11144143635630607,0.08898322857171297,-0.13778846827298402
1761478806323688700,4.534688720703125,0.14980536154210566,0.04735124150067568,-0.0026969839990139007
1761478806333724700,4.544724609375,0.21556407413184642,0.008025704741105437,0.049334378141909836
1761478806343760600,4.5547607421875,0.2427349896520376,-0.05735471258815378,0.01764101676121354
1761478806353798100,4.564798095703125,0.18612755176723003,-0.1466834301292896,-0.013364216224849223
1761478806363834000,4.574834228515625,0.03021510552167892,-0.26278719574082643,-0.07212021044567227
1761478806373871000,4.58487109375,-0.1526928996771574,-0.4093232532886788,-0.16474559491202234
1761478806383907000,4.594906982421875,-0.3181745537787676,-0.5004792593222112,-0.2629876502163708
1761478806393944000,4.604944091796875,-0.45184535759985445,-0.5246775887724012,-0.3271986949726939
1761478806403980300,4.614980224609375,-0.6069225220650434,-0.5337666118960828,-0.31756051353365183
1761478806414016300,4.625016357421875,-0.7402624864965677,-0.5047750202873721,-0.2493453477025032
1761478806424053200,4.63505322265625,-0.720345487627387,-0.4052625797210261,-0.10747998537942767
1761478806434089200,4.645089111328125,-0.647643824031949,-0.36904819725193083,0.11249781354144214
1761478806444126200,4.655126220703125,-0.5224865815341472,-0.3903675371997058,0.36128625801354647
1761478806454162200,4.665162109375,-0.3900988032609224,-0.43909079770594833,0.4962308811627328
1761478806464198100,4.6751982421875,-0.2858709515452385,-0.48272279948778446,0.5113474940128624
1761478806474235100,4.685235107421875,-0.23969722939133642,-0.4481468318754807,0.4353573102660477
1761478806484271000,4.69527099609375,-0.22570026822090147,-0.40078853957951066,0.3830364636592567
1761478806494307000,4.70530712890625,-0.2643073545128107,-0.33630065064318476,0.41414968706443905
1761478806504344300,4.71534423828125,-0.30341946771740913,-0.307300693064928,0.46958048238530753
1761478806514380300,4.72538037109375,-0.27842297362685203,-0.3489748022446409,0.5286274223767221
1761478806524417300,4.735417236328125,-0.24021979196071624,-0.38959089027140287,0.5785390158846974
1761478806534453200,4.745453369140625,-0.22864567402303218,-0.4157189091425389,0.6344764455534517
1761478806544489200,4.7554892578125,-0.29900457388460633,-0.4338517645413056,0.6608413053877651
1761478806554526200,4.765526123046875,-0.39714579916298387,-0.4242460605997592,0.6941150678277015
1761478806564562200,4.775562255859375,-0.49223406661152835,-0.33350780505426225,0.6623885348297656
1761478806574598100,4.78559814453125,-0.556969281372428,-0.21022771807257085,0.5851300847128034
1761478806584635100,4.79563525390625,-0.6290145268857479,-0.17051157456021754,0.47234863192439075
1761478806594671400,4.80567138671875,-0.6525999851346016,-0.06330879868697374,0.33753815654888747
1761478806604708000,4.8157080078125,-0.635631314677,0.04630732193831354,0.3034343730255961
1761478806614744000,4.825744140625,-0.6123047996252775,0.07556932798624039,0.36507848990336056
1761478806624780300,4.8357802734375,-0.6009072072982787,0.07006378937251866,0.38299393969178197
1761478806634817000,4.845817138671875,-0.6015677170336247,0.020851357109844683,0.34295565155297514
1761478806644853000,4.85585302734375,-0.6144371354788541,-0.10030366400927304,0.18807108705043793
1761478806654889200,4.86588916015625,-0.5673965673625468,-0.1842357466712594,-0.05885434002876282
1761478806664926000,4.875926025390625,-0.4183504997551441,-0.22466785643324255,-0.2925514522224665
1761478806674962000,4.8859619140625,-0.2258341237336397,-0.35345804860591884,-0.43666327829807994
1761478806684998100,4.895998046875,-0.04680909744799137,-0.4796573475025594,-0.5106897607564926
1761478806695035100,4.90603515625,0.064484454870224,-0.5631044231265783,-0.5472606650456786
1761478806705071000,4.916071044921875,0.13835983842015265,-0.51724320098795,-0.44930999390333887
1761478806715108000,4.926108154296875,0.1658592552423477,-0.4099119033642113,-0.2374626022070646
1761478806725144000,4.93614404296875,0.0713940881282091,-0.2653982184894383,0.07216857963204383
1761478806735180000,4.946179931640625,-0.18570377339720726,-0.1207241554211825,0.35490678610950704
1761478806745217000,4.956217041015625,-0.49069385143220423,-0.023032281345501542,0.667841685669124
1761478806755253000,4.9662529296875,-0.8422557110279798,0.14238953232765197,0.987028339099884
1761478806765289000,4.9762890625,-0.907927914378047,0.1841088323559612,0.7324114807352423
1761478806775326200,4.986326171875,-0.8880372189939022,-0.1319170920215547,0.9704194418653845
1761478806785362200,4.996362060546875,-1.1987854221642016,-0.0031632132712751627,1.002362686353922
1761478806795399200,5.006399169921875,-1.3995201759546994,0.21191662100758402,1.0098838756389916
1761478806805435100,5.01643505859375,-1.2958978889167307,0.2019711637176573,1.0754426817424594
1761478806815471000,5.02647119140625,-1.176423368230462,0.16327216135859488,0.9913599385634064
1761478806825508000,5.036508056640625,-1.0213193157583476,0.18535897854752836,0.7659531003311276
1761478806835544000,5.0465439453125,-0.8434569035112858,0.16860804249383507,0.45343452648743987
1761478806845580000,5.056580078125,-0.7736550530105829,0.12615082011241466,0.11062427475452423
1761478806855617000,5.066616943359375,-0.6157546478182077,0.1227041502572596,-0.10217588762193917
1761478806865653000,5.076653076171875,-0.39868484529852866,0.15592223698720334,-0.13559914153516292
1761478806875690200,5.086690185546875,-0.11183014341294764,0.2586656953640282,-0.09366744086518883
1761478806885726200,5.096726318359375,0.22662498185038565,0.3624563247062266,-0.04400763016119599
1761478806895762200,5.10676220703125,0.5058516730755567,0.40702809155620634,-0.023710107541829346
1761478806905799200,5.116799072265625,0.7354507023006677,0.4239546764377504,-0.04810337504222989
1761478806915835100,5.126835205078125,0.9068202453970908,0.43999125367701053,-0.11530410313382744
1761478806925871000,5.13687109375,0.918718772983551,0.4698709897644818,-0.1877415628351271
1761478806935908000,5.146908203125,0.777903358104825,0.5055771669831126,-0.2632761117689311
1761478806945944000,5.156944091796875,0.5653636002302169,0.5136613239131868,-0.2480500471949577
1761478806955980000,5.16697998046875,0.30097032099962234,0.6084091073609889,-0.2568482706785202
1761478806966017300,5.177017333984375,-0.10224515346586703,0.7280344346947968,-0.3216597655460238
1761478806976053200,5.18705322265625,-0.450620784240961,0.8744545377127826,-0.41261107932031155
1761478806986090200,5.19709033203125,-0.6362497388362884,0.9914246743626892,-0.4620100471310317
1761478806996126200,5.207126220703125,-0.6431897672325372,1.0386381148278712,-0.4235264410883188
1761478807006162200,5.217162109375,-0.5170213018655777,1.0052231903515756,-0.3041847530014813
1761478807016199200,5.22719921875,-0.27668694361448287,0.9931116776015609,-0.1438587280973792
1761478807026235100,5.237235107421875,0.043864860689640045,0.9894847923412918,-0.02665682851821184
1761478807036271000,5.24727099609375,0.3276940772742033,0.9110745418407022,0.04318725368902087
1761478807046308000,5.25730810546875,0.5132376916736364,0.7839328475274145,-0.0035414719991385935
1761478807056344000,5.267343994140625,0.5913830076277256,0.6989905649095773,-0.14398366965129972
1761478807066381300,5.27738134765625,0.4403320299386978,0.6881731105580926,-0.2503618312686682
1761478807076417300,5.287417236328125,0.14240765250623225,0.7759636222139,-0.2455418637663126
1761478807086453200,5.297453369140625,-0.13991349760293958,0.8696697876542806,-0.23664047216922043
1761478807096490200,5.307490234375,-0.39577334176599976,0.8976593260809779,-0.2584970607988536
1761478807106526200,5.317526123046875,-0.39298517235219477,0.8718728506565093,-0.2901809236988425
1761478807116562200,5.327562255859375,-0.21112638394534586,0.8048517899807542,-0.25791896864995356
1761478807126599200,5.33759912109375,0.00046001872718334194,0.6941552537076174,-0.17516045981198547
1761478807136635100,5.34763525390625,0.17440847240090368,0.5996744506329298,-0.16339958713054656
1761478807146672000,5.357672119140625,0.18627485128343105,0.5699502704333513,-0.20028701002299784
1761478807156708400,5.367708251953125,0.06552256574630737,0.5483307784952223,-0.2145034591630101
1761478807166744300,5.377744384765625,-0.0023141221612691877,0.4892988899424672,-0.2605259362779557
1761478807176781000,5.387781005859375,-0.0395312153995037,0.35295163345374164,-0.46643005553036926
1761478807186817300,5.3978173828125,-0.016356676039099693,0.19459252470843494,-0.788582280768454
1761478807196853200,5.407853271484375,0.007496493235230445,0.023416239161789417,-1.1115431920409202
1761478807206890000,5.417889892578125,-0.039109775117039676,-0.015386296636983751,-1.2678158499009906
1761478807216926200,5.42792626953125,-0.21577216392457485,-0.011064122588932513,-1.1322753066852689
1761478807226962200,5.437962158203125,-0.3908089973568916,0.035734453465044495,-0.8252487543866038
1761478807236999000,5.4479990234375,-0.5165197820842266,0.13894794050641357,-0.4966529059670865
1761478807247035100,5.45803515625,-0.5951058275431395,0.1652395159088075,-0.14581424607932567
1761478807257072000,5.468072021484375,-0.6369295377939939,0.1439895879354328,0.1187906300753355
1761478807267108000,5.478108154296875,-0.5799368999838829,0.22031550644263623,0.29225568414628506
1761478807277144300,5.488144287109375,-0.42394612780511376,0.32287513268515466,0.3769679574005306
1761478807287181000,5.49818115234375,-0.24024726448953151,0.3990620080478489,0.4113721851751208
1761478807297217000,5.508217041015625,0.014563947403430939,0.3105197281766683,0.3708756318747997
1761478807307253200,5.518253173828125,0.2657102070480585,0.06752586839273572,0.09314926220998167
1761478807317290000,5.5282900390625,0.4776794715583324,-0.1657086677905172,-0.32149712233021854
1761478807327326000,5.538325927734375,0.5898042140036821,-0.3399991398349404,-0.7337301621183753
1761478807337362200,5.548362060546875,0.6124520991414785,-0.4558345003012568,-0.9762189219243824
1761478807347399200,5.558399169921875,0.5741688379764557,-0.48375345770977435,-0.9715838094696402
1761478807357434000,5.56843408203125,0.44870939766168594,-0.3893743614438921,-0.8326787582568824
1761478807367471000,5.57847119140625,0.2537847914546728,-0.19473215237483382,-0.5946740119971334
1761478807377507300,5.58850732421875,0.028068741142749785,-0.03884374459199607,-0.2582514154747128
1761478807387543300,5.598543212890625,-0.07537877385020256,0.09675072076804936,0.03310980404987931
1761478807397580000,5.608580078125,-0.08273322826623916,0.1337276485748589,0.21776655261218547
1761478807407616300,5.6186162109375,0.045620179924368856,0.04606624319143593,0.31878567141443487
1761478807417652200,5.62865234375,0.19731763882338998,-0.073455112311244,0.3004781535685062
1761478807427689000,5.63868896484375,0.38623686713576316,-0.13055186808295546,0.16440145764946937
1761478807437725200,5.64872509765625,0.5469955843687058,-0.18411781938001512,0.0034406419731676575
1761478807447762200,5.65876220703125,0.693591920736432,-0.22144093027599154,-0.0800499805316329
1761478807457798100,5.668798095703125,0.7422288181334733,-0.2523766782224178,-0.1125730707347393
1761478807467834000,5.678834228515625,0.6292015738904476,-0.2743574777536094,-0.13121610414534807
1761478807477871000,5.68887109375,0.45286476377546786,-0.27081805158108474,-0.22415011616945266
1761478807487907000,5.698906982421875,0.22805764500200748,-0.28760106327347457,-0.3457850297600031
1761478807497943000,5.708943115234375,0.0637695845991373,-0.34226277391798793,-0.4810331659004092
1761478807507980000,5.71897998046875,0.029061843833327293,-0.396475571751222,-0.5267804793357849
1761478807518016000,5.72901611328125,0.041999651339650154,-0.4771866465400904,-0.46988721024692054
1761478807528052000,5.739052001953125,0.09257365427911281,-0.559532190662995,-0.3657078738480806
1761478807538089000,5.7490888671875,0.11292612195610999,-0.5798636155519634,-0.2577618783921003
1761478807548125000,5.759125,0.13523732248544693,-0.5614607475727796,-0.1766276097550988
1761478807558161200,5.7691611328125,0.15827683728933334,-0.6053766077972949,-0.10535685574561357
1761478807568198100,5.7791982421875,0.1260626669049263,-0.6637452832009643,-0.09163023594915866
1761478807578234000,5.789234130859375,0.03518646419346332,-0.6382326562818139,-0.14309212763905524
1761478807588271000,5.79927099609375,-0.03319850524663925,-0.6154642865695059,-0.17254735470414162
1761478807598307000,5.80930712890625,-0.08276303888261317,-0.6628651393655687,-0.11822598192989825
1761478807608343000,5.819343017578125,-0.15896891120672224,-0.7171047521404922,0.00985913071334362
1761478807618380000,5.829380126953125,-0.1962239983677864,-0.7613885688945651,0.07027560549229384
1761478807628416000,5.839416015625,-0.3149666976481676,-0.7478053030915558,0.03539075459390879
1761478807638452000,5.849451904296875,-0.41903555940985676,-0.7520840763892978,0.0017880524605512619
1761478807648489200,5.8594892578125,-0.5282499673664569,-0.8282214135218411,0.06779577137529849
1761478807658525200,5.869525146484375,-0.5720844329178333,-0.8957413636304438,0.16189619683027268
1761478807668561200,5.87956103515625,-0.5784329251617193,-1.0179558306746184,0.18008593351542948
1761478807678598100,5.88959814453125,-0.5650093799650668,-1.1710742622874677,0.06743979754447936
1761478807688634000,5.899634033203125,-0.4589578199535608,-1.3358099203273652,-0.14865677602887153
1761478807698671000,5.909671142578125,-0.29699498762786386,-1.4889986406974494,-0.4014049179121852
1761478807708707000,5.91970703125,-0.1399959151893854,-1.5620264675073325,-0.6528666732467711
1761478807718743000,5.929742919921875,-0.07039221760928631,-1.4696163332268595,-0.7164880815468728
1761478807728780000,5.939780029296875,-0.07382862179875374,-1.3547133582398294,-0.5608450998924672
1761478807738816000,5.94981591796875,-0.2528834587007761,-1.2117332396078855,-0.3971250486359
1761478807748852200,5.959852294921875,-0.5818050319433212,-0.885811505768448,-0.30869419324994085
1761478807758889200,5.96988916015625,-0.9229267460674047,-0.5151255512468517,-0.16282295628637075
1761478807768925200,5.97992529296875,-1.1588093856066464,-0.08830138378739356,0.07132321484908462
1761478807778961200,5.989961181640625,-1.2466086650907993,0.3781147162828594,0.2721653745368123
1761478807788998100,5.999998046875,-1.1098135917693377,0.7285451606959105,0.3972587580181658
1761478807799034000,6.0100341796875,-0.9122983845472336,0.8531870740827172,0.3474421493172645
1761478807809070000,6.020070068359375,-0.7672662287563086,0.8602990249797702,0.1611065077573061
1761478807819107000,6.030107177734375,-0.8423521571397781,1.0537290087148548,0.16717457562461494
1761478807829143000,6.04014306640625,-0.8972036912679672,1.209431465471536,0.36876740754917264
1761478807839180300,6.05018017578125,-0.6508592789471149,1.229355186342448,0.45223552596122024
1761478807849216300,6.06021630859375,-0.35459552820324897,1.2617115416765212,0.25162746729031205
1761478807859252200,6.070252197265625,-0.02536708096861839,1.075812245707214,0.3645886605598032
1761478807869289200,6.080289306640625,0.16491817499995232,0.9222131909705698,0.3921126273013651
1761478807879325200,6.0903251953125,0.1803641659349203,0.7888681119725107,0.2143772024348378
1761478807889361200,6.100361083984375,0.04854220485091209,0.6567123888894916,-0.04803966215625405
1761478807899398100,6.110398193359375,-0.18981588489115236,0.5888607226084918,-0.228814746979624
1761478807909434000,6.12043408203125,-0.32343349722027775,0.5582723998602479,-0.22489245896935461
1761478807919470000,6.130469970703125,-0.26577450445592404,0.6598402385864407,-0.019464871187508104
1761478807929507300,6.14050732421875,-0.2014741739809513,0.755992408939451,0.22752470716908574
1761478807939543300,6.150543212890625,-0.3105488812059164,0.9044720748357474,0.3337850876256823
1761478807949580300,6.160580322265625,-0.5318003533244132,1.20364930187352,0.4802227263003587
1761478807959616300,6.1706162109375,-0.599709521946311,1.2746467188343404,0.6924428968317806
1761478807969652200,6.18065234375,-0.5615712222099304,1.1960127425804734,0.7580887966968118
1761478807979689200,6.190689208984375,-0.39198856253027914,1.0838941376149653,0.7292302203506231
1761478807989725200,6.20072509765625,-0.17581307850182054,0.8909715188801288,0.7142518469274044
1761478807999761200,6.21076123046875,-0.08594517605006695,0.7520118148706852,0.5578505942516029
1761478808009798100,6.220798095703125,-0.019881343033909798,0.6755186500377953,0.28489056220576164
1761478808019834000,6.230834228515625,0.039625323423743246,0.5596106627266854,-0.019632921230792997
1761478808029870000,6.2408701171875,0.11224047777950763,0.47159313738197084,-0.2853115640968084
1761478808039907300,6.2509072265625,0.12555062572956086,0.509445021392405,-0.38304508535712956
1761478808049943300,6.260943359375,0.14805705657005308,0.6758440825998783,-0.3875928117893636
1761478808059979300,6.270979248046875,0.11081950506567954,0.8649401287838816,-0.4851283262595534
1761478808070016300,6.281016357421875,-0.09272796805799007,0.9842030525460839,-0.5919222290709615
1761478808080052200,6.29105224609375,-0.31097441314160823,1.070321539336443,-0.6694231096416712
1761478808090088200,6.301088134765625,-0.3057423577070236,1.050351056714356,-0.5526492262162268
1761478808100125200,6.311125244140625,-0.22274667911231516,0.9656123338446021,-0.339775121820718
1761478808110161200,6.3211611328125,0.006177227330207824,0.9168759215958416,-0.08901026270911097
1761478808120197000,6.331197021484375,0.2698749255120754,0.8688255919151008,0.14084493323415517
1761478808130234400,6.341234375,0.44473289524614806,0.7700728106096386,0.19534078579246997
1761478808140270300,6.351270263671875,0.33331016359031196,0.8099370573557912,0.1107929093196988
1761478808150307000,6.36130712890625,0.08162848189473151,0.9013741088204086,-0.044268765315413475
1761478808160343300,6.37134326171875,-0.20333996785283087,0.8892714369639754,-0.15029811349511146
1761478808170379300,6.381379150390625,-0.40105449703931806,0.8422999885611235,-0.2609676886960864
1761478808180416000,6.391416015625,-0.4141571397185325,0.7962346952177584,-0.29682284593135116
1761478808190452200,6.4014521484375,-0.38685879842638965,0.789567200152576,-0.2303402029812336
1761478808200488200,6.41148828125,-0.3532090422809124,0.8120698316007852,-0.03420432128831744
1761478808210525000,6.42152490234375,-0.27216917392909523,0.7719048483423888,0.2602311911150813
1761478808220561200,6.43156103515625,-0.0960159036874771,0.7228301440499723,0.5393973843246698
1761478808230597400,6.441597412109375,0.015244330883026121,0.6426610671833157,0.6690694738984108
1761478808240634000,6.451634033203125,-0.044324879416823386,0.5564911424666643,0.6728953157968819
1761478808250670000,6.461670166015625,-0.17033552387356757,0.47258901655152435,0.613910627386719
1761478808260706300,6.471706298828125,-0.14102525823712347,0.37583237749934195,0.4617607485450804
1761478808270743000,6.481742919921875,0.04961947869360447,0.28006854887679217,0.2625764390669763
1761478808280779000,6.491779052734375,0.23029870192706584,0.1435994926393032,0.1431625625267625
1761478808290815200,6.501815185546875,0.4164724309235811,-0.034645050793141126,0.1735100622564554
1761478808300852000,6.51185205078125,0.5263391653090715,-0.22862390058264134,0.18814736715704203
1761478808310888000,6.521887939453125,0.47768765486478804,-0.3301164821155369,0.17814064466655252
1761478808320924200,6.531924072265625,0.2145715559631586,-0.4024807304501533,0.10541282371655106
1761478808330961200,6.541961181640625,-0.06903145065009593,-0.4210824089370668,0.03181348062902689
1761478808340997000,6.5519970703125,-0.34275720637142654,-0.33501331424638625,-0.03375423943325877
1761478808351033000,6.562033203125,-0.5872229653388261,-0.3020139848336577,-0.06739625066369771
1761478808361070000,6.572070068359375,-0.7922405110150575,-0.2605890646420419,-0.07261106270253657
1761478808371106000,6.58210595703125,-0.8343395310759544,-0.14898366989567874,-0.07971797209829092
1761478808381143300,6.592143310546875,-0.6585632774531841,-0.08771890772432088,-0.12918985901474953
1761478808391179300,6.60217919921875,-0.20336334872841832,-0.12227087340652942,-0.1526807708479464
1761478808401215200,6.61221533203125,0.1815232728421688,-0.16527137235179543,-0.07193447861522435
1761478808411252200,6.622252197265625,0.3151414696931839,-0.1191882510907948,0.1358764971718192
1761478808421288200,6.6322880859375,0.25963877817988396,-0.03817117909267544,0.4772653377994895
1761478808431324200,6.64232421875,0.1429851601332426,-0.0280789702758193,0.7341393274411558
1761478808441361200,6.652361083984375,-0.05435527504384517,-0.07299290162697435,0.8431095513783394
1761478808451397000,6.662397216796875,-0.2723661578059196,-0.054181160585954784,0.8147674001216888
1761478808461433000,6.67243310546875,-0.4545610462993383,-0.05050028011612594,0.7089188153363764
1761478808471470300,6.68247021484375,-0.49467795263230796,-0.1573106226056814,0.5523102035202085
1761478808481506300,6.69250634765625,-0.48037470199167726,-0.2620722889371216,0.2989391074329614
1761478808491542300,6.702542236328125,-0.38585634338557717,-0.3130334645632654,-0.023235914158821105
1761478808501579300,6.712579345703125,-0.19013503384292124,-0.41091633116640147,-0.10793518180102109
1761478808511615200,6.722615234375,0.01753916382193565,-0.43680370968207716,-0.06936521264910697
1761478808521651200,6.732651123046875,0.08468845398724079,-0.3365193348951638,0.0020763678826391696
1761478808531688200,6.742688232421875,0.01861643766462803,-0.19752324439808724,0.1973278679564595
1761478808541724200,6.75272412109375,-0.19868366647958755,-0.0982470237404108,0.3678694357961416
1761478808551760100,6.762760009765625,-0.39002690706849097,-0.052454848250001664,0.40614276008903977
1761478808561797400,6.77279736328125,-0.43400048882961273,-0.050790129908174275,0.2522334703594446
1761478808571833300,6.782833251953125,-0.2395586977034807,-0.0785067696776241,0.0564934561163187
1761478808581869300,6.792869384765625,0.14230945282876492,-0.11932049916833638,-0.11355389846563338
1761478808591906300,6.80290625,0.5038718974351882,-0.11919811489768325,-0.17338322100639342
1761478808601942300,6.8129423828125,0.6694470750391482,-0.13008476202785968,-0.03383037340939045
1761478808611979300,6.822979248046875,0.6165525201976298,-0.08546382227391004,0.1394308286525309
1761478808622015200,6.83301513671875,0.35809973693192004,-0.0537499295618385,0.2774344009809196
1761478808632051200,6.84305126953125,-0.03743219729363918,-0.09926832961216568,0.34255949184224005
1761478808642087200,6.853087158203125,-0.3079296386182308,-0.16122304680906235,0.26056582989692684
1761478808652124200,6.863124267578125,-0.4153746988147497,-0.22707835164107382,0.016551321828365325
1761478808662160100,6.87316015625,-0.4899608609825372,-0.3216136613819748,-0.2535566817872226
1761478808672197400,6.883197265625,-0.502661937123537,-0.39773981953337784,-0.40270898624807594
1761478808682233300,6.8932333984375,-0.5086807590216398,-0.364165758972615,-0.38395401689559217
1761478808692269300,6.903269287109375,-0.5086702376276254,-0.26124767468124627,-0.291780175589025
1761478808702306300,6.913306396484375,-0.47373394880294795,-0.2515798287563026,-0.09939385568797587
1761478808712342300,6.92334228515625,-0.3793839325010776,-0.21201880274042487,0.0644298020735383
1761478808722378200,6.933378173828125,-0.29700024832487104,-0.21311799615398047,0.15372326563820243
1761478808732415200,6.943415283203125,-0.3004658786088228,-0.28746472354270514,0.27959654745087026
1761478808742451200,6.953451171875,-0.3251706962764263,-0.45468218846097586,0.3779614984825253
1761478808752487200,6.963487060546875,-0.38651451503336426,-0.591280570166558,0.289942292637378
1761478808762524400,6.9735244140625,-0.4012807070106268,-0.6626121144525706,0.041355215956270695
1761478808772560400,6.983560302734375,-0.40083179419934745,-0.8084455036237835,-0.140203712721169
1761478808782596400,6.993596435546875,-0.303747969019413,-0.8827971263833343,-0.30069004275351763
1761478808792633300,7.00363330078125,-0.13141630289256573,-0.8177652667634189,-0.4836661447525024
1761478808802669300,7.01366943359375,0.017598785054683683,-0.6869371390223503,-0.41569355550557374
1761478808812705300,7.023705322265625,0.2584106976896524,-0.4184558598257601,-0.0535918894559145
1761478808822742300,7.0337421875,0.43504795205593105,-0.18118015849292277,0.516083582624048
1761478808832778200,7.0437783203125,0.39791619901359077,-0.11330123887881637,0.9171939015038311
1761478808842814200,7.053814208984375,0.15049042119681835,0.00008826280534267425,1.1037640824720263
1761478808852851200,7.063851318359375,-0.23450725953280924,0.14880933624207973,1.2987468486070632
1761478808862887400,7.073887451171875,-0.631481793782115,0.31720833909511564,1.4913973724022507
1761478808872923400,7.08392333984375,-1.0192635522723197,0.5482449999079108,1.581196593531966
1761478808882960400,7.09396044921875,-1.2027952423274517,0.7004444169797003,1.5593068332850932
1761478808892996400,7.103996337890625,-1.123736903181672,0.7428238614171743,1.4248127303823828
1761478808903032300,7.1140322265625,-1.0033780008763074,0.6628458501432091,1.0843918580040335
1761478808913069300,7.1240693359375,-0.8584154031902551,0.46817675306722517,0.5883082763575017
1761478808923105300,7.134105224609375,-0.7927800247192383,0.3367090122483671,0.09913359731659292
1761478808933141200,7.144141357421875,-0.7578688703358173,0.23072364934086798,-0.2825219333782792
1761478808943178200,7.15417822265625,-0.6473620844811201,0.12782799607701598,-0.5765126246236264
1761478808953214200,7.164214111328125,-0.47498073399364943,0.1054421959415078,-0.8424671618215739
1761478808963250200,7.174250244140625,-0.49684419075548647,0.12597608460001647,-1.014518695832789
1761478808973287400,7.184287353515625,-0.6390951913952827,0.1291080990154296,-1.1288463551498948
1761478808983323400,7.194323486328125,-0.7707885576635599,0.10442512785345315,-1.077451245085895
1761478808993359400,7.204359375,-0.9046668667554855,0.18145861010812223,-0.8870219044715165
1761478809003396400,7.214396240234375,-0.9734370361208915,0.2963552284196019,-0.6341694254308938
1761478809013432300,7.224432373046875,-0.7786720043897628,0.4199122691791504,-0.3642307870328426
1761478809023468300,7.23446826171875,-0.4193891951531172,0.4701313212011009,-0.06677227354645729
1761478809033505300,7.24450537109375,-0.05610650262534618,0.4625351669836789,0.10360650494694709
1761478809043541200,7.254541259765625,0.32657471785545344,0.4176924011725932,0.1812977935232222
1761478809053577200,7.2645771484375,0.5883820722460746,0.3582913139812648,0.2667714065387845
1761478809063614500,7.274614501953125,0.6726081694185734,0.26211897762306036,0.360719125650078
1761478809073650400,7.284650390625,0.6083657066106796,0.20617051510363815,0.3975346523500979
1761478809083686400,7.294686279296875,0.4664700952798128,0.2514294605001807,0.3694377080261707
1761478809093723400,7.304723388671875,0.26258418398201466,0.2831528516929597,0.3157980339057743
1761478809103759400,7.31475927734375,0.055817748811841005,0.3294276961337775,0.1813964315921068
1761478809113795300,7.32479541015625,-0.26650457229614255,0.3591378478080034,0.0173322430729866
1761478809123832300,7.334832275390625,-0.4908458271235227,0.3828868260554969,-0.1254693771868944
1761478809133868300,7.344868408203125,-0.49228199740648265,0.42904549677073955,-0.15542948503419757
1761478809143904300,7.354904296875,-0.44935997052490706,0.5114009777657688,-0.09206161310374736
1761478809153941200,7.364941162109375,-0.3210176682502031,0.6489861785516142,0.07268471246063708
1761478809163977500,7.3749775390625,-0.18864041137099266,0.8173067093409597,0.24002353873625396
1761478809174013400,7.385013427734375,-0.08093816154301166,0.9583948036812245,0.3801844352290034
1761478809184050400,7.395050537109375,-0.046917818519473076,0.9997106374751776,0.4101435201629996
1761478809194086400,7.40508642578125,-0.06242401520907879,1.0050964221667498,0.2349215394221246
1761478809204123100,7.415123046875,0.05397124416232109,1.0052221674382686,-0.07770867810249328
1761478809214159400,7.425159423828125,0.3007616466850042,0.9395424383688717,-0.44146673305705186
1761478809224195300,7.4351953125,0.5297860908925534,0.8050153830446303,-0.7856447660118341
1761478809234232000,7.445232177734375,0.7040718136966229,0.6983212873458862,-1.0268234661325812
1761478809244268300,7.455268310546875,0.7067302192509174,0.6657056965537369,-1.1206349916435778
1761478809254304300,7.46530419921875,0.4442582634717226,0.6324984234787523,-1.0566339363761246
1761478809264340200,7.47534033203125,0.14182488418221473,0.64976797657907,-0.9189680715695023
1761478809274377500,7.48537744140625,-0.25999066035747526,0.6901623846791685,-0.7737836478263139
1761478809284413400,7.495413330078125,-0.7172071896016597,0.7157461771383881,-0.7368976862385869
1761478809294449400,7.505449462890625,-1.0883663145929574,0.7079785388115793,-0.7173907294750214
1761478809304486400,7.515486328125,-1.1541384711861609,0.6099076022904366,-0.7509558760769665
1761478809314522400,7.5255224609375,-0.8808622127979994,0.437436162366718,-0.7948426563374698
1761478809324559000,7.53555908203125,-0.467542108425498,0.32611016908362506,-0.7874721275694668
1761478809334595300,7.54559521484375,0.005092354702949524,0.243569321584329,-0.7040428798630833
1761478809344631300,7.55563134765625,0.35659985376298425,0.17255232314020394,-0.573595714263618
1761478809354667800,7.565667724609375,0.49840837133228777,0.1263354924969375,-0.4980097274035215
1761478809364704000,7.5757041015625,0.38242403084933757,0.07177022796422243,-0.5253833258889615
1761478809374740000,7.585739990234375,0.11353110211193561,0.017518267164379358,-0.6054714464738965
1761478809384776000,7.59577587890625,-0.21585048985779284,0.07194331950880586,-0.6618807314381003
1761478809394813000,7.60581298828125,-0.5619453162193297,0.15710479783527553,-0.5845590068265796
1761478809404849000,7.615848876953125,-0.743930361354351,0.24595146748051047,-0.39202641032263635
1761478809414884900,7.625884765625,-0.6671008041739463,0.29335955373495815,-0.16807707742229103
1761478809424922000,7.635922119140625,-0.4214963965654373,0.2687596577465534,-0.056701984300464386
1761478809434958000,7.6459580078125,-0.06867430777549743,0.2078247120514512,-0.10952172034010291
1761478809444994000,7.655994140625,0.20358312895894048,0.12094663906544446,-0.1594917660370469
1761478809455031000,7.666031005859375,0.47237025923430914,0.016438216842710972,-0.2383637888304889
1761478809465067000,7.67606689453125,0.6009703356623649,-0.08023805044963955,-0.27024595078155395
1761478809475103000,7.68610302734375,0.5737152489900589,-0.16636048276275395,-0.11339870790392159
1761478809485140000,7.696139892578125,0.5166740958631039,-0.1936073130633682,-0.015824322728067636
1761478809495176000,7.706176025390625,0.35520986070930954,-0.1547487362284213,-0.07787453618869185
1761478809505212000,7.7162119140625,0.17198913629949092,-0.14855243887156247,-0.18125117790251968
1761478809515249000,7.726248779296875,0.09960369904637337,-0.14506393916867671,-0.3685807989358902
1761478809525285000,7.73628515625,0.12941373089849947,-0.198293936509639,-0.561193328808248
1761478809535321000,7.746321044921875,0.26807868974506854,-0.31999051715955135,-0.5545521372281015
1761478809545357800,7.75635791015625,0.4617126716196537,-0.35496026986241336,-0.40447760335579513
1761478809555394000,7.76639404296875,0.5235726232051849,-0.31593641946315765,-0.20491130882278083
1761478809565430000,7.776429931640625,0.45628947752714155,-0.36446466885395346,0.017631664410978555
1761478809575466800,7.786466796875,0.3377104443758726,-0.28991379719525573,0.12145020467340946
1761478809585503000,7.7965029296875,0.15689853467345236,-0.26116942181326447,0.14857479683384298
1761478809595539000,7.8065390625,-0.010074234768748283,-0.313490779876709,0.21270400852560994
1761478809605575700,7.81657568359375,-0.03178630036115646,-0.34176118107140063,0.2475146251440048
1761478809615612000,7.82661181640625,0.02301730297207832,-0.292592880211398,0.25136501696184277
1761478809625647900,7.83664794921875,0.10632453173398972,-0.29390096713528036,0.25679727114364503
1761478809635684900,7.846684814453125,0.29136136565506454,-0.3563884029693901,0.2822748267494142
1761478809645720800,7.856720947265625,0.5143231488227844,-0.4331368577376008,0.3096592388898134
1761478809655757000,7.866757080078125,0.6480827999711036,-0.5456714961580932,0.29549276637136934
1761478809665793800,7.876793701171875,0.5954419276297092,-0.6142427819505334,0.1848480333507061
1761478809675829800,7.886829833984375,0.457016038236022,-0.7098604070354253,0.05850070428550243
1761478809685866000,7.896865966796875,0.21252397578358648,-0.7629764956731349,0.008029138807207346
1761478809695902700,7.90690283203125,-0.06769464908838271,-0.6465623124055564,0.009553133504092693
1761478809705939000,7.91693896484375,-0.3251876474112272,-0.4769219677219167,0.033709669639170166
1761478809715975000,7.926974853515625,-0.6492810698449611,-0.3421566101297736,0.06898790376931428
1761478809726012000,7.937011962890625,-0.9244155233204364,-0.31696240151003,0.035827830836921926
1761478809736047900,7.9470478515625,-1.0445353561729191,-0.30516930705942213,-0.11985650574117898
1761478809746084000,7.957083984375,-0.9934113181352615,-0.3710211047600955,-0.18983005954697726
1761478809756120800,7.967120849609375,-0.8124491863071918,-0.5363914074417203,-0.23192250373661516
1761478809766156800,7.97715673828125,-0.46553076860308645,-0.7359758952185511,-0.3590492927417159
1761478809776193000,7.987193115234375,-0.10866554190218448,-0.9475786645039915,-0.5356389085739851
1761478809786229800,7.997229736328125,0.1725128679126501,-1.1264844483241438,-0.6985442824468017
1761478809796265700,8.007265625,0.3058510787785053,-1.2563375935532153,-0.8265738655105233
1761478809806302000,8.017302001953125,0.35581133373379703,-1.3634677425816655,-0.9490843928918242
1761478809816338000,8.027337890625,0.2753554027497768,-1.3983661836139858,-1.0138704610571265
1761478809826374000,8.037373779296875,0.22407938902080057,-1.415612355838716,-0.9144602387562394
1761478809836411000,8.047410888671875,0.32658816185891626,-1.46580627341941,-0.6998788920514285
1761478809846447000,8.057447021484375,0.4173094662696123,-1.4944272416174411,-0.4516735081642866
1761478809856483000,8.067483154296875,0.45952363714277744,-1.5317831588044761,-0.23958996962457893
1761478809866519800,8.077519775390625,0.3537134846717119,-1.5277891207322478,-0.03177271022722125
1761478809876556000,8.08755615234375,0.1926508160561323,-1.512822145485878,0.14640125218704342
1761478809886592000,8.097592041015625,0.05224047484695911,-1.5191224146738647,0.20407441960722206
1761478809896628700,8.107628662109375,0.10687982752919196,-1.4781829399116337,0.16725465512350202
1761478809906665000,8.1176650390625,0.3141384301304817,-1.1072343889310956,0.26928309709876774
1761478809916701000,8.127700927734375,0.4119675207197666,-0.5154847399480641,0.6240102888576686
1761478809926737700,8.137737548828126,0.2456768883228302,-0.28272761201821267,1.099614853838086
1761478809936774000,8.14777392578125,-0.25200726038813587,-0.03599127777032554,1.1918861641697585
1761478809946810000,8.15781005859375,-0.9552478839576244,0.37630028727203607,0.9212070826679467
1761478809956846800,8.167846923828124,-1.8394103073447943,0.5890615789428353,0.4931818688556552
1761478809966883000,8.177883056640624,-2.587439920711517,0.7166948561653494,-0.021774901695549485
1761478809976919000,8.1879189453125,-3.0909891620635985,0.8980857347995043,-0.5976246784962713
1761478809986955800,8.197955810546874,-2.96778422267735,1.0435964678876102,-0.9040488809876144
1761478809996992000,8.207991943359374,-2.192899920132756,1.114565900862962,-0.857658447343111
1761478810007028000,8.218028076171874,-1.324398591735959,1.2394035560175776,-0.8488290980689227
1761478810017064700,8.228064697265625,-1.368276896429062,1.4078658333651721,-1.0243053458318114
1761478810027101000,8.238100830078125,-1.2955401615202427,1.249094198296219,-0.8114853097110987
1761478810037137000,8.248136962890625,-0.870816035079956,1.093833640088141,-0.6221162918046117
1761478810047174000,8.258173828125,-0.4580646705061197,1.005229620092362,-0.689402213961631
1761478810057209900,8.2682099609375,-0.02485562431514263,0.7934650843739509,-0.8069437207587062
1761478810067246000,8.27824609375,0.3229834153652191,0.5740683002114295,-0.9609272447682916
1761478810077282000,8.288281982421875,0.5058306302875281,0.4783799479778856,-1.1104830154635013
1761478810087318800,8.29831884765625,0.5925736787170172,0.4510222046487033,-1.0693939030975104
1761478810097355000,8.30835498046875,0.59471302883327,0.5292052953299134,-0.9252204099625349
1761478810107391000,8.318390869140625,0.6206558638632297,0.7702733746830374,-0.8138527694948017
1761478810117427700,8.328427734375,0.611451397666335,0.9886536752793937,-0.6390113125041127
1761478810127464000,8.3384638671875,0.8359323532253503,1.216291195173189,-0.09281053177490829
1761478810137500000,8.3485,1.2324661579698324,1.2280018720373511,0.6295515563718974
1761478810147537000,8.358536865234376,1.5570441490501163,1.076078495427966,1.0660799562439323
1761478810157572900,8.36857275390625,1.5487503679573535,0.970550959290564,1.0575945981018244
1761478810167609000,8.378609130859376,1.1927777061820029,0.9025991205707192,0.8002332633346319
1761478810177645800,8.388645751953124,0.7783598697006702,0.7979756206009536,0.5152354413621127
1761478810187681800,8.398681884765624,0.4257318421781063,0.7584796226453036,0.3218953278675675
1761478810197718000,8.408718017578124,0.22491642436683176,0.7939140702504665,0.16308438370153308
1761478810207754800,8.418754638671874,-0.06546528260111809,0.7920047294978052,0.0073820730753242966
1761478810217790700,8.428790771484374,-0.6018108781397342,0.8010700064197183,-0.3791781807959079
1761478810227827000,8.438826904296874,-1.164171789422631,0.8085126505758613,-0.5498657329775393
1761478810237863700,8.44886376953125,-1.4204671023935078,0.8718339799508452,-0.26330723755955693
1761478810247900000,8.45889990234375,-0.8186246600717305,1.0468950710415839,0.21305969009548426
1761478810257936100,8.46893603515625,0.47497255068719385,1.1352581218883395,0.642897214026749
1761478810267972900,8.478972900390625,1.0707476557940243,1.2226290929578243,0.7613920760259032
1761478810278008800,8.4890087890625,-0.1411515149652958,-0.12779036748036743,1.1749857366427778
1761478810288045000,8.499045166015625,-0.7072235557258129,-0.05441431175470352,0.6837598241604864
1761478810298081800,8.509081787109375,-1.0863935532152653,0.8604054810289293,-0.12907149333208798
1761478810308117800,8.51911767578125,-1.4353472761392592,0.8637348446473478,-0.26215266069695353
1761478810318154000,8.529154052734375,-1.0574158805340528,1.160844617761299,-0.2500947047650814
