time,seconds_elapsed,z,y,x
1761478801873801200,0.08480126953125,-1.0248565673828125,-0.044281005859375,-0.2418212890625
1761478801883837200,0.094837158203125,-1.02618408203125,-0.04693603515625,-0.242919921875
1761478801893874400,0.10487451171875,-1.025390625,-0.03814697265625,-0.23095703125
1761478801903910400,0.114910400390625,-1.0347137451171875,-0.0262603759765625,-0.2108001708984375
1761478801913947400,0.124947509765625,-1.03466796875,-0.015411376953125,-0.1951751708984375
1761478801923983400,0.1349833984375,-1.0282135009765625,-0.014312744140625,-0.1869049072265625
1761478801934020400,0.145020263671875,-1.024871826171875,-0.0213623046875,-0.1955413818359375
1761478801944056300,0.155056396484375,-1.030303955078125,-0.0284881591796875,-0.2167510986328125
1761478801954092300,0.16509228515625,-1.0309600830078125,-0.0346832275390625,-0.225494384765625
1761478801964129300,0.17512939453125,-1.0256500244140625,-0.0327911376953125,-0.2234344482421875
1761478801974165200,0.185165283203125,-1.01177978515625,-0.0238189697265625,-0.22027587890625
1761478801984202500,0.195202392578125,-0.999786376953125,-0.0159454345703125,-0.214141845703125
1761478801994238500,0.205238525390625,-0.9835357666015625,-0.0115966796875,-0.2029571533203125
1761478802004274400,0.2152744140625,-0.9706878662109375,-0.0099639892578125,-0.1989898681640625
1761478802014311400,0.2253115234375,-0.967620849609375,-0.010589599609375,-0.210296630859375
1761478802024347400,0.235347412109375,-0.9694976806640625,-0.0131683349609375,-0.2276458740234375
1761478802034384100,0.245384033203125,-0.9727935791015625,-0.0221405029296875,-0.2436981201171875
1761478802044420400,0.25542041015625,-0.980499267578125,-0.0355224609375,-0.2606048583984375
1761478802054456300,0.265456298828125,-0.984039306640625,-0.045623779296875,-0.27392578125
1761478802064493300,0.275493408203125,-0.988006591796875,-0.044921875,-0.2818756103515625
1761478802074529500,0.285529541015625,-0.98931884765625,-0.0389251708984375,-0.2726287841796875
1761478802084566300,0.295566162109375,-0.9821929931640625,-0.0347442626953125,-0.2584381103515625
1761478802094602200,0.305602294921875,-0.9621734619140625,-0.037445068359375,-0.2414703369140625
1761478802104639200,0.31563916015625,-0.9423980712890625,-0.04693603515625,-0.2231292724609375
1761478802114675200,0.32567529296875,-0.932464599609375,-0.0501251220703125,-0.2127685546875
1761478802124711200,0.335711181640625,-0.935333251953125,-0.048797607421875,-0.20855712890625
1761478802134748200,0.345748046875,-0.944580078125,-0.04522705078125,-0.205596923828125
1761478802144784100,0.3557841796875,-0.964874267578125,-0.039031982421875,-0.2007293701171875
1761478802154821400,0.3658212890625,-0.9868316650390625,-0.030731201171875,-0.1965789794921875
1761478802164857300,0.375857421875,-1.0165252685546875,-0.01995849609375,-0.196380615234375
1761478802174893300,0.385893310546875,-1.0443115234375,-0.0085296630859375,-0.197174072265625
1761478802184930300,0.395930419921875,-1.0638580322265625,-0.0070648193359375,-0.20281982421875
1761478802194966300,0.40596630859375,-1.059600830078125,-0.012664794921875,-0.2185211181640625
1761478802205003300,0.416003173828125,-1.037384033203125,-0.024322509765625,-0.2294158935546875
1761478802215039200,0.426039306640625,-1.023162841796875,-0.0356597900390625,-0.23931884765625
1761478802225075200,0.4360751953125,-1.0124053955078125,-0.0344696044921875,-0.2522430419921875
1761478802235112200,0.4461123046875,-1.0045166015625,-0.0220947265625,-0.2504730224609375
1761478802245148400,0.4561484375,-0.995147705078125,-0.0056915283203125,-0.222900390625
1761478802255185400,0.466185302734375,-0.979248046875,-0.0133514404296875,-0.199127197265625
1761478802265221400,0.476221435546875,-0.9729461669921875,-0.013427734375,-0.1953582763671875
1761478802275257300,0.48625732421875,-0.9629669189453125,-0.017608642578125,-0.19964599609375
1761478802285294300,0.49629443359375,-0.960052490234375,-0.03851318359375,-0.207061767578125
1761478802295330300,0.506330322265625,-0.9573822021484375,-0.0495147705078125,-0.2341156005859375
1761478802305367300,0.5163671875,-0.9566192626953125,-0.03411865234375,-0.2618560791015625
1761478802315403300,0.5264033203125,-0.9605255126953125,-0.01300048828125,-0.26239013671875
1761478802325439200,0.536439208984375,-0.97039794921875,-0.006744384765625,-0.23663330078125
1761478802335476500,0.5464765625,-0.9893035888671875,-0.012969970703125,-0.2070770263671875
1761478802345512400,0.556512451171875,-1.009552001953125,-0.0126800537109375,-0.1880340576171875
1761478802355549400,0.566549560546875,-1.0199432373046875,-0.01556396484375,-0.186004638671875
1761478802365585400,0.57658544921875,-1.01593017578125,-0.0214385986328125,-0.190460205078125
1761478802375622400,0.586622314453125,-1.0053863525390625,-0.034576416015625,-0.1948394775390625
1761478802385658600,0.59665869140625,-0.9983367919921875,-0.0484466552734375,-0.20513916015625
1761478802395694600,0.606694580078125,-0.99212646484375,-0.0570220947265625,-0.2202911376953125
1761478802405731300,0.6167314453125,-0.9964752197265625,-0.0549163818359375,-0.2349090576171875
1761478802415767600,0.626767578125,-1.0075225830078125,-0.0435333251953125,-0.24200439453125
1761478802425804300,0.63680419921875,-1.0171966552734375,-0.0354156494140625,-0.236968994140625
1761478802435840300,0.64684033203125,-1.0239715576171875,-0.0300750732421875,-0.224517822265625
1761478802445876500,0.65687646484375,-1.031951904296875,-0.0292510986328125,-0.21746826171875
1761478802455913200,0.666913330078125,-1.0296478271484375,-0.02447509765625,-0.2123260498046875
1761478802465949200,0.67694921875,-1.022308349609375,-0.025665283203125,-0.2072296142578125
1761478802475986400,0.686986328125,-1.0036773681640625,-0.025634765625,-0.2091064453125
1761478802486022400,0.6970224609375,-0.979888916015625,-0.0316619873046875,-0.2189483642578125
1761478802496058400,0.707058349609375,-0.961761474609375,-0.0502166748046875,-0.2414398193359375
1761478802506095400,0.717095458984375,-0.9440460205078125,-0.07177734375,-0.2728424072265625
1761478802516131300,0.72713134765625,-0.9241180419921875,-0.093109130859375,-0.3020172119140625
1761478802526168300,0.737168212890625,-0.9098052978515625,-0.103912353515625,-0.3191070556640625
1761478802536204300,0.747204345703125,-0.916107177734375,-0.112823486328125,-0.3222808837890625
1761478802546241300,0.7572412109375,-0.9425201416015625,-0.1100006103515625,-0.330078125
1761478802556277200,0.76727734375,-0.972503662109375,-0.0993804931640625,-0.3504791259765625
1761478802566313500,0.7773134765625,-0.989471435546875,-0.0966644287109375,-0.3697967529296875
1761478802576350500,0.7873505859375,-0.99261474609375,-0.1070098876953125,-0.3771514892578125
1761478802586386400,0.797386474609375,-0.9874420166015625,-0.112579345703125,-0.378631591796875
1761478802596423400,0.80742333984375,-0.98162841796875,-0.11669921875,-0.3681488037109375
1761478802606459400,0.81745947265625,-0.9753265380859375,-0.1139373779296875,-0.3495635986328125
1761478802616495400,0.827495361328125,-0.986907958984375,-0.105621337890625,-0.329132080078125
1761478802626532400,0.837532470703125,-1.0084991455078125,-0.1064910888671875,-0.3138580322265625
1761478802636568300,0.847568359375,-1.0143280029296875,-0.109039306640625,-0.2988433837890625
1761478802646605600,0.85760546875,-1.0071868896484375,-0.1055755615234375,-0.2790985107421875
1761478802656641500,0.8676416015625,-0.992645263671875,-0.101837158203125,-0.2586517333984375
1761478802666677500,0.877677490234375,-0.9800262451171875,-0.1041717529296875,-0.2456512451171875
1761478802676714500,0.887714599609375,-0.9777679443359375,-0.1043701171875,-0.2464447021484375
1761478802686750500,0.89775048828125,-0.9655914306640625,-0.1002960205078125,-0.24700927734375
1761478802696787500,0.907787353515625,-0.948974609375,-0.1020660400390625,-0.23675537109375
1761478802706823400,0.917823486328125,-0.93878173828125,-0.1053009033203125,-0.2313079833984375
1761478802716859400,0.927859375,-0.9358367919921875,-0.0973663330078125,-0.23699951171875
1761478802726896400,0.937896484375,-0.9317474365234375,-0.0904693603515625,-0.2377166748046875
1761478802736932400,0.947932373046875,-0.9358673095703125,-0.088226318359375,-0.2378387451171875
1761478802746969300,0.95796923828125,-0.942108154296875,-0.0865020751953125,-0.2466888427734375
1761478802757005600,0.968005615234375,-0.9413299560546875,-0.088470458984375,-0.2633056640625
1761478802767042300,0.978042236328125,-0.947509765625,-0.0946044921875,-0.2843475341796875
1761478802777078300,0.988078369140625,-0.953033447265625,-0.1034698486328125,-0.295196533203125
1761478802787114500,0.998114501953125,-0.953369140625,-0.112548828125,-0.298797607421875
1761478802797151200,1.008151123046875,-0.96136474609375,-0.113494873046875,-0.3008270263671875
1761478802807187200,1.018187255859375,-0.9796142578125,-0.108306884765625,-0.2987060546875
1761478802817224400,1.028224365234375,-1.0091705322265625,-0.09698486328125,-0.292388916015625
1761478802827260400,1.038260498046875,-1.0231781005859375,-0.0900726318359375,-0.27587890625
1761478802837296400,1.04829638671875,-1.034149169921875,-0.0892333984375,-0.2571563720703125
1761478802847333400,1.05833349609375,-1.027435302734375,-0.0916900634765625,-0.2434539794921875
1761478802857369300,1.068369384765625,-1.0065765380859375,-0.1002197265625,-0.2316131591796875
1761478802867406300,1.07840625,-0.973785400390625,-0.113433837890625,-0.2210540771484375
1761478802877442300,1.0884423828125,-0.9378662109375,-0.1275634765625,-0.21978759765625
1761478802887479300,1.098479248046875,-0.9068603515625,-0.1443328857421875,-0.2260589599609375
1761478802897515300,1.108515380859375,-0.8854217529296875,-0.1566619873046875,-0.2319488525390625
1761478802907551200,1.11855126953125,-0.881134033203125,-0.1561279296875,-0.2348480224609375
1761478802917588500,1.12858837890625,-0.901275634765625,-0.1507568359375,-0.244842529296875
1761478802927624400,1.13862451171875,-0.919158935546875,-0.148681640625,-0.2549285888671875
1761478802937661400,1.148661376953125,-0.93902587890625,-0.1463775634765625,-0.26654052734375
1761478802947697400,1.158697509765625,-0.9520416259765625,-0.139556884765625,-0.2795867919921875
1761478802957733400,1.1687333984375,-0.95391845703125,-0.141265869140625,-0.2916107177734375
1761478802967770400,1.178770263671875,-0.9497222900390625,-0.1576385498046875,-0.3050079345703125
1761478802977806300,1.188806396484375,-0.942138671875,-0.172332763671875,-0.3165130615234375
1761478802987843300,1.19884326171875,-0.9373931884765625,-0.176361083984375,-0.323028564453125
1761478802997879600,1.208879638671875,-0.937347412109375,-0.1703033447265625,-0.3228912353515625
1761478803007916500,1.21891650390625,-0.9401092529296875,-0.16485595703125,-0.31329345703125
1761478803017952500,1.228952392578125,-0.9412689208984375,-0.15985107421875,-0.3014373779296875
1761478803027988500,1.238988525390625,-0.9436492919921875,-0.155670166015625,-0.2952728271484375
1761478803038025500,1.249025390625,-0.9474029541015625,-0.1555633544921875,-0.296356201171875
1761478803048061400,1.2590615234375,-0.9624176025390625,-0.156463623046875,-0.301544189453125
1761478803058098400,1.269098388671875,-0.980499267578125,-0.15252685546875,-0.299468994140625
1761478803068134400,1.279134521484375,-0.992218017578125,-0.1463623046875,-0.2874908447265625
1761478803078170400,1.28917041015625,-0.9940338134765625,-0.14141845703125,-0.2686920166015625
1761478803088207400,1.299207275390625,-0.9865875244140625,-0.140716552734375,-0.2570343017578125
1761478803098243600,1.30924365234375,-0.976104736328125,-0.143035888671875,-0.2606964111328125
1761478803108280300,1.3192802734375,-0.962646484375,-0.1491241455078125,-0.273590087890625
1761478803118316300,1.32931640625,-0.951629638671875,-0.1608428955078125,-0.285308837890625
1761478803128352500,1.3393525390625,-0.946533203125,-0.1721954345703125,-0.2975921630859375
1761478803138389200,1.34938916015625,-0.93902587890625,-0.1741790771484375,-0.3079376220703125
1761478803148425200,1.35942529296875,-0.9306182861328125,-0.170806884765625,-0.3088226318359375
1761478803158462200,1.369462158203125,-0.926422119140625,-0.1605987548828125,-0.3074798583984375
1761478803168498200,1.379498291015625,-0.9322357177734375,-0.146575927734375,-0.3115997314453125
1761478803178535400,1.389535400390625,-0.9517059326171875,-0.128265380859375,-0.31402587890625
1761478803188571400,1.3995712890625,-0.987518310546875,-0.1082000732421875,-0.3081512451171875
1761478803198607400,1.409607421875,-1.034759521484375,-0.0918731689453125,-0.3003082275390625
1761478803208644400,1.419644287109375,-1.0767364501953125,-0.081634521484375,-0.2930755615234375
1761478803218680300,1.429680419921875,-1.096405029296875,-0.0744171142578125,-0.2834625244140625
1761478803228717300,1.43971728515625,-1.095184326171875,-0.060577392578125,-0.2733612060546875
1761478803238753300,1.449753173828125,-1.08721923828125,-0.0496673583984375,-0.26214599609375
1761478803248789200,1.459789306640625,-1.0696868896484375,-0.0442352294921875,-0.249542236328125
1761478803258826500,1.469826416015625,-1.0404815673828125,-0.0421905517578125,-0.2390899658203125
1761478803268862500,1.479862548828125,-1.012298583984375,-0.052398681640625,-0.2247772216796875
1761478803278899500,1.4898994140625,-0.9851226806640625,-0.06890869140625,-0.216827392578125
1761478803288935400,1.499935302734375,-0.964508056640625,-0.084503173828125,-0.2226104736328125
1761478803298971400,1.509971435546875,-0.9502105712890625,-0.0945281982421875,-0.2369537353515625
1761478803309008400,1.52000830078125,-0.9383697509765625,-0.0976104736328125,-0.2467803955078125
1761478803319044400,1.53004443359375,-0.9293212890625,-0.1002655029296875,-0.2398529052734375
1761478803329081300,1.540081298828125,-0.926300048828125,-0.097015380859375,-0.227691650390625
1761478803339117300,1.550117431640625,-0.9249267578125,-0.0901031494140625,-0.216552734375
1761478803349154600,1.560154541015625,-0.9293060302734375,-0.0857391357421875,-0.2095947265625
1761478803359190500,1.5701904296875,-0.9352569580078125,-0.0876617431640625,-0.2080230712890625
1761478803369226500,1.5802265625,-0.9424591064453125,-0.096954345703125,-0.202972412109375
1761478803379263500,1.590263427734375,-0.9548492431640625,-0.0998992919921875,-0.19342041015625
1761478803389299500,1.600299560546875,-0.970001220703125,-0.09613037109375,-0.1844024658203125
1761478803399336400,1.61033642578125,-0.987457275390625,-0.0880889892578125,-0.1815948486328125
1761478803409372400,1.620372314453125,-1.0041046142578125,-0.0705718994140625,-0.184234619140625
1761478803419408400,1.630408447265625,-1.01123046875,-0.055206298828125,-0.182403564453125
1761478803429445600,1.640445556640625,-1.0094451904296875,-0.0503387451171875,-0.1787261962890625
1761478803439481600,1.650481689453125,-0.9993743896484375,-0.055450439453125,-0.179229736328125
1761478803449518300,1.660518310546875,-0.992462158203125,-0.061187744140625,-0.1918792724609375
1761478803459554600,1.670554443359375,-0.990020751953125,-0.064453125,-0.2125244140625
1761478803469591300,1.68059130859375,-0.9874114990234375,-0.0733489990234375,-0.23193359375
1761478803479627300,1.690627197265625,-0.9847412109375,-0.0808868408203125,-0.2412109375
1761478803489663500,1.70066357421875,-0.985992431640625,-0.081085205078125,-0.2482147216796875
1761478803499700500,1.710700439453125,-0.9908447265625,-0.0754852294921875,-0.2439727783203125
1761478803509736400,1.720736328125,-0.996795654296875,-0.071197509765625,-0.235931396484375
1761478803519773400,1.7307734375,-0.998382568359375,-0.065643310546875,-0.2252349853515625
1761478803529809400,1.740809326171875,-0.9960784912109375,-0.0719757080078125,-0.2210845947265625
1761478803539845400,1.750845458984375,-0.982147216796875,-0.073272705078125,-0.2222900390625
1761478803549882400,1.76088232421875,-0.9718017578125,-0.0696868896484375,-0.215911865234375
1761478803559918300,1.77091845703125,-0.974090576171875,-0.06787109375,-0.20184326171875
1761478803569955300,1.780955322265625,-0.97698974609375,-0.0605926513671875,-0.1785888671875
1761478803579991300,1.7909912109375,-0.9797821044921875,-0.0504913330078125,-0.1574554443359375
1761478803590027300,1.80102734375,-0.987579345703125,-0.04150390625,-0.142730712890625
1761478803600064500,1.811064453125,-1.004730224609375,-0.03594970703125,-0.1383514404296875
1761478803610100500,1.8211005859375,-1.024139404296875,-0.0252685546875,-0.14471435546875
1761478803620137500,1.831137451171875,-1.0299072265625,-0.0203094482421875,-0.1521759033203125
1761478803630173400,1.84117333984375,-1.0261383056640625,-0.020965576171875,-0.1616668701171875
1761478803640210400,1.85121044921875,-1.0058441162109375,-0.0236968994140625,-0.1746978759765625
1761478803650246400,1.861246337890625,-0.9851837158203125,-0.02459716796875,-0.1918487548828125
1761478803660282400,1.871282470703125,-0.9684600830078125,-0.028167724609375,-0.199737548828125
1761478803670319400,1.8813193359375,-0.95770263671875,-0.0336761474609375,-0.19580078125
1761478803680355600,1.89135546875,-0.9521636962890625,-0.041229248046875,-0.1878662109375
1761478803690392600,1.901392578125,-0.9496002197265625,-0.0416107177734375,-0.1884002685546875
1761478803700428500,1.911428466796875,-0.9485321044921875,-0.0457305908203125,-0.20013427734375
1761478803710464500,1.921464599609375,-0.9512176513671875,-0.0563507080078125,-0.2113037109375
1761478803720501500,1.93150146484375,-0.9609375,-0.0595703125,-0.2225189208984375
1761478803730537500,1.941537353515625,-0.9693603515625,-0.062164306640625,-0.2350311279296875
1761478803740574500,1.951574462890625,-0.9797515869140625,-0.06982421875,-0.240753173828125
1761478803750610400,1.9616103515625,-0.9896087646484375,-0.0764312744140625,-0.2440032958984375
1761478803760647400,1.9716474609375,-1.0052490234375,-0.072906494140625,-0.2474212646484375
1761478803770683600,1.98168359375,-1.0181427001953125,-0.06683349609375,-0.2424774169921875
1761478803780719600,1.9917197265625,-1.0264129638671875,-0.0595550537109375,-0.2330169677734375
1761478803790756400,2.00175634765625,-1.0282745361328125,-0.054779052734375,-0.2132720947265625
1761478803800792600,2.01179248046875,-1.0147552490234375,-0.057159423828125,-0.18365478515625
1761478803810829300,2.021829345703125,-1.001373291015625,-0.0591278076171875,-0.1558837890625
1761478803820865300,2.031865234375,-0.990814208984375,-0.057281494140625,-0.140716552734375
1761478803830901500,2.041901611328125,-0.986419677734375,-0.055145263671875,-0.1378631591796875
1761478803840938200,2.051938232421875,-0.984954833984375,-0.05645751953125,-0.1384735107421875
1761478803850974200,2.06197412109375,-0.9817047119140625,-0.0653839111328125,-0.1356964111328125
1761478803861011500,2.072011474609375,-0.9775848388671875,-0.0727081298828125,-0.1440582275390625
1761478803871047400,2.08204736328125,-0.9747772216796875,-0.0709228515625,-0.1627349853515625
1761478803881083400,2.09208349609375,-0.97027587890625,-0.06298828125,-0.172271728515625
1761478803891120400,2.102120361328125,-0.9723358154296875,-0.0595550537109375,-0.17578125
1761478803901156400,2.11215625,-0.9738311767578125,-0.0536651611328125,-0.17718505859375
1761478803911193300,2.122193359375,-0.98199462890625,-0.0532073974609375,-0.178314208984375
1761478803921229300,2.132229248046875,-0.9918670654296875,-0.05755615234375,-0.183197021484375
1761478803931265300,2.142265380859375,-0.994964599609375,-0.058013916015625,-0.1863555908203125
1761478803941302500,2.152302490234375,-1.0080108642578125,-0.05780029296875,-0.191619873046875
1761478803951338500,2.16233837890625,-1.0204010009765625,-0.054107666015625,-0.1970062255859375
1761478803961375500,2.17237548828125,-1.0330810546875,-0.047637939453125,-0.1995849609375
1761478803971411500,2.182411376953125,-1.0454254150390625,-0.0469818115234375,-0.200439453125
1761478803981447400,2.192447509765625,-1.0484466552734375,-0.0511932373046875,-0.1986541748046875
1761478803991484400,2.202484375,-1.042388916015625,-0.0512237548828125,-0.1987152099609375
1761478804001520400,2.212520263671875,-1.024749755859375,-0.052886962890625,-0.1951751708984375
1761478804011557400,2.222557373046875,-1.010223388671875,-0.05938720703125,-0.1887359619140625
1761478804021593300,2.23259326171875,-0.9955902099609375,-0.067169189453125,-0.1868133544921875
1761478804031629300,2.24262939453125,-0.98944091796875,-0.0753936767578125,-0.1882781982421875
1761478804041666600,2.25266650390625,-0.988616943359375,-0.080230712890625,-0.190460205078125
1761478804051702500,2.26270263671875,-0.9879150390625,-0.0828094482421875,-0.189697265625
1761478804061739500,2.272739501953125,-0.992401123046875,-0.0816497802734375,-0.184661865234375
1761478804071775500,2.282775390625,-1.0009918212890625,-0.077117919921875,-0.1796112060546875
1761478804081812500,2.2928125,-1.0054779052734375,-0.067352294921875,-0.1824951171875
1761478804091848400,2.302848388671875,-1.0053863525390625,-0.0755157470703125,-0.1896514892578125
1761478804101884400,2.312884521484375,-0.9981842041015625,-0.0881195068359375,-0.203948974609375
1761478804111921700,2.322921630859375,-0.990814208984375,-0.0889434814453125,-0.220855712890625
1761478804121957600,2.33295751953125,-0.978424072265625,-0.0906829833984375,-0.225128173828125
1761478804131994400,2.342994384765625,-0.9658355712890625,-0.09271240234375,-0.2236785888671875
1761478804142030600,2.353030517578125,-0.9527130126953125,-0.0940399169921875,-0.218170166015625
1761478804152066600,2.363066650390625,-0.946746826171875,-0.097137451171875,-0.2071685791015625
1761478804162103300,2.373103271484375,-0.9534454345703125,-0.1008758544921875,-0.1984710693359375
1761478804172139500,2.383139404296875,-0.9620819091796875,-0.10430908203125,-0.1964874267578125
1761478804182176300,2.39317626953125,-0.97021484375,-0.109130859375,-0.203216552734375
1761478804192212200,2.403212158203125,-0.9772186279296875,-0.1085968017578125,-0.208770751953125
1761478804202248400,2.41324853515625,-0.98779296875,-0.1013031005859375,-0.2125701904296875
1761478804212285400,2.423285400390625,-1.0016326904296875,-0.0992279052734375,-0.216461181640625
1761478804222321400,2.4333212890625,-1.0169219970703125,-0.1026153564453125,-0.2210845947265625
1761478804232358400,2.4433583984375,-1.019378662109375,-0.1090240478515625,-0.22222900390625
1761478804242394400,2.453394287109375,-1.0219879150390625,-0.112091064453125,-0.2195892333984375
1761478804252430300,2.463430419921875,-1.0209197998046875,-0.1110992431640625,-0.2145843505859375
1761478804262467300,2.47346728515625,-1.0215301513671875,-0.1118011474609375,-0.2065582275390625
1761478804272503300,2.48350341796875,-1.0188751220703125,-0.1144561767578125,-0.199310302734375
1761478804282540300,2.493540283203125,-1.009002685546875,-0.11871337890625,-0.19244384765625
1761478804292576300,2.503576171875,-1.00152587890625,-0.1190032958984375,-0.1863861083984375
1761478804302612500,2.513612548828125,-0.9930267333984375,-0.120147705078125,-0.1822967529296875
1761478804312649500,2.5236494140625,-0.99139404296875,-0.1221771240234375,-0.183197021484375
1761478804322685400,2.533685546875,-0.9922943115234375,-0.12628173828125,-0.184356689453125
1761478804332722400,2.543722412109375,-0.99859619140625,-0.131927490234375,-0.184173583984375
1761478804342758400,2.55375830078125,-1.00726318359375,-0.1336669921875,-0.18377685546875
1761478804352795000,2.563794921875,-1.0201416015625,-0.1363983154296875,-0.1824798583984375
1761478804362832000,2.573831787109375,-1.039581298828125,-0.134124755859375,-0.1837615966796875
1761478804372867800,2.583867919921875,-1.0579681396484375,-0.1292877197265625,-0.1850128173828125
1761478804382905000,2.593905029296875,-1.0727081298828125,-0.1224212646484375,-0.1861572265625
1761478804392941000,2.603941162109375,-1.07452392578125,-0.114227294921875,-0.184600830078125
1761478804402977000,2.61397705078125,-1.0671234130859375,-0.1053924560546875,-0.181640625
1761478804413014000,2.624013916015625,-1.058990478515625,-0.0955352783203125,-0.1772308349609375
1761478804423050000,2.634050048828125,-1.057098388671875,-0.08599853515625,-0.169464111328125
1761478804433087000,2.6440869140625,-1.0729827880859375,-0.080963134765625,-0.155364990234375
1761478804443123000,2.654123046875,-1.1028289794921875,-0.0796661376953125,-0.1387939453125
1761478804453159000,2.664158935546875,-1.133575439453125,-0.0746307373046875,-0.1235504150390625
1761478804463196000,2.67419580078125,-1.167724609375,-0.059112548828125,-0.121063232421875
1761478804473232000,2.68423193359375,-1.1910858154296875,-0.0401611328125,-0.134307861328125
1761478804483268900,2.694268798828125,-1.1959381103515625,-0.0299835205078125,-0.1594696044921875
1761478804493305000,2.70430517578125,-1.164031982421875,-0.027984619140625,-0.18511962890625
1761478804503341000,2.714341064453125,-1.1123046875,-0.038055419921875,-0.2188262939453125
1761478804513377800,2.724377685546875,-1.0498046875,-0.050537109375,-0.2537384033203125
1761478804523414000,2.7344140625,-0.9870452880859375,-0.0645751953125,-0.2772674560546875
1761478804533450800,2.74445068359375,-0.934173583984375,-0.0728912353515625,-0.287567138671875
1761478804543486700,2.75448681640625,-0.8950653076171875,-0.0770111083984375,-0.287139892578125
1761478804553523000,2.76452294921875,-0.8748016357421875,-0.074493408203125,-0.279632568359375
1761478804563560000,2.774559814453125,-0.8620452880859375,-0.06878662109375,-0.2707977294921875
1761478804573596000,2.784595947265625,-0.8540802001953125,-0.0614166259765625,-0.260467529296875
1761478804583633000,2.7946328125,-0.84454345703125,-0.05810546875,-0.253936767578125
1761478804593668900,2.8046689453125,-0.826141357421875,-0.0632171630859375,-0.2465362548828125
1761478804603704800,2.814704833984375,-0.8146209716796875,-0.0719451904296875,-0.238189697265625
1761478804613741800,2.824741943359375,-0.8117523193359375,-0.0861053466796875,-0.23419189453125
1761478804623777800,2.83477783203125,-0.8136138916015625,-0.091156005859375,-0.2377471923828125
1761478804633814800,2.844814697265625,-0.8294525146484375,-0.087158203125,-0.240509033203125
1761478804643850800,2.854850830078125,-0.8584442138671875,-0.0861358642578125,-0.234466552734375
1761478804653886700,2.86488671875,-0.892486572265625,-0.0817413330078125,-0.2301025390625
1761478804663924000,2.874924072265625,-0.93304443359375,-0.0728607177734375,-0.2337799072265625
1761478804673960000,2.8849599609375,-0.9796295166015625,-0.0667266845703125,-0.2413787841796875
1761478804683997000,2.894996826171875,-1.0208892822265625,-0.057586669921875,-0.2438812255859375
1761478804694033000,2.905032958984375,-1.064697265625,-0.0413970947265625,-0.254241943359375
1761478804704068900,2.91506884765625,-1.1004486083984375,-0.0355072021484375,-0.264678955078125
1761478804714105900,2.92510595703125,-1.1301116943359375,-0.0392913818359375,-0.278228759765625
1761478804724141800,2.935141845703125,-1.1283416748046875,-0.037750244140625,-0.292144775390625
1761478804734178800,2.9451787109375,-1.107940673828125,-0.034912109375,-0.2996368408203125
1761478804744214800,2.95521484375,-1.0701751708984375,-0.0323333740234375,-0.297210693359375
1761478804754251000,2.9652509765625,-1.022613525390625,-0.0277557373046875,-0.286224365234375
1761478804764288000,2.9752880859375,-0.9842376708984375,-0.0247039794921875,-0.2712249755859375
1761478804774324000,2.985323974609375,-0.9580535888671875,-0.02392578125,-0.2636871337890625
1761478804784360000,2.99535986328125,-0.9430999755859375,-0.0298614501953125,-0.2568359375
1761478804794397000,3.00539697265625,-0.934417724609375,-0.0417938232421875,-0.2555694580078125
1761478804804433000,3.015432861328125,-0.927978515625,-0.0517730712890625,-0.2558441162109375
1761478804814470000,3.025469970703125,-0.9332122802734375,-0.049163818359375,-0.2589874267578125
1761478804824505900,3.035505859375,-0.9419403076171875,-0.0357513427734375,-0.253997802734375
1761478804834541800,3.045541748046875,-0.9543609619140625,-0.014404296875,-0.238372802734375
1761478804844579000,3.0555791015625,-0.9607086181640625,-0.0026702880859375,-0.223480224609375
1761478804854615000,3.065614990234375,-0.964996337890625,0.0003814697265625,-0.2194976806640625
1761478804864652000,3.075652099609375,-0.9594268798828125,-0.002197265625,-0.2311859130859375
1761478804874688000,3.08568798828125,-0.9342803955078125,-0.0148468017578125,-0.253662109375
1761478804884724000,3.095723876953125,-0.9132080078125,-0.0308837890625,-0.2882080078125
1761478804894761000,3.105760986328125,-0.9126129150390625,-0.0348663330078125,-0.32391357421875
1761478804904797000,3.115796875,-0.930694580078125,-0.0340118408203125,-0.3450927734375
1761478804914833700,3.125833740234375,-0.955657958984375,-0.0451812744140625,-0.3518524169921875
1761478804924870000,3.135869873046875,-0.9851837158203125,-0.0613555908203125,-0.3661651611328125
1761478804934906000,3.145906005859375,-1.0055084228515625,-0.0679473876953125,-0.3943023681640625
1761478804944942800,3.15594287109375,-1.003509521484375,-0.077789306640625,-0.42266845703125
1761478804954978800,3.165978759765625,-0.9847412109375,-0.0848236083984375,-0.44366455078125
1761478804965015800,3.176015869140625,-0.9609832763671875,-0.0913238525390625,-0.4450836181640625
1761478804975051800,3.1860517578125,-0.9437255859375,-0.096099853515625,-0.42474365234375
1761478804985087700,3.196087646484375,-0.9385528564453125,-0.096954345703125,-0.3939056396484375
1761478804995124700,3.206124755859375,-0.946502685546875,-0.0859832763671875,-0.36517333984375
1761478805005160700,3.21616064453125,-0.9616241455078125,-0.07366943359375,-0.3291473388671875
1761478805015197000,3.226197021484375,-0.9818878173828125,-0.0710906982421875,-0.298065185546875
1761478805025234000,3.23623388671875,-1.0013885498046875,-0.0600433349609375,-0.2790069580078125
1761478805035270000,3.246269775390625,-1.01708984375,-0.05316162109375,-0.2641448974609375
1761478805045307000,3.256306884765625,-1.014190673828125,-0.04937744140625,-0.2503204345703125
1761478805055342800,3.2663427734375,-0.9962310791015625,-0.04248046875,-0.2435760498046875
1761478805065378800,3.27637890625,-0.9721527099609375,-0.039825439453125,-0.247589111328125
1761478805075415800,3.286415771484375,-0.9462432861328125,-0.0437774658203125,-0.2568359375
1761478805085451800,3.29645166015625,-0.9233551025390625,-0.0565185546875,-0.2715911865234375
1761478805095488800,3.30648876953125,-0.8985443115234375,-0.0701904296875,-0.28814697265625
1761478805105524700,3.316524658203125,-0.8946075439453125,-0.085205078125,-0.3037261962890625
1761478805115561000,3.32656103515625,-0.9034576416015625,-0.0901031494140625,-0.31964111328125
1761478805125598000,3.336597900390625,-0.92572021484375,-0.089141845703125,-0.3331756591796875
1761478805135634000,3.346634033203125,-0.9600067138671875,-0.0806732177734375,-0.345428466796875
1761478805145670000,3.356669921875,-0.9947967529296875,-0.063934326171875,-0.3557891845703125
1761478805155707000,3.366706787109375,-0.9857330322265625,-0.0726318359375,-0.33843994140625
1761478805165742800,3.376742919921875,-0.943817138671875,-0.0727691650390625,-0.3105926513671875
1761478805175779800,3.38677978515625,-0.930145263671875,-0.0546722412109375,-0.30084228515625
1761478805185815800,3.39681591796875,-0.914794921875,-0.0555572509765625,-0.2846527099609375
1761478805195851800,3.406851806640625,-0.9057769775390625,-0.064117431640625,-0.2872467041015625
1761478805205889000,3.416888916015625,-0.897491455078125,-0.0741424560546875,-0.2973480224609375
1761478805215925000,3.426925048828125,-0.8918304443359375,-0.0853729248046875,-0.3037109375
1761478805225962000,3.4369619140625,-0.9043121337890625,-0.0914306640625,-0.3135528564453125
1761478805235998000,3.446998046875,-0.9166717529296875,-0.093292236328125,-0.3199310302734375
1761478805246034000,3.457033935546875,-0.927001953125,-0.093536376953125,-0.3228607177734375
1761478805256071000,3.46707080078125,-0.933197021484375,-0.0951995849609375,-0.3233642578125
1761478805266107000,3.47710693359375,-0.934051513671875,-0.102081298828125,-0.3245391845703125
1761478805276143900,3.487143798828125,-0.9384613037109375,-0.112823486328125,-0.335968017578125
1761478805286179800,3.497179931640625,-0.944671630859375,-0.126678466796875,-0.349884033203125
1761478805296215800,3.5072158203125,-0.95233154296875,-0.1354522705078125,-0.353485107421875
1761478805306253000,3.517253173828125,-0.958740234375,-0.14013671875,-0.340972900390625
1761478805316289000,3.5272890625,-0.97247314453125,-0.1384735107421875,-0.318328857421875
1761478805326325000,3.537324951171875,-0.99176025390625,-0.1334228515625,-0.295684814453125
1761478805336362000,3.547362060546875,-1.00933837890625,-0.1284332275390625,-0.2764434814453125
1761478805346398000,3.55739794921875,-1.0202484130859375,-0.1262359619140625,-0.2674713134765625
1761478805356434700,3.5674345703125,-1.01226806640625,-0.12530517578125,-0.2631378173828125
1761478805366470700,3.577470703125,-0.99224853515625,-0.13037109375,-0.258453369140625
1761478805376506600,3.587506591796875,-0.964019775390625,-0.1387786865234375,-0.2530364990234375
1761478805386543900,3.5975439453125,-0.9381561279296875,-0.1522216796875,-0.2517242431640625
1761478805396579800,3.607579833984375,-0.921417236328125,-0.1685333251953125,-0.2528533935546875
1761478805406615800,3.61761572265625,-0.9161834716796875,-0.1875152587890625,-0.2618408203125
1761478805416652800,3.62765283203125,-0.92620849609375,-0.1996002197265625,-0.28167724609375
1761478805426688800,3.637688720703125,-0.9394378662109375,-0.211151123046875,-0.3020477294921875
1761478805436725500,3.6477255859375,-0.9570159912109375,-0.21282958984375,-0.31689453125
1761478805446761700,3.65776171875,-0.97027587890625,-0.2055816650390625,-0.321929931640625
1761478805456797700,3.667797607421875,-0.9780426025390625,-0.2062530517578125,-0.307769775390625
1761478805466834700,3.677834716796875,-0.97845458984375,-0.2119140625,-0.295684814453125
1761478805476870700,3.68787060546875,-0.969329833984375,-0.2166748046875,-0.29766845703125
1761478805486907600,3.69790771484375,-0.9617462158203125,-0.222747802734375,-0.3089447021484375
1761478805496943600,3.707943603515625,-0.96246337890625,-0.22918701171875,-0.31884765625
1761478805506979600,3.7179794921875,-0.9578704833984375,-0.2317962646484375,-0.32794189453125
1761478805517016600,3.7280166015625,-0.9459686279296875,-0.2270355224609375,-0.3343963623046875
1761478805527052500,3.738052490234375,-0.9339752197265625,-0.2098236083984375,-0.3417816162109375
1761478805537088500,3.748088623046875,-0.9174041748046875,-0.1725311279296875,-0.3423004150390625
1761478805547125500,3.75812548828125,-0.9034423828125,-0.1298065185546875,-0.3224639892578125
1761478805557161500,3.768161376953125,-0.91156005859375,-0.10858154296875,-0.2920074462890625
1761478805567198700,3.77819873046875,-0.953155517578125,-0.0870819091796875,-0.282562255859375
1761478805577234700,3.788234619140625,-1.0100860595703125,-0.0579376220703125,-0.294525146484375
1761478805587270700,3.798270751953125,-1.0531463623046875,-0.0340728759765625,-0.30401611328125
1761478805597307600,3.8083076171875,-1.0846710205078125,-0.019256591796875,-0.30743408203125
1761478805607343600,3.818343505859375,-1.1166534423828125,-0.003387451171875,-0.31439208984375
1761478805617379600,3.828379638671875,-1.1397247314453125,0.014251708984375,-0.319793701171875
1761478805627416600,3.83841650390625,-1.1556854248046875,0.0299835205078125,-0.31494140625
1761478805637452500,3.84845263671875,-1.1200103759765625,0.0354766845703125,-0.294189453125
1761478805647489800,3.85848974609375,-1.03271484375,0.041046142578125,-0.2773590087890625
1761478805657525800,3.86852587890625,-0.97161865234375,0.0423431396484375,-0.2781219482421875
1761478805667561700,3.878561767578125,-0.9817352294921875,0.0228118896484375,-0.28240966796875
1761478805677598700,3.8885986328125,-1.0139312744140625,0.0080413818359375,-0.2875823974609375
1761478805687634700,3.898634765625,-0.997039794921875,0.0015869140625,-0.3032073974609375
1761478805697670700,3.908670654296875,-0.963623046875,-0.014892578125,-0.3209991455078125
1761478805707707600,3.918707763671875,-0.940704345703125,-0.043182373046875,-0.3363189697265625
1761478805717743600,3.92874365234375,-0.9242706298828125,-0.060211181640625,-0.365478515625
1761478805727780600,3.938780517578125,-0.9060821533203125,-0.061737060546875,-0.389617919921875
1761478805737816600,3.948816650390625,-0.8917083740234375,-0.0631103515625,-0.388885498046875
1761478805747852500,3.9588525390625,-0.8726806640625,-0.0644683837890625,-0.36968994140625
1761478805757889800,3.968889892578125,-0.8550872802734375,-0.0606842041015625,-0.33880615234375
1761478805767925800,3.97892578125,-0.852691650390625,-0.05535888671875,-0.3075408935546875
1761478805777961700,3.988961669921875,-0.8596343994140625,-0.046630859375,-0.2772064208984375
1761478805787998700,3.998998779296875,-0.86920166015625,-0.041015625,-0.2525634765625
1761478805798033700,4.00903369140625,-0.88385009765625,-0.0379638671875,-0.2260284423828125
1761478805808069600,4.019069580078125,-0.9053955078125,-0.049530029296875,-0.20654296875
1761478805818105600,4.029105712890625,-0.9295654296875,-0.0563812255859375,-0.21697998046875
1761478805828142600,4.039142578125,-0.958770751953125,-0.050811767578125,-0.2421875
1761478805838178600,4.049178466796875,-0.997283935546875,-0.051849365234375,-0.2691650390625
1761478805848214500,4.059214599609375,-1.0272979736328125,-0.0555877685546875,-0.291412353515625
1761478805858251500,4.06925146484375,-1.0377349853515625,-0.05743408203125,-0.2969818115234375
1761478805868287500,4.07928759765625,-1.0347442626953125,-0.0512847900390625,-0.2913818359375
1761478805878324700,4.08932470703125,-1.014678955078125,-0.036041259765625,-0.2759552001953125
1761478805888360700,4.099360595703125,-0.9916839599609375,-0.0194549560546875,-0.25274658203125
1761478805898396700,4.109396728515625,-0.9816741943359375,-0.006683349609375,-0.2216949462890625
1761478805908433700,4.11943359375,-0.98419189453125,-0.0024261474609375,-0.1842498779296875
1761478805918469600,4.1294697265625,-0.99432373046875,-0.004608154296875,-0.16064453125
1761478805928505600,4.139505615234375,-1.01263427734375,-0.0067138671875,-0.1620330810546875
1761478805938542600,4.14954248046875,-1.0370635986328125,0.0037994384765625,-0.1849365234375
1761478805948578600,4.15957861328125,-1.04888916015625,0.01953125,-0.20599365234375
1761478805958615800,4.16961572265625,-1.0461273193359375,0.024505615234375,-0.2152099609375
1761478805968651800,4.17965185546875,-1.0215301513671875,0.0227203369140625,-0.2233734130859375
1761478805978687700,4.189687744140625,-0.9864501953125,0.0205078125,-0.2346343994140625
1761478805988724700,4.199724853515625,-0.954864501953125,0.0145416259765625,-0.2447509765625
1761478805998760700,4.2097607421875,-0.923553466796875,0.00140380859375,-0.2450408935546875
1761478806008796700,4.219796630859375,-0.904327392578125,-0.0102386474609375,-0.2327423095703125
1761478806018833700,4.229833740234375,-0.90087890625,-0.0150909423828125,-0.2197418212890625
1761478806028869600,4.23986962890625,-0.9093475341796875,-0.0194549560546875,-0.2132720947265625
1761478806038906600,4.24990673828125,-0.92889404296875,-0.023590087890625,-0.2142181396484375
1761478806048942600,4.259942626953125,-0.9557037353515625,-0.0211181640625,-0.2209930419921875
1761478806058978800,4.269978759765625,-0.9796905517578125,-0.0187225341796875,-0.2243804931640625
1761478806069015800,4.280015869140625,-1.004302978515625,-0.0216064453125,-0.22979736328125
1761478806079051800,4.2900517578125,-1.02325439453125,-0.0229034423828125,-0.2389373779296875
1761478806089087700,4.300087646484375,-1.027862548828125,-0.022552490234375,-0.24151611328125
1761478806099124700,4.310124755859375,-1.0226898193359375,-0.0256195068359375,-0.2302093505859375
1761478806109160700,4.32016064453125,-1.0130157470703125,-0.02520751953125,-0.2090301513671875
1761478806119197700,4.33019775390625,-1.0019989013671875,-0.019134521484375,-0.191925048828125
1761478806129233700,4.340233642578125,-0.997222900390625,-0.014984130859375,-0.18048095703125
1761478806139269600,4.35026953125,-0.996551513671875,-0.0178680419921875,-0.1798248291015625
1761478806149307000,4.360306884765625,-0.991607666015625,-0.0215301513671875,-0.1829681396484375
1761478806159342800,4.3703427734375,-0.9805145263671875,-0.02667236328125,-0.1852264404296875
1761478806169378800,4.38037890625,-0.9751739501953125,-0.03155517578125,-0.192718505859375
1761478806179415800,4.390415771484375,-0.97747802734375,-0.0370635986328125,-0.2054290771484375
1761478806189451800,4.40045166015625,-0.9842681884765625,-0.0408935546875,-0.2188720703125
1761478806199488500,4.410488525390625,-0.993804931640625,-0.0421295166015625,-0.2281036376953125
1761478806209524700,4.420524658203125,-1.0016021728515625,-0.040740966796875,-0.230255126953125
1761478806219560700,4.430560791015625,-1.0052032470703125,-0.0359344482421875,-0.2299957275390625
1761478806229597700,4.44059765625,-1.0038299560546875,-0.038238525390625,-0.23248291015625
1761478806239634000,4.450634033203125,-0.996490478515625,-0.0465240478515625,-0.243194580078125
1761478806249670000,4.460669921875,-0.98577880859375,-0.0542755126953125,-0.2669219970703125
1761478806259706600,4.47070654296875,-0.9709930419921875,-0.0536346435546875,-0.2906494140625
1761478806269742800,4.480742919921875,-0.9560699462890625,-0.05230712890625,-0.304351806640625
1761478806279778800,4.49077880859375,-0.948211669921875,-0.0511627197265625,-0.3005523681640625
1761478806289815600,4.500815673828125,-0.9536590576171875,-0.0495147705078125,-0.2876739501953125
1761478806299851800,4.510851806640625,-0.9587554931640625,-0.0436859130859375,-0.2667694091796875
1761478806309888500,4.520888427734375,-0.9587554931640625,-0.0401458740234375,-0.2473602294921875
1761478806319924500,4.530924560546875,-0.95513916015625,-0.043731689453125,-0.233123779296875
1761478806329960700,4.540960693359375,-0.9486083984375,-0.046234130859375,-0.228271484375
1761478806339997700,4.550997802734375,-0.94708251953125,-0.0522003173828125,-0.230987548828125
1761478806350033700,4.56103369140625,-0.9539031982421875,-0.059234619140625,-0.2341766357421875
1761478806360070100,4.571070068359375,-0.971160888671875,-0.0702056884765625,-0.2408905029296875
1761478806370107100,4.581107177734375,-0.9891815185546875,-0.0831298828125,-0.25146484375
1761478806380143000,4.59114306640625,-1.00592041015625,-0.0899200439453125,-0.26190185546875
1761478806390180000,4.60118017578125,-1.0192413330078125,-0.09088134765625,-0.2681732177734375
1761478806400216000,4.611216064453125,-1.035614013671875,-0.0909271240234375,-0.2663726806640625
1761478806410252000,4.621251953125,-1.04736328125,-0.0867156982421875,-0.25872802734375
1761478806420289000,4.6312890625,-1.044219970703125,-0.0769500732421875,-0.24346923828125
1761478806430325000,4.641324951171875,-1.0357666015625,-0.074981689453125,-0.219970703125
1761478806440361000,4.65136083984375,-1.0225067138671875,-0.078460693359375,-0.19598388671875
1761478806450398200,4.661398193359375,-1.009307861328125,-0.08514404296875,-0.18499755859375
1761478806460434200,4.67143408203125,-0.9988861083984375,-0.0900115966796875,-0.1859283447265625
1761478806470471200,4.68147119140625,-0.9942626953125,-0.086669921875,-0.1952056884765625
1761478806480507100,4.691507080078125,-0.9929962158203125,-0.082550048828125,-0.2007904052734375
1761478806490543000,4.701543212890625,-0.9971160888671875,-0.07666015625,-0.1981201171875
1761478806500580000,4.711580078125,-1.0001373291015625,-0.075592041015625,-0.1931610107421875
1761478806510616000,4.721615966796875,-0.9969635009765625,-0.0810394287109375,-0.1879119873046875
1761478806520652000,4.731652099609375,-0.993011474609375,-0.0853729248046875,-0.1833953857421875
1761478806530689300,4.741689208984375,-0.9928436279296875,-0.0884857177734375,-0.177886962890625
1761478806540725200,4.751725341796875,-1.0008087158203125,-0.0904388427734375,-0.1751708984375
1761478806550761200,4.76176123046875,-1.010833740234375,-0.0887603759765625,-0.1714324951171875
1761478806560798200,4.771798095703125,-1.0204315185546875,-0.078643798828125,-0.176055908203125
1761478806570834200,4.781834228515625,-1.0263214111328125,-0.0679931640625,-0.1846160888671875
1761478806580871200,4.79187109375,-1.033477783203125,-0.0650634765625,-0.1981964111328125
1761478806590907100,4.8019072265625,-1.0341949462890625,-0.054534912109375,-0.2128753662109375
1761478806600943000,4.811943115234375,-1.0320281982421875,-0.0458831787109375,-0.21649169921875
1761478806610980000,4.82197998046875,-1.029144287109375,-0.0453948974609375,-0.212066650390625
1761478806621016000,4.83201611328125,-1.027191162109375,-0.048187255859375,-0.213165283203125
1761478806631052300,4.84205224609375,-1.027008056640625,-0.0563201904296875,-0.2203826904296875
1761478806641089300,4.85208935546875,-1.027313232421875,-0.071197509765625,-0.2396087646484375
1761478806651125200,4.862125244140625,-1.020599365234375,-0.0811004638671875,-0.266998291015625
1761478806661162200,4.872162353515625,-1.0038909912109375,-0.0887298583984375,-0.291412353515625
1761478806671198200,4.8821982421875,-0.983856201171875,-0.105072021484375,-0.3061065673828125
1761478806681234200,4.892234130859375,-0.9658660888671875,-0.11962890625,-0.313873291015625
1761478806691271200,4.902271240234375,-0.95501708984375,-0.1284332275390625,-0.3166351318359375
1761478806701307100,4.91230712890625,-0.9481201171875,-0.123016357421875,-0.3047332763671875
1761478806711343000,4.922343017578125,-0.9463043212890625,-0.111572265625,-0.280792236328125
1761478806721380400,4.93238037109375,-0.9590606689453125,-0.0953216552734375,-0.24676513671875
1761478806731416300,4.942416259765625,-0.9869384765625,-0.07952880859375,-0.2159271240234375
1761478806741453000,4.952453125,-1.0198516845703125,-0.0675506591796875,-0.179168701171875
1761478806751489300,4.9624892578125,-1.0550537109375,-0.0467987060546875,-0.1503143310546875
1761478806761525200,4.972525146484375,-1.0583953857421875,-0.047576904296875,-0.1720733642578125
1761478806771562000,4.98256201171875,-1.060821533203125,-0.0743408203125,-0.1416015625
1761478806781598200,4.99259814453125,-1.0953521728515625,-0.0548095703125,-0.1395721435546875
1761478806791634200,5.00263427734375,-1.112030029296875,-0.0342559814453125,-0.13446044921875
1761478806801671000,5.0126708984375,-1.10028076171875,-0.03662109375,-0.127532958984375
1761478806811707100,5.02270703125,-1.0884246826171875,-0.0400390625,-0.1371612548828125
1761478806821744000,5.032744140625,-1.071929931640625,-0.0386810302734375,-0.160980224609375
1761478806831780000,5.042780029296875,-1.0550384521484375,-0.0426788330078125,-0.193328857421875
1761478806841816000,5.052816162109375,-1.0475006103515625,-0.049560546875,-0.2283477783203125
1761478806851853000,5.06285302734375,-1.0295562744140625,-0.0525970458984375,-0.248321533203125
1761478806861889000,5.072888916015625,-1.0063934326171875,-0.0523834228515625,-0.25140380859375
1761478806871925000,5.082925048828125,-0.975433349609375,-0.0450897216796875,-0.2479095458984375
1761478806881962000,5.0929619140625,-0.9404296875,-0.0387115478515625,-0.2443389892578125
1761478806891998000,5.102998046875,-0.912445068359375,-0.03826904296875,-0.243682861328125
1761478806902034000,5.113033935546875,-0.8892822265625,-0.038726806640625,-0.2476043701171875
1761478806912071200,5.1230712890625,-0.8728179931640625,-0.0386810302734375,-0.2549896240234375
1761478806922107100,5.133107177734375,-0.87396240234375,-0.0361480712890625,-0.26287841796875
1761478806932144000,5.14314404296875,-0.8894805908203125,-0.0328216552734375,-0.27001953125
1761478806942180000,5.15318017578125,-0.91162109375,-0.030853271484375,-0.2686004638671875
1761478806952216000,5.163216064453125,-0.9399871826171875,-0.019622802734375,-0.271026611328125
1761478806962253000,5.173253173828125,-0.9813232421875,-0.0066375732421875,-0.2796783447265625
1761478806972289000,5.1832890625,-1.0148468017578125,0.0081787109375,-0.2898712158203125
1761478806982325000,5.193324951171875,-1.031036376953125,0.0180816650390625,-0.2945098876953125
1761478806992362000,5.203362060546875,-1.0298919677734375,0.0200653076171875,-0.289306640625
1761478807002398200,5.213398193359375,-1.0152740478515625,0.0140838623046875,-0.275421142578125
1761478807012435200,5.223435302734375,-0.9896087646484375,0.011474609375,-0.2587127685546875
1761478807022471200,5.23347119140625,-0.956756591796875,0.00836181640625,-0.246734619140625
1761478807032507100,5.243507080078125,-0.928741455078125,-0.0019378662109375,-0.240264892578125
1761478807042544000,5.253544189453125,-0.9108428955078125,-0.015777587890625,-0.2469024658203125
1761478807052580000,5.263580078125,-0.9047088623046875,-0.02392578125,-0.2625885009765625
1761478807062616000,5.273615966796875,-0.9228515625,-0.023284912109375,-0.2729644775390625
1761478807072653000,5.283653076171875,-0.95361328125,-0.01312255859375,-0.2725830078125
1761478807082689000,5.29368896484375,-0.9819793701171875,-0.003997802734375,-0.272247314453125
1761478807092726300,5.303726318359375,-1.0063934326171875,-0.00164794921875,-0.274688720703125
1761478807102762200,5.31376220703125,-1.0027008056640625,-0.00506591796875,-0.2772674560546875
1761478807112798200,5.323798095703125,-0.9832611083984375,-0.0128326416015625,-0.2719573974609375
1761478807122835200,5.333835205078125,-0.96221923828125,-0.0244598388671875,-0.2634429931640625
1761478807132871200,5.34387109375,-0.9453887939453125,-0.0330352783203125,-0.2630462646484375
1761478807142907100,5.3539072265625,-0.9470977783203125,-0.035125732421875,-0.2673187255859375
1761478807152944000,5.363944091796875,-0.958953857421875,-0.0364990234375,-0.2692413330078125
1761478807162980000,5.37397998046875,-0.965057373046875,-0.042388916015625,-0.2768096923828125
1761478807173016000,5.38401611328125,-0.9685821533203125,-0.054931640625,-0.3004913330078125
1761478807183053300,5.39405322265625,-0.9657440185546875,-0.0698394775390625,-0.333984375
1761478807193089300,5.40408935546875,-0.9646453857421875,-0.083648681640625,-0.3648223876953125
1761478807203126300,5.414126220703125,-0.9710540771484375,-0.0846710205078125,-0.375518798828125
1761478807213162200,5.424162353515625,-0.9907989501953125,-0.0822601318359375,-0.3563995361328125
1761478807223198200,5.4341982421875,-1.0085296630859375,-0.07464599609375,-0.32293701171875
1761478807233235200,5.444235107421875,-1.02099609375,-0.0632781982421875,-0.2873992919921875
1761478807243271200,5.454271240234375,-1.0289459228515625,-0.06146240234375,-0.2520904541015625
1761478807253307100,5.46430712890625,-1.0320281982421875,-0.06268310546875,-0.2261810302734375
1761478807263344000,5.47434423828125,-1.02459716796875,-0.0547637939453125,-0.2105255126953125
1761478807273380000,5.484380126953125,-1.0082244873046875,-0.0450897216796875,-0.203338623046875
1761478807283417300,5.494417236328125,-0.988372802734375,-0.03955078125,-0.2005767822265625
1761478807293453300,5.504453369140625,-0.9615936279296875,-0.0522003173828125,-0.20733642578125
1761478807303489300,5.5144892578125,-0.936614990234375,-0.0784454345703125,-0.2382354736328125
1761478807313526300,5.5245263671875,-0.915679931640625,-0.1016387939453125,-0.2808685302734375
1761478807323562200,5.534562255859375,-0.9059600830078125,-0.118560791015625,-0.3216400146484375
1761478807333598200,5.54459814453125,-0.904449462890625,-0.12884521484375,-0.343170166015625
1761478807343635200,5.55463525390625,-0.9092864990234375,-0.129669189453125,-0.3401947021484375
1761478807353670100,5.564670166015625,-0.92303466796875,-0.116851806640625,-0.3252716064453125
1761478807363706000,5.5747060546875,-0.943939208984375,-0.096435546875,-0.3001556396484375
1761478807373743000,5.5847431640625,-0.965484619140625,-0.080535888671875,-0.26580810546875
1761478807383779000,5.594779052734375,-0.975006103515625,-0.067352294921875,-0.238250732421875
1761478807393816300,5.60481640625,-0.9734954833984375,-0.0655517578125,-0.221282958984375
1761478807403852300,5.614852294921875,-0.959625244140625,-0.076141357421875,-0.21307373046875
1761478807413888300,5.62488818359375,-0.9431915283203125,-0.0880126953125,-0.217803955078125
1761478807423925200,5.63492529296875,-0.9237060546875,-0.093719482421875,-0.2337646484375
1761478807433961200,5.644961181640625,-0.907470703125,-0.0992279052734375,-0.250335693359375
1761478807443997200,5.6549970703125,-0.8926544189453125,-0.102142333984375,-0.25927734375
1761478807454034200,5.6650341796875,-0.88995361328125,-0.1044921875,-0.263092041015625
1761478807464070100,5.675070068359375,-0.90234375,-0.1052398681640625,-0.266876220703125
1761478807474106000,5.685106201171875,-0.9208984375,-0.103729248046875,-0.2779693603515625
1761478807484143400,5.695143310546875,-0.9436492919921875,-0.105010986328125,-0.291351318359375
1761478807494179300,5.705179443359375,-0.9584808349609375,-0.110443115234375,-0.3055572509765625
1761478807504216300,5.71521630859375,-0.9607696533203125,-0.1157073974609375,-0.309600830078125
1761478807514252300,5.725252197265625,-0.958648681640625,-0.1245880126953125,-0.3037872314453125
1761478807524288300,5.735288330078125,-0.953216552734375,-0.1324005126953125,-0.2937164306640625
1761478807534325200,5.7453251953125,-0.9514617919921875,-0.1339263916015625,-0.2836761474609375
1761478807544361200,5.755361328125,-0.9486236572265625,-0.1325531005859375,-0.276336669921875
1761478807554397200,5.765397216796875,-0.946746826171875,-0.138092041015625,-0.2698211669921875
1761478807564434200,5.77543408203125,-0.9505462646484375,-0.143402099609375,-0.27001953125
1761478807574470100,5.78547021484375,-0.9600830078125,-0.1405181884765625,-0.276031494140625
1761478807584506000,5.795506103515625,-0.9658355712890625,-0.139617919921875,-0.2789459228515625
1761478807594543000,5.805543212890625,-0.971710205078125,-0.14569091796875,-0.271881103515625
1761478807604579300,5.815579345703125,-0.9786376953125,-0.1520233154296875,-0.2593231201171875
1761478807614615300,5.825615234375,-0.9831695556640625,-0.157379150390625,-0.253997802734375
1761478807624652000,5.835652099609375,-0.9956207275390625,-0.156494140625,-0.25830078125
1761478807634688300,5.845688232421875,-1.0064239501953125,-0.1593017578125,-0.2592926025390625
1761478807644725000,5.85572509765625,-1.0173187255859375,-0.1683807373046875,-0.2507476806640625
1761478807654761000,5.865760986328125,-1.0207977294921875,-0.17694091796875,-0.2400054931640625
1761478807664797200,5.875797119140625,-1.0223541259765625,-0.1916961669921875,-0.2381439208984375
1761478807674834200,5.885834228515625,-1.0199127197265625,-0.2091827392578125,-0.2489166259765625
1761478807684870100,5.8958701171875,-1.00860595703125,-0.2278594970703125,-0.269775390625
1761478807694906000,5.905906005859375,-0.9923095703125,-0.244781494140625,-0.2929229736328125
1761478807704943000,5.915943115234375,-0.9776153564453125,-0.2516021728515625,-0.31402587890625
1761478807714979000,5.92597900390625,-0.9727935791015625,-0.2408447265625,-0.3131866455078125
1761478807725015000,5.93601513671875,-0.9758758544921875,-0.2298431396484375,-0.2903900146484375
1761478807735052000,5.946052001953125,-0.998199462890625,-0.2123260498046875,-0.2695465087890625
1761478807745088000,5.956087890625,-1.03399658203125,-0.1765289306640625,-0.255706787109375
1761478807755125000,5.966125,-1.06866455078125,-0.1380615234375,-0.2345123291015625
1761478807765161000,5.976160888671875,-1.0923919677734375,-0.093536376953125,-0.206939697265625
1761478807775197000,5.986197021484375,-1.09906005859375,-0.0471343994140625,-0.1839447021484375
1761478807785234200,5.996234130859375,-1.0839080810546875,-0.0147247314453125,-0.169464111328125
1761478807795270100,6.006270263671875,-1.064422607421875,-0.0061187744140625,-0.1752471923828125
1761478807805306000,6.01630615234375,-1.0514678955078125,-0.0060272216796875,-0.1904754638671875
1761478807815343000,6.026343017578125,-1.0623016357421875,0.013885498046875,-0.18505859375
1761478807825379000,6.036379150390625,-1.0638885498046875,0.0243072509765625,-0.1613006591796875
1761478807835415000,6.0464150390625,-1.036956787109375,0.0244598388671875,-0.1560516357421875
1761478807845452000,6.0564521484375,-1.00677490234375,0.02349853515625,-0.1733245849609375
1761478807855488000,6.066488037109375,-0.97381591796875,0.0019073486328125,-0.15765380859375
1761478807865524000,6.07652392578125,-0.95721435546875,-0.013214111328125,-0.1568603515625
1761478807875561200,6.086561279296875,-0.9575347900390625,-0.0273284912109375,-0.174774169921875
1761478807885597200,6.09659716796875,-0.9734954833984375,-0.0396575927734375,-0.2003936767578125
1761478807895634200,6.10663427734375,-0.998260498046875,-0.046295166015625,-0.2149200439453125
1761478807905670100,6.116670166015625,-1.0092620849609375,-0.0482940673828125,-0.2113037109375
1761478807915706000,6.1267060546875,-1.00225830078125,-0.03680419921875,-0.1866912841796875
1761478807925743000,6.1367431640625,-0.997344970703125,-0.027496337890625,-0.1627197265625
1761478807935779000,6.146779052734375,-1.0111083984375,-0.0099945068359375,-0.152008056640625
1761478807945815000,6.15681494140625,-1.03271484375,0.01861572265625,-0.1350860595703125
1761478807955852000,6.16685205078125,-1.0374908447265625,0.021331787109375,-0.11346435546875
1761478807965888000,6.176887939453125,-1.032684326171875,0.010650634765625,-0.108795166015625
1761478807975924200,6.18692431640625,-1.01287841796875,-0.0037384033203125,-0.1116180419921875
1761478807985961200,6.196961181640625,-0.9920196533203125,-0.02667236328125,-0.1147003173828125
1761478807995997200,6.2069970703125,-0.983001708984375,-0.0411224365234375,-0.1341552734375
1761478808006033200,6.217033203125,-0.97607421875,-0.0516357421875,-0.1644134521484375
1761478808016070100,6.227070068359375,-0.968841552734375,-0.06549072265625,-0.197021484375
1761478808026106000,6.237106201171875,-0.9616851806640625,-0.0752105712890625,-0.224700927734375
1761478808036142000,6.24714208984375,-0.9595184326171875,-0.070892333984375,-0.2340240478515625
1761478808046179000,6.257178955078125,-0.9575958251953125,-0.054107666015625,-0.2368927001953125
1761478808056215000,6.267215087890625,-0.9618377685546875,-0.0363616943359375,-0.2487640380859375
1761478808066252300,6.277252197265625,-0.9850006103515625,-0.026031494140625,-0.26031494140625
1761478808076288300,6.287288330078125,-1.003875732421875,-0.0196533203125,-0.26629638671875
1761478808086324200,6.29732421875,-1.002288818359375,-0.025360107421875,-0.2509613037109375
1761478808096361200,6.307361328125,-0.9919586181640625,-0.036224365234375,-0.226959228515625
1761478808106397200,6.317397216796875,-0.9676666259765625,-0.0428924560546875,-0.1992340087890625
1761478808116433200,6.32743310546875,-0.941192626953125,-0.050506591796875,-0.175506591796875
1761478808126470100,6.33747021484375,-0.9262847900390625,-0.060394287109375,-0.171142578125
1761478808136506000,6.347506103515625,-0.9407196044921875,-0.0552520751953125,-0.1807861328125
1761478808146542000,6.3575419921875,-0.966766357421875,-0.04669189453125,-0.1967926025390625
1761478808156579300,6.367579345703125,-0.99609375,-0.049346923828125,-0.207916259765625
1761478808166615300,6.377615234375,-1.0131988525390625,-0.054351806640625,-0.219085693359375
1761478808176651300,6.3876513671875,-1.01348876953125,-0.0596923828125,-0.22161865234375
1761478808186688300,6.397688232421875,-1.01025390625,-0.0601348876953125,-0.2131195068359375
1761478808196724200,6.40772412109375,-1.006988525390625,-0.059844970703125,-0.1907501220703125
1761478808206760200,6.41776025390625,-0.9969635009765625,-0.0653076171875,-0.16021728515625
1761478808216797200,6.427797119140625,-0.9789886474609375,-0.070587158203125,-0.1327362060546875
1761478808226833200,6.437833251953125,-0.9691925048828125,-0.07916259765625,-0.122314453125
1761478808236870100,6.4478701171875,-0.97711181640625,-0.0877227783203125,-0.1233978271484375
1761478808246906000,6.457906005859375,-0.9889373779296875,-0.0967254638671875,-0.1314697265625
1761478808256942000,6.467942138671875,-0.9831085205078125,-0.1060791015625,-0.149139404296875
1761478808266979300,6.477979248046875,-0.9629974365234375,-0.1163330078125,-0.1702880859375
1761478808277015300,6.488015380859375,-0.9446563720703125,-0.1298828125,-0.1799163818359375
1761478808287051300,6.49805126953125,-0.926361083984375,-0.1473846435546875,-0.175811767578125
1761478808297088300,6.508088134765625,-0.9171600341796875,-0.1642303466796875,-0.174102783203125
1761478808307124200,6.518124267578125,-0.9256439208984375,-0.1710205078125,-0.1742706298828125
1761478808317160200,6.52816015625,-0.9541473388671875,-0.1754608154296875,-0.181671142578125
1761478808327197200,6.538197265625,-0.9835205078125,-0.173370361328125,-0.1884307861328125
1761478808337233200,6.548233154296875,-1.0114898681640625,-0.1617584228515625,-0.194793701171875
1761478808347269000,6.55826904296875,-1.0363922119140625,-0.1579742431640625,-0.19818115234375
1761478808357306400,6.568306396484375,-1.0555572509765625,-0.15155029296875,-0.1993865966796875
1761478808367342300,6.57834228515625,-1.057586669921875,-0.1410675048828125,-0.20159912109375
1761478808377378300,6.58837841796875,-1.035186767578125,-0.1365966796875,-0.207489013671875
1761478808387415300,6.598415283203125,-0.987091064453125,-0.141876220703125,-0.2093353271484375
1761478808397451300,6.608451171875,-0.95098876953125,-0.145111083984375,-0.199127197265625
1761478808407487200,6.6184873046875,-0.9404144287109375,-0.1382293701171875,-0.1760406494140625
1761478808417524200,6.628524169921875,-0.94781494140625,-0.12933349609375,-0.140472412109375
1761478808427560400,6.638560546875,-0.9604339599609375,-0.1270599365234375,-0.1171112060546875
1761478808437596400,6.648596435546875,-0.981842041015625,-0.129486083984375,-0.1083221435546875
1761478808447633200,6.658633056640625,-1.0038909912109375,-0.125,-0.113739013671875
1761478808457669400,6.66866943359375,-1.021026611328125,-0.1245880126953125,-0.1262664794921875
1761478808467705300,6.678705322265625,-1.0229949951171875,-0.1357421875,-0.1438751220703125
1761478808477742000,6.6887421875,-1.0217437744140625,-0.1451873779296875,-0.1728973388671875
1761478808487778300,6.6987783203125,-1.0098724365234375,-0.1505889892578125,-0.2039794921875
1761478808497815300,6.708815185546875,-0.9893646240234375,-0.1610870361328125,-0.210174560546875
1761478808507851300,6.718851318359375,-0.9692535400390625,-0.1615142822265625,-0.2060394287109375
1761478808517887200,6.72888720703125,-0.9640960693359375,-0.149993896484375,-0.1977386474609375
1761478808527924200,6.73892431640625,-0.9727630615234375,-0.1353912353515625,-0.1782684326171875
1761478808537960200,6.748960205078125,-0.9956512451171875,-0.1260986328125,-0.16357421875
1761478808547996200,6.75899609375,-1.0131378173828125,-0.122314453125,-0.1641998291015625
1761478808558033200,6.769033203125,-1.0146942138671875,-0.1235504150390625,-0.1832733154296875
1761478808568069000,6.779069091796875,-0.99072265625,-0.12799072265625,-0.205352783203125
1761478808578105000,6.78910498046875,-0.95074462890625,-0.132843017578125,-0.2229766845703125
1761478808588142000,6.79914208984375,-0.9154510498046875,-0.133087158203125,-0.2271575927734375
1761478808598178000,6.809177978515625,-0.901611328125,-0.1335601806640625,-0.2115325927734375
1761478808608214300,6.81921435546875,-0.909515380859375,-0.127410888671875,-0.1944732666015625
1761478808618251300,6.829251220703125,-0.938751220703125,-0.123291015625,-0.1813812255859375
1761478808628287200,6.839287353515625,-0.978668212890625,-0.126312255859375,-0.178009033203125
1761478808638323200,6.8493232421875,-1.0033111572265625,-0.1315155029296875,-0.1896820068359375
1761478808648360200,6.859360107421875,-1.0136260986328125,-0.136932373046875,-0.21868896484375
1761478808658396200,6.869396240234375,-1.0195465087890625,-0.1461181640625,-0.2479400634765625
1761478808668432100,6.87943212890625,-1.0199432373046875,-0.15289306640625,-0.263336181640625
1761478808678469000,6.88946923828125,-1.020050048828125,-0.1478118896484375,-0.2627410888671875
1761478808688505000,6.899505126953125,-1.0189056396484375,-0.1391143798828125,-0.2540740966796875
1761478808698541000,6.909541015625,-1.0145416259765625,-0.1390838623046875,-0.2355804443359375
1761478808708578300,6.919578369140625,-1.00360107421875,-0.135894775390625,-0.2215576171875
1761478808718614300,6.9296142578125,-0.99615478515625,-0.137939453125,-0.21380615234375
1761478808728650200,6.939650146484375,-0.9962921142578125,-0.148101806640625,-0.20233154296875
1761478808738687200,6.949687255859375,-0.998687744140625,-0.1673736572265625,-0.196258544921875
1761478808748723200,6.95972314453125,-1.0038909912109375,-0.18182373046875,-0.210601806640625
1761478808758759200,6.96975927734375,-1.00384521484375,-0.1920166015625,-0.2382659912109375
1761478808768796200,6.979796142578125,-1.002593994140625,-0.2098236083984375,-0.25836181640625
1761478808778832100,6.98983203125,-0.989715576171875,-0.218353271484375,-0.2779541015625
1761478808788868000,6.9998681640625,-0.9714813232421875,-0.213958740234375,-0.2972869873046875
1761478808798905300,7.0099052734375,-0.9550628662109375,-0.202392578125,-0.2881622314453125
1761478808808941300,7.01994140625,-0.9290924072265625,-0.17529296875,-0.2484130859375
1761478808818978300,7.029978271484375,-0.9134368896484375,-0.15484619140625,-0.1902923583984375
1761478808829014300,7.04001416015625,-0.9199371337890625,-0.1478118896484375,-0.1531982421875
1761478808839050200,7.05005029296875,-0.947601318359375,-0.1337890625,-0.13525390625
1761478808849087200,7.060087158203125,-0.9878692626953125,-0.1159820556640625,-0.1158905029296875
1761478808859123200,7.070123291015625,-1.028228759765625,-0.0956878662109375,-0.0980072021484375
1761478808869159200,7.0801591796875,-1.0673828125,-0.069091796875,-0.0911865234375
1761478808879196200,7.090196044921875,-1.08184814453125,-0.0533294677734375,-0.0947418212890625
1761478808889232100,7.100232177734375,-1.0730743408203125,-0.047149658203125,-0.10980224609375
1761478808899268000,7.11026806640625,-1.0610198974609375,-0.05499267578125,-0.145904541015625
1761478808909305300,7.120305419921875,-1.0474090576171875,-0.072021484375,-0.1952667236328125
1761478808919341300,7.13034130859375,-1.0428009033203125,-0.08154296875,-0.241912841796875
1761478808929377300,7.140377197265625,-1.0399322509765625,-0.090606689453125,-0.27667236328125
1761478808939414300,7.150414306640625,-1.0274200439453125,-0.0975189208984375,-0.3045806884765625
1761478808949450200,7.1604501953125,-1.01214599609375,-0.0975799560546875,-0.3288116455078125
1761478808959486200,7.170486328125,-1.0170135498046875,-0.09326171875,-0.3461761474609375
1761478808969523200,7.180523193359375,-1.0319366455078125,-0.092071533203125,-0.357025146484375
1761478808979559200,7.19055908203125,-1.04443359375,-0.0933380126953125,-0.3511505126953125
1761478808989595100,7.20059521484375,-1.057830810546875,-0.084320068359375,-0.33209228515625
1761478808999632400,7.21063232421875,-1.062347412109375,-0.07342529296875,-0.307037353515625
1761478809009668400,7.22066845703125,-1.0384674072265625,-0.06256103515625,-0.2794647216796875
1761478809019704300,7.230704345703125,-1.0012664794921875,-0.060791015625,-0.2500762939453125
1761478809029741300,7.2407412109375,-0.9639434814453125,-0.0637054443359375,-0.23370361328125
1761478809039777300,7.25077734375,-0.9255523681640625,-0.0695953369140625,-0.22601318359375
1761478809049813200,7.260813232421875,-0.900634765625,-0.0762939453125,-0.2165679931640625
1761478809059850200,7.270850341796875,-0.8949432373046875,-0.0863494873046875,-0.2076263427734375
1761478809069886200,7.28088623046875,-0.9018707275390625,-0.08941650390625,-0.2054901123046875
1761478809079922200,7.290922119140625,-0.9176788330078125,-0.0832672119140625,-0.209686279296875
1761478809089959400,7.30095947265625,-0.9386444091796875,-0.078582763671875,-0.21673583984375
1761478809099995400,7.310995361328125,-0.96038818359375,-0.071868896484375,-0.2316741943359375
1761478809110031400,7.32103125,-0.99462890625,-0.068603515625,-0.2485809326171875
1761478809120068400,7.331068359375,-1.0141448974609375,-0.0648956298828125,-0.26116943359375
1761478809130104300,7.341104248046875,-1.0135650634765625,-0.059906005859375,-0.2613983154296875
1761478809140140300,7.351140380859375,-1.0085296630859375,-0.05078125,-0.251861572265625
1761478809150177300,7.36117724609375,-0.9953155517578125,-0.036773681640625,-0.23284912109375
1761478809160213200,7.371213134765625,-0.9825592041015625,-0.0198516845703125,-0.2146759033203125
1761478809170249200,7.381249267578125,-0.97222900390625,-0.0070343017578125,-0.199951171875
1761478809180286200,7.3912861328125,-0.9697265625,-0.004302978515625,-0.199432373046875
1761478809190322200,7.401322265625,-0.970703125,-0.004119873046875,-0.22003173828125
1761478809200358100,7.411358154296875,-0.9563446044921875,-0.005157470703125,-0.253265380859375
1761478809210395400,7.4213955078125,-0.9306793212890625,-0.0128326416015625,-0.290802001953125
1761478809220431400,7.431431396484375,-0.908447265625,-0.0261688232421875,-0.323638916015625
1761478809230467300,7.44146728515625,-0.8920135498046875,-0.0343475341796875,-0.3459930419921875
1761478809240504300,7.45150439453125,-0.895965576171875,-0.0352783203125,-0.35235595703125
1761478809250540300,7.461540283203125,-0.9241943359375,-0.0354461669921875,-0.3447265625
1761478809260576300,7.471576171875,-0.9564208984375,-0.03021240234375,-0.330535888671875
1761478809270613200,7.48161328125,-0.998504638671875,-0.0233917236328125,-0.3177032470703125
1761478809280649200,7.491649169921875,-1.044952392578125,-0.0185089111328125,-0.3158111572265625
1761478809290685200,7.501685302734375,-1.08013916015625,-0.0192108154296875,-0.31475830078125
1761478809300722400,7.511722412109375,-1.0817718505859375,-0.03045654296875,-0.3188323974609375
1761478809310758400,7.52175830078125,-1.051605224609375,-0.0487213134765625,-0.321990966796875
1761478809320794400,7.53179443359375,-1.0079803466796875,-0.059844970703125,-0.3191680908203125
1761478809330831400,7.541831298828125,-0.960968017578125,-0.0685272216796875,-0.307861328125
1761478809340867300,7.551867431640625,-0.9281158447265625,-0.0750885009765625,-0.29296875
1761478809350903300,7.5619033203125,-0.9168548583984375,-0.0780487060546875,-0.285888671875
1761478809360940000,7.57193994140625,-0.931640625,-0.082122802734375,-0.2891387939453125
1761478809370976000,7.58197607421875,-0.9608154296875,-0.0842437744140625,-0.298126220703125
1761478809381012000,7.592011962890625,-0.9945220947265625,-0.0762481689453125,-0.3027496337890625
1761478809391049000,7.602049072265625,-1.0292510986328125,-0.0663299560546875,-0.293853759765625
1761478809401085000,7.6120849609375,-1.043701171875,-0.0570220947265625,-0.273834228515625
1761478809411121000,7.622120849609375,-1.03411865234375,-0.053955078125,-0.2513275146484375
1761478809421158000,7.632157958984375,-1.006317138671875,-0.057647705078125,-0.2420196533203125
1761478809431193900,7.64219384765625,-0.97119140625,-0.0655364990234375,-0.2474517822265625
1761478809441229800,7.652229736328125,-0.944122314453125,-0.0744171142578125,-0.2516632080078125
1761478809451267000,7.66226708984375,-0.91741943359375,-0.08575439453125,-0.2602386474609375
1761478809461303000,7.672302978515625,-0.9063720703125,-0.0945892333984375,-0.2615966796875
1761478809471339000,7.682339111328125,-0.910125732421875,-0.1019134521484375,-0.2456512451171875
1761478809481376000,7.6923759765625,-0.9164276123046875,-0.1016693115234375,-0.2391815185546875
1761478809491412000,7.702411865234375,-0.9344024658203125,-0.0961761474609375,-0.247955322265625
1761478809501448000,7.712447998046875,-0.9512786865234375,-0.094696044921875,-0.2598876953125
1761478809511485000,7.72248486328125,-0.9580078125,-0.0937042236328125,-0.2807769775390625
1761478809521521000,7.73252099609375,-0.9529266357421875,-0.09954833984375,-0.2984619140625
1761478809531556900,7.742556884765625,-0.938262939453125,-0.1114501953125,-0.29510498046875
1761478809541593900,7.75259375,-0.9186859130859375,-0.1129608154296875,-0.2791900634765625
1761478809551629800,7.7626298828125,-0.91473388671875,-0.1083831787109375,-0.2580718994140625
1761478809561665800,7.772665771484375,-0.9222564697265625,-0.1123046875,-0.2370758056640625
1761478809571703000,7.782703125,-0.934967041015625,-0.102264404296875,-0.2292327880859375
1761478809581739000,7.792739013671875,-0.953643798828125,-0.10052490234375,-0.2278900146484375
1761478809591775000,7.80277490234375,-0.9687957763671875,-0.1053466796875,-0.223052978515625
1761478809601812000,7.81281201171875,-0.9690093994140625,-0.1075286865234375,-0.2217559814453125
1761478809611848000,7.822847900390625,-0.9628753662109375,-0.1025238037109375,-0.2229461669921875
1761478809621884000,7.8328837890625,-0.9528045654296875,-0.104705810546875,-0.223236083984375
1761478809631921000,7.8429208984375,-0.9326934814453125,-0.1117706298828125,-0.2206268310546875
1761478809641956900,7.852956787109375,-0.910430908203125,-0.1204833984375,-0.2178192138671875
1761478809651992800,7.862992919921875,-0.89910888671875,-0.13067626953125,-0.2202911376953125
1761478809662030000,7.873030029296875,-0.9063262939453125,-0.136077880859375,-0.2320709228515625
1761478809672066000,7.883066162109375,-0.9217681884765625,-0.14385986328125,-0.244598388671875
1761478809682102000,7.89310205078125,-0.947967529296875,-0.144775390625,-0.24884033203125
1761478809692139000,7.903138916015625,-0.9763946533203125,-0.128509521484375,-0.248016357421875
1761478809702175000,7.913175048828125,-1.0035552978515625,-0.108306884765625,-0.2451629638671875
1761478809712211000,7.9232109375,-1.03717041015625,-0.0936126708984375,-0.2405853271484375
1761478809722248000,7.933248046875,-1.0641326904296875,-0.090362548828125,-0.244964599609375
1761478809732284000,7.943283935546875,-1.0742645263671875,-0.088775634765625,-0.259918212890625
1761478809742319900,7.95331982421875,-1.067657470703125,-0.097320556640625,-0.2643585205078125
1761478809752355800,7.96335595703125,-1.0473175048828125,-0.1154022216796875,-0.268463134765625
1761478809762393000,7.97339306640625,-1.01092529296875,-0.13763427734375,-0.280975341796875
1761478809772429000,7.983428955078125,-0.975799560546875,-0.1597747802734375,-0.29730224609375
1761478809782465000,7.993465087890625,-0.949127197265625,-0.1788177490234375,-0.3113250732421875
1761478809792502000,8.003501953125,-0.9374237060546875,-0.19219970703125,-0.3219451904296875
1761478809802538000,8.0135380859375,-0.934234619140625,-0.2037506103515625,-0.3311920166015625
1761478809812574000,8.023573974609375,-0.9441375732421875,-0.20745849609375,-0.33355712890625
1761478809822611000,8.03361083984375,-0.947998046875,-0.2117767333984375,-0.31842041015625
1761478809832647000,8.04364697265625,-0.93743896484375,-0.2183990478515625,-0.2926177978515625
1761478809842683000,8.053682861328125,-0.929168701171875,-0.223236083984375,-0.2639923095703125
1761478809852719900,8.063719970703126,-0.9268035888671875,-0.22869873046875,-0.2397613525390625
1761478809862755800,8.073755859375,-0.939666748046875,-0.229644775390625,-0.2152557373046875
1761478809872792000,8.0837919921875,-0.957000732421875,-0.2304229736328125,-0.195159912109375
1761478809882829000,8.0938291015625,-0.9699859619140625,-0.233062744140625,-0.188720703125
1761478809892865000,8.103864990234374,-0.962158203125,-0.2281036376953125,-0.1889801025390625
1761478809902901000,8.11390087890625,-0.9416961669921875,-0.184539794921875,-0.171173095703125
1761478809912938000,8.12393798828125,-0.9358673095703125,-0.1252899169921875,-0.126861572265625
1761478809922974000,8.133973876953124,-0.9585113525390625,-0.101715087890625,-0.0737457275390625
1761478809933010000,8.144010009765625,-1.013946533203125,-0.0687103271484375,-0.0650787353515625
1761478809943047000,8.154046875,-1.089599609375,-0.0232086181640625,-0.089691162109375
1761478809953083000,8.164082763671875,-1.1810150146484375,-0.0005340576171875,-0.131683349609375
1761478809963118800,8.174118896484375,-1.2547760009765625,0.0140228271484375,-0.183990478515625
1761478809973156000,8.184156005859375,-1.3005218505859375,0.0323028564453125,-0.24237060546875
1761478809983192000,8.194192138671875,-1.278289794921875,0.0431365966796875,-0.2685546875
1761478809993228000,8.20422802734375,-1.192962646484375,0.047821044921875,-0.262054443359375
1761478810003265000,8.21426513671875,-1.11248779296875,0.0592498779296875,-0.263702392578125
1761478810013301000,8.224301025390625,-1.12384033203125,0.0694427490234375,-0.279083251953125
1761478810023337000,8.2343369140625,-1.10888671875,0.0462646484375,-0.2543792724609375
1761478810033374000,8.2443740234375,-1.0640411376953125,0.027923583984375,-0.2399444580078125
1761478810043410000,8.254409912109375,-1.0216064453125,0.013458251953125,-0.25042724609375
1761478810053446000,8.26444580078125,-0.9764404296875,-0.013427734375,-0.264251708984375
1761478810063483000,8.27448291015625,-0.9423980712890625,-0.037841796875,-0.2824859619140625
1761478810073519000,8.28451904296875,-0.9250030517578125,-0.0494384765625,-0.2982177734375
1761478810083555000,8.29455517578125,-0.9167022705078125,-0.054046630859375,-0.2932891845703125
1761478810093591000,8.304591064453126,-0.9160614013671875,-0.046234130859375,-0.2802886962890625
1761478810103628000,8.3146279296875,-0.9128570556640625,-0.0229644775390625,-0.2703094482421875
1761478810113664000,8.3246640625,-0.9128875732421875,-0.00286865234375,-0.2501220703125
1761478810123700000,8.334699951171874,-0.8860015869140625,0.0186004638671875,-0.1889801025390625
1761478810133737000,8.344737060546874,-0.845611572265625,0.0155181884765625,-0.116607666015625
1761478810143773000,8.35477294921875,-0.815032958984375,0.00128173828125,-0.0767059326171875
1761478810153809000,8.364808837890624,-0.8222808837890625,-0.0068359375,-0.0818939208984375
1761478810163846000,8.374845947265625,-0.8606414794921875,-0.010528564453125,-0.1087493896484375
1761478810173882000,8.384882080078125,-0.90350341796875,-0.0185394287109375,-0.1369171142578125
1761478810183918000,8.39491796875,-0.9375762939453125,-0.0168914794921875,-0.1551361083984375
1761478810193955000,8.404955078125,-0.958160400390625,-0.01031494140625,-0.1705780029296875
1761478810203991000,8.414990966796875,-0.99127197265625,-0.00640869140625,-0.1865081787109375
1761478810214027000,8.425027099609375,-1.0487823486328125,-0.0023345947265625,-0.2259368896484375
1761478810224064000,8.43506396484375,-1.1044464111328125,0.001190185546875,-0.233734130859375
1761478810234100000,8.445099853515625,-1.1245269775390625,0.01019287109375,-0.1966705322265625
1761478810244136000,8.455135986328125,-1.0503387451171875,0.030059814453125,-0.1421661376953125
1761478810254173000,8.4651728515625,-0.9208831787109375,0.038604736328125,-0.0961456298828125
1761478810264209000,8.475208984375,-0.8805084228515625,0.04052734375,-0.0810394287109375
1761478810274244900,8.485244873046875,-1.015411376953125,-0.0986480712890625,-0.0416717529296875
1761478810284281900,8.49528173828125,-1.055511474609375,-0.0597686767578125,-0.1102752685546875
1761478810294318000,8.505318115234376,-1.1031951904296875,0.023345947265625,-0.185821533203125
1761478810304354000,8.51535400390625,-1.1266937255859375,0.0218963623046875,-0.1971282958984375
1761478810314390800,8.525390869140624,-1.08477783203125,0.0485687255859375,-0.1916351318359375
