time,seconds_elapsed,z,y,x
1761478801873801200,0.08480126953125,0.03352466970682144,0.026247583329677582,-0.06229053810238838
1761478801883837200,0.094837158203125,0.007494934368878603,0.057615891098976135,-0.03242664784193039
1761478801893874400,0.10487451171875,-0.008182561956346035,0.05784226208925247,-0.013717942871153355
1761478801903910400,0.114910400390625,0.000055660068028373644,0.05579349026083946,0.010788465850055218
1761478801913947400,0.124947509765625,0.02756531536579132,0.04915503039956093,0.032694827765226364
1761478801923983400,0.1349833984375,0.060084640979766846,0.03187963739037514,0.041622012853622437
1761478801934020400,0.145020263671875,0.07748173922300339,0.0011883024126291275,0.05624382942914963
1761478801944056300,0.155056396484375,0.07772515714168549,-0.027052389457821846,0.07420312613248825
1761478801954092300,0.16509228515625,0.07752248644828796,-0.07599223405122757,0.09573984146118164
1761478801964129300,0.17512939453125,0.08479877561330795,-0.10181717574596405,0.11327728629112244
1761478801974165200,0.185165283203125,0.09303406625986099,-0.11617161333560944,0.1141156554222107
1761478801984202500,0.195202392578125,0.09795212745666504,-0.12036769092082977,0.10447581112384796
1761478801994238500,0.205238525390625,0.10711047053337097,-0.12275175005197525,0.08312338590621948
1761478802004274400,0.2152744140625,0.10978934913873672,-0.11334626376628876,0.060259878635406494
1761478802014311400,0.2253115234375,0.1081182137131691,-0.09960702061653137,0.04288701340556145
1761478802024347400,0.235347412109375,0.10179293900728226,-0.09027743339538574,0.02582467347383499
1761478802034384100,0.245384033203125,0.08781294524669647,-0.09139329940080643,0.024954352527856827
1761478802044420400,0.25542041015625,0.057318415492773056,-0.09588444977998734,0.028441227972507477
1761478802054456300,0.265456298828125,0.018605109304189682,-0.09354166686534882,0.04128299281001091
1761478802064493300,0.275493408203125,-0.01679016463458538,-0.06339921057224274,0.06667516380548477
1761478802074529500,0.285529541015625,-0.03714257478713989,-0.03118082322180271,0.08983801305294037
1761478802084566300,0.295566162109375,-0.04589159041643143,0.0006343649583868682,0.09862004965543747
1761478802094602200,0.305602294921875,-0.039624642580747604,0.020971594378352165,0.07140227407217026
1761478802104639200,0.31563916015625,-0.03160293400287628,0.04426812753081322,0.02424302138388157
1761478802114675200,0.32567529296875,-0.022659240290522575,0.050818171352148056,-0.038123149424791336
1761478802124711200,0.335711181640625,-0.011499796062707901,0.04229499399662018,-0.09816225618124008
1761478802134748200,0.345748046875,-0.0015715312911197543,0.02587900124490261,-0.14160799980163574
1761478802144784100,0.3557841796875,0.014604508876800537,-0.0033164345659315586,-0.1682894080877304
1761478802154821400,0.3658212890625,0.03893248364329338,-0.04141614958643913,-0.1629287302494049
1761478802164857300,0.375857421875,0.05786942318081856,-0.05510905757546425,-0.12506523728370667
1761478802174893300,0.385893310546875,0.08149299770593643,-0.06066973879933357,-0.05838022008538246
1761478802184930300,0.395930419921875,0.09628845006227493,-0.03851889818906784,0.015630625188350677
1761478802194966300,0.40596630859375,0.0913754552602768,-0.004977447912096977,0.06896868348121643
1761478802205003300,0.416003173828125,0.0779254212975502,0.01823333278298378,0.09544103592634201
1761478802215039200,0.426039306640625,0.05290795490145683,0.0323701910674572,0.10855976492166519
1761478802225075200,0.4360751953125,0.01750176213681698,0.028562668710947037,0.12052135169506073
1761478802235112200,0.4461123046875,-0.004157460760325193,0.003430684097111225,0.13259080052375793
1761478802245148400,0.4561484375,0.002013349672779441,-0.01841922104358673,0.13341717422008514
1761478802255185400,0.466185302734375,0.02672189101576805,-0.04059616103768349,0.11897938698530197
1761478802265221400,0.476221435546875,0.04741998016834259,-0.04093411564826965,0.09647221118211746
1761478802275257300,0.48625732421875,0.06428498029708862,-0.03099173866212368,0.06182102486491203
1761478802285294300,0.49629443359375,0.059479039162397385,-0.02480175346136093,0.02515755034983158
1761478802295330300,0.506330322265625,0.017308149486780167,0.008505337871611118,-0.009441439062356949
1761478802305367300,0.5163671875,-0.03943102806806564,0.047683898359537125,-0.03706294670701027
1761478802315403300,0.5264033203125,-0.0730515718460083,0.06948772817850113,-0.05543449521064758
1761478802325439200,0.536439208984375,-0.07787828892469406,0.05730350315570831,-0.06742378324270248
1761478802335476500,0.5464765625,-0.05056330934166908,0.012177570722997189,-0.05986599624156952
1761478802345512400,0.556512451171875,-0.004992095287889242,-0.02231968753039837,-0.03413906320929527
1761478802355549400,0.566549560546875,0.039513587951660156,-0.02209038846194744,-0.00011824435205198824
1761478802365585400,0.57658544921875,0.08413565158843994,-0.027155987918376923,0.021162543445825577
1761478802375622400,0.586622314453125,0.11595190316438675,-0.038960181176662445,0.02750885672867298
1761478802385658600,0.59665869140625,0.14039386808872223,-0.03991519287228584,0.01991698332130909
1761478802395694600,0.606694580078125,0.1549224704504013,-0.048829589039087296,0.008492554537951946
1761478802405731300,0.6167314453125,0.16025012731552124,-0.06751938909292221,0.003447728231549263
1761478802415767600,0.626767578125,0.1668720692396164,-0.07926952093839645,0.025107750669121742
1761478802425804300,0.63680419921875,0.17931117117404938,-0.09618805348873138,0.06664667278528214
1761478802435840300,0.64684033203125,0.1987495869398117,-0.1281941831111908,0.11062318086624146
1761478802445876500,0.65687646484375,0.2211422324180603,-0.13638314604759216,0.1838798224925995
1761478802455913200,0.666913330078125,0.2501392662525177,-0.14837323129177094,0.24563293159008026
1761478802465949200,0.67694921875,0.2828522026538849,-0.17224553227424622,0.28855136036872864
1761478802475986400,0.686986328125,0.3076731264591217,-0.18020784854888916,0.31254059076309204
1761478802486022400,0.6970224609375,0.3275429904460907,-0.18727321922779083,0.3072797954082489
1761478802496058400,0.707058349609375,0.3231314420700073,-0.213801771402359,0.277799129486084
1761478802506095400,0.717095458984375,0.29430246353149414,-0.24022458493709564,0.2155298888683319
1761478802516131300,0.72713134765625,0.2440004199743271,-0.24998266994953156,0.13311012089252472
1761478802526168300,0.737168212890625,0.19304083287715912,-0.2482103407382965,0.0380065031349659
1761478802536204300,0.747204345703125,0.13642868399620056,-0.2524149417877197,-0.04638347774744034
1761478802546241300,0.7572412109375,0.07202892005443573,-0.21145685017108917,-0.0944383516907692
1761478802556277200,0.76727734375,-0.008423578925430775,-0.10921783000230789,-0.0998070240020752
1761478802566313500,0.7773134765625,-0.09852710366249084,-0.0032674323301762342,-0.09843362867832184
1761478802576350500,0.7873505859375,-0.20299865305423737,0.08274521678686142,-0.09278266876935959
1761478802586386400,0.797386474609375,-0.29687774181365967,0.12419358640909195,-0.09274591505527496
1761478802596423400,0.80742333984375,-0.3654882311820984,0.13135242462158203,-0.11286263912916183
1761478802606459400,0.81745947265625,-0.3981143534183502,0.12123135477304459,-0.12341541051864624
1761478802616495400,0.827495361328125,-0.4053887724876404,0.08690080791711807,-0.09566421061754227
1761478802626532400,0.837532470703125,-0.4024566411972046,0.05826250836253166,-0.03208283334970474
1761478802636568300,0.847568359375,-0.3929675221443176,0.045210354030132294,0.02923804707825184
1761478802646605600,0.85760546875,-0.3592950403690338,0.05131698399782181,0.07399512827396393
1761478802656641500,0.8676416015625,-0.31041619181632996,0.06645519286394119,0.10456795245409012
1761478802666677500,0.877677490234375,-0.2604888379573822,0.05137424170970917,0.13310426473617554
1761478802676714500,0.887714599609375,-0.22017337381839752,0.030370688065886497,0.15996596217155457
1761478802686750500,0.89775048828125,-0.17593002319335938,0.011446000076830387,0.16732081770896912
1761478802696787500,0.907787353515625,-0.1320296674966812,-0.018315890803933144,0.15039590001106262
1761478802706823400,0.917823486328125,-0.09258852154016495,-0.03268790617585182,0.11909177154302597
1761478802716859400,0.927859375,-0.05804865434765816,-0.026687003672122955,0.08042266964912415
1761478802726896400,0.937896484375,-0.016515860334038734,-0.012839365750551224,0.03777800500392914
1761478802736932400,0.947932373046875,0.018742261454463005,0.00023382554354611784,0.0046823699958622456
1761478802746969300,0.95796923828125,0.04642901569604874,0.019335348159074783,-0.031013309955596924
1761478802757005600,0.968005615234375,0.05234123393893242,0.03009398654103279,-0.05868781358003616
1761478802767042300,0.978042236328125,0.037997182458639145,0.020229637622833252,-0.07605481892824173
1761478802777078300,0.988078369140625,0.013537379913032055,-0.023805197328329086,-0.09606048464775085
1761478802787114500,0.998114501953125,-0.019034678116440773,-0.08062613755464554,-0.11563844978809357
1761478802797151200,1.008151123046875,-0.053102899342775345,-0.1364225596189499,-0.11918125301599503
1761478802807187200,1.018187255859375,-0.08431514352560043,-0.18776510655879974,-0.08443765342235565
1761478802817224400,1.028224365234375,-0.11242827773094177,-0.19567468762397766,-0.019453326240181923
1761478802827260400,1.038260498046875,-0.12162017077207565,-0.17510923743247986,0.06488312780857086
1761478802837296400,1.04829638671875,-0.11605523526668549,-0.12198742479085922,0.16350743174552917
1761478802847333400,1.05833349609375,-0.09518829733133316,-0.08336253464221954,0.24307896196842194
1761478802857369300,1.068369384765625,-0.06538832932710648,-0.06463970988988876,0.29212960600852966
1761478802867406300,1.07840625,-0.03133262321352959,-0.07637040317058563,0.3032586872577667
1761478802877442300,1.0884423828125,-0.002779274946078658,-0.11390366405248642,0.2714317739009857
1761478802887479300,1.098479248046875,0.008154865354299545,-0.1476387232542038,0.2042335569858551
1761478802897515300,1.108515380859375,0.014788533560931683,-0.14609062671661377,0.11802996695041656
1761478802907551200,1.11855126953125,0.025261681526899338,-0.1412748396396637,0.04753236472606659
1761478802917588500,1.12858837890625,0.03514493629336357,-0.12102948874235153,0.0029345371294766665
1761478802927624400,1.13862451171875,0.04507320374250412,-0.09004680067300797,-0.01859419047832489
1761478802937661400,1.148661376953125,0.052195824682712555,-0.04598506912589073,-0.012956544756889343
1761478802947697400,1.158697509765625,0.06388284265995026,0.004584099166095257,0.012241486459970474
1761478802957733400,1.1687333984375,0.07133543491363525,0.03413666412234306,0.03255128487944603
1761478802967770400,1.178770263671875,0.05764651671051979,0.05223524197936058,0.04482952132821083
1761478802977806300,1.188806396484375,0.04577494412660599,0.05675222724676132,0.029044168069958687
1761478802987843300,1.19884326171875,0.02833576686680317,0.08030042797327042,0.00657534459605813
1761478802997879600,1.208879638671875,0.016275642439723015,0.1159585639834404,-0.0026114957872778177
1761478803007916500,1.21891650390625,0.011262774467468262,0.14359551668167114,-0.01040630228817463
1761478803017952500,1.228952392578125,0.016221048310399055,0.14428341388702393,-0.01486549898982048
1761478803027988500,1.238988525390625,0.01318158209323883,0.12247664481401443,-0.017898572608828545
1761478803038025500,1.249025390625,-0.007378553971648216,0.08761000633239746,-0.012710202485322952
1761478803048061400,1.2590615234375,-0.0460500493645668,0.0648527666926384,0.0017062872648239136
1761478803058098400,1.269098388671875,-0.08303230255842209,0.06846614181995392,0.03169561177492142
1761478803068134400,1.279134521484375,-0.10837121307849884,0.0822402760386467,0.06728556007146835
1761478803078170400,1.28917041015625,-0.10593761503696442,0.09064202010631561,0.10272025316953659
1761478803088207400,1.299207275390625,-0.08887208253145218,0.10105711221694946,0.13832831382751465
1761478803098243600,1.30924365234375,-0.07528170198202133,0.10469259321689606,0.15651105344295502
1761478803108280300,1.3192802734375,-0.07514588534832001,0.07721329480409622,0.1655719131231308
1761478803118316300,1.32931640625,-0.07241108268499374,0.03704909607768059,0.15520237386226654
1761478803128352500,1.3393525390625,-0.07714617997407913,0.014250041916966438,0.13982528448104858
1761478803138389200,1.34938916015625,-0.08131536096334457,0.009860886260867119,0.10741966962814331
1761478803148425200,1.35942529296875,-0.06485063582658768,0.030823692679405212,0.049794454127550125
1761478803158462200,1.369462158203125,-0.03910452499985695,0.09161487221717834,-0.03163675591349602
1761478803168498200,1.379498291015625,-0.019591543823480606,0.18352429568767548,-0.12036050111055374
1761478803178535400,1.389535400390625,0.00038775624125264585,0.290693074464798,-0.1928914189338684
1761478803188571400,1.3995712890625,0.024705080315470695,0.3807145953178406,-0.2228192239999771
1761478803198607400,1.409607421875,0.03632311895489693,0.43112850189208984,-0.18052077293395996
1761478803208644400,1.419644287109375,0.036494094878435135,0.41860684752464294,-0.11422298103570938
1761478803218680300,1.429680419921875,0.01920511946082115,0.36268526315689087,-0.020714066922664642
1761478803228717300,1.43971728515625,0.0005587312043644488,0.29707056283950806,0.05687873065471649
1761478803238753300,1.449753173828125,-0.019176358357071877,0.24000833928585052,0.12211445719003677
1761478803248789200,1.459789306640625,-0.04152454063296318,0.2091849148273468,0.1848345696926117
1761478803258826500,1.469826416015625,-0.0510951429605484,0.19072893261909485,0.23329530656337738
1761478803268862500,1.479862548828125,-0.04628946632146835,0.15514804422855377,0.2488979697227478
1761478803278899500,1.4898994140625,-0.03304050862789154,0.12113015353679657,0.24075855314731598
1761478803288935400,1.499935302734375,-0.023429691791534424,0.09161220490932465,0.22441765666007996
1761478803298971400,1.509971435546875,-0.029028721153736115,0.07605588436126709,0.20353980362415314
1761478803309008400,1.52000830078125,-0.03978203237056732,0.07603298127651215,0.18066725134849548
1761478803319044400,1.53004443359375,-0.037039242684841156,0.08437373489141464,0.14900359511375427
1761478803329081300,1.540081298828125,-0.02576555125415325,0.10911716520786285,0.11927393078804016
1761478803339117300,1.550117431640625,-0.002490055514499545,0.14490285515785217,0.0939968004822731
1761478803349154600,1.560154541015625,0.020049074664711952,0.17666824162006378,0.07581406831741333
1761478803359190500,1.5701904296875,0.03901264816522598,0.1883094608783722,0.052918609231710434
1761478803369226500,1.5802265625,0.054606787860393524,0.17140264809131622,0.026696326211094856
1761478803379263500,1.590263427734375,0.07318233698606491,0.13861674070358276,0.005572664551436901
1761478803389299500,1.600299560546875,0.09174030274152756,0.11329832673072815,-0.010043312795460224
1761478803399336400,1.61033642578125,0.10379217565059662,0.09624451398849487,0.003795803524553776
1761478803409372400,1.620372314453125,0.11630982905626297,0.1044803336262703,0.031797610223293304
1761478803419408400,1.630408447265625,0.14151372015476227,0.11493883281946182,0.060862552374601364
1761478803429445600,1.640445556640625,0.17601017653942108,0.11949923634529114,0.08175904303789139
1761478803439481600,1.650481689453125,0.20422157645225525,0.09879635274410248,0.08715035021305084
1761478803449518300,1.660518310546875,0.22007830440998077,0.07096099108457565,0.09024813771247864
1761478803459554600,1.670554443359375,0.2185208946466446,0.05708618834614754,0.09297654777765274
1761478803469591300,1.68059130859375,0.21514639258384705,0.05043254792690277,0.09340238571166992
1761478803479627300,1.690627197265625,0.20625516772270203,0.022185197100043297,0.08729575574398041
1761478803489663500,1.70066357421875,0.18959656357765198,-0.018397383391857147,0.08774077147245407
1761478803499700500,1.710700439453125,0.1893310397863388,-0.05820551514625549,0.09667780995368958
1761478803509736400,1.720736328125,0.18796484172344208,-0.08300354331731796,0.10895684361457825
1761478803519773400,1.7307734375,0.18918830156326294,-0.07001983374357224,0.1315646767616272
1761478803529809400,1.740809326171875,0.17318962514400482,-0.037810228765010834,0.13837705552577972
1761478803539845400,1.750845458984375,0.1539597362279892,0.012925120070576668,0.12298744171857834
1761478803549882400,1.76088232421875,0.14285169541835785,0.040047552436590195,0.09034986793994904
1761478803559918300,1.77091845703125,0.1446240246295929,0.03972983732819557,0.0589517317712307
1761478803569955300,1.780955322265625,0.16793201863765717,0.017584320157766342,0.0127008818089962
1761478803579991300,1.7909912109375,0.20714811980724335,-0.026248648762702942,-0.033246636390686035
1761478803590027300,1.80102734375,0.2584134340286255,-0.07807403057813644,-0.05998051166534424
1761478803600064500,1.811064453125,0.30970990657806396,-0.11624644696712494,-0.06077386811375618
1761478803610100500,1.8211005859375,0.34811535477638245,-0.12637285888195038,-0.02858530543744564
1761478803620137500,1.831137451171875,0.37999820709228516,-0.11516787111759186,0.020012058317661285
1761478803630173400,1.84117333984375,0.3987402021884918,-0.09831272065639496,0.04512140527367592
1761478803640210400,1.85121044921875,0.39513373374938965,-0.051780108362436295,0.062256183475255966
1761478803650246400,1.861246337890625,0.3827769458293915,-0.005555886775255203,0.06620192527770996
1761478803660282400,1.871282470703125,0.36329272389411926,0.012645487673580647,0.04464736208319664
1761478803670319400,1.8813193359375,0.3497966229915619,0.015221030451357365,0.01672758162021637
1761478803680355600,1.89135546875,0.341196745634079,0.0157062578946352,-0.006141249556094408
1761478803690392600,1.901392578125,0.3253221809864044,0.02467471919953823,-0.03445810824632645
1761478803700428500,1.911428466796875,0.303393691778183,0.03517982363700867,-0.07016310840845108
1761478803710464500,1.921464599609375,0.2731923758983612,0.04170430451631546,-0.1113816499710083
1761478803720501500,1.93150146484375,0.2329898476600647,0.041314415633678436,-0.1381126046180725
1761478803730537500,1.941537353515625,0.18353813886642456,0.02671896293759346,-0.16411331295967102
1761478803740574500,1.951574462890625,0.13026000559329987,0.0015126754296943545,-0.18828202784061432
1761478803750610400,1.9616103515625,0.07419433444738388,-0.013973339460790157,-0.19645260274410248
1761478803760647400,1.9716474609375,0.016154468059539795,-0.01889033429324627,-0.19127808511257172
1761478803770683600,1.98168359375,-0.042037732899188995,-0.0015981629258021712,-0.17221224308013916
1761478803780719600,1.9917197265625,-0.08995785564184189,0.008310128003358841,-0.14761076867580414
1761478803790756400,2.00175634765625,-0.11762676388025284,0.028181036934256554,-0.11722542345523834
1761478803800792600,2.01179248046875,-0.11450473964214325,0.04706471413373947,-0.10774031281471252
1761478803810829300,2.021829345703125,-0.10572589933872223,0.06053365021944046,-0.09716356545686722
1761478803820865300,2.031865234375,-0.07720211148262024,0.06413211673498154,-0.09656541794538498
1761478803830901500,2.041901611328125,-0.04766951873898506,0.06457925587892532,-0.08969846367835999
1761478803840938200,2.051938232421875,-0.015033544041216373,0.06555983424186707,-0.08592582494020462
1761478803850974200,2.06197412109375,0.013859889470040798,0.04992388188838959,-0.0967254787683487
1761478803861011500,2.072011474609375,0.03075152076780796,0.04896541312336922,-0.10635466873645782
1761478803871047400,2.08204736328125,0.039193473756313324,0.054555121809244156,-0.11982014030218124
1761478803881083400,2.09208349609375,0.04126035422086716,0.053037650883197784,-0.13768436014652252
1761478803891120400,2.102120361328125,0.0493643544614315,0.06531322747468948,-0.15822185575962067
1761478803901156400,2.11215625,0.060673732310533524,0.0788455456495285,-0.1756996512413025
1761478803911193300,2.122193359375,0.07903090119361877,0.07973930239677429,-0.19045916199684143
1761478803921229300,2.132229248046875,0.08996237814426422,0.08470902591943741,-0.20496566593647003
1761478803931265300,2.142265380859375,0.09824161231517792,0.08042533695697784,-0.21691526472568512
1761478803941302500,2.152302490234375,0.09304232895374298,0.060017529875040054,-0.2197406142950058
1761478803951338500,2.16233837890625,0.08509492129087448,0.04009389132261276,-0.20123137533664703
1761478803961375500,2.17237548828125,0.07313945889472961,0.008704009465873241,-0.16838981211185455
1761478803971411500,2.182411376953125,0.05620095506310463,-0.0016192019684240222,-0.11773701757192612
1761478803981447400,2.192447509765625,0.044552821666002274,0.0023667511995881796,-0.07060279697179794
1761478803991484400,2.202484375,0.03147963061928749,0.03178109973669052,-0.040348488837480545
1761478804001520400,2.212520263671875,0.028195951133966446,0.05553755909204483,-0.03347034379839897
1761478804011557400,2.222557373046875,0.030107835307717323,0.06690046936273575,-0.035589683800935745
1761478804021593300,2.23259326171875,0.031448204070329666,0.06145563721656799,-0.046772297471761703
1761478804031629300,2.24262939453125,0.030722757801413536,0.031553931534290314,-0.062192000448703766
1761478804041666600,2.25266650390625,0.02803296595811844,-0.015425561927258968,-0.07177751511335373
1761478804051702500,2.26270263671875,0.03015630505979061,-0.06732285022735596,-0.07777788490056992
1761478804061739500,2.272739501953125,0.04139990359544754,-0.11990376561880112,-0.08394975960254669
1761478804071775500,2.282775390625,0.05455964803695679,-0.12688151001930237,-0.06933193653821945
1761478804081812500,2.2928125,0.054655253887176514,-0.12414618581533432,-0.04256317391991615
1761478804091848400,2.302848388671875,0.04633234441280365,-0.10294821858406067,-0.015544338151812553
1761478804101884400,2.312884521484375,0.0121852932497859,-0.0729578286409378,0.004177168011665344
1761478804111921700,2.322921630859375,-0.02701377496123314,-0.02622920647263527,0.01870923861861229
1761478804121957600,2.33295751953125,-0.05901724845170975,0.012543754652142525,0.020605942234396935
1761478804131994400,2.342994384765625,-0.08662011474370956,0.02364727295935154,0.0031401331070810556
1761478804142030600,2.353030517578125,-0.102447010576725,0.007422229740768671,-0.03498381748795509
1761478804152066600,2.363066650390625,-0.1033138707280159,-0.030544061213731766,-0.06745946407318115
1761478804162103300,2.373103271484375,-0.10210452973842621,-0.07168297469615936,-0.0925256758928299
1761478804172139500,2.383139404296875,-0.10969826579093933,-0.09765385836362839,-0.10679648816585541
1761478804182176300,2.39317626953125,-0.13012205064296722,-0.10940319299697876,-0.12383698672056198
1761478804192212200,2.403212158203125,-0.15067127346992493,-0.11378835141658783,-0.13317961990833282
1761478804202248400,2.41324853515625,-0.1730484813451767,-0.09155149012804031,-0.1268298476934433
1761478804212285400,2.423285400390625,-0.20049235224723816,-0.08342325687408447,-0.10305740684270859
1761478804222321400,2.4333212890625,-0.23695528507232666,-0.08454364538192749,-0.07253971695899963
1761478804232358400,2.4433583984375,-0.2753157317638397,-0.09083935618400574,-0.05332447588443756
1761478804242394400,2.453394287109375,-0.3060177266597748,-0.09153630584478378,-0.0339297391474247
1761478804252430300,2.463430419921875,-0.3251434564590454,-0.07823328673839569,-0.016868462786078453
1761478804262467300,2.47346728515625,-0.33628958463668823,-0.07569236308336258,0.0007728493656031787
1761478804272503300,2.48350341796875,-0.3455994725227356,-0.07060093432664871,0.011714446358382702
1761478804282540300,2.493540283203125,-0.3503952920436859,-0.07517091929912567,0.01936757192015648
1761478804292576300,2.503576171875,-0.34976625442504883,-0.0781930685043335,0.01937902346253395
1761478804302612500,2.513612548828125,-0.3463425040245056,-0.08560597896575928,0.012123774737119675
1761478804312649500,2.5236494140625,-0.3406430780887604,-0.09319519251585007,0.0018021611031144857
1761478804322685400,2.533685546875,-0.3323896527290344,-0.09438562393188477,-0.019665846601128578
1761478804332722400,2.543722412109375,-0.3205082416534424,-0.09376643598079681,-0.0440412275493145
1761478804342758400,2.55375830078125,-0.2965352535247803,-0.08873280137777328,-0.07081824541091919
1761478804352795000,2.563794921875,-0.2807360589504242,-0.09477391093969345,-0.0906049981713295
1761478804362832000,2.573831787109375,-0.27042722702026367,-0.114120714366436,-0.07995501905679703
1761478804372867800,2.583867919921875,-0.25913381576538086,-0.13144271075725555,-0.05246160924434662
1761478804382905000,2.593905029296875,-0.24665185809135437,-0.14139707386493683,-0.016832510009407997
1761478804392941000,2.603941162109375,-0.2311117798089981,-0.13636396825313568,0.008141549304127693
1761478804402977000,2.61397705078125,-0.21997098624706268,-0.10564680397510529,0.00917219277471304
1761478804413014000,2.624013916015625,-0.20557552576065063,-0.057497382164001465,-0.01954547129571438
1761478804423050000,2.634050048828125,-0.18366409838199615,-0.028688369318842888,-0.06337524205446243
1761478804433087000,2.6440869140625,-0.15039776265621185,-0.06641470640897751,-0.10732538998126984
1761478804443123000,2.654123046875,-0.09621948003768921,-0.14180080592632294,-0.1295342892408371
1761478804453159000,2.664158935546875,-0.024086426943540573,-0.22203385829925537,-0.1152203306555748
1761478804463196000,2.67419580078125,0.04877978935837746,-0.270658403635025,-0.04243241250514984
1761478804473232000,2.68423193359375,0.10929213464260101,-0.298835426568985,0.08306186646223068
1761478804483268900,2.694268798828125,0.14480724930763245,-0.2924712896347046,0.22096939384937286
1761478804493305000,2.70430517578125,0.16391490399837494,-0.27520546317100525,0.3375852406024933
1761478804503341000,2.714341064453125,0.14906804263591766,-0.2719883620738983,0.4233693778514862
1761478804513377800,2.724377685546875,0.11176274716854095,-0.2825249135494232,0.4547044038772583
1761478804523414000,2.7344140625,0.061952315270900726,-0.31191369891166687,0.44936636090278625
1761478804533450800,2.74445068359375,0.007336742244660854,-0.35340893268585205,0.40776005387306213
1761478804543486700,2.75448681640625,-0.04291550815105438,-0.3950953781604767,0.360628217458725
1761478804553523000,2.76452294921875,-0.08577802032232285,-0.41204747557640076,0.3124639093875885
1761478804563560000,2.774559814453125,-0.12051443010568619,-0.38966867327690125,0.25878602266311646
1761478804573596000,2.784595947265625,-0.1524031162261963,-0.33330580592155457,0.23003239929676056
1761478804583633000,2.7946328125,-0.17671644687652588,-0.2512354254722595,0.18396930396556854
1761478804593668900,2.8046689453125,-0.20400986075401306,-0.1706676185131073,0.12452035397291183
1761478804603704800,2.814704833984375,-0.2255668193101883,-0.10072847455739975,0.04723755270242691
1761478804613741800,2.824741943359375,-0.2387356162071228,-0.03548448905348778,-0.04071706905961037
1761478804623777800,2.83477783203125,-0.2460281401872635,0.03756548464298248,-0.14079226553440094
1761478804633814800,2.844814697265625,-0.244588702917099,0.09628286212682724,-0.236686572432518
1761478804643850800,2.854850830078125,-0.22034674882888794,0.14067189395427704,-0.31279730796813965
1761478804653886700,2.86488671875,-0.19787685573101044,0.1586567610502243,-0.3686017394065857
1761478804663924000,2.874924072265625,-0.1783044934272766,0.13987934589385986,-0.4052577614784241
1761478804673960000,2.8849599609375,-0.159090057015419,0.11670717597007751,-0.40401992201805115
1761478804683997000,2.894996826171875,-0.15175464749336243,0.08144079893827438,-0.36921238899230957
1761478804694033000,2.905032958984375,-0.1564663052558899,0.05053028464317322,-0.2953869104385376
1761478804704068900,2.91506884765625,-0.1687924861907959,0.0007701861904934049,-0.18646149337291718
1761478804714105900,2.92510595703125,-0.18705376982688904,-0.0439850352704525,-0.05548429861664772
1761478804724141800,2.935141845703125,-0.21193541586399078,-0.06791193783283234,0.07432270050048828
1761478804734178800,2.9451787109375,-0.23946158587932587,-0.062248993664979935,0.18090160191059113
1761478804744214800,2.95521484375,-0.2492162138223648,-0.039923448115587234,0.24678315222263336
1761478804754251000,2.9652509765625,-0.23929540812969208,-0.017200026661157608,0.26859551668167114
1761478804764288000,2.9752880859375,-0.20781604945659637,0.011442271992564201,0.272756963968277
1761478804774324000,2.985323974609375,-0.16393114626407623,0.04206063598394394,0.26316559314727783
1761478804784360000,2.99535986328125,-0.12089073657989502,0.03676067665219307,0.2446366399526596
1761478804794397000,3.00539697265625,-0.08850616216659546,0.023017168045043945,0.21064458787441254
1761478804804433000,3.015432861328125,-0.07008108496665955,-0.015055116266012192,0.1650209128856659
1761478804814470000,3.025469970703125,-0.06143220141530037,-0.04534564167261124,0.12309503555297852
1761478804824505900,3.035505859375,-0.035300999879837036,-0.07412269711494446,0.09069767594337463
1761478804834541800,3.045541748046875,0.007409713231027126,-0.10025576502084732,0.07631474733352661
1761478804844579000,3.0555791015625,0.061583202332258224,-0.09887997806072235,0.07851771265268326
1761478804854615000,3.065614990234375,0.11859934777021408,-0.09297308325767517,0.09634144604206085
1761478804864652000,3.075652099609375,0.1684499979019165,-0.06830235570669174,0.09268226474523544
1761478804874688000,3.08568798828125,0.19372498989105225,-0.03573376312851906,0.047747280448675156
1761478804884724000,3.095723876953125,0.1887211799621582,-0.02316843532025814,-0.009678992442786694
1761478804894761000,3.105760986328125,0.16958823800086975,-0.05787501856684685,-0.05524381250143051
1761478804904797000,3.115796875,0.15408091247081757,-0.1369812935590744,-0.08252523839473724
1761478804914833700,3.125833740234375,0.146242156624794,-0.21826203167438507,-0.08193747699260712
1761478804924870000,3.135869873046875,0.12025344371795654,-0.26875025033950806,-0.048946503549814224
1761478804934906000,3.145906005859375,0.06951010227203369,-0.2598475515842438,0.0003587277897167951
1761478804944942800,3.15594287109375,0.0033726270776242018,-0.19007380306720734,0.031205855309963226
1761478804954978800,3.165978759765625,-0.07239936292171478,-0.07370831072330475,0.0254526287317276
1761478804965015800,3.176015869140625,-0.14270468056201935,0.04866420850157738,-0.018808575347065926
1761478804975051800,3.1860517578125,-0.18790945410728455,0.13976669311523438,-0.06894578039646149
1761478804985087700,3.196087646484375,-0.20981794595718384,0.17437712848186493,-0.114169180393219
1761478804995124700,3.206124755859375,-0.21295328438282013,0.14773432910442352,-0.14209215342998505
1761478805005160700,3.21616064453125,-0.1928863674402237,0.09276535362005234,-0.14657798409461975
1761478805015197000,3.226197021484375,-0.15804502367973328,0.036851491779088974,-0.13628913462162018
1761478805025234000,3.23623388671875,-0.125470831990242,0.006150037981569767,-0.08792852610349655
1761478805035270000,3.246269775390625,-0.08374816179275513,0.003625627374276519,-0.030052173882722855
1761478805045307000,3.256306884765625,-0.03497476130723953,0.016896691173315048,0.02201502025127411
1761478805055342800,3.2663427734375,0.014058028347790241,0.0492655485868454,0.07894541323184967
1761478805065378800,3.27637890625,0.06516595184803009,0.07883889228105545,0.08741240203380585
1761478805075415800,3.286415771484375,0.10330641269683838,0.08917807787656784,0.09559363126754761
1761478805085451800,3.29645166015625,0.12952683866024017,0.05985241383314133,0.04916781187057495
1761478805095488800,3.30648876953125,0.136473149061203,0.006713296286761761,-0.018075672909617424
1761478805105524700,3.316524658203125,0.1306845098733902,-0.05590055137872696,-0.08252204209566116
1761478805115561000,3.32656103515625,0.11802943795919418,-0.10883434116840363,-0.13950011134147644
1761478805125598000,3.336597900390625,0.10577409714460373,-0.12939180433750153,-0.15496428310871124
1761478805135634000,3.346634033203125,0.06814150512218475,-0.12545698881149292,-0.09438056498765945
1761478805145670000,3.356669921875,0.007793474476784468,-0.16007116436958313,-0.0013249226612970233
1761478805155707000,3.366706787109375,0.019347598776221275,-0.12668044865131378,0.03080265410244465
1761478805165742800,3.376742919921875,0.05078781396150589,-0.06449057906866074,0.030591731891036034
1761478805175779800,3.38677978515625,0.09572172909975052,-0.038478948175907135,0.012712333351373672
1761478805185815800,3.39681591796875,0.13987614214420319,-0.039074964821338654,-0.01902242749929428
1761478805195851800,3.406851806640625,0.15710893273353577,-0.06265592575073242,-0.04656936600804329
1761478805205889000,3.416888916015625,0.16963963210582733,-0.06573054194450378,-0.09440959244966507
1761478805215925000,3.426925048828125,0.17091181874275208,-0.05685476213693619,-0.13499777019023895
1761478805225962000,3.4369619140625,0.1647428721189499,-0.03798599913716316,-0.15879657864570618
1761478805235998000,3.446998046875,0.14946672320365906,-0.011654525063931942,-0.15917155146598816
1761478805246034000,3.457033935546875,0.13065814971923828,0.01044278685003519,-0.14831890165805817
1761478805256071000,3.46707080078125,0.13437725603580475,0.026378078386187553,-0.15935610234737396
1761478805266107000,3.47710693359375,0.13315725326538086,0.047211986035108566,-0.15773503482341766
1761478805276143900,3.487143798828125,0.1090141013264656,0.05349944531917572,-0.1535988748073578
1761478805286179800,3.497179931640625,0.06782005727291107,0.0201627928763628,-0.1595848649740219
1761478805296215800,3.5072158203125,0.02243979461491108,-0.031506527215242386,-0.165165513753891
1761478805306253000,3.517253173828125,-0.008674981072545052,-0.09342262148857117,-0.16359452903270721
1761478805316289000,3.5272890625,-0.019091403111815453,-0.14911997318267822,-0.14266660809516907
1761478805326325000,3.537324951171875,-0.01684209704399109,-0.17291346192359924,-0.0966639593243599
1761478805336362000,3.547362060546875,-0.007010238710790873,-0.1762666404247284,-0.03279070183634758
1761478805346398000,3.55739794921875,-0.0011803129455074668,-0.14535745978355408,0.04880934953689575
1761478805356434700,3.5674345703125,0.003555053612217307,-0.10352346301078796,0.11860174685716629
1761478805366470700,3.577470703125,0.00996475014835596,-0.06524372100830078,0.1574527472257614
1761478805376506600,3.587506591796875,0.014078800566494465,-0.045825012028217316,0.1560886651277542
1761478805386543900,3.5975439453125,0.02502705529332161,-0.021935924887657166,0.118697889149189
1761478805396579800,3.607579833984375,0.030766701325774193,-0.000818123109638691,0.06605251878499985
1761478805406615800,3.61761572265625,0.02257268689572811,0.016874054446816444,0.012648683041334152
1761478805416652800,3.62765283203125,-0.005828061606734991,0.033616550266742706,-0.022343387827277184
1761478805426688800,3.637688720703125,-0.04079616442322731,0.04944584518671036,-0.03370310366153717
1761478805436725500,3.6477255859375,-0.07445186376571655,0.05182564631104469,-0.008104532025754452
1761478805446761700,3.65776171875,-0.10033219307661057,0.032656215131282806,0.03923608735203743
1761478805456797700,3.667797607421875,-0.10732246190309525,-0.011461712419986725,0.09207799285650253
1761478805466834700,3.677834716796875,-0.1039985716342926,-0.055204398930072784,0.12973588705062866
1761478805476870700,3.68787060546875,-0.10339296609163284,-0.07520607113838196,0.15429076552391052
1761478805486907600,3.69790771484375,-0.10912968218326569,-0.07900933176279068,0.17547115683555603
1761478805496943600,3.707943603515625,-0.1120532974600792,-0.08418279141187668,0.19440729916095734
1761478805506979600,3.7179794921875,-0.10056069493293762,-0.06941395998001099,0.21108907461166382
1761478805517016600,3.7280166015625,-0.0736241564154625,-0.062244199216365814,0.20547273755073547
1761478805527052500,3.738052490234375,-0.026224147528409958,-0.030534738674759865,0.158793106675148
1761478805537088500,3.748088623046875,0.042751725763082504,0.07443109154701233,0.061581071466207504
1761478805547125500,3.75812548828125,0.14892396330833435,0.2245473563671112,-0.06272969394922256
1761478805557161500,3.768161376953125,0.2727351188659668,0.3330048620700836,-0.17114831507205963
1761478805567198700,3.77819873046875,0.3814759850502014,0.34638988971710205,-0.22544483840465546
1761478805577234700,3.788234619140625,0.4481343626976013,0.29377996921539307,-0.21826495230197906
1761478805587270700,3.798270751953125,0.48089179396629333,0.23472382128238678,-0.18096952140331268
1761478805597307600,3.8083076171875,0.4805751442909241,0.1746911108493805,-0.12244788557291031
1761478805607343600,3.818343505859375,0.4242681860923767,0.12055757641792297,-0.030818631872534752
1761478805617379600,3.828379638671875,0.34047290682792664,0.04899630323052406,0.10900664329528809
1761478805627416600,3.83841650390625,0.2657557725906372,-0.07609876245260239,0.2788505554199219
1761478805637452500,3.84845263671875,0.2691750228404999,-0.10914406180381775,0.3273296654224396
1761478805647489800,3.85848974609375,0.28391534090042114,-0.05628484487533569,0.24309466779232025
1761478805657525800,3.86852587890625,0.2657634913921356,0.013756824657320976,0.12394298613071442
1761478805667561700,3.878561767578125,0.25704964995384216,0.0018825886072590947,0.12873481214046478
1761478805677598700,3.8885986328125,0.25749412178993225,-0.042993005365133286,0.1652563363313675
1761478805687634700,3.898634765625,0.24217481911182404,-0.04952653869986534,0.19154679775238037
1761478805697670700,3.908670654296875,0.22051453590393066,-0.04403616860508919,0.19262351095676422
1761478805707707600,3.918707763671875,0.17758651077747345,-0.05257399380207062,0.17947015166282654
1761478805717743600,3.92874365234375,0.10727878659963608,-0.04835927486419678,0.17166070640087128
1761478805727780600,3.938780517578125,0.028869997709989548,-0.041618816554546356,0.15497466921806335
1761478805737816600,3.948816650390625,-0.050162237137556076,-0.03212358057498932,0.13225631415843964
1761478805747852500,3.9588525390625,-0.12059565633535385,0.006187854800373316,0.07733207195997238
1761478805757889800,3.968889892578125,-0.1581273227930069,0.07453708350658417,0.010690993629395962
1761478805767925800,3.97892578125,-0.17393317818641663,0.14878708124160767,-0.05162964016199112
1761478805777961700,3.988961669921875,-0.1795729547739029,0.2201147824525833,-0.11183172464370728
1761478805787998700,3.998998779296875,-0.16541506350040436,0.25024980306625366,-0.16115373373031616
1761478805798033700,4.00903369140625,-0.11913783848285675,0.21972543001174927,-0.2147091031074524
1761478805808069600,4.019069580078125,-0.07213012129068375,0.15104730427265167,-0.25871917605400085
1761478805818105600,4.029105712890625,-0.04405028373003006,0.08472500741481781,-0.28967228531837463
1761478805828142600,4.039142578125,-0.03256300464272499,0.04105236008763313,-0.28597742319107056
1761478805838178600,4.049178466796875,-0.0462159663438797,0.03971092775464058,-0.24396926164627075
1761478805848214500,4.059214599609375,-0.07712195068597794,0.06535237282514572,-0.17261864244937897
1761478805858251500,4.06925146484375,-0.11469621956348419,0.11170629411935806,-0.09526872634887695
1761478805868287500,4.07928759765625,-0.14007668197155,0.17567142844200134,-0.0436159186065197
1761478805878324700,4.08932470703125,-0.14053288102149963,0.2237958163022995,-0.022280272096395493
1761478805888360700,4.099360595703125,-0.12057541310787201,0.2430797666311264,-0.021974807605147362
1761478805898396700,4.109396728515625,-0.06070196256041527,0.21384944021701813,-0.027956534177064896
1761478805908433700,4.11943359375,0.024696292355656624,0.12510812282562256,-0.04001745581626892
1761478805918469600,4.1294697265625,0.10254368185997009,0.0034053840208798647,-0.047324638813734055
1761478805928505600,4.139505615234375,0.1437598317861557,-0.08702810853719711,-0.035834163427352905
1761478805938542600,4.14954248046875,0.159074604511261,-0.10456662625074387,0.010366087779402733
1761478805948578600,4.15957861328125,0.16586939990520477,-0.06409243494272232,0.07584816217422485
1761478805958615800,4.16961572265625,0.16449306905269623,-0.008840896189212799,0.13158652186393738
1761478805968651800,4.17965185546875,0.15636563301086426,0.05696501582860947,0.15881894528865814
1761478805978687700,4.189687744140625,0.13576342165470123,0.10884685814380646,0.16674689948558807
1761478805988724700,4.199724853515625,0.10974434018135071,0.13518817722797394,0.13999305665493011
1761478805998760700,4.2097607421875,0.09129209816455841,0.1258964091539383,0.07195914536714554
1761478806008796700,4.219796630859375,0.0884595587849617,0.1019575223326683,-0.0100800646468997
1761478806018833700,4.229833740234375,0.0996221974492073,0.07924262434244156,-0.08951017260551453
1761478806028869600,4.23986962890625,0.10336633771657944,0.07165075093507767,-0.15739788115024567
1761478806038906600,4.24990673828125,0.10840529948472977,0.07297460734844208,-0.20947200059890747
1761478806048942600,4.259942626953125,0.1075187399983406,0.08386587351560593,-0.23458774387836456
1761478806058978800,4.269978759765625,0.10228269547224045,0.09294858574867249,-0.23085585236549377
1761478806069015800,4.280015869140625,0.08549519628286362,0.09501839429140091,-0.20143884420394897
1761478806079051800,4.2900517578125,0.06107853353023529,0.10049997270107269,-0.1579323709011078
1761478806089087700,4.300087646484375,0.030304908752441406,0.10303237289190292,-0.12203935533761978
1761478806099124700,4.310124755859375,0.016041550785303116,0.09673187136650085,-0.10040277242660522
1761478806109160700,4.32016064453125,0.02315964736044407,0.09279438853263855,-0.08728883415460587
1761478806119197700,4.33019775390625,0.04144278168678284,0.0918194055557251,-0.07957099378108978
1761478806129233700,4.340233642578125,0.06881608068943024,0.08848432451486588,-0.058403387665748596
1761478806139269600,4.35026953125,0.09203086048364639,0.07432616502046585,-0.045950714498758316
1761478806149307000,4.360306884765625,0.10470617562532425,0.06432812660932541,-0.05035718157887459
1761478806159342800,4.3703427734375,0.1210489273071289,0.05444752797484398,-0.06418484449386597
1761478806169378800,4.38037890625,0.11961933970451355,0.054488275200128555,-0.08628641813993454
1761478806179415800,4.390415771484375,0.1094798892736435,0.06185005232691765,-0.10683803260326385
1761478806189451800,4.40045166015625,0.09453848749399185,0.06338217109441757,-0.11258327215909958
1761478806199488500,4.410488525390625,0.08066289126873016,0.0609070248901844,-0.10821568220853806
1761478806209524700,4.420524658203125,0.08106262981891632,0.057130396366119385,-0.09206787496805191
1761478806219560700,4.430560791015625,0.09464501589536667,0.05993390828371048,-0.06412439048290253
1761478806229597700,4.44059765625,0.10886310040950775,0.05933309718966484,-0.032832514494657516
1761478806239634000,4.450634033203125,0.10178335011005402,0.039443280547857285,-0.009302687831223011
1761478806249670000,4.460669921875,0.08097980171442032,0.010981811210513115,0.006304234731942415
1761478806259706600,4.47070654296875,0.03764963895082474,-0.007903196848928928,-0.000036751622246811166
1761478806269742800,4.480742919921875,-0.013655357994139194,-0.02233246900141239,-0.027652399614453316
1761478806279778800,4.49077880859375,-0.06492999941110611,-0.02629232406616211,-0.05632425844669342
1761478806289815600,4.500815673828125,-0.10200093686580658,0.0025031049735844135,-0.08040083199739456
1761478806299851800,4.510851806640625,-0.12250886857509613,0.03544268012046814,-0.09564822912216187
1761478806309888500,4.520888427734375,-0.13595996797084808,0.07627932727336884,-0.11537932604551315
1761478806319924500,4.530924560546875,-0.13472852110862732,0.11009401082992554,-0.13983780145645142
1761478806329960700,4.540960693359375,-0.13684546947479248,0.1260056048631668,-0.1706143468618393
1761478806339997700,4.550997802734375,-0.140004500746727,0.11785819381475449,-0.2052929699420929
1761478806350033700,4.56103369140625,-0.14354491233825684,0.08858872205018997,-0.22543391585350037
1761478806360070100,4.571070068359375,-0.15799549221992493,0.03737453743815422,-0.23353631794452667
1761478806370107100,4.581107177734375,-0.1758493185043335,-0.010544786229729652,-0.22667735815048218
1761478806380143000,4.59114306640625,-0.20659790933132172,-0.035708729177713394,-0.209396630525589
1761478806390180000,4.60118017578125,-0.23636779189109802,-0.03605493903160095,-0.18180760741233826
1761478806400216000,4.611216064453125,-0.26176688075065613,-0.03796256333589554,-0.14155499637126923
1761478806410252000,4.621251953125,-0.2758190631866455,-0.0248401015996933,-0.09239411354064941
1761478806420289000,4.6312890625,-0.28028491139411926,-0.019536683335900307,-0.04200524091720581
1761478806430325000,4.641324951171875,-0.26611077785491943,-0.030056169256567955,-0.0019712718203663826
1761478806440361000,4.65136083984375,-0.24049223959445953,-0.05997997894883156,0.026435069739818573
1761478806450398200,4.661398193359375,-0.21346673369407654,-0.09447883814573288,0.04048191383481026
1761478806460434200,4.67143408203125,-0.19916076958179474,-0.11417797207832336,0.04026592895388603
1761478806470471200,4.68147119140625,-0.19517987966537476,-0.12138741463422775,0.0356738418340683
1761478806480507100,4.691507080078125,-0.18982160091400146,-0.13034388422966003,0.029803169891238213
1761478806490543000,4.701543212890625,-0.18251362442970276,-0.1307617425918579,0.0354597233235836
1761478806500580000,4.711580078125,-0.17010754346847534,-0.12248224020004272,0.03880998119711876
1761478806510616000,4.721615966796875,-0.1543419063091278,-0.09895241260528564,0.029950175434350967
1761478806520652000,4.731652099609375,-0.13102219998836517,-0.07328220456838608,0.013276124373078346
1761478806530689300,4.741689208984375,-0.10223902016878128,-0.03532629832625389,-0.002186721656471491
1761478806540725200,4.751725341796875,-0.0658639669418335,-0.0026325348298996687,-0.01569933444261551
1761478806550761200,4.76176123046875,-0.024330906569957733,0.0075639099813997746,-0.0046669235453009605
1761478806560798200,4.771798095703125,0.00509782275184989,-0.019512981176376343,0.0287054143846035
1761478806570834200,4.781834228515625,0.02172260545194149,-0.08671731501817703,0.06250199675559998
1761478806580871200,4.79187109375,0.0217745378613472,-0.15897713601589203,0.10172662883996964
1761478806590907100,4.8019072265625,0.020801683887839317,-0.2101745456457138,0.13492345809936523
1761478806600943000,4.811943115234375,0.0227990560233593,-0.235902801156044,0.15422844886779785
1761478806610980000,4.82197998046875,0.017486847937107086,-0.2450992316007614,0.16852323710918427
1761478806621016000,4.83201611328125,0.01022653840482235,-0.24779382348060608,0.18445825576782227
1761478806631052300,4.84205224609375,-0.010942662134766579,-0.25707387924194336,0.1961093246936798
1761478806641089300,4.85208935546875,-0.058634016662836075,-0.23669962584972382,0.22474949061870575
1761478806651125200,4.862125244140625,-0.12356694787740707,-0.21323265135288239,0.23645514249801636
1761478806661162200,4.872162353515625,-0.20226681232452393,-0.17830555140972137,0.22349514067173004
1761478806671198200,4.8821982421875,-0.29075512290000916,-0.15035808086395264,0.18798987567424774
1761478806681234200,4.892234130859375,-0.3810328245162964,-0.12257891148328781,0.12355869263410568
1761478806691271200,4.902271240234375,-0.45817849040031433,-0.08811627328395844,0.042745064944028854
1761478806701307100,4.91230712890625,-0.5102331638336182,-0.020685570314526558,-0.05453488230705261
1761478806711343000,4.922343017578125,-0.5311078429222107,0.06018690764904022,-0.16183364391326904
1761478806721380400,4.93238037109375,-0.5298100709915161,0.14362667500972748,-0.25689518451690674
1761478806731416300,4.942416259765625,-0.5069345831871033,0.22570130228996277,-0.31750792264938354
1761478806741453000,4.952453125,-0.40279778838157654,0.27543210983276367,-0.32352587580680847
1761478806751489300,4.9624892578125,-0.43917548656463623,0.2766939103603363,-0.32042834162712097
1761478806761525200,4.972525146484375,-0.42878490686416626,0.2843169569969177,-0.35170531272888184
1761478806771562000,4.98256201171875,-0.374859094619751,0.2995326519012451,-0.3298569917678833
1761478806781598200,4.99259814453125,-0.30604088306427,0.2526402473449707,-0.2573220729827881
1761478806791634200,5.00263427734375,-0.21733151376247406,0.20236454904079437,-0.16704757511615753
1761478806801671000,5.0126708984375,-0.1316259354352951,0.15829803049564362,-0.07567265629768372
1761478806811707100,5.02270703125,-0.05705955624580383,0.10229814052581787,0.012027634307742119
1761478806821744000,5.032744140625,0.004743622615933418,0.05334897339344025,0.09727408736944199
1761478806831780000,5.042780029296875,0.04168912395834923,0.005013667047023773,0.18942159414291382
1761478806841816000,5.052816162109375,0.04477519541978836,-0.04087419435381889,0.27924707531929016
1761478806851853000,5.06285302734375,0.03977910429239273,-0.08932535350322723,0.3531993329524994
1761478806861889000,5.072888916015625,0.03068014793097973,-0.12968848645687103,0.39967042207717896
1761478806871925000,5.082925048828125,0.034697793424129486,-0.13836133480072021,0.41555726528167725
1761478806881962000,5.0929619140625,0.04867912083864212,-0.11817298084497452,0.39918601512908936
1761478806891998000,5.102998046875,0.06338536739349365,-0.09429347515106201,0.3514179587364197
1761478806902034000,5.113033935546875,0.06773004680871964,-0.07014260441064835,0.2679760456085205
1761478806912071200,5.1230712890625,0.06693029403686523,-0.04421326890587807,0.16840338706970215
1761478806922107100,5.133107177734375,0.06162847578525543,-0.021817414090037346,0.08229407668113708
1761478806932144000,5.14314404296875,0.05308638885617256,-0.032757945358753204,0.003975300583988428
1761478806942180000,5.15318017578125,0.042452119290828705,-0.062315307557582855,-0.05350770056247711
1761478806952216000,5.163216064453125,0.02749420888721943,-0.10086482763290405,-0.06823418289422989
1761478806962253000,5.173253173828125,0.004923119675368071,-0.12352699786424637,-0.04021772742271423
1761478806972289000,5.1832890625,-0.025669144466519356,-0.11444614827632904,0.026819363236427307
1761478806982325000,5.193324951171875,-0.055981509387493134,-0.05851204693317413,0.10238442569971085
1761478806992362000,5.203362060546875,-0.0860762968659401,0.006278402172029018,0.16257666051387787
1761478807002398200,5.213398193359375,-0.10641458630561829,0.058516837656497955,0.20515474677085876
1761478807012435200,5.223435302734375,-0.10782473534345627,0.08691465854644775,0.21765802800655365
1761478807022471200,5.23347119140625,-0.09254644811153412,0.0778772234916687,0.19986625015735626
1761478807032507100,5.243507080078125,-0.06659340858459473,0.02985323593020439,0.162209153175354
1761478807042544000,5.253544189453125,-0.04040122032165527,-0.02708275057375431,0.10461722314357758
1761478807052580000,5.263580078125,-0.020482905209064484,-0.0779951959848404,0.044200751930475235
1761478807062616000,5.273615966796875,0.006897320970892906,-0.10235513001680374,-0.0004572647449094802
1761478807072653000,5.283653076171875,0.040105342864990234,-0.07388780266046524,-0.010160225443542004
1761478807082689000,5.29368896484375,0.07091278582811356,-0.022344719618558884,0.02431545965373516
1761478807092726300,5.303726318359375,0.09303487092256546,0.02677648700773716,0.07035139203071594
1761478807102762200,5.31376220703125,0.10643163323402405,0.06794602423906326,0.10180173069238663
1761478807112798200,5.323798095703125,0.12003612518310547,0.08530744165182114,0.10561830550432205
1761478807122835200,5.333835205078125,0.13669686019420624,0.07671741396188736,0.08515670895576477
1761478807132871200,5.34387109375,0.1508350521326065,0.043772514909505844,0.05036117509007454
1761478807142907100,5.3539072265625,0.1655239760875702,-0.004305799026042223,0.03417474776506424
1761478807152944000,5.363944091796875,0.1969793736934662,-0.062302522361278534,0.029643379151821136
1761478807162980000,5.37397998046875,0.22099949419498444,-0.07454347610473633,0.010119745507836342
1761478807173016000,5.38401611328125,0.21042434871196747,-0.03942304104566574,-0.018459966406226158
1761478807183053300,5.39405322265625,0.16762389242649078,0.04205211251974106,-0.06408178061246872
1761478807193089300,5.40408935546875,0.09995109587907791,0.1374492049217224,-0.11446639150381088
1761478807203126300,5.414126220703125,0.037698108702898026,0.18631421029567719,-0.15084198117256165
1761478807213162200,5.424162353515625,-0.0046386937610805035,0.19447414577007294,-0.16491305828094482
1761478807223198200,5.4341982421875,-0.013144031167030334,0.18859894573688507,-0.13855893909931183
1761478807233235200,5.444235107421875,-0.012437228113412857,0.1500595360994339,-0.0983249694108963
1761478807243271200,5.454271240234375,0.006718888878822327,0.07588358223438263,-0.04223507270216942
1761478807253307100,5.46430712890625,0.031563252210617065,0.008519984781742096,0.0213585514575243
1761478807263344000,5.47434423828125,0.06873059272766113,-0.03148149326443672,0.07860719412565231
1761478807273380000,5.484380126953125,0.11230097711086273,-0.0272689051926136,0.12538056075572968
1761478807283417300,5.494417236328125,0.16423633694648743,0.0012934972764924169,0.15461567044258118
1761478807293453300,5.504453369140625,0.20791298151016235,0.024264592677354813,0.15098817646503448
1761478807303489300,5.5144892578125,0.20788262784481049,0.038590800017118454,0.11776338517665863
1761478807313526300,5.5245263671875,0.17942674458026886,0.04592008888721466,0.0704781636595726
1761478807323562200,5.534562255859375,0.12315229326486588,0.03452761843800545,0.01671879179775715
1761478807333598200,5.54459814453125,0.06658914685249329,0.0004897553008049726,-0.038425952196121216
1761478807343635200,5.55463525390625,0.024999093264341354,-0.026574619114398956,-0.07887271046638489
1761478807353670100,5.564670166015625,0.011327489279210567,-0.050030943006277084,-0.08758258074522018
1761478807363706000,5.5747060546875,0.024928519502282143,-0.0640420988202095,-0.06255658715963364
1761478807373743000,5.5847431640625,0.06756839156150818,-0.06575904041528702,-0.015529424883425236
1761478807383779000,5.594779052734375,0.12358372658491135,-0.059595152735710144,0.030486004427075386
1761478807393816300,5.60481640625,0.18086618185043335,-0.05086531117558479,0.06967441737651825
1761478807403852300,5.614852294921875,0.2231702357530594,-0.049304697662591934,0.08618628233671188
1761478807413888300,5.62488818359375,0.25097283720970154,-0.04691557586193085,0.08856022357940674
1761478807423925200,5.63492529296875,0.26148247718811035,-0.045030057430267334,0.07562898099422455
1761478807433961200,5.644961181640625,0.260917067527771,-0.05859300494194031,0.050633616745471954
1761478807443997200,5.6549970703125,0.2535797953605652,-0.08009164035320282,0.006894657853990793
1761478807454034200,5.6650341796875,0.25036802887916565,-0.101840078830719,-0.027574636042118073
1761478807464070100,5.675070068359375,0.2517305016517639,-0.09982086718082428,-0.051470912992954254
1761478807474106000,5.685106201171875,0.2406216561794281,-0.09813348948955536,-0.04947993531823158
1761478807484143400,5.695143310546875,0.2156667709350586,-0.10174953192472458,-0.028833512216806412
1761478807494179300,5.705179443359375,0.19182562828063965,-0.09363275021314621,-0.009891246445477009
1761478807504216300,5.71521630859375,0.16755570471286774,-0.08305680006742477,0.006921821739524603
1761478807514252300,5.725252197265625,0.1484414041042328,-0.07424120604991913,0.019185679033398628
1761478807524288300,5.735288330078125,0.13932859897613525,-0.06899691373109818,0.020179836079478264
1761478807534325200,5.7453251953125,0.1489013284444809,-0.04962960258126259,0.027279824018478394
1761478807544361200,5.755361328125,0.15394748747348785,-0.03147057443857193,0.03125246241688728
1761478807554397200,5.765397216796875,0.15536881983280182,-0.023696541786193848,0.031734492629766464
1761478807564434200,5.77543408203125,0.14664936065673828,-0.011913650669157505,0.034874893724918365
1761478807574470100,5.78547021484375,0.12629562616348267,0.00941933412104845,0.04261590167880058
1761478807584506000,5.795506103515625,0.09151154011487961,0.02924736775457859,0.03717426583170891
1761478807594543000,5.805543212890625,0.060255084186792374,0.038006771355867386,0.028773324564099312
1761478807604579300,5.815579345703125,0.04020041599869728,0.039865922182798386,0.01967783086001873
1761478807614615300,5.825615234375,0.018201906234025955,0.04986795783042908,0.011744007468223572
1761478807624652000,5.835652099609375,-0.016168849542737007,0.0776447281241417,0.016450878232717514
1761478807634688300,5.845688232421875,-0.056723468005657196,0.10198495537042618,0.02028796076774597
1761478807644725000,5.85572509765625,-0.0891495794057846,0.12552116811275482,0.03437342122197151
1761478807654761000,5.865760986328125,-0.11576814204454422,0.15905728936195374,0.05530746281147003
1761478807664797200,5.875797119140625,-0.15278182923793793,0.1798246204853058,0.08002346009016037
1761478807674834200,5.885834228515625,-0.2064216136932373,0.18560181558132172,0.09744293242692947
1761478807684870100,5.8958701171875,-0.27037155628204346,0.1976180076599121,0.10032527148723602
1761478807694906000,5.905906005859375,-0.31949731707572937,0.24069330096244812,0.07441937178373337
1761478807704943000,5.915943115234375,-0.3421837091445923,0.3120846748352051,0.02117772400379181
1761478807714979000,5.92597900390625,-0.30398038029670715,0.4146363437175751,-0.051061585545539856
1761478807725015000,5.93601513671875,-0.22581422328948975,0.5129829049110413,-0.10716400295495987
1761478807735052000,5.946052001953125,-0.1483130306005478,0.5444238781929016,-0.1342611312866211
1761478807745088000,5.956087890625,-0.09002416580915451,0.5169454216957092,-0.12151045352220535
1761478807755125000,5.966125,-0.011127485893666744,0.46147599816322327,-0.059663329273462296
1761478807765161000,5.976160888671875,0.07459168136119843,0.39455583691596985,0.02978266216814518
1761478807775197000,5.986197021484375,0.16655835509300232,0.3425600230693817,0.10312052816152573
1761478807785234200,5.996234130859375,0.21741221845149994,0.31680911779403687,0.15476614236831665
1761478807795270100,6.006270263671875,0.21617038547992706,0.28407007455825806,0.15528838336467743
1761478807805306000,6.01630615234375,0.20289771258831024,0.2687736749649048,0.20505008101463318
1761478807815343000,6.026343017578125,0.21419058740139008,0.2293815314769745,0.2614097595214844
1761478807825379000,6.036379150390625,0.2542083263397217,0.20610177516937256,0.299431711435318
1761478807835415000,6.0464150390625,0.23318558931350708,0.18907804787158966,0.3029726445674896
1761478807845452000,6.0564521484375,0.23523461818695068,0.20006464421749115,0.26754382252693176
1761478807855488000,6.066488037109375,0.27593278884887695,0.200485959649086,0.2000260353088379
1761478807865524000,6.07652392578125,0.298717737197876,0.18185022473335266,0.11260057985782623
1761478807875561200,6.086561279296875,0.30442968010902405,0.18046005070209503,0.05534661188721657
1761478807885597200,6.09659716796875,0.28904619812965393,0.1832345426082611,0.03628823161125183
1761478807895634200,6.10663427734375,0.2612244188785553,0.16960208117961884,0.04125875607132912
1761478807905670100,6.116670166015625,0.24514104425907135,0.1494443416595459,0.05397748202085495
1761478807915706000,6.1267060546875,0.2555798292160034,0.12830044329166412,0.048592571169137955
1761478807925743000,6.1367431640625,0.2761378586292267,0.0975654348731041,0.04504949972033501
1761478807935779000,6.146779052734375,0.30506375432014465,0.08033398538827896,0.08354682475328445
1761478807945815000,6.15681494140625,0.36923396587371826,0.09171074628829956,0.15580211579799652
1761478807955852000,6.16685205078125,0.4266005754470825,0.10591045022010803,0.23209156095981598
1761478807965888000,6.176887939453125,0.4653541147708893,0.08849684149026871,0.2992258667945862
1761478807975924200,6.18692431640625,0.5058791637420654,0.05048048496246338,0.3300735056400299
1761478807985961200,6.196961181640625,0.5398887991905212,-0.011242002248764038,0.34286388754844666
1761478807995997200,6.2069970703125,0.557251513004303,-0.07235116511583328,0.34055599570274353
1761478808006033200,6.217033203125,0.5568550229072571,-0.11088923364877701,0.32795602083206177
1761478808016070100,6.227070068359375,0.5267354249954224,-0.12123028934001923,0.3081916570663452
1761478808026106000,6.237106201171875,0.47989362478256226,-0.1238713413476944,0.2751524746417999
1761478808036142000,6.24714208984375,0.44025087356567383,-0.12382473796606064,0.2334979772567749
1761478808046179000,6.257178955078125,0.40086033940315247,-0.11378302425146103,0.190714031457901
1761478808056215000,6.267215087890625,0.34450358152389526,-0.09350385516881943,0.16391409933567047
1761478808066252300,6.277252197265625,0.275331974029541,-0.0482543483376503,0.17801527678966522
1761478808076288300,6.287288330078125,0.2148055136203766,0.05572744458913803,0.22253000736236572
1761478808086324200,6.29732421875,0.17126309871673584,0.14557982981204987,0.26315492391586304
1761478808096361200,6.307361328125,0.152518168091774,0.20084495842456818,0.2753538191318512
1761478808106397200,6.317397216796875,0.159333735704422,0.21985965967178345,0.261029988527298
1761478808116433200,6.32743310546875,0.17503492534160614,0.19531144201755524,0.20738008618354797
1761478808126470100,6.33747021484375,0.18677973747253418,0.13330718874931335,0.12949007749557495
1761478808136506000,6.347506103515625,0.19001121819019318,0.055696818977594376,0.07245316356420517
1761478808146542000,6.3575419921875,0.18834461271762848,-0.004258661065250635,0.05097343400120735
1761478808156579300,6.367579345703125,0.16962125897407532,-0.032882317900657654,0.05782361701130867
1761478808166615300,6.377615234375,0.12842082977294922,-0.02280225232243538,0.06925257295370102
1761478808176651300,6.3876513671875,0.07402416318655014,0.00689119566231966,0.07573896646499634
1761478808186688300,6.397688232421875,0.02154017984867096,0.038720495998859406,0.08742545545101166
1761478808196724200,6.40772412109375,-0.004833104554563761,0.04373203590512276,0.10666945576667786
1761478808206760200,6.41776025390625,-0.001910285442136228,0.024060063064098358,0.10990386456251144
1761478808216797200,6.427797119140625,0.010729609988629818,-0.004486627411097288,0.08376600593328476
1761478808226833200,6.437833251953125,0.032587770372629166,-0.029403429478406906,0.06483013182878494
1761478808236870100,6.4478701171875,0.061291854828596115,-0.06416460126638412,0.07477091252803802
1761478808246906000,6.457906005859375,0.07416051626205444,-0.08761507272720337,0.08908380568027496
1761478808256942000,6.467942138671875,0.05860099568963051,-0.08459637314081192,0.08404962718486786
1761478808266979300,6.477979248046875,0.020656010136008263,-0.05705529823899269,0.060394901782274246
1761478808277015300,6.488015380859375,-0.009123457595705986,-0.014103568159043789,-0.0032378712203353643
1761478808287051300,6.49805126953125,-0.029559755697846413,0.02497352659702301,-0.0816197618842125
1761478808297088300,6.508088134765625,-0.03224635496735573,0.04447239264845848,-0.1758410632610321
1761478808307124200,6.518124267578125,-0.02004028670489788,0.046914245933294296,-0.24363955855369568
1761478808317160200,6.52816015625,0.006482134107500315,0.04640398547053337,-0.27100539207458496
1761478808327197200,6.538197265625,0.0340714156627655,0.03532656654715538,-0.2579737603664398
1761478808337233200,6.548233154296875,0.058586347848176956,-0.0028791434597223997,-0.21345874667167664
1761478808347269000,6.55826904296875,0.07120759785175323,-0.06153979152441025,-0.1434953808784485
1761478808357306400,6.568306396484375,0.07488036900758743,-0.0848240777850151,-0.04508811607956886
1761478808367342300,6.57834228515625,0.055200137197971344,-0.09157359600067139,0.04711664468050003
1761478808377378300,6.58837841796875,0.018923623487353325,-0.07791344076395035,0.07677813619375229
1761478808387415300,6.598415283203125,-0.030305707827210426,-0.046895336359739304,0.033719614148139954
1761478808397451300,6.608451171875,-0.07085579633712769,-0.008421714417636395,-0.04896461218595505
1761478808407487200,6.6184873046875,-0.08494152128696442,0.008558601140975952,-0.13176068663597107
1761478808417524200,6.628524169921875,-0.08219526708126068,-0.008380169048905373,-0.19181017577648163
1761478808427560400,6.638560546875,-0.06256777048110962,-0.04753183200955391,-0.22312389314174652
1761478808437596400,6.648596435546875,-0.030003972351551056,-0.0860816240310669,-0.2224692851305008
1761478808447633200,6.658633056640625,-0.0014791196445003152,-0.11353188753128052,-0.19191031157970428
1761478808457669400,6.66866943359375,0.022896526381373405,-0.11582087725400925,-0.13929344713687897
1761478808467705300,6.678705322265625,0.04838138073682785,-0.10573921352624893,-0.08029697090387344
1761478808477742000,6.6887421875,0.04616270214319229,-0.07423561811447144,-0.029161080718040466
1761478808487778300,6.6987783203125,0.02774880640208721,-0.054824098944664,0.007848868146538734
1761478808497815300,6.708815185546875,0.014395983889698982,-0.04587028548121452,0.006132993847131729
1761478808507851300,6.718851318359375,0.01269608736038208,-0.07017642259597778,-0.018443455919623375
1761478808517887200,6.72888720703125,0.02118225023150444,-0.09548204392194748,-0.04270618408918381
1761478808527924200,6.73892431640625,0.04357703775167465,-0.1596865952014923,-0.042457710951566696
1761478808537960200,6.748960205078125,0.07705243676900864,-0.21465983986854553,-0.008667523972690105
1761478808547996200,6.75899609375,0.0981297641992569,-0.24125336110591888,0.04968126863241196
1761478808558033200,6.769033203125,0.10099133104085922,-0.2456023097038269,0.11044342070817947
1761478808568069000,6.779069091796875,0.07562099397182465,-0.20102179050445557,0.1244596391916275
1761478808578105000,6.78910498046875,0.024451280012726784,-0.12101616710424423,0.09399040788412094
1761478808588142000,6.79914208984375,-0.01830177567899227,-0.05811842903494835,0.021865351125597954
1761478808598178000,6.809177978515625,-0.04798057675361633,-0.030850857496261597,-0.0776447281241417
1761478808608214300,6.81921435546875,-0.054253384470939636,-0.038482677191495895,-0.15762664377689362
1761478808618251300,6.829251220703125,-0.03710981830954552,-0.09106332808732986,-0.1938195377588272
1761478808628287200,6.839287353515625,-0.003212837502360344,-0.16155268251895905,-0.19237476587295532
1761478808638323200,6.8493232421875,0.020713001489639282,-0.20549775660037994,-0.16891898214817047
1761478808648360200,6.859360107421875,0.018503643572330475,-0.24917520582675934,-0.1279134899377823
1761478808658396200,6.869396240234375,-0.01241991762071848,-0.2684043049812317,-0.08936290442943573
1761478808668432100,6.87943212890625,-0.05663052201271057,-0.2709193825721741,-0.04776006564497948
1761478808678469000,6.88946923828125,-0.10939386487007141,-0.26839736104011536,-0.013703295029699802
1761478808688505000,6.899505126953125,-0.16100913286209106,-0.2405036836862564,0.01943148858845234
1761478808698541000,6.909541015625,-0.19774822890758514,-0.21887534856796265,0.039694949984550476
1761478808708578300,6.919578369140625,-0.2277119904756546,-0.2000790238380432,0.04581329599022865
1761478808718614300,6.9296142578125,-0.24751871824264526,-0.20261569321155548,0.05534261837601662
1761478808728650200,6.939650146484375,-0.2469349503517151,-0.22563312947750092,0.06580831110477448
1761478808738687200,6.949687255859375,-0.24517619609832764,-0.26196688413619995,0.08683156967163086
1761478808748723200,6.95972314453125,-0.26485323905944824,-0.2800750732421875,0.1160762757062912
1761478808758759200,6.96975927734375,-0.3070313036441803,-0.29673606157302856,0.15503299236297607
1761478808768796200,6.979796142578125,-0.36559927463531494,-0.3149036169052124,0.19185598194599152
1761478808778832100,6.98983203125,-0.4387075901031494,-0.3145480751991272,0.20820726454257965
1761478808788868000,6.9998681640625,-0.5133506655693054,-0.30579161643981934,0.20387403666973114
1761478808798905300,7.0099052734375,-0.5532459020614624,-0.25793778896331787,0.16281741857528687
1761478808808941300,7.01994140625,-0.5370003581047058,-0.16567738354206085,0.0773102343082428
1761478808818978300,7.029978271484375,-0.48448145389556885,-0.08857966959476471,-0.03453880175948143
1761478808829014300,7.04001416015625,-0.4266549050807953,-0.0675678551197052,-0.15573818981647491
1761478808839050200,7.05005029296875,-0.36077389121055603,-0.09947199374437332,-0.2622252106666565
1761478808849087200,7.060087158203125,-0.28852421045303345,-0.12524473667144775,-0.31961607933044434
1761478808859123200,7.070123291015625,-0.20575875043869019,-0.1300293654203415,-0.3345817029476166
1761478808869159200,7.0801591796875,-0.1227530837059021,-0.09633053094148636,-0.2952180504798889
1761478808879196200,7.090196044921875,-0.02058090828359127,-0.016448481008410454,-0.2637261748313904
1761478808889232100,7.100232177734375,0.06775081902742386,0.07280629873275757,-0.24766679108142853
1761478808899268000,7.11026806640625,0.1294408142566681,0.14294198155403137,-0.2420557737350464
1761478808909305300,7.120305419921875,0.17631404101848602,0.22201655805110931,-0.24917466938495636
1761478808919341300,7.13034130859375,0.19892294704914093,0.28169772028923035,-0.22928565740585327
1761478808929377300,7.140377197265625,0.2004673182964325,0.28428205847740173,-0.19384510815143585
1761478808939414300,7.150414306640625,0.17879211902618408,0.23157143592834473,-0.18235835433006287
1761478808949450200,7.1604501953125,0.14339417219161987,0.14520034193992615,-0.1793559044599533
1761478808959486200,7.170486328125,0.07666628062725067,0.003585413796827197,-0.16887317597866058
1761478808969523200,7.180523193359375,-0.008749016560614109,-0.11625231057405472,-0.1422295719385147
1761478808979559200,7.19055908203125,-0.0772969201207161,-0.1664275974035263,-0.09396298229694366
1761478808989595100,7.20059521484375,-0.14032594859600067,-0.17478272318840027,-0.02859089896082878
1761478808999632400,7.21063232421875,-0.1964169144630432,-0.13517513871192932,0.05103228986263275
1761478809009668400,7.22066845703125,-0.22498996555805206,-0.07936699688434601,0.10368165373802185
1761478809019704300,7.230704345703125,-0.235881507396698,-0.02002963423728943,0.12927649915218353
1761478809029741300,7.2407412109375,-0.24088451266288757,0.021322865039110184,0.10987483710050583
1761478809039777300,7.25077734375,-0.24298815429210663,0.023121031001210213,0.05997518450021744
1761478809049813200,7.260813232421875,-0.23506364226341248,-0.009780725464224815,-0.0059777311980724335
1761478809059850200,7.270850341796875,-0.21583162248134613,-0.05734344944357872,-0.07543084025382996
1761478809069886200,7.28088623046875,-0.19070443511009216,-0.09942405670881271,-0.13411679863929749
1761478809079922200,7.290922119140625,-0.16874215006828308,-0.11819189041852951,-0.17292650043964386
1761478809089959400,7.30095947265625,-0.14318831264972687,-0.10235913097858429,-0.19193081557750702
1761478809099995400,7.310995361328125,-0.13164138793945312,-0.06892633438110352,-0.1870844066143036
1761478809110031400,7.32103125,-0.1304922252893448,-0.004530569538474083,-0.14432655274868011
1761478809120068400,7.331068359375,-0.13840501010417938,0.0679236575961113,-0.08464217931032181
1761478809130104300,7.341104248046875,-0.1457446813583374,0.11666376888751984,-0.04837685450911522
1761478809140140300,7.351140380859375,-0.14709997177124023,0.14414624869823456,-0.014241253957152367
1761478809150177300,7.36117724609375,-0.12038499861955643,0.15491874516010284,0.01787780039012432
1761478809160213200,7.371213134765625,-0.07838109135627747,0.13369600474834442,0.038606248795986176
1761478809170249200,7.381249267578125,-0.007654191460460424,0.07833288609981537,0.05417082831263542
1761478809180286200,7.3912861328125,0.0697801485657692,0.007114634849131107,0.08155184984207153
1761478809190322200,7.401322265625,0.13239851593971252,-0.04000653699040413,0.10950864851474762
1761478809200358100,7.411358154296875,0.1502523571252823,-0.024285897612571716,0.10483027249574661
1761478809210395400,7.4213955078125,0.1304171234369278,0.03927363455295563,0.065518818795681
1761478809220431400,7.431431396484375,0.08559878915548325,0.09522584825754166,-0.008330633863806725
1761478809230467300,7.44146728515625,0.029749372974038124,0.11278434097766876,-0.09994683414697647
1761478809240504300,7.45150439453125,-0.016873788088560104,0.05480998381972313,-0.1916559785604477
1761478809250540300,7.461540283203125,-0.05068102106451988,-0.02400626614689827,-0.2640726566314697
1761478809260576300,7.471576171875,-0.06910450011491776,-0.08747924864292145,-0.3032695949077606
1761478809270613200,7.48161328125,-0.0841526910662651,-0.12674516439437866,-0.30121684074401855
1761478809280649200,7.491649169921875,-0.09973804652690887,-0.1096186414361,-0.22819001972675323
1761478809290685200,7.501685302734375,-0.11101147532463074,-0.06088918447494507,-0.11695298552513123
1761478809300722400,7.511722412109375,-0.1265832483768463,0.02143205516040325,-0.013547766953706741
1761478809310758400,7.52175830078125,-0.14900866150856018,0.09353367984294891,0.046906787902116776
1761478809320794400,7.53179443359375,-0.16080433130264282,0.14968056976795197,0.056595370173454285
1761478809330831400,7.541831298828125,-0.16004931926727295,0.1816805750131607,0.011908058077096939
1761478809340867300,7.551867431640625,-0.14753486216068268,0.16937437653541565,-0.072532519698143
1761478809350903300,7.5619033203125,-0.14078694581985474,0.10350428521633148,-0.15883545577526093
1761478809360940000,7.57193994140625,-0.14382454752922058,0.02834535576403141,-0.23512382805347443
1761478809370976000,7.58197607421875,-0.1631242036819458,-0.025530926883220673,-0.2538312077522278
1761478809381012000,7.592011962890625,-0.18553045392036438,-0.06831833720207214,-0.22169004380702972
1761478809391049000,7.602049072265625,-0.20063909888267517,-0.08176516741514206,-0.14287379384040833
1761478809401085000,7.6120849609375,-0.19890937209129333,-0.042340267449617386,-0.048825062811374664
1761478809411121000,7.622120849609375,-0.177582249045372,0.00749067310243845,0.018545188009738922
1761478809421158000,7.632157958984375,-0.16084134578704834,0.057611364871263504,0.04963439702987671
1761478809431193900,7.64219384765625,-0.15346784889698029,0.0702589824795723,0.04548892006278038
1761478809441229800,7.652229736328125,-0.1520039141178131,0.0601554811000824,0.010670754127204418
1761478809451267000,7.66226708984375,-0.1535501480102539,0.028440695255994797,-0.039135683327913284
1761478809461303000,7.672302978515625,-0.1426498293876648,-0.04711398109793663,-0.09410226345062256
1761478809471339000,7.682339111328125,-0.10438846051692963,-0.11305811256170273,-0.141980841755867
1761478809481376000,7.6923759765625,-0.06435688585042953,-0.13069729506969452,-0.1673935204744339
1761478809491412000,7.702411865234375,-0.03200187534093857,-0.12767140567302704,-0.16097503900527954
1761478809501448000,7.712447998046875,-0.019093533977866173,-0.10003338754177094,-0.13233301043510437
1761478809511485000,7.72248486328125,-0.03392920643091202,-0.05344724655151367,-0.0916561484336853
1761478809521521000,7.73252099609375,-0.061825282871723175,-0.011257980950176716,-0.06495902687311172
1761478809531556900,7.742556884765625,-0.08319022506475449,0.01769137941300869,-0.068889319896698
1761478809541593900,7.75259375,-0.10494532436132431,0.02039635181427002,-0.09897372126579285
1761478809551629800,7.7626298828125,-0.10347951948642731,-0.01661359705030918,-0.13275964558124542
1761478809561665800,7.772665771484375,-0.07207073271274567,-0.07147977501153946,-0.15156182646751404
1761478809571703000,7.782703125,-0.050104446709156036,-0.10998509079217911,-0.14780357480049133
1761478809581739000,7.792739013671875,-0.03357766568660736,-0.1503753960132599,-0.11531434208154678
1761478809591775000,7.80277490234375,-0.016345683485269547,-0.17042073607444763,-0.06740301102399826
1761478809601812000,7.81281201171875,-0.006354035809636116,-0.15058231353759766,-0.021260015666484833
1761478809611848000,7.822847900390625,0.009801497682929039,-0.10092741250991821,0.025428127497434616
1761478809621884000,7.8328837890625,0.026611903682351112,-0.052077848464250565,0.05383606627583504
1761478809631921000,7.8429208984375,0.053880807012319565,-0.004602208733558655,0.038535408675670624
1761478809641956900,7.852956787109375,0.08799909800291061,0.027107518166303635,-0.007486412301659584
1761478809651992800,7.862992919921875,0.11481073498725891,0.021930333226919174,-0.07837443053722382
1761478809662030000,7.873030029296875,0.13766944408416748,0.000945954816415906,-0.15353523194789886
1761478809672066000,7.883066162109375,0.14844833314418793,-0.015247396193444729,-0.21751607954502106
1761478809682102000,7.89310205078125,0.1533738374710083,-0.02749687246978283,-0.2687864601612091
1761478809692139000,7.903138916015625,0.15864796936511993,-0.006473878398537636,-0.29380524158477783
1761478809702175000,7.913175048828125,0.16858182847499847,0.03645867481827736,-0.2822844088077545
1761478809712211000,7.9232109375,0.17886614799499512,0.0770668238401413,-0.2244434952735901
1761478809722248000,7.933248046875,0.1797202229499817,0.11093930155038834,-0.13501454889774323
1761478809732284000,7.943283935546875,0.16197159886360168,0.1258535385131836,-0.041421741247177124
1761478809742319900,7.95331982421875,0.14360404014587402,0.12270727753639221,0.03647758439183235
1761478809752355800,7.96335595703125,0.12060683965682983,0.13413862884044647,0.0932130366563797
1761478809762393000,7.97339306640625,0.06885736435651779,0.1527639776468277,0.11248286813497543
1761478809772429000,7.983428955078125,-0.0046512107364833355,0.17251478135585785,0.10011834651231766
1761478809782465000,7.993465087890625,-0.08911149948835373,0.18905115127563477,0.07263372093439102
1761478809792502000,8.003501953125,-0.18788361549377441,0.2312004566192627,0.040346890687942505
1761478809802538000,8.0135380859375,-0.29078948497772217,0.25743526220321655,0.026852386072278023
1761478809812574000,8.023573974609375,-0.3928476870059967,0.2614625096321106,0.0412566252052784
1761478809822611000,8.03361083984375,-0.45217838883399963,0.26817259192466736,0.06397152692079544
1761478809832647000,8.04364697265625,-0.4820244312286377,0.28090837597846985,0.07662952691316605
1761478809842683000,8.053682861328125,-0.5041166543960571,0.29063501954078674,0.07001610100269318
1761478809852719900,8.063719970703126,-0.5087905526161194,0.29838961362838745,0.06951196491718292
1761478809862755800,8.073755859375,-0.4868255853652954,0.28710660338401794,0.08375801146030426
1761478809872792000,8.0837919921875,-0.4464821517467499,0.2588091790676117,0.11599265038967133
1761478809882829000,8.0938291015625,-0.39874204993247986,0.23118901252746582,0.13152819871902466
1761478809892865000,8.103864990234374,-0.31386739015579224,0.2762307822704315,0.08170311897993088
1761478809902901000,8.11390087890625,-0.17426101863384247,0.4100293219089508,-0.02694692835211754
1761478809912938000,8.12393798828125,0.006548712961375713,0.5516493320465088,-0.17418697476387024
1761478809922974000,8.133973876953124,0.217389315366745,0.6406111717224121,-0.30887076258659363
1761478809933010000,8.144010009765625,0.42222315073013306,0.6589099764823914,-0.3696909546852112
1761478809943047000,8.154046875,0.5713420510292053,0.5632367134094238,-0.34686022996902466
1761478809953083000,8.164082763671875,0.6370701789855957,0.3757038414478302,-0.24447818100452423
1761478809963118800,8.174118896484375,0.5816429257392883,0.16192178428173065,-0.04652089625597
1761478809973156000,8.184156005859375,0.43627744913101196,-0.029818082228302956,0.17543867230415344
1761478809983192000,8.194192138671875,0.3306484818458557,-0.09585036337375641,0.31197333335876465
1761478809993228000,8.20422802734375,0.30448028445243835,0.032106537371873856,0.32189494371414185
1761478810003265000,8.21426513671875,0.20898890495300293,0.09753800928592682,0.35449522733688354
1761478810013301000,8.224301025390625,0.1283515840768814,0.01998462714254856,0.4160459339618683
1761478810023337000,8.2343369140625,0.10865377634763718,-0.05573463439941406,0.46869131922721863
1761478810033374000,8.2443740234375,0.10677891224622726,-0.12619735300540924,0.49049994349479675
1761478810043410000,8.254409912109375,0.09942831844091415,-0.17992742359638214,0.4676350951194763
1761478810053446000,8.26444580078125,0.08708883076906204,-0.1925888955593109,0.4178023040294647
1761478810063483000,8.27448291015625,0.05642732232809067,-0.18716350197792053,0.3606841564178467
1761478810073519000,8.28451904296875,0.013935256749391556,-0.19181151688098907,0.3019973933696747
1761478810083555000,8.29455517578125,-0.017948640510439873,-0.19991791248321533,0.2650732100009918
1761478810093591000,8.304591064453126,-0.03839825466275215,-0.17824749648571014,0.23925040662288666
1761478810103628000,8.3146279296875,-0.05607445538043976,-0.11022637039422989,0.20507724583148956
1761478810113664000,8.3246640625,-0.034557443112134933,-0.05205627530813217,0.1628861278295517
1761478810123700000,8.334699951171874,-0.005935120861977339,0.022956980392336845,0.13413836061954498
1761478810133737000,8.344737060546874,0.03524613752961159,0.061401575803756714,0.0383969247341156
1761478810143773000,8.35477294921875,0.09719020128250122,0.0732763409614563,-0.09976228326559067
1761478810153809000,8.364808837890624,0.13916002213954926,0.0780673697590828,-0.19543474912643433
1761478810163846000,8.374845947265625,0.15579386055469513,0.06460988521575928,-0.26991111040115356
1761478810173882000,8.384882080078125,0.16110047698020935,0.05041710287332535,-0.3074142634868622
1761478810183918000,8.39491796875,0.16115505993366241,0.06232595816254616,-0.32851237058639526
1761478810193955000,8.404955078125,0.1484946608543396,0.07644523680210114,-0.3529556691646576
1761478810203991000,8.414990966796875,0.10271625965833664,0.11421285569667816,-0.37831029295921326
1761478810214027000,8.425027099609375,0.04821600019931793,0.20094695687294006,-0.3341878354549408
1761478810224064000,8.43506396484375,0.007273359224200249,0.2907197177410126,-0.24121367931365967
1761478810234100000,8.445099853515625,0.0035390746779739857,0.37505748867988586,-0.13842499256134033
1761478810244136000,8.455135986328125,0.0314071923494339,0.5168498158454895,-0.09979476779699326
1761478810254173000,8.4651728515625,0.06835003197193146,0.6606966853141785,-0.03807441517710686
1761478810264209000,8.475208984375,0.12977078557014465,0.2400144636631012,-0.2675534188747406
1761478810274244900,8.485244873046875,0.17695240676403046,-0.19151856005191803,-0.37981390953063965
1761478810284281900,8.49528173828125,0.1681959331035614,-0.23691880702972412,-0.2555809020996094
1761478810294318000,8.505318115234376,0.09401251375675201,-0.2674538195133209,-0.12230221182107925
1761478810304354000,8.51535400390625,-0.0016871124971657991,-0.10733231902122498,0.07215941697359085
1761478810314390800,8.525390869140624,-0.02684279903769493,0.12760749459266663,0.22707709670066833
