time,seconds_elapsed,z,y,x
1761479773549988600,0.081988525390625,-1.014678955078125,-0.021820068359375,-0.0162200927734375
1761479773560024600,0.092024658203125,-1.013702392578125,-0.021636962890625,-0.0185089111328125
1761479773570060500,0.102060546875,-1.0142059326171875,-0.0224151611328125,-0.01654052734375
1761479773580096500,0.112096435546875,-1.013671875,-0.0216522216796875,-0.0168304443359375
1761479773590131500,0.12213134765625,-1.013885498046875,-0.020355224609375,-0.01904296875
1761479773600167400,0.13216748046875,-1.0145263671875,-0.0223388671875,-0.018829345703125
1761479773610203400,0.142203369140625,-1.0144195556640625,-0.0222015380859375,-0.0151214599609375
1761479773620239600,0.152239501953125,-1.0137481689453125,-0.0226287841796875,-0.0176849365234375
1761479773630275600,0.162275634765625,-1.0145721435546875,-0.0208892822265625,-0.019287109375
1761479773640310500,0.172310546875,-1.0135955810546875,-0.0228424072265625,-0.0172119140625
1761479773650346500,0.182346435546875,-1.013671875,-0.0231781005859375,-0.015289306640625
1761479773660382500,0.192382568359375,-1.0132598876953125,-0.0233001708984375,-0.0187530517578125
1761479773670418400,0.20241845703125,-1.01470947265625,-0.0216064453125,-0.0181884765625
1761479773680454400,0.212454345703125,-1.01531982421875,-0.023040771484375,-0.01690673828125
1761479773690489600,0.222489501953125,-1.0142669677734375,-0.02276611328125,-0.0176544189453125
1761479773700525600,0.232525634765625,-1.014923095703125,-0.0233001708984375,-0.0190277099609375
1761479773710561500,0.2425615234375,-1.01397705078125,-0.0219573974609375,-0.015838623046875
1761479773720597500,0.252597412109375,-1.013580322265625,-0.022674560546875,-0.0163421630859375
1761479773730632400,0.262632568359375,-1.0134429931640625,-0.0221710205078125,-0.0191192626953125
1761479773740668400,0.27266845703125,-1.0140838623046875,-0.022247314453125,-0.017120361328125
1761479773750704600,0.28270458984375,-1.0144195556640625,-0.0207672119140625,-0.0158233642578125
1761479773760740600,0.29274072265625,-1.0131072998046875,-0.0211181640625,-0.018218994140625
1761479773770776600,0.302776611328125,-1.0140838623046875,-0.0218048095703125,-0.018218994140625
1761479773780811500,0.3128115234375,-1.0141448974609375,-0.02191162109375,-0.016693115234375
1761479773790847500,0.322847412109375,-1.01312255859375,-0.0211639404296875,-0.0180816650390625
1761479773800883500,0.332883544921875,-1.0139007568359375,-0.0216522216796875,-0.0185699462890625
1761479773810919400,0.34291943359375,-1.0137176513671875,-0.0224609375,-0.01702880859375
1761479773820955400,0.352955322265625,-1.0142669677734375,-0.0223236083984375,-0.0167388916015625
1761479773830990600,0.362990478515625,-1.01361083984375,-0.02142333984375,-0.01824951171875
1761479773841026600,0.373026611328125,-1.0131683349609375,-0.0214385986328125,-0.01727294921875
1761479773851062500,0.3830625,-1.013458251953125,-0.02276611328125,-0.0160369873046875
1761479773861098500,0.393098388671875,-1.0131683349609375,-0.021759033203125,-0.0176849365234375
1761479773871134500,0.403134521484375,-1.013214111328125,-0.0213470458984375,-0.01910400390625
1761479773881169700,0.413169677734375,-1.01513671875,-0.021392822265625,-0.0174407958984375
1761479773891205600,0.42320556640625,-1.0138702392578125,-0.0230865478515625,-0.0173492431640625
1761479773901241600,0.43324169921875,-1.0136260986328125,-0.02191162109375,-0.0184478759765625
1761479773911277600,0.443277587890625,-1.0136871337890625,-0.021881103515625,-0.0180816650390625
1761479773921313500,0.4533134765625,-1.0132598876953125,-0.0216827392578125,-0.0163116455078125
1761479773931348500,0.463348388671875,-1.0131378173828125,-0.0225982666015625,-0.016693115234375
1761479773941384400,0.473384521484375,-1.0133209228515625,-0.0220794677734375,-0.018341064453125
1761479773951420700,0.483420654296875,-1.0133056640625,-0.02203369140625,-0.0169525146484375
1761479773961456600,0.49345654296875,-1.0131072998046875,-0.021270751953125,-0.01678466796875
1761479773971491600,0.50349169921875,-1.012603759765625,-0.022857666015625,-0.01837158203125
1761479773981527600,0.513527587890625,-1.0134735107421875,-0.0224761962890625,-0.016204833984375
1761479773991563500,0.5235634765625,-1.0123291015625,-0.0219268798828125,-0.016937255859375
1761479774001599500,0.533599609375,-1.0122528076171875,-0.02197265625,-0.018218994140625
1761479774011635500,0.543635498046875,-1.0136566162109375,-0.0219879150390625,-0.0175018310546875
1761479774021670700,0.553670654296875,-1.0135650634765625,-0.022552490234375,-0.016632080078125
1761479774031706600,0.56370654296875,-1.0125885009765625,-0.0212554931640625,-0.017364501953125
1761479774041742600,0.57374267578125,-1.0133819580078125,-0.02227783203125,-0.01788330078125
1761479774051778600,0.583778564453125,-1.013214111328125,-0.0224761962890625,-0.0173492431640625
1761479774061814500,0.593814453125,-1.0126190185546875,-0.0235137939453125,-0.0171966552734375
1761479774071849500,0.603849365234375,-1.013946533203125,-0.022491455078125,-0.0175018310546875
1761479774081885700,0.6138857421875,-1.0136871337890625,-0.022216796875,-0.0177764892578125
1761479774091921700,0.623921630859375,-1.01275634765625,-0.0220947265625,-0.0170440673828125
1761479774101957600,0.63395751953125,-1.0133209228515625,-0.0228729248046875,-0.01751708984375
1761479774111993600,0.64399365234375,-1.0140838623046875,-0.02203369140625,-0.0178070068359375
1761479774122028500,0.654028564453125,-1.0130767822265625,-0.0225372314453125,-0.0170135498046875
1761479774132064500,0.664064453125,-1.0123748779296875,-0.02252197265625,-0.0174102783203125
1761479774142100500,0.6741005859375,-1.0137939453125,-0.0223388671875,-0.018310546875
1761479774152136400,0.684136474609375,-1.0138397216796875,-0.02178955078125,-0.017333984375
1761479774162172700,0.694172607421875,-1.01263427734375,-0.0226593017578125,-0.0175018310546875
1761479774172207600,0.70420751953125,-1.0134124755859375,-0.02301025390625,-0.0174407958984375
1761479774182243600,0.71424365234375,-1.0132904052734375,-0.0224609375,-0.0176544189453125
1761479774192279600,0.724279541015625,-1.012542724609375,-0.02154541015625,-0.0168304443359375
1761479774202315500,0.7343154296875,-1.0132904052734375,-0.022064208984375,-0.0171356201171875
1761479774212351500,0.7443515625,-1.0126495361328125,-0.0224761962890625,-0.0177001953125
1761479774222386700,0.75438671875,-1.0132293701171875,-0.0223846435546875,-0.017303466796875
1761479774232422700,0.764422607421875,-1.012969970703125,-0.021881103515625,-0.0172119140625
1761479774242458600,0.774458740234375,-1.0127716064453125,-0.0211334228515625,-0.0178070068359375
1761479774252494600,0.78449462890625,-1.0128021240234375,-0.02105712890625,-0.017486572265625
1761479774262530600,0.794530517578125,-1.0115814208984375,-0.022705078125,-0.0172271728515625
1761479774272565200,0.804565185546875,-1.0129852294921875,-0.0221099853515625,-0.0178985595703125
1761479774282601500,0.8146015625,-1.0118408203125,-0.02203369140625,-0.0178070068359375
1761479774292637700,0.8246376953125,-1.012542724609375,-0.0225677490234375,-0.0175018310546875
1761479774302673700,0.834673583984375,-1.012603759765625,-0.021575927734375,-0.0178985595703125
1761479774312709600,0.844709716796875,-1.0116119384765625,-0.0218353271484375,-0.01788330078125
1761479774322744800,0.854744873046875,-1.013519287109375,-0.022857666015625,-0.017181396484375
1761479774332780800,0.86478076171875,-1.0132598876953125,-0.0218048095703125,-0.0170135498046875
1761479774342816800,0.874816650390625,-1.0126190185546875,-0.0220489501953125,-0.018157958984375
1761479774352852700,0.884852783203125,-1.0132293701171875,-0.0222320556640625,-0.017852783203125
1761479774362888700,0.894888671875,-1.012298583984375,-0.02313232421875,-0.01629638671875
1761479774372924000,0.904923828125,-1.0128326416015625,-0.02252197265625,-0.017547607421875
1761479774382959900,0.9149599609375,-1.01348876953125,-0.022003173828125,-0.0189971923828125
1761479774392995800,0.924995849609375,-1.01318359375,-0.02227783203125,-0.0173797607421875
1761479774403031800,0.93503173828125,-1.0123291015625,-0.021820068359375,-0.0167083740234375
1761479774413067800,0.94506787109375,-1.012725830078125,-0.02215576171875,-0.0172576904296875
1761479774423102700,0.955102783203125,-1.0130615234375,-0.022735595703125,-0.0172119140625
1761479774433139000,0.965138916015625,-1.012298583984375,-0.0225067138671875,-0.017486572265625
1761479774443175000,0.9751748046875,-1.0110321044921875,-0.02227783203125,-0.017913818359375
1761479774453211000,0.9852109375,-1.0128021240234375,-0.0219879150390625,-0.01751708984375
1761479774463246800,0.995246826171875,-1.0124664306640625,-0.0222015380859375,-0.0171966552734375
1761479774473281500,1.005281494140625,-1.0132598876953125,-0.0222625732421875,-0.017425537109375
1761479774483317800,1.01531787109375,-1.012481689453125,-0.0223388671875,-0.017852783203125
1761479774493353700,1.025353759765625,-1.0133209228515625,-0.0221710205078125,-0.0185089111328125
1761479774503390000,1.035389892578125,-1.01373291015625,-0.022430419921875,-0.01702880859375
1761479774513426000,1.045426025390625,-1.012542724609375,-0.022430419921875,-0.01715087890625
1761479774523462000,1.0554619140625,-1.01312255859375,-0.0216522216796875,-0.0173187255859375
1761479774533496600,1.06549658203125,-1.01348876953125,-0.0224609375,-0.0174102783203125
1761479774543532800,1.07553271484375,-1.01275634765625,-0.0222930908203125,-0.01751708984375
1761479774553568800,1.08556884765625,-1.0121917724609375,-0.0217437744140625,-0.01824951171875
1761479774563604700,1.095604736328125,-1.01214599609375,-0.021636962890625,-0.0177001953125
1761479774573640700,1.105640625,-1.0136260986328125,-0.02130126953125,-0.0179901123046875
1761479774583675600,1.115675537109375,-1.01348876953125,-0.022216796875,-0.0180206298828125
1761479774593711600,1.125711669921875,-1.01361083984375,-0.021728515625,-0.0168609619140625
1761479774603747800,1.135747802734375,-1.0135955810546875,-0.0223236083984375,-0.01690673828125
1761479774613783800,1.14578369140625,-1.0141754150390625,-0.0230255126953125,-0.016998291015625
1761479774623819800,1.15581982421875,-1.0126495361328125,-0.0217132568359375,-0.0181732177734375
1761479774633854700,1.165854736328125,-1.0133209228515625,-0.022064208984375,-0.0172882080078125
1761479774643890700,1.175890625,-1.0123138427734375,-0.02105712890625,-0.0166168212890625
1761479774653927000,1.185927001953125,-1.013031005859375,-0.022125244140625,-0.0174560546875
1761479774663963000,1.195962890625,-1.01123046875,-0.022186279296875,-0.0177459716796875
1761479774673998800,1.205998779296875,-1.01318359375,-0.0218658447265625,-0.01702880859375
1761479774684034800,1.216034912109375,-1.0133209228515625,-0.0219573974609375,-0.0173187255859375
1761479774694069500,1.226069580078125,-1.0126953125,-0.0222015380859375,-0.0176849365234375
1761479774704105700,1.236105712890625,-1.0130615234375,-0.0227508544921875,-0.016754150390625
1761479774714142000,1.246141845703125,-1.01287841796875,-0.022003173828125,-0.016845703125
1761479774724178000,1.256177978515625,-1.0133819580078125,-0.0221099853515625,-0.016998291015625
1761479774734214000,1.2662138671875,-1.013458251953125,-0.02203369140625,-0.0169677734375
1761479774744248600,1.27624853515625,-1.013916015625,-0.02215576171875,-0.01678466796875
1761479774754284500,1.286284423828125,-1.0130767822265625,-0.021820068359375,-0.0167694091796875
1761479774764320800,1.29632080078125,-1.013824462890625,-0.02142333984375,-0.0175628662109375
1761479774774356700,1.306356689453125,-1.0138397216796875,-0.0226287841796875,-0.01788330078125
1761479774784393000,1.31639306640625,-1.014007568359375,-0.02227783203125,-0.0174407958984375
1761479774794429000,1.326428955078125,-1.012939453125,-0.022979736328125,-0.0172271728515625
1761479774804463600,1.336463623046875,-1.0141448974609375,-0.02227783203125,-0.0171661376953125
1761479774814499600,1.34649951171875,-1.013885498046875,-0.0224609375,-0.017791748046875
1761479774824535800,1.356535888671875,-1.012542724609375,-0.0222320556640625,-0.0175628662109375
1761479774834571800,1.36657177734375,-1.0133819580078125,-0.021514892578125,-0.0178985595703125
1761479774844607700,1.376607666015625,-1.0131072998046875,-0.021636962890625,-0.017059326171875
1761479774854642700,1.386642578125,-1.0131378173828125,-0.0221710205078125,-0.0176849365234375
1761479774864678700,1.3966787109375,-1.0131378173828125,-0.022186279296875,-0.01898193359375
1761479774874715000,1.40671484375,-1.01214599609375,-0.0223236083984375,-0.0175933837890625
1761479774884750800,1.416750732421875,-1.0135650634765625,-0.0213470458984375,-0.01788330078125
1761479774894786800,1.426786865234375,-1.01361083984375,-0.02239990234375,-0.017486572265625
1761479774904822800,1.43682275390625,-1.0127105712890625,-0.0226593017578125,-0.017059326171875
1761479774914857700,1.446857666015625,-1.0135040283203125,-0.0218963623046875,-0.0174407958984375
1761479774924893700,1.456893798828125,-1.01318359375,-0.0220489501953125,-0.01751708984375
1761479774934930000,1.466929931640625,-1.0128936767578125,-0.022369384765625,-0.016815185546875
1761479774944966000,1.4769658203125,-1.013336181640625,-0.0217132568359375,-0.0162353515625
1761479774955001900,1.487001953125,-1.0127716064453125,-0.0214385986328125,-0.0175323486328125
1761479774965036500,1.49703662109375,-1.0131988525390625,-0.021514892578125,-0.01824951171875
1761479774975072500,1.507072509765625,-1.013916015625,-0.0223846435546875,-0.0162506103515625
1761479774985108700,1.517108642578125,-1.01385498046875,-0.0223388671875,-0.0162506103515625
1761479774995145000,1.52714501953125,-1.012969970703125,-0.0220794677734375,-0.017578125
1761479775005181000,1.537180908203125,-1.012969970703125,-0.0223846435546875,-0.0177764892578125
1761479775015217000,1.547216796875,-1.0131072998046875,-0.0224761962890625,-0.0173492431640625
1761479775025251600,1.55725146484375,-1.013458251953125,-0.0220794677734375,-0.016937255859375
1761479775035287600,1.56728759765625,-1.0130462646484375,-0.0211029052734375,-0.0181884765625
1761479775045323800,1.57732373046875,-1.0133056640625,-0.0220794677734375,-0.018096923828125
1761479775055359700,1.58735986328125,-1.0136566162109375,-0.021820068359375,-0.0173797607421875
1761479775065395700,1.597395751953125,-1.0137786865234375,-0.0216522216796875,-0.0167694091796875
1761479775075432000,1.607431884765625,-1.0130157470703125,-0.0216522216796875,-0.016876220703125
1761479775085466600,1.617466552734375,-1.0136566162109375,-0.022186279296875,-0.0172119140625
1761479775095502600,1.627502685546875,-1.0142669677734375,-0.0220947265625,-0.0174407958984375
1761479775105538800,1.637538818359375,-1.01318359375,-0.0209197998046875,-0.01824951171875
1761479775115574800,1.64757470703125,-1.013763427734375,-0.0221710205078125,-0.0181732177734375
1761479775125610800,1.65761083984375,-1.013031005859375,-0.0231170654296875,-0.017822265625
1761479775135645700,1.667645751953125,-1.01348876953125,-0.0227508544921875,-0.0175628662109375
1761479775145681700,1.677681640625,-1.0145721435546875,-0.0224456787109375,-0.0176544189453125
1761479775155718000,1.6877177734375,-1.0139007568359375,-0.0223846435546875,-0.0176544189453125
1761479775165753900,1.69775390625,-1.0129547119140625,-0.021484375,-0.0186767578125
1761479775175789800,1.707789794921875,-1.013519287109375,-0.0211029052734375,-0.018341064453125
1761479775185825800,1.71782568359375,-1.013916015625,-0.022308349609375,-0.01690673828125
1761479775195860700,1.72786083984375,-1.0128326416015625,-0.0224609375,-0.016845703125
1761479775205896700,1.737896728515625,-1.01287841796875,-0.0219879150390625,-0.01849365234375
1761479775215933000,1.747932861328125,-1.0144500732421875,-0.022308349609375,-0.01690673828125
1761479775225969000,1.757968994140625,-1.0136871337890625,-0.0221099853515625,-0.017425537109375
1761479775236004900,1.7680048828125,-1.013580322265625,-0.0226287841796875,-0.0172271728515625
1761479775246040800,1.778040771484375,-1.013336181640625,-0.021759033203125,-0.0174407958984375
1761479775256075500,1.788075439453125,-1.0122222900390625,-0.0213470458984375,-0.01776123046875
1761479775266111700,1.79811181640625,-1.013031005859375,-0.022216796875,-0.0179901123046875
1761479775276148000,1.80814794921875,-1.013519287109375,-0.0215911865234375,-0.016937255859375
1761479775286184000,1.818183837890625,-1.0129241943359375,-0.0220947265625,-0.0169677734375
1761479775296220000,1.828219970703125,-1.0130767822265625,-0.0218658447265625,-0.0179595947265625
1761479775306256000,1.838255859375,-1.0142974853515625,-0.0218963623046875,-0.01776123046875
1761479775316290000,1.8482900390625,-1.0134124755859375,-0.021759033203125,-0.0170135498046875
1761479775326326000,1.858325927734375,-1.01336669921875,-0.0225067138671875,-0.0169525146484375
1761479775336362200,1.8683623046875,-1.013641357421875,-0.02215576171875,-0.017242431640625
1761479775346398200,1.878398193359375,-1.013214111328125,-0.0218658447265625,-0.0174407958984375
1761479775356434400,1.888434326171875,-1.0134429931640625,-0.0231475830078125,-0.0177154541015625
1761479775366469000,1.89846923828125,-1.013092041015625,-0.0232391357421875,-0.0178375244140625
1761479775376505000,1.908505126953125,-1.013580322265625,-0.022552490234375,-0.016815185546875
1761479775386541000,1.918541015625,-1.014495849609375,-0.02227783203125,-0.0164947509765625
1761479775396577000,1.928576904296875,-1.0140533447265625,-0.0227508544921875,-0.0175628662109375
1761479775406613200,1.93861328125,-1.0139007568359375,-0.021331787109375,-0.017578125
1761479775416649200,1.948649169921875,-1.0140533447265625,-0.0212860107421875,-0.0172882080078125
1761479775426684200,1.95868408203125,-1.0136260986328125,-0.0229034423828125,-0.017486572265625
1761479775436720000,1.96872021484375,-1.013519287109375,-0.0222015380859375,-0.017578125
1761479775446756000,1.978756103515625,-1.0146331787109375,-0.0221405029296875,-0.017181396484375
1761479775456792000,1.9887919921875,-1.0133514404296875,-0.0218048095703125,-0.0171356201171875
1761479775466828300,1.998828369140625,-1.0137176513671875,-0.0219573974609375,-0.0172271728515625
1761479775476864300,2.0088642578125,-1.0144195556640625,-0.0222625732421875,-0.0177764892578125
1761479775486899200,2.018899169921875,-1.0140380859375,-0.02203369140625,-0.0173492431640625
1761479775496935200,2.02893505859375,-1.0135650634765625,-0.02337646484375,-0.016998291015625
1761479775506971100,2.03897119140625,-1.0140533447265625,-0.02301025390625,-0.0173187255859375
1761479775517007400,2.04900732421875,-1.01348876953125,-0.0226287841796875,-0.01708984375
1761479775527043300,2.059043212890625,-1.0136566162109375,-0.0221405029296875,-0.0175628662109375
1761479775537079300,2.069079345703125,-1.01495361328125,-0.02142333984375,-0.017486572265625
1761479775547114200,2.0791142578125,-1.01348876953125,-0.0225067138671875,-0.017852783203125
1761479775557150200,2.089150146484375,-1.013916015625,-0.0224151611328125,-0.017669677734375
1761479775567186200,2.099186279296875,-1.013916015625,-0.0224456787109375,-0.0171356201171875
1761479775577222400,2.109222412109375,-1.01318359375,-0.022064208984375,-0.0167083740234375
1761479775587258400,2.11925830078125,-1.0148162841796875,-0.0219268798828125,-0.017608642578125
1761479775597294300,2.12929443359375,-1.0140228271484375,-0.0228424072265625,-0.017333984375
1761479775607329000,2.1393291015625,-1.01275634765625,-0.0215301513671875,-0.017120361328125
1761479775617365200,2.149365234375,-1.0137939453125,-0.02178955078125,-0.0181884765625
1761479775627401500,2.1594013671875,-1.0149383544921875,-0.02239990234375,-0.0172271728515625
1761479775637437400,2.1694375,-1.013763427734375,-0.0221405029296875,-0.016815185546875
1761479775647473400,2.179473388671875,-1.0138092041015625,-0.02203369140625,-0.018157958984375
1761479775657508000,2.189508056640625,-1.014007568359375,-0.0218353271484375,-0.0179443359375
1761479775667544000,2.1995439453125,-1.0132904052734375,-0.02276611328125,-0.0171966552734375
1761479775677580000,2.209580078125,-1.0140533447265625,-0.022247314453125,-0.0178375244140625
1761479775687616300,2.2196162109375,-1.014678955078125,-0.0217742919921875,-0.0179443359375
1761479775697652200,2.22965234375,-1.014190673828125,-0.0222625732421875,-0.0171966552734375
1761479775707688400,2.2396884765625,-1.0142974853515625,-0.0222930908203125,-0.0178375244140625
1761479775717723100,2.24972314453125,-1.0141143798828125,-0.02197265625,-0.0175018310546875
1761479775727759000,2.259759033203125,-1.014312744140625,-0.0212249755859375,-0.017486572265625
1761479775737795300,2.26979541015625,-1.0146026611328125,-0.0215301513671875,-0.0172576904296875
1761479775747831300,2.279831298828125,-1.0145416259765625,-0.021881103515625,-0.0168609619140625
1761479775757867300,2.2898671875,-1.0135040283203125,-0.0223388671875,-0.0171661376953125
1761479775767903200,2.2999033203125,-1.01373291015625,-0.0232696533203125,-0.017181396484375
1761479775777938200,2.309938232421875,-1.013397216796875,-0.0223236083984375,-0.017303466796875
1761479775787974100,2.31997412109375,-1.0146331787109375,-0.0228271484375,-0.017547607421875
1761479775798010400,2.33001025390625,-1.013580322265625,-0.0218658447265625,-0.017242431640625
1761479775808046300,2.34004638671875,-1.0131072998046875,-0.022003173828125,-0.0174102783203125
1761479775818082300,2.350082275390625,-1.0135040283203125,-0.0221099853515625,-0.0178070068359375
1761479775828118300,2.3601181640625,-1.0133514404296875,-0.0217132568359375,-0.0174407958984375
1761479775838153200,2.3701533203125,-1.013458251953125,-0.0224456787109375,-0.016998291015625
1761479775848189200,2.380189208984375,-1.0137939453125,-0.0216217041015625,-0.0169830322265625
1761479775858225400,2.390225341796875,-1.0131988525390625,-0.02252197265625,-0.017333984375
1761479775868261400,2.400261474609375,-1.01348876953125,-0.02264404296875,-0.017059326171875
1761479775878297300,2.41029736328125,-1.0143890380859375,-0.0216827392578125,-0.01702880859375
1761479775888333300,2.420333251953125,-1.0144500732421875,-0.0225372314453125,-0.017242431640625
1761479775898368000,2.430367919921875,-1.013763427734375,-0.0217742919921875,-0.0171966552734375
1761479775908404200,2.440404296875,-1.01348876953125,-0.022064208984375,-0.017486572265625
1761479775918440400,2.4504404296875,-1.0135955810546875,-0.0217437744140625,-0.0175018310546875
1761479775928476400,2.460476318359375,-1.0140228271484375,-0.02197265625,-0.0170745849609375
1761479775938512400,2.470512451171875,-1.01385498046875,-0.0229644775390625,-0.0168914794921875
1761479775948547000,2.480547119140625,-1.013031005859375,-0.022857666015625,-0.017669677734375
1761479775958583000,2.4905830078125,-1.0135650634765625,-0.021942138671875,-0.0169677734375
1761479775968619300,2.500619384765625,-1.014007568359375,-0.02166748046875,-0.01708984375
1761479775978655200,2.5106552734375,-1.0135498046875,-0.0215301513671875,-0.017120361328125
1761479775988691500,2.52069140625,-1.014068603515625,-0.0226593017578125,-0.017608642578125
1761479775998727400,2.5307275390625,-1.01409912109375,-0.02203369140625,-0.0173187255859375
1761479776008762000,2.54076220703125,-1.01470947265625,-0.0223541259765625,-0.0166778564453125
1761479776018798300,2.55079833984375,-1.0137939453125,-0.02227783203125,-0.017181396484375
1761479776028834300,2.560834228515625,-1.01409912109375,-0.0219268798828125,-0.0175933837890625
1761479776038870300,2.570870361328125,-1.014495849609375,-0.0223236083984375,-0.017669677734375
1761479776048906200,2.58090625,-1.0143585205078125,-0.0221405029296875,-0.017608642578125
1761479776058942200,2.590942138671875,-1.0138092041015625,-0.02203369140625,-0.017578125
1761479776068977200,2.60097705078125,-1.01361083984375,-0.022003173828125,-0.0174102783203125
1761479776079013400,2.611013427734375,-1.014251708984375,-0.02130126953125,-0.0164794921875
1761479776089049300,2.62104931640625,-1.013397216796875,-0.0221099853515625,-0.0178680419921875
1761479776099085300,2.631085205078125,-1.0137939453125,-0.0220184326171875,-0.0173797607421875
1761479776109121300,2.641121337890625,-1.0141754150390625,-0.0223541259765625,-0.0173187255859375
1761479776119157200,2.6511572265625,-1.0143280029296875,-0.022186279296875,-0.017364501953125
1761479776129192400,2.6611923828125,-1.01422119140625,-0.0220947265625,-0.0178070068359375
1761479776139228400,2.671228515625,-1.014007568359375,-0.021881103515625,-0.017303466796875
1761479776149264400,2.681264404296875,-1.0133209228515625,-0.022369384765625,-0.017120361328125
1761479776159300400,2.69130029296875,-1.013336181640625,-0.0218048095703125,-0.0173187255859375
1761479776169336300,2.70133642578125,-1.0151519775390625,-0.0225982666015625,-0.0169677734375
1761479776179372300,2.711372314453125,-1.0142974853515625,-0.021575927734375,-0.0174713134765625
1761479776189407200,2.7214072265625,-1.014007568359375,-0.0219879150390625,-0.016693115234375
1761479776199443500,2.731443359375,-1.013031005859375,-0.0225830078125,-0.0176239013671875
1761479776209479400,2.7414794921875,-1.0141754150390625,-0.0216827392578125,-0.0183258056640625
1761479776219515400,2.751515380859375,-1.0136871337890625,-0.021942138671875,-0.0174713134765625
1761479776229551400,2.76155126953125,-1.0153350830078125,-0.0228271484375,-0.0179595947265625
1761479776239586000,2.7715859375,-1.01434326171875,-0.0216827392578125,-0.016845703125
1761479776249622300,2.781622314453125,-1.013641357421875,-0.022308349609375,-0.01739501953125
1761479776259658200,2.791658203125,-1.0135498046875,-0.0224151611328125,-0.017425537109375
1761479776269694200,2.801694091796875,-1.013153076171875,-0.0222930908203125,-0.017059326171875
1761479776279730400,2.81173046875,-1.01385498046875,-0.0222015380859375,-0.0174407958984375
1761479776289766400,2.821766357421875,-1.0134735107421875,-0.022216796875,-0.0174102783203125
1761479776299801300,2.83180126953125,-1.01397705078125,-0.0222930908203125,-0.017486572265625
1761479776309837300,2.84183740234375,-1.0152435302734375,-0.022735595703125,-0.0167236328125
1761479776319873000,2.851873046875,-1.0150604248046875,-0.022369384765625,-0.0175933837890625
1761479776329909000,2.861908935546875,-1.013580322265625,-0.0224609375,-0.0183868408203125
1761479776339945000,2.871945068359375,-1.0139007568359375,-0.02203369140625,-0.017852783203125
1761479776349981200,2.881981201171875,-1.0139617919921875,-0.021820068359375,-0.018218994140625
1761479776360016000,2.892015869140625,-1.0144500732421875,-0.0224761962890625,-0.0176544189453125
1761479776370052000,2.902052001953125,-1.01446533203125,-0.0219879150390625,-0.0167694091796875
1761479776380088000,2.912088134765625,-1.0149383544921875,-0.02215576171875,-0.0170135498046875
1761479776390124000,2.9221240234375,-1.0142059326171875,-0.0225372314453125,-0.0172576904296875
1761479776400160000,2.932159912109375,-1.0148773193359375,-0.0229339599609375,-0.0176239013671875
1761479776410196000,2.942196044921875,-1.01422119140625,-0.02197265625,-0.01739501953125
1761479776420231000,2.95223095703125,-1.012969970703125,-0.0211334228515625,-0.01690673828125
1761479776430267100,2.96226708984375,-1.0137481689453125,-0.0222320556640625,-0.0171356201171875
1761479776440303000,2.97230322265625,-1.014678955078125,-0.0229339599609375,-0.0174102783203125
1761479776450339000,2.982339111328125,-1.0137786865234375,-0.022369384765625,-0.0170745849609375
1761479776460375000,2.992375,-1.0135498046875,-0.021636962890625,-0.017822265625
1761479776470411000,3.002410888671875,-1.0135345458984375,-0.02264404296875,-0.0180206298828125
1761479776480446200,3.0124462890625,-1.014129638671875,-0.0219573974609375,-0.01739501953125
1761479776490482200,3.022482177734375,-1.01348876953125,-0.0219879150390625,-0.017486572265625
1761479776500518100,3.03251806640625,-1.01361083984375,-0.0229644775390625,-0.0174713134765625
1761479776510554000,3.04255419921875,-1.0139312744140625,-0.022003173828125,-0.0176544189453125
1761479776520590000,3.052590087890625,-1.0134124755859375,-0.0214691162109375,-0.017303466796875
1761479776530626000,3.0626259765625,-1.013336181640625,-0.0213775634765625,-0.0171356201171875
1761479776540661000,3.072660888671875,-1.0141754150390625,-0.0219879150390625,-0.0168609619140625
1761479776550697200,3.082697265625,-1.014892578125,-0.0212249755859375,-0.01751708984375
1761479776560733200,3.092733154296875,-1.014251708984375,-0.0222930908203125,-0.0173187255859375
1761479776570769200,3.10276904296875,-1.0139617919921875,-0.022216796875,-0.0178375244140625
1761479776580805000,3.11280517578125,-1.0139312744140625,-0.0222625732421875,-0.017364501953125
1761479776590840000,3.122840087890625,-1.0135498046875,-0.020751953125,-0.017913818359375
1761479776600876000,3.1328759765625,-1.01324462890625,-0.0222625732421875,-0.01727294921875
1761479776610912000,3.142912109375,-1.0142669677734375,-0.022613525390625,-0.017242431640625
1761479776620948000,3.152947998046875,-1.01458740234375,-0.02191162109375,-0.0176849365234375
1761479776630984200,3.162984130859375,-1.0145721435546875,-0.022552490234375,-0.0164031982421875
1761479776641020200,3.173020263671875,-1.013641357421875,-0.0230255126953125,-0.01702880859375
1761479776651055000,3.18305517578125,-1.0129241943359375,-0.0220794677734375,-0.0170440673828125
1761479776661091000,3.193091064453125,-1.0133514404296875,-0.0225830078125,-0.017578125
1761479776671127000,3.203126953125,-1.0141448974609375,-0.02239990234375,-0.01763916015625
1761479776681163000,3.2131630859375,-1.0146026611328125,-0.0218505859375,-0.0166015625
1761479776691199000,3.223198974609375,-1.0135498046875,-0.021759033203125,-0.0167236328125
1761479776701235000,3.23323486328125,-1.0138397216796875,-0.0220947265625,-0.0182037353515625
1761479776711270100,3.243270263671875,-1.0139312744140625,-0.0224456787109375,-0.01837158203125
1761479776721306000,3.25330615234375,-1.0137481689453125,-0.0231475830078125,-0.017242431640625
1761479776731342000,3.263342041015625,-1.0137481689453125,-0.023345947265625,-0.017364501953125
1761479776741378000,3.2733779296875,-1.0147857666015625,-0.02239990234375,-0.0180816650390625
1761479776751414000,3.2834140625,-1.013824462890625,-0.0218048095703125,-0.017181396484375
1761479776761450000,3.293449951171875,-1.0139007568359375,-0.0225372314453125,-0.0172576904296875
1761479776771485200,3.303485107421875,-1.01409912109375,-0.0222015380859375,-0.0178985595703125
1761479776781521200,3.313521240234375,-1.0141448974609375,-0.022735595703125,-0.017608642578125
1761479776791557000,3.32355712890625,-1.0134429931640625,-0.0227813720703125,-0.0173797607421875
1761479776801593000,3.333593017578125,-1.0140380859375,-0.0219573974609375,-0.0175933837890625
1761479776811629000,3.343629150390625,-1.0142059326171875,-0.022735595703125,-0.0178680419921875
1761479776821665000,3.3536650390625,-1.0133819580078125,-0.0230712890625,-0.017425537109375
1761479776831700000,3.363699951171875,-1.012786865234375,-0.0222625732421875,-0.0174407958984375
1761479776841736200,3.373736083984375,-1.012908935546875,-0.0221405029296875,-0.01800537109375
1761479776851772200,3.383772216796875,-1.0135040283203125,-0.021759033203125,-0.01812744140625
1761479776861808000,3.39380810546875,-1.0142364501953125,-0.022705078125,-0.017059326171875
1761479776871844000,3.403843994140625,-1.0145111083984375,-0.0229034423828125,-0.01751708984375
1761479776881880000,3.413880126953125,-1.0147247314453125,-0.0215301513671875,-0.0169525146484375
1761479776891915000,3.4239150390625,-1.014068603515625,-0.0221710205078125,-0.017425537109375
1761479776901951000,3.433950927734375,-1.013702392578125,-0.0225830078125,-0.01751708984375
1761479776911987000,3.443987060546875,-1.0137939453125,-0.0226898193359375,-0.0170135498046875
1761479776922023200,3.454023193359375,-1.0136260986328125,-0.02215576171875,-0.0174560546875
1761479776932059100,3.46405908203125,-1.0135955810546875,-0.022308349609375,-0.017822265625
1761479776942094000,3.474093994140625,-1.0139007568359375,-0.02191162109375,-0.018218994140625
1761479776952130000,3.484130126953125,-1.01385498046875,-0.021514892578125,-0.017059326171875
1761479776962166000,3.494166015625,-1.0146026611328125,-0.02215576171875,-0.0171051025390625
1761479776972202000,3.504201904296875,-1.0136566162109375,-0.0221405029296875,-0.01708984375
1761479776982238000,3.514238037109375,-1.0137939453125,-0.0218505859375,-0.017822265625
1761479776992274000,3.52427392578125,-1.0149078369140625,-0.023590087890625,-0.0176544189453125
1761479777002309000,3.53430908203125,-1.0138092041015625,-0.0227813720703125,-0.017547607421875
1761479777012345000,3.544344970703125,-1.0142059326171875,-0.0217437744140625,-0.01806640625
1761479777022381000,3.554381103515625,-1.0137176513671875,-0.022613525390625,-0.0179595947265625
1761479777032417000,3.5644169921875,-1.0140533447265625,-0.02276611328125,-0.0174560546875
1761479777042453000,3.574452880859375,-1.0152435302734375,-0.0221099853515625,-0.0172119140625
1761479777052489000,3.584489013671875,-1.014373779296875,-0.0214691162109375,-0.0166015625
1761479777062524200,3.594524169921875,-1.0149078369140625,-0.021820068359375,-0.0167694091796875
1761479777072560000,3.60456005859375,-1.014129638671875,-0.0221099853515625,-0.017303466796875
1761479777082596000,3.61459619140625,-1.012664794921875,-0.0213623046875,-0.017242431640625
1761479777092632000,3.624632080078125,-1.013031005859375,-0.0218353271484375,-0.0180511474609375
1761479777102668000,3.63466796875,-1.0146331787109375,-0.02191162109375,-0.017425537109375
1761479777112704000,3.6447041015625,-1.01397705078125,-0.0223541259765625,-0.0176239013671875
1761479777122739200,3.6547392578125,-1.014007568359375,-0.0218048095703125,-0.0178375244140625
1761479777132775200,3.664775146484375,-1.0150299072265625,-0.022613525390625,-0.0173187255859375
1761479777142811100,3.67481103515625,-1.0145416259765625,-0.0218353271484375,-0.0177764892578125
1761479777152847000,3.68484716796875,-1.0142974853515625,-0.022796630859375,-0.0169219970703125
1761479777162883000,3.694883056640625,-1.0137786865234375,-0.0215606689453125,-0.0169219970703125
1761479777172919000,3.7049189453125,-1.013336181640625,-0.02227783203125,-0.0173187255859375
1761479777182954000,3.7149541015625,-1.014312744140625,-0.021759033203125,-0.01739501953125
1761479777192990000,3.724989990234375,-1.0133819580078125,-0.02178955078125,-0.018341064453125
1761479777203026200,3.735026123046875,-1.013946533203125,-0.02130126953125,-0.016845703125
1761479777213062100,3.745062255859375,-1.013458251953125,-0.0224456787109375,-0.01776123046875
1761479777223098000,3.75509814453125,-1.0133209228515625,-0.0220184326171875,-0.0172119140625
1761479777233133000,3.765133056640625,-1.0132598876953125,-0.021942138671875,-0.0177154541015625
1761479777243169000,3.7751689453125,-1.0131683349609375,-0.0210418701171875,-0.017669677734375
1761479777253205000,3.785205078125,-1.0133514404296875,-0.0224456787109375,-0.0175323486328125
1761479777263241000,3.795240966796875,-1.0133819580078125,-0.022003173828125,-0.0180206298828125
1761479777273277000,3.80527685546875,-1.014312744140625,-0.021942138671875,-0.017333984375
1761479777283313200,3.815313232421875,-1.0134124755859375,-0.021697998046875,-0.0169830322265625
1761479777293348000,3.82534814453125,-1.0146636962890625,-0.022064208984375,-0.017669677734375
1761479777303384000,3.835384033203125,-1.0138702392578125,-0.0216064453125,-0.017547607421875
1761479777313420000,3.845419921875,-1.013397216796875,-0.0218505859375,-0.017333984375
1761479777323457300,3.855457275390625,-1.013702392578125,-0.0225982666015625,-0.017333984375
1761479777333493200,3.8654931640625,-1.0130462646484375,-0.021453857421875,-0.0177154541015625
1761479777343529200,3.875529296875,-1.013946533203125,-0.0223541259765625,-0.017547607421875
1761479777353564200,3.885564208984375,-1.0134124755859375,-0.0219268798828125,-0.017181396484375
1761479777363600100,3.89560009765625,-1.014251708984375,-0.02142333984375,-0.0176849365234375
1761479777373636400,3.90563623046875,-1.014495849609375,-0.023284912109375,-0.017120361328125
1761479777383672300,3.91567236328125,-1.0148773193359375,-0.022796630859375,-0.017669677734375
1761479777393708300,3.925708251953125,-1.0152130126953125,-0.022186279296875,-0.017547607421875
1761479777403744300,3.935744140625,-1.01336669921875,-0.02337646484375,-0.0175933837890625
1761479777413779200,3.945779296875,-1.0130615234375,-0.0228271484375,-0.0171966552734375
1761479777423815200,3.955815185546875,-1.01336669921875,-0.0219879150390625,-0.017730712890625
1761479777433851100,3.96585107421875,-1.014556884765625,-0.0220184326171875,-0.0166778564453125
1761479777443887400,3.975887451171875,-1.0146026611328125,-0.021942138671875,-0.016571044921875
1761479777453923300,3.98592333984375,-1.0138092041015625,-0.022552490234375,-0.01776123046875
1761479777463959300,3.995959228515625,-1.0135040283203125,-0.0222015380859375,-0.0172119140625
1761479777473994200,4.005994140625,-1.014007568359375,-0.0217132568359375,-0.0169677734375
1761479777484029200,4.016029296875,-1.0143280029296875,-0.0215911865234375,-0.0168609619140625
1761479777494065400,4.0260654296875,-1.0135955810546875,-0.022064208984375,-0.0178985595703125
1761479777504100400,4.036100341796875,-1.0142822265625,-0.0220947265625,-0.0175018310546875
1761479777514136300,4.04613623046875,-1.0138397216796875,-0.0216827392578125,-0.0173492431640625
1761479777524172300,4.05617236328125,-1.0141754150390625,-0.022216796875,-0.017242431640625
1761479777534208300,4.066208251953125,-1.013702392578125,-0.022430419921875,-0.018402099609375
1761479777544244200,4.076244140625,-1.013580322265625,-0.022735595703125,-0.01806640625
1761479777554280200,4.0862802734375,-1.01397705078125,-0.0216217041015625,-0.016937255859375
1761479777564315400,4.0963154296875,-1.0139617919921875,-0.022491455078125,-0.017242431640625
1761479777574351400,4.106351318359375,-1.012969970703125,-0.0224456787109375,-0.0180816650390625
1761479777584387300,4.11638720703125,-1.0145416259765625,-0.02288818359375,-0.0171966552734375
1761479777594423300,4.12642333984375,-1.0137176513671875,-0.0213623046875,-0.017486572265625
1761479777604459300,4.136459228515625,-1.0129241943359375,-0.0220947265625,-0.0171661376953125
1761479777614495200,4.1464951171875,-1.0143280029296875,-0.0223236083984375,-0.0172576904296875
1761479777624530400,4.156530517578125,-1.01434326171875,-0.02191162109375,-0.0176849365234375
1761479777634566400,4.16656640625,-1.0135498046875,-0.021942138671875,-0.0177459716796875
1761479777644602400,4.176602294921875,-1.0138702392578125,-0.0226898193359375,-0.01715087890625
1761479777654638300,4.186638427734375,-1.0137786865234375,-0.0224456787109375,-0.016845703125
1761479777664674300,4.19667431640625,-1.01226806640625,-0.02239990234375,-0.0176544189453125
1761479777674710300,4.206710205078125,-1.013519287109375,-0.0216827392578125,-0.0172576904296875
1761479777684745200,4.2167451171875,-1.0131988525390625,-0.02227783203125,-0.0179290771484375
1761479777694781200,4.22678125,-1.0139617919921875,-0.0225982666015625,-0.0177001953125
1761479777704817400,4.2368173828125,-1.0144500732421875,-0.0230255126953125,-0.016815185546875
1761479777714853400,4.246853271484375,-1.014556884765625,-0.0211334228515625,-0.0174560546875
1761479777724889300,4.256889404296875,-1.0142364501953125,-0.021240234375,-0.0174102783203125
1761479777734924300,4.26692431640625,-1.013885498046875,-0.0218048095703125,-0.0179595947265625
1761479777744960300,4.276960205078125,-1.01385498046875,-0.022705078125,-0.0175018310546875
1761479777754996200,4.286996337890625,-1.01409912109375,-0.0222625732421875,-0.0170440673828125
1761479777765032200,4.2970322265625,-1.0135498046875,-0.0221710205078125,-0.01824951171875
1761479777775068200,4.307068115234375,-1.0143585205078125,-0.0218658447265625,-0.01666259765625
1761479777785104400,4.3171044921875,-1.014312744140625,-0.022430419921875,-0.0178375244140625
1761479777795139300,4.327139404296875,-1.0142364501953125,-0.022491455078125,-0.017608642578125
1761479777805175300,4.33717529296875,-1.0140228271484375,-0.0206756591796875,-0.0177459716796875
1761479777815211300,4.347211181640625,-1.01385498046875,-0.0223541259765625,-0.01806640625
1761479777825247200,4.357247314453125,-1.01434326171875,-0.0215911865234375,-0.017791748046875
1761479777835283200,4.367283203125,-1.0139312744140625,-0.0218048095703125,-0.0179901123046875
1761479777845319200,4.377319091796875,-1.01324462890625,-0.02252197265625,-0.0179595947265625
1761479777855354400,4.387354248046875,-1.0133209228515625,-0.0217742919921875,-0.01751708984375
1761479777865390300,4.397390380859375,-1.0131683349609375,-0.0229339599609375,-0.017181396484375
1761479777875426300,4.40742626953125,-1.013641357421875,-0.0227508544921875,-0.017852783203125
1761479777885462300,4.417462158203125,-1.0142669677734375,-0.022796630859375,-0.0172271728515625
1761479777895498200,4.427498291015625,-1.013153076171875,-0.022552490234375,-0.0176544189453125
1761479777905534200,4.4375341796875,-1.0144195556640625,-0.0230712890625,-0.0177154541015625
1761479777915569400,4.4475693359375,-1.012969970703125,-0.0220947265625,-0.0167999267578125
1761479777925605400,4.45760546875,-1.0128173828125,-0.0221099853515625,-0.0182037353515625
1761479777935641300,4.467641357421875,-1.014007568359375,-0.0226287841796875,-0.017486572265625
1761479777945677300,4.47767724609375,-1.0140838623046875,-0.022613525390625,-0.0170135498046875
1761479777955713300,4.48771337890625,-1.0132598876953125,-0.02252197265625,-0.0174407958984375
1761479777965748200,4.497748291015625,-1.0139923095703125,-0.02264404296875,-0.017364501953125
1761479777975784200,4.5077841796875,-1.0139923095703125,-0.0222625732421875,-0.017242431640625
1761479777985820400,4.5178203125,-1.013397216796875,-0.0220794677734375,-0.0173492431640625
1761479777995856400,4.5278564453125,-1.014129638671875,-0.0219573974609375,-0.017242431640625
1761479778005892400,4.537892333984375,-1.013336181640625,-0.0212249755859375,-0.0177001953125
1761479778015928300,4.54792822265625,-1.0128936767578125,-0.0222015380859375,-0.0174560546875
1761479778025963300,4.55796337890625,-1.013824462890625,-0.023040771484375,-0.0173797607421875
1761479778035999200,4.567999267578125,-1.01318359375,-0.02178955078125,-0.0178680419921875
1761479778046035200,4.57803515625,-1.01251220703125,-0.021514892578125,-0.0175018310546875
1761479778056071200,4.5880712890625,-1.0134735107421875,-0.0224456787109375,-0.017425537109375
1761479778066107400,4.598107421875,-1.0135955810546875,-0.0225067138671875,-0.017242431640625
1761479778076143400,4.608143310546875,-1.0127716064453125,-0.02239990234375,-0.0172882080078125
1761479778086179300,4.618179443359375,-1.0146942138671875,-0.0216217041015625,-0.0172882080078125
1761479778096215300,4.62821533203125,-1.0139007568359375,-0.0220184326171875,-0.017364501953125
1761479778106251300,4.638251220703125,-1.01300048828125,-0.021728515625,-0.016998291015625
1761479778116286200,4.6482861328125,-1.0142059326171875,-0.021697998046875,-0.0171661376953125
1761479778126322200,4.658322265625,-1.0143280029296875,-0.0224456787109375,-0.01678466796875
1761479778136358100,4.668358154296875,-1.012908935546875,-0.022613525390625,-0.0178375244140625
1761479778146394400,4.678394287109375,-1.0135040283203125,-0.0218963623046875,-0.017059326171875
1761479778156430300,4.688430419921875,-1.01409912109375,-0.0219573974609375,-0.01702880859375
1761479778166466300,4.69846630859375,-1.0131072998046875,-0.0229034423828125,-0.016845703125
1761479778176501200,4.708501220703125,-1.013427734375,-0.0219268798828125,-0.0170745849609375
1761479778186537200,4.718537109375,-1.0143280029296875,-0.0217437744140625,-0.017547607421875
1761479778196573200,4.7285732421875,-1.0143280029296875,-0.0214996337890625,-0.0177001953125
1761479778206609200,4.738609130859375,-1.0138092041015625,-0.0226898193359375,-0.017364501953125
1761479778216645000,4.74864501953125,-1.0132598876953125,-0.021575927734375,-0.0176544189453125
1761479778226681300,4.758681396484375,-1.0136260986328125,-0.0212249755859375,-0.017547607421875
1761479778236716300,4.76871630859375,-1.013824462890625,-0.022979736328125,-0.0172882080078125
1761479778246752300,4.778752197265625,-1.0135955810546875,-0.02239990234375,-0.0176849365234375
1761479778256788200,4.788788330078125,-1.0141448974609375,-0.021636962890625,-0.0178070068359375
1761479778266824200,4.79882421875,-1.0128326416015625,-0.0210113525390625,-0.0174560546875
1761479778276860200,4.808860107421875,-1.01312255859375,-0.0219879150390625,-0.017486572265625
1761479778286896000,4.818896240234375,-1.0146026611328125,-0.0223388671875,-0.0174407958984375
1761479778296931300,4.828931396484375,-1.0134124755859375,-0.0217132568359375,-0.0166168212890625
1761479778306967300,4.83896728515625,-1.0128021240234375,-0.0214385986328125,-0.0166473388671875
1761479778317003300,4.849003173828125,-1.0133056640625,-0.02105712890625,-0.0168609619140625
1761479778327039200,4.859039306640625,-1.01324462890625,-0.022430419921875,-0.0171356201171875
1761479778337075200,4.8690751953125,-1.0138092041015625,-0.02215576171875,-0.01727294921875
1761479778347111200,4.879111083984375,-1.0134124755859375,-0.0224456787109375,-0.0180511474609375
1761479778357146400,4.889146484375,-1.01373291015625,-0.022369384765625,-0.0172882080078125
1761479778367182300,4.899182373046875,-1.0136566162109375,-0.0217132568359375,-0.0172882080078125
1761479778377218300,4.90921826171875,-1.01318359375,-0.021514892578125,-0.01727294921875
1761479778387254300,4.919254150390625,-1.0138397216796875,-0.0221099853515625,-0.0172119140625
1761479778397290200,4.929290283203125,-1.0132598876953125,-0.0221099853515625,-0.018035888671875
1761479778407326200,4.939326171875,-1.0137939453125,-0.02313232421875,-0.0177001953125
1761479778417361200,4.949361083984375,-1.0147705078125,-0.0218963623046875,-0.0164794921875
1761479778427397400,4.9593974609375,-1.014007568359375,-0.022308349609375,-0.0175933837890625
1761479778437433300,4.969433349609375,-1.012847900390625,-0.0216064453125,-0.0175628662109375
1761479778447469300,4.97946923828125,-1.0133209228515625,-0.022674560546875,-0.0187225341796875
1761479778457505300,4.98950537109375,-1.0141754150390625,-0.02197265625,-0.0175018310546875
1761479778467541200,4.999541259765625,-1.0135345458984375,-0.0220947265625,-0.01690673828125
1761479778477577200,5.0095771484375,-1.0130157470703125,-0.0225067138671875,-0.0166015625
1761479778487612200,5.019612060546875,-1.0137939453125,-0.0220947265625,-0.017364501953125
1761479778497648000,5.029648193359375,-1.014251708984375,-0.0223541259765625,-0.0178070068359375
1761479778507684400,5.039684326171875,-1.0142974853515625,-0.0223236083984375,-0.0180511474609375
1761479778517720300,5.04972021484375,-1.0135345458984375,-0.0219268798828125,-0.0176544189453125
1761479778527756300,5.05975634765625,-1.014404296875,-0.02197265625,-0.0181121826171875
1761479778537792300,5.069792236328125,-1.014190673828125,-0.0223846435546875,-0.0171051025390625
1761479778547827200,5.0798271484375,-1.0138397216796875,-0.02264404296875,-0.017425537109375
1761479778557863200,5.08986328125,-1.01446533203125,-0.022247314453125,-0.017120361328125
1761479778567899100,5.099899169921875,-1.01422119140625,-0.022613525390625,-0.01751708984375
1761479778577935000,5.10993505859375,-1.0150146484375,-0.022918701171875,-0.0172576904296875
1761479778587971300,5.119971435546875,-1.0142364501953125,-0.021759033203125,-0.0176544189453125
1761479778598007300,5.13000732421875,-1.014495849609375,-0.0218963623046875,-0.017547607421875
1761479778608042200,5.140042236328125,-1.013336181640625,-0.0220794677734375,-0.0167999267578125
1761479778618078200,5.150078125,-1.0142822265625,-0.0217742919921875,-0.016571044921875
1761479778628114200,5.1601142578125,-1.0142669677734375,-0.02197265625,-0.01751708984375
1761479778638150100,5.170150146484375,-1.013275146484375,-0.02215576171875,-0.0177764892578125
1761479778648186000,5.18018603515625,-1.014251708984375,-0.0223236083984375,-0.0171356201171875
1761479778658222000,5.19022216796875,-1.0130157470703125,-0.0227203369140625,-0.0177764892578125
1761479778668258300,5.20025830078125,-1.0134124755859375,-0.0220947265625,-0.017913818359375
1761479778678293200,5.210293212890625,-1.014495849609375,-0.021759033203125,-0.01702880859375
1761479778688329200,5.2203291015625,-1.0130462646484375,-0.0223846435546875,-0.017303466796875
1761479778698365200,5.230365234375,-1.013336181640625,-0.0229034423828125,-0.0166778564453125
1761479778708401200,5.240401123046875,-1.0137939453125,-0.0225067138671875,-0.017333984375
1761479778718437000,5.25043701171875,-1.0140380859375,-0.02130126953125,-0.0173187255859375
1761479778728473000,5.26047314453125,-1.013519287109375,-0.0222320556640625,-0.0182647705078125
1761479778738508300,5.27050830078125,-1.013458251953125,-0.0221405029296875,-0.017608642578125
1761479778748544300,5.280544189453125,-1.0145721435546875,-0.02197265625,-0.01751708984375
1761479778758580200,5.290580322265625,-1.012908935546875,-0.0223541259765625,-0.017730712890625
1761479778768616200,5.3006162109375,-1.014862060546875,-0.0223236083984375,-0.0167694091796875
1761479778778652200,5.310652099609375,-1.0138702392578125,-0.0212554931640625,-0.017333984375
1761479778788688100,5.320688232421875,-1.0139007568359375,-0.021453857421875,-0.0178070068359375
1761479778798723300,5.330723388671875,-1.01434326171875,-0.022125244140625,-0.017852783203125
1761479778808759300,5.34075927734375,-1.01409912109375,-0.022247314453125,-0.0177764892578125
1761479778818795300,5.350795166015625,-1.01336669921875,-0.0226898193359375,-0.0180206298828125
1761479778828831200,5.360831298828125,-1.0142364501953125,-0.0225372314453125,-0.017547607421875
1761479778838867200,5.3708671875,-1.0142974853515625,-0.0229949951171875,-0.017822265625
1761479778848903200,5.380903076171875,-1.0134124755859375,-0.022308349609375,-0.017608642578125
1761479778858938000,5.390938232421875,-1.0140380859375,-0.0223388671875,-0.017486572265625
1761479778868974300,5.400974365234375,-1.0131378173828125,-0.0222320556640625,-0.0179595947265625
1761479778879010300,5.41101025390625,-1.0133819580078125,-0.021514892578125,-0.0172882080078125
1761479778889046300,5.42104638671875,-1.01336669921875,-0.022216796875,-0.017425537109375
1761479778899082200,5.431082275390625,-1.0134429931640625,-0.02191162109375,-0.01739501953125
1761479778909118200,5.4411181640625,-1.0128021240234375,-0.0221099853515625,-0.0168914794921875
1761479778919153200,5.451153076171875,-1.0142669677734375,-0.022918701171875,-0.017120361328125
1761479778929189000,5.461189208984375,-1.013824462890625,-0.02239990234375,-0.0171356201171875
1761479778939225000,5.47122509765625,-1.0140533447265625,-0.0215606689453125,-0.017486572265625
1761479778949261300,5.48126123046875,-1.015045166015625,-0.02252197265625,-0.017364501953125
1761479778959297300,5.49129736328125,-1.0141448974609375,-0.0222930908203125,-0.0177001953125
1761479778969333200,5.501333251953125,-1.0151519775390625,-0.022613525390625,-0.016845703125
1761479778979369200,5.511369140625,-1.0137939453125,-0.0221405029296875,-0.0175933837890625
1761479778989404200,5.521404052734375,-1.0141754150390625,-0.02239990234375,-0.0174713134765625
1761479778999440100,5.531440185546875,-1.0142364501953125,-0.0221405029296875,-0.0172271728515625
1761479779009476000,5.54147607421875,-1.0145111083984375,-0.022674560546875,-0.0172576904296875
1761479779019512000,5.551511962890625,-1.013824462890625,-0.0223388671875,-0.017791748046875
1761479779029548300,5.56154833984375,-1.01397705078125,-0.021728515625,-0.0173492431640625
1761479779039584300,5.571584228515625,-1.0135040283203125,-0.0218048095703125,-0.0176544189453125
1761479779049619200,5.581619140625,-1.014404296875,-0.0222625732421875,-0.017364501953125
1761479779059655200,5.5916552734375,-1.014678955078125,-0.02325439453125,-0.0176239013671875
1761479779069691100,5.601691162109375,-1.0144500732421875,-0.0222015380859375,-0.01776123046875
1761479779079727000,5.61172705078125,-1.0133514404296875,-0.022674560546875,-0.017608642578125
1761479779089763000,5.62176318359375,-1.0141754150390625,-0.0219268798828125,-0.0174713134765625
1761479779099799000,5.631799072265625,-1.014312744140625,-0.0226287841796875,-0.0173492431640625
1761479779109834200,5.641834228515625,-1.0138397216796875,-0.0223541259765625,-0.01837158203125
1761479779119870200,5.6518701171875,-1.0140533447265625,-0.0222930908203125,-0.017669677734375
1761479779129906200,5.66190625,-1.0139617919921875,-0.02142333984375,-0.017608642578125
1761479779139942100,5.671942138671875,-1.015228271484375,-0.021514892578125,-0.01739501953125
1761479779149978000,5.68197802734375,-1.0145721435546875,-0.0229339599609375,-0.017730712890625
1761479779160014000,5.69201416015625,-1.01416015625,-0.022796630859375,-0.0170135498046875
1761479779170049300,5.70204931640625,-1.013397216796875,-0.0223541259765625,-0.01806640625
1761479779180085200,5.712085205078125,-1.014068603515625,-0.0222320556640625,-0.017181396484375
1761479779190121200,5.722121337890625,-1.0132598876953125,-0.02239990234375,-0.01708984375
1761479779200157200,5.7321572265625,-1.0127410888671875,-0.0220794677734375,-0.017486572265625
1761479779210193200,5.742193115234375,-1.0137481689453125,-0.0220794677734375,-0.017852783203125
1761479779220229000,5.75222900390625,-1.01385498046875,-0.0215301513671875,-0.0177001953125
1761479779230265000,5.76226513671875,-1.0143585205078125,-0.0211639404296875,-0.017059326171875
1761479779240300300,5.77230029296875,-1.01373291015625,-0.021759033203125,-0.017303466796875
1761479779250336300,5.782336181640625,-1.013916015625,-0.022735595703125,-0.0166778564453125
1761479779260372200,5.792372314453125,-1.0149078369140625,-0.021636962890625,-0.0175018310546875
1761479779270408200,5.802408203125,-1.0136566162109375,-0.0215606689453125,-0.016754150390625
1761479779280444200,5.812444091796875,-1.01434326171875,-0.0224609375,-0.01739501953125
1761479779290480000,5.822480224609375,-1.01409912109375,-0.021484375,-0.0173797607421875
1761479779300515000,5.83251513671875,-1.014312744140625,-0.0226593017578125,-0.0172576904296875
1761479779310551000,5.842551025390625,-1.0143585205078125,-0.0218505859375,-0.017425537109375
1761479779320587300,5.852587158203125,-1.014129638671875,-0.0223541259765625,-0.0186920166015625
1761479779330622700,5.862622802734375,-1.01483154296875,-0.021514892578125,-0.01837158203125
1761479779340658700,5.87265869140625,-1.014251708984375,-0.0222625732421875,-0.0173797607421875
1761479779350694700,5.882694580078125,-1.0145263671875,-0.0226593017578125,-0.0176544189453125
1761479779360729600,5.8927294921875,-1.0138397216796875,-0.0219879150390625,-0.0172882080078125
1761479779370765600,5.902765625,-1.014404296875,-0.0221405029296875,-0.0174102783203125
1761479779380801800,5.9128017578125,-1.013519287109375,-0.0227508544921875,-0.017181396484375
1761479779390837800,5.922837646484375,-1.0136566162109375,-0.0216522216796875,-0.0174102783203125
1761479779400873700,5.932873779296875,-1.0132904052734375,-0.021484375,-0.0173797607421875
1761479779410909700,5.94290966796875,-1.0145721435546875,-0.022247314453125,-0.0174560546875
1761479779420944600,5.952944580078125,-1.013702392578125,-0.0227203369140625,-0.017425537109375
1761479779430980600,5.962980712890625,-1.01397705078125,-0.022918701171875,-0.017486572265625
1761479779441016600,5.9730166015625,-1.013763427734375,-0.022003173828125,-0.017974853515625
1761479779451052500,5.983052490234375,-1.0141143798828125,-0.0220489501953125,-0.0174407958984375
1761479779461088800,5.9930888671875,-1.0149688720703125,-0.021881103515625,-0.01666259765625
1761479779471124700,6.003124755859375,-1.014068603515625,-0.0216217041015625,-0.01739501953125
1761479779481159700,6.01315966796875,-1.0142059326171875,-0.0227203369140625,-0.0174407958984375
1761479779491195600,6.023195556640625,-1.0136260986328125,-0.0224609375,-0.017364501953125
1761479779501231600,6.033231689453125,-1.0147705078125,-0.0219879150390625,-0.0174407958984375
1761479779511267600,6.043267578125,-1.0136566162109375,-0.0221099853515625,-0.017822265625
1761479779521303600,6.053303466796875,-1.01434326171875,-0.0223236083984375,-0.0177459716796875
1761479779531339500,6.063339599609375,-1.01434326171875,-0.0221405029296875,-0.0181732177734375
1761479779541375700,6.073375732421875,-1.0146331787109375,-0.0225677490234375,-0.01788330078125
1761479779551410700,6.08341064453125,-1.0143585205078125,-0.0220184326171875,-0.0171051025390625
1761479779561446700,6.09344677734375,-1.0145721435546875,-0.0223388671875,-0.017822265625
1761479779571482600,6.103482666015625,-1.01446533203125,-0.0218658447265625,-0.0174102783203125
1761479779581518600,6.1135185546875,-1.014556884765625,-0.021728515625,-0.016693115234375
1761479779591554600,6.123554443359375,-1.0146484375,-0.022796630859375,-0.0168609619140625
1761479779601590500,6.133590576171875,-1.013946533203125,-0.021148681640625,-0.017059326171875
1761479779611625700,6.143625732421875,-1.013641357421875,-0.0228118896484375,-0.0174102783203125
1761479779621661700,6.15366162109375,-1.0140380859375,-0.0223541259765625,-0.017578125
1761479779631697700,6.16369775390625,-1.014862060546875,-0.0219879150390625,-0.01678466796875
1761479779641733600,6.173733642578125,-1.0153350830078125,-0.0209197998046875,-0.01812744140625
1761479779651769600,6.18376953125,-1.01458740234375,-0.021728515625,-0.0167694091796875
1761479779661805600,6.1938056640625,-1.0142059326171875,-0.0223388671875,-0.0176849365234375
1761479779671840800,6.2038408203125,-1.01446533203125,-0.0213165283203125,-0.0172576904296875
1761479779681876700,6.213876708984375,-1.0138702392578125,-0.0225677490234375,-0.0177154541015625
1761479779691912700,6.22391259765625,-1.0140228271484375,-0.0222320556640625,-0.017303466796875
1761479779701948700,6.23394873046875,-1.0151214599609375,-0.0230865478515625,-0.01763916015625
1761479779711984600,6.243984619140625,-1.0139617919921875,-0.022918701171875,-0.0180206298828125
1761479779722020600,6.2540205078125,-1.01373291015625,-0.0223846435546875,-0.01788330078125
1761479779732055600,6.2640556640625,-1.0141448974609375,-0.02178955078125,-0.0176849365234375
1761479779742091800,6.274091796875,-1.01470947265625,-0.0220489501953125,-0.0180511474609375
1761479779752127700,6.284127685546875,-1.0145416259765625,-0.0225067138671875,-0.0177154541015625
1761479779762163700,6.294163818359375,-1.013671875,-0.02191162109375,-0.0171051025390625
1761479779772199700,6.30419970703125,-1.0137786865234375,-0.021240234375,-0.0174102783203125
1761479779782235600,6.314235595703125,-1.013397216796875,-0.0211029052734375,-0.018218994140625
1761479779792270600,6.3242705078125,-1.014190673828125,-0.020416259765625,-0.0176544189453125
1761479779802306600,6.334306640625,-1.01446533203125,-0.02203369140625,-0.0178680419921875
1761479779812342500,6.344342529296875,-1.0145416259765625,-0.0223236083984375,-0.0179595947265625
1761479779822378800,6.354378662109375,-1.013702392578125,-0.0225372314453125,-0.0168914794921875
1761479779832414700,6.364414794921875,-1.0141448974609375,-0.0220489501953125,-0.0173187255859375
1761479779842450700,6.37445068359375,-1.0134735107421875,-0.022552490234375,-0.0174102783203125
1761479779852485600,6.384485595703125,-1.014923095703125,-0.0225372314453125,-0.0171356201171875
1761479779862521600,6.394521484375,-1.01458740234375,-0.02178955078125,-0.0170440673828125
1761479779872557600,6.4045576171875,-1.0146026611328125,-0.021881103515625,-0.01788330078125
1761479779882593500,6.414593505859375,-1.014434814453125,-0.0221710205078125,-0.0177154541015625
1761479779892629500,6.42462939453125,-1.012908935546875,-0.0220489501953125,-0.0165557861328125
1761479779902665700,6.434665771484375,-1.013946533203125,-0.022491455078125,-0.0172576904296875
1761479779912701700,6.44470166015625,-1.013824462890625,-0.022369384765625,-0.0175018310546875
1761479779922736600,6.454736572265625,-1.014007568359375,-0.02215576171875,-0.0173187255859375
1761479779932772600,6.464772705078125,-1.01416015625,-0.0224151611328125,-0.0171966552734375
1761479779942808600,6.47480859375,-1.014434814453125,-0.0221099853515625,-0.0170440673828125
1761479779952844500,6.484844482421875,-1.013031005859375,-0.0215606689453125,-0.0174713134765625
1761479779962880500,6.494880615234375,-1.014068603515625,-0.021881103515625,-0.017242431640625
1761479779972916500,6.50491650390625,-1.0153350830078125,-0.0220489501953125,-0.017791748046875
1761479779982951700,6.51495166015625,-1.0129547119140625,-0.0230255126953125,-0.0177764892578125
1761479779992987600,6.524987548828125,-1.01312255859375,-0.0226593017578125,-0.01690673828125
1761479780003023600,6.535023681640625,-1.014068603515625,-0.0222015380859375,-0.0172119140625
1761479780013059600,6.5450595703125,-1.013702392578125,-0.022125244140625,-0.0171966552734375
1761479780023095600,6.555095458984375,-1.0147705078125,-0.021697998046875,-0.017120361328125
1761479780033131500,6.565131591796875,-1.0149688720703125,-0.021392822265625,-0.0174102783203125
1761479780043166700,6.575166748046875,-1.013580322265625,-0.0223541259765625,-0.017578125
1761479780053202700,6.58520263671875,-1.01416015625,-0.02264404296875,-0.0176544189453125
1761479780063238700,6.59523876953125,-1.01361083984375,-0.0221405029296875,-0.0178985595703125
1761479780073274600,6.605274658203125,-1.01373291015625,-0.021942138671875,-0.0179901123046875
1761479780083310600,6.615310546875,-1.0128936767578125,-0.0221099853515625,-0.0179901123046875
1761479780093346600,6.6253466796875,-1.0143585205078125,-0.022613525390625,-0.017120361328125
1761479780103381800,6.6353818359375,-1.013702392578125,-0.0222625732421875,-0.0171661376953125
1761479780113417700,6.645417724609375,-1.0135650634765625,-0.0223541259765625,-0.017669677734375
1761479780123453700,6.65545361328125,-1.014068603515625,-0.02227783203125,-0.0172119140625
1761479780133489700,6.66548974609375,-1.0142822265625,-0.0216522216796875,-0.0167999267578125
1761479780143525600,6.675525634765625,-1.01434326171875,-0.0214691162109375,-0.0175018310546875
1761479780153561600,6.6855615234375,-1.013519287109375,-0.0219573974609375,-0.017364501953125
1761479780163596500,6.695596435546875,-1.014434814453125,-0.021820068359375,-0.01824951171875
1761479780173632500,6.705632568359375,-1.0153656005859375,-0.022003173828125,-0.0178680419921875
1761479780183668700,6.715668701171875,-1.01409912109375,-0.022918701171875,-0.0172576904296875
1761479780193704700,6.72570458984375,-1.0134735107421875,-0.0222930908203125,-0.0174407958984375
1761479780203740700,6.73574072265625,-1.0131988525390625,-0.02227783203125,-0.017486572265625
1761479780213776600,6.745776611328125,-1.015045166015625,-0.0218353271484375,-0.0169219970703125
1761479780223811600,6.7558115234375,-1.01483154296875,-0.0219573974609375,-0.0176544189453125
1761479780233847600,6.76584765625,-1.013427734375,-0.022216796875,-0.0177154541015625
1761479780243883500,6.775883544921875,-1.01385498046875,-0.022796630859375,-0.01727294921875
1761479780253919500,6.78591943359375,-1.0144500732421875,-0.022247314453125,-0.01708984375
1761479780263955700,6.795955810546875,-1.014373779296875,-0.0218353271484375,-0.01739501953125
1761479780273991700,6.80599169921875,-1.013763427734375,-0.0222320556640625,-0.0177764892578125
1761479780284026600,6.816026611328125,-1.014007568359375,-0.02227783203125,-0.01715087890625
1761479780294062600,6.8260625,-1.0130462646484375,-0.02264404296875,-0.0175628662109375
1761479780304098600,6.8360986328125,-1.01397705078125,-0.0226593017578125,-0.0174713134765625
1761479780314134500,6.846134521484375,-1.013885498046875,-0.021209716796875,-0.0173187255859375
1761479780324171300,6.856171142578125,-1.013946533203125,-0.021453857421875,-0.0176544189453125
1761479780334207200,6.866207275390625,-1.0139617919921875,-0.0224456787109375,-0.0171661376953125
1761479780344242400,6.876242431640625,-1.0140533447265625,-0.022247314453125,-0.0175933837890625
1761479780354278400,6.8862783203125,-1.014190673828125,-0.0215911865234375,-0.017059326171875
1761479780364314400,6.896314453125,-1.014007568359375,-0.02239990234375,-0.018096923828125
1761479780374350300,6.906350341796875,-1.0148468017578125,-0.022552490234375,-0.0186004638671875
1761479780384386300,6.91638623046875,-1.0130767822265625,-0.0220947265625,-0.0176239013671875
1761479780394422300,6.92642236328125,-1.013214111328125,-0.022003173828125,-0.01788330078125
1761479780404457200,6.936457275390625,-1.0138702392578125,-0.021728515625,-0.0171051025390625
1761479780414493400,6.946493408203125,-1.014404296875,-0.0219573974609375,-0.0178375244140625
1761479780424529400,6.956529296875,-1.014739990234375,-0.0218505859375,-0.0178985595703125
1761479780434565400,6.9665654296875,-1.01409912109375,-0.0229034423828125,-0.017364501953125
1761479780444601300,6.976601318359375,-1.01470947265625,-0.0218505859375,-0.0172119140625
1761479780454637300,6.98663720703125,-1.01385498046875,-0.02252197265625,-0.0172271728515625
1761479780464672300,6.99667236328125,-1.01361083984375,-0.0219879150390625,-0.0169830322265625
1761479780474708200,7.006708251953125,-1.01324462890625,-0.0230255126953125,-0.0173492431640625
1761479780484744200,7.016744140625,-1.0142822265625,-0.0225982666015625,-0.018341064453125
1761479780494780400,7.026780517578125,-1.01385498046875,-0.021820068359375,-0.01806640625
1761479780504816400,7.03681640625,-1.0143890380859375,-0.022705078125,-0.017608642578125
1761479780514852400,7.046852294921875,-1.0146942138671875,-0.0216522216796875,-0.0177154541015625
1761479780524887300,7.05688720703125,-1.0137786865234375,-0.0214691162109375,-0.016632080078125
1761479780534923300,7.06692333984375,-1.0134429931640625,-0.0220947265625,-0.0173797607421875
1761479780544959200,7.076959228515625,-1.013916015625,-0.022613525390625,-0.0175323486328125
1761479780554995200,7.0869951171875,-1.0143890380859375,-0.0222015380859375,-0.0169830322265625
1761479780565031200,7.09703125,-1.0140228271484375,-0.0206298828125,-0.0172882080078125
1761479780575067400,7.1070673828125,-1.0142974853515625,-0.022552490234375,-0.0173187255859375
1761479780585102300,7.117102294921875,-1.014404296875,-0.021209716796875,-0.0173492431640625
1761479780595138300,7.12713818359375,-1.0134429931640625,-0.02197265625,-0.017822265625
1761479780605174300,7.13717431640625,-1.0137786865234375,-0.022308349609375,-0.017547607421875
1761479780615210200,7.147210205078125,-1.0152740478515625,-0.0227813720703125,-0.017669677734375
1761479780625246200,7.15724609375,-1.0146026611328125,-0.022796630859375,-0.0173187255859375
1761479780635282400,7.167282470703125,-1.013519287109375,-0.0221710205078125,-0.0179443359375
1761479780645317400,7.1773173828125,-1.0137939453125,-0.0218963623046875,-0.0168914794921875
1761479780655353300,7.187353271484375,-1.01416015625,-0.02154541015625,-0.0167999267578125
1761479780665389300,7.197389404296875,-1.0134735107421875,-0.02142333984375,-0.0175628662109375
1761479780675425300,7.20742529296875,-1.0134429931640625,-0.021453857421875,-0.0182037353515625
1761479780685461200,7.217461181640625,-1.0143890380859375,-0.022491455078125,-0.0174102783203125
1761479780695497500,7.22749755859375,-1.014007568359375,-0.0215301513671875,-0.0170135498046875
1761479780705532400,7.237532470703125,-1.0133514404296875,-0.0219268798828125,-0.0173797607421875
1761479780715568400,7.247568359375,-1.0130767822265625,-0.0226593017578125,-0.0171051025390625
1761479780725604400,7.257604248046875,-1.0141143798828125,-0.0218658447265625,-0.0174407958984375
1761479780735640300,7.267640380859375,-1.0143280029296875,-0.0214996337890625,-0.017791748046875
1761479780745676500,7.277676513671875,-1.013702392578125,-0.0226287841796875,-0.017578125
1761479780755712500,7.28771240234375,-1.0140228271484375,-0.021881103515625,-0.0181884765625
1761479780765747200,7.297747314453125,-1.0137786865234375,-0.021636962890625,-0.0178070068359375
1761479780775783400,7.307783447265625,-1.013702392578125,-0.0223388671875,-0.0171661376953125
1761479780785819400,7.3178193359375,-1.0139617919921875,-0.022430419921875,-0.0174713134765625
1761479780795855400,7.32785546875,-1.0137786865234375,-0.02203369140625,-0.0181732177734375
1761479780805891600,7.3378916015625,-1.01361083984375,-0.0219879150390625,-0.018035888671875
1761479780815927600,7.347927490234375,-1.0138397216796875,-0.0218048095703125,-0.017486572265625
1761479780825962200,7.357962158203125,-1.01434326171875,-0.022216796875,-0.0178985595703125
1761479780835998200,7.367998291015625,-1.0139617919921875,-0.02313232421875,-0.017608642578125
1761479780846034200,7.3780341796875,-1.0143890380859375,-0.0215301513671875,-0.0174713134765625
1761479780856070400,7.3880703125,-1.0149078369140625,-0.0216827392578125,-0.0177764892578125
1761479780866106600,7.398106689453125,-1.0134735107421875,-0.0229949951171875,-0.017364501953125
1761479780876142600,7.408142578125,-1.0134429931640625,-0.0222320556640625,-0.0179443359375
1761479780886177300,7.41817724609375,-1.0138397216796875,-0.0216827392578125,-0.0176544189453125
1761479780896213200,7.428213134765625,-1.01397705078125,-0.0222015380859375,-0.0173797607421875
1761479780906249200,7.438249267578125,-1.0138092041015625,-0.02264404296875,-0.0177154541015625
1761479780916285400,7.448285400390625,-1.0142822265625,-0.0219573974609375,-0.017822265625
1761479780926321400,7.4583212890625,-1.01434326171875,-0.0218658447265625,-0.01690673828125
1761479780936357400,7.468357421875,-1.01397705078125,-0.022491455078125,-0.017578125
1761479780946392300,7.478392333984375,-1.0136260986328125,-0.0225982666015625,-0.0176849365234375
1761479780956428300,7.48842822265625,-1.013824462890625,-0.0223541259765625,-0.0181732177734375
1761479780966464500,7.498464599609375,-1.0133056640625,-0.021759033203125,-0.01751708984375
1761479780976500500,7.50850048828125,-1.0144805908203125,-0.0226287841796875,-0.0175628662109375
1761479780986536400,7.518536376953125,-1.0140533447265625,-0.0221099853515625,-0.01776123046875
1761479780996572400,7.528572509765625,-1.0140380859375,-0.0222320556640625,-0.018310546875
1761479781006607400,7.538607421875,-1.013702392578125,-0.0230560302734375,-0.0175018310546875
1761479781016643300,7.548643310546875,-1.0138397216796875,-0.022491455078125,-0.0177001953125
1761479781026679600,7.558679443359375,-1.0136871337890625,-0.0218048095703125,-0.0175933837890625
1761479781036715500,7.568715576171875,-1.0140228271484375,-0.02197265625,-0.017547607421875
1761479781046751500,7.57875146484375,-1.0137481689453125,-0.0219268798828125,-0.0171051025390625
1761479781056787500,7.588787353515625,-1.0147247314453125,-0.0222625732421875,-0.0173797607421875
1761479781066822400,7.598822509765625,-1.0145263671875,-0.022186279296875,-0.0174102783203125
1761479781076858400,7.6088583984375,-1.014556884765625,-0.02142333984375,-0.0177001953125
1761479781086894600,7.61889453125,-1.014373779296875,-0.02264404296875,-0.0172576904296875
1761479781096930600,7.6289306640625,-1.0133514404296875,-0.0218658447265625,-0.017120361328125
1761479781106966500,7.638966552734375,-1.0123291015625,-0.0214385986328125,-0.0170745849609375
1761479781117002500,7.64900244140625,-1.013336181640625,-0.0223236083984375,-0.0171356201171875
1761479781127037200,7.659037109375,-1.0146636962890625,-0.02191162109375,-0.0172271728515625
1761479781137073400,7.669073486328125,-1.0140838623046875,-0.0220794677734375,-0.0177459716796875
1761479781147109600,7.679109619140625,-1.0127105712890625,-0.0224456787109375,-0.016998291015625
1761479781157145600,7.6891455078125,-1.0146636962890625,-0.021881103515625,-0.01678466796875
1761479781167181600,7.699181640625,-1.01409912109375,-0.0227508544921875,-0.0172882080078125
1761479781177216300,7.70921630859375,-1.014404296875,-0.0222625732421875,-0.01788330078125
1761479781187252200,7.719252197265625,-1.01361083984375,-0.022247314453125,-0.0175018310546875
1761479781197288400,7.729288330078125,-1.0132904052734375,-0.0224761962890625,-0.0172576904296875
1761479781207324400,7.739324462890625,-1.014862060546875,-0.0217437744140625,-0.017608642578125
1761479781217360400,7.7493603515625,-1.0139007568359375,-0.0220947265625,-0.0179443359375
1761479781227396600,7.759396728515625,-1.0129852294921875,-0.022613525390625,-0.017730712890625
1761479781237432600,7.7694326171875,-1.0148773193359375,-0.0218658447265625,-0.017608642578125
1761479781247467500,7.779467529296875,-1.0142822265625,-0.0217742919921875,-0.0175018310546875
1761479781257503500,7.78950341796875,-1.013885498046875,-0.0225982666015625,-0.0175018310546875
1761479781267539500,7.79953955078125,-1.0125579833984375,-0.021331787109375,-0.0169830322265625
1761479781277575400,7.809575439453125,-1.0134124755859375,-0.02093505859375,-0.016998291015625
1761479781287611400,7.819611328125,-1.01409912109375,-0.0221099853515625,-0.017333984375
1761479781297646300,7.829646240234375,-1.01336669921875,-0.0221710205078125,-0.017120361328125
1761479781307682600,7.8396826171875,-1.012969970703125,-0.0227508544921875,-0.0171661376953125
1761479781317718500,7.849718505859375,-1.0141448974609375,-0.0226287841796875,-0.0175323486328125
1761479781327754000,7.85975390625,-1.0139007568359375,-0.0222625732421875,-0.017303466796875
1761479781337790000,7.8697900390625,-1.013336181640625,-0.021392822265625,-0.0172119140625
1761479781347826000,7.879825927734375,-1.0144500732421875,-0.021728515625,-0.0165557861328125
1761479781357861000,7.889861083984375,-1.0140533447265625,-0.0226287841796875,-0.017852783203125
1761479781367897000,7.89989697265625,-1.012969970703125,-0.0223541259765625,-0.0174102783203125
1761479781377933000,7.90993310546875,-1.0131683349609375,-0.02154541015625,-0.017547607421875
1761479781387969000,7.919968994140625,-1.0148162841796875,-0.0217742919921875,-0.017913818359375
1761479781398005000,7.9300048828125,-1.0148162841796875,-0.0225982666015625,-0.0177764892578125
1761479781408041000,7.940041015625,-1.013763427734375,-0.021514892578125,-0.0176849365234375
1761479781418076200,7.950076171875,-1.0142822265625,-0.022216796875,-0.0172882080078125
1761479781428112100,7.960112060546875,-1.0141448974609375,-0.023101806640625,-0.017608642578125
1761479781438148000,7.970148193359375,-1.0145111083984375,-0.0228118896484375,-0.0178680419921875
1761479781448184000,7.98018408203125,-1.013824462890625,-0.0222930908203125,-0.01751708984375
1761479781458220000,7.990219970703125,-1.0143280029296875,-0.021575927734375,-0.017547607421875
1761479781468256000,8.000256103515625,-1.0139617919921875,-0.022857666015625,-0.0171661376953125
1761479781478291000,8.010291015625,-1.013519287109375,-0.0232391357421875,-0.0176849365234375
1761479781488327000,8.020326904296875,-1.01336669921875,-0.02142333984375,-0.017181396484375
1761479781498363100,8.030363037109375,-1.0141143798828125,-0.0222625732421875,-0.018402099609375
1761479781508398000,8.040398193359374,-1.014404296875,-0.021697998046875,-0.0175628662109375
1761479781518434000,8.05043408203125,-1.0125885009765625,-0.0220489501953125,-0.01751708984375
1761479781528470000,8.060469970703124,-1.0135650634765625,-0.022186279296875,-0.018035888671875
1761479781538506000,8.070506103515624,-1.0133819580078125,-0.022216796875,-0.017669677734375
1761479781548542000,8.0805419921875,-1.0130157470703125,-0.0228118896484375,-0.0173187255859375
1761479781558578000,8.090577880859374,-1.0136871337890625,-0.0214080810546875,-0.017333984375
1761479781568613000,8.100613037109374,-1.0134429931640625,-0.021636962890625,-0.018218994140625
1761479781578649000,8.110649169921874,-1.0139312744140625,-0.022216796875,-0.0182952880859375
1761479781588685000,8.12068505859375,-1.0137481689453125,-0.0225372314453125,-0.01715087890625
1761479781598721000,8.130720947265624,-1.0142822265625,-0.02178955078125,-0.01800537109375
1761479781608757000,8.140757080078124,-1.013946533203125,-0.0210418701171875,-0.018035888671875
1761479781618793000,8.15079296875,-1.01385498046875,-0.02252197265625,-0.0162506103515625
1761479781628828200,8.160828125,-1.0131072998046875,-0.021575927734375,-0.0172882080078125
1761479781638864100,8.170864013671874,-1.01300048828125,-0.02191162109375,-0.0171966552734375
1761479781648900000,8.180900146484374,-1.01495361328125,-0.022003173828125,-0.0183868408203125
1761479781658936000,8.19093603515625,-1.0131378173828125,-0.0221099853515625,-0.017852783203125
1761479781668972000,8.200971923828124,-1.0138397216796875,-0.022003173828125,-0.01727294921875
1761479781679008000,8.211008056640624,-1.0145721435546875,-0.0228118896484375,-0.016815185546875
1761479781689043000,8.22104296875,-1.01458740234375,-0.0224456787109375,-0.0169830322265625
1761479781699079000,8.231078857421876,-1.0133514404296875,-0.022491455078125,-0.016845703125
1761479781709115100,8.241115234375,-1.01287841796875,-0.022216796875,-0.016876220703125
1761479781719151000,8.251151123046874,-1.0133209228515625,-0.02264404296875,-0.0176544189453125
1761479781729187000,8.26118701171875,-1.0130157470703125,-0.021514892578125,-0.016937255859375
1761479781739222000,8.271221923828126,-1.01348876953125,-0.02191162109375,-0.01678466796875
1761479781749258000,8.281258056640626,-1.0134124755859375,-0.0221099853515625,-0.0172882080078125
1761479781759294000,8.2912939453125,-1.014984130859375,-0.022796630859375,-0.017425537109375
1761479781769330000,8.301329833984376,-1.0143585205078125,-0.021728515625,-0.017669677734375
1761479781779366100,8.3113662109375,-1.013763427734375,-0.021240234375,-0.017791748046875
1761479781789402000,8.321402099609376,-1.0135650634765625,-0.0220947265625,-0.0175323486328125
1761479781799437000,8.33143701171875,-1.01416015625,-0.02197265625,-0.01763916015625
1761479781809473000,8.34147314453125,-1.013519287109375,-0.021392822265625,-0.017822265625
1761479781819509000,8.351509033203126,-1.01385498046875,-0.0213470458984375,-0.017242431640625
1761479781829545000,8.361544921875,-1.0133209228515625,-0.0221710205078125,-0.0173187255859375
1761479781839581000,8.371580810546876,-1.013885498046875,-0.0218048095703125,-0.0172576904296875
1761479781849617000,8.381616943359376,-1.012969970703125,-0.02154541015625,-0.017578125
1761479781859652000,8.391652099609376,-1.033782958984375,-0.018402099609375,-0.018646240234375
1761479781869688000,8.40168798828125,-0.9847259521484375,-0.0289154052734375,-0.011138916015625
1761479781879724000,8.41172412109375,-1.01751708984375,-0.018524169921875,-0.0233612060546875
1761479781889760000,8.421760009765626,-1.01666259765625,-0.0209808349609375,-0.021148681640625
1761479781899796000,8.4317958984375,-1.0132904052734375,-0.0213775634765625,-0.0062255859375
1761479781909832000,8.44183203125,-1.0136260986328125,-0.02801513671875,-0.0181732177734375
1761479781919867100,8.4518671875,-1.0191192626953125,-0.0157318115234375,-0.0230865478515625
