time,seconds_elapsed,z,y,x
1761479773567550500,0.099550537109375,-0.14429799629747866,-0.06844380522156134,0.03153190547497943
1761479773577586400,0.10958642578125,-0.13651274924874304,-0.08026828119112178,0.03716046768017113
1761479773587622400,0.119622314453125,-0.13741057487130165,-0.054959962938725945,0.023684242448210716
1761479773597657300,0.1296572265625,-0.14204934058785437,-0.0729708450587932,0.0036561844199895855
1761479773607693300,0.139693359375,-0.14623568636178969,-0.07341301760203205,0.039218788449466226
1761479773617729500,0.1497294921875,-0.13770400485992432,-0.0864981520240195,0.0401863731062971
1761479773627765500,0.159765625,-0.1451817933946848,-0.06419145413986407,0.008358918750844895
1761479773637801500,0.169801513671875,-0.138898183080554,-0.07994162478633224,0.02210484603596851
1761479773647836400,0.17983642578125,-0.1356084938853979,-0.08175121322525665,0.0485959625984542
1761479773657872400,0.189872314453125,-0.13546119436919687,-0.08930290724644437,0.030107261233031746
1761479773667908400,0.199908447265625,-0.1393517720669508,-0.0704090591462329,0.00928611659836024
1761479773677944300,0.2099443359375,-0.15267244141101835,-0.08013347583031281,0.032014921485260125
1761479773687979500,0.2199794921875,-0.14175064990222452,-0.08204151054187678,0.030428675207123158
1761479773698015500,0.230015380859375,-0.15042729283273218,-0.08520781995253637,0.0154696640715003
1761479773708051500,0.240051513671875,-0.14489011697173118,-0.08125108168339357,0.028518530736863612
1761479773718087400,0.25008740234375,-0.13845336192250252,-0.0724867513362784,0.04627071625497192
1761479773728123400,0.260123291015625,-0.1347165134817362,-0.08076850406453014,0.016898089439421893
1761479773738158600,0.27015869140625,-0.1393605398952961,-0.0736225413000211,0.02150784825719893
1761479773748194600,0.280194580078125,-0.14415128130316734,-0.06857979789245873,0.03984795319847762
1761479773758230500,0.29023046875,-0.13607494235336778,-0.0574821566264145,0.03220790504040196
1761479773768266500,0.3002666015625,-0.13742460339665413,-0.07218382286694831,0.009517148875258863
1761479773778302500,0.310302490234375,-0.14176760103702543,-0.0681797017921228,0.03512366462294012
1761479773788337400,0.32033740234375,-0.1348854403078556,-0.06617536709923297,0.024091380210686474
1761479773798373400,0.330373291015625,-0.13683072915673256,-0.061366204118682065,0.016702146742213517
1761479773808409300,0.340409423828125,-0.13623627039492128,-0.07919656030638143,0.023880842732544986
1761479773818445600,0.350445556640625,-0.13998130214214324,-0.0740681935751345,0.03843695388939231
1761479773828481500,0.3604814453125,-0.13654255986511707,-0.06966156524717808,0.020653167656622826
1761479773838516500,0.3705166015625,-0.1323532914817333,-0.06052135079237632,0.023117548476159572
1761479773848552400,0.380552490234375,-0.13504501478374004,-0.07649079934586771,0.04023799369568005
1761479773858588400,0.39058837890625,-0.13504501478374004,-0.0705460929967463,0.03153298318721354
1761479773868624400,0.400624267578125,-0.13250292908549308,-0.06560496506644413,0.009544767534546554
1761479773878659600,0.41065966796875,-0.14178338312804697,-0.06100754514043219,0.019572423215210438
1761479773888695600,0.420695556640625,-0.14837152934670447,-0.07673357685948722,0.028878906748164443
1761479773898731500,0.4307314453125,-0.13355857561826706,-0.07092655281485058,0.016909432817343622
1761479773908767500,0.440767578125,-0.13550561803281305,-0.06860142520237714,0.014107910731621086
1761479773918803500,0.450803466796875,-0.13714987810850143,-0.06275601450926624,0.03173137356983498
1761479773928838400,0.46083837890625,-0.12637538611590862,-0.06978632413800806,0.040130697396304454
1761479773938874400,0.470874267578125,-0.13505728974342346,-0.07238457873659208,0.01710175878535956
1761479773948910600,0.48091064453125,-0.13490999022722244,-0.06806171970195136,0.024784239579364657
1761479773958946600,0.490946533203125,-0.13057049971818924,-0.0622651531192474,0.03369922131039202
1761479773968982500,0.500982421875,-0.1290776308119297,-0.0671595740973018,0.01719153769435361
1761479773979017500,0.511017578125,-0.13192542145848274,-0.07488696261211297,0.029286647298838942
1761479773989053400,0.521053466796875,-0.1290858141183853,-0.06550260067051276,0.035988391693495214
1761479773999089400,0.53108935546875,-0.12235329099297523,-0.0672003627654165,0.019387148042488842
1761479774009125400,0.54112548828125,-0.13072948967218398,-0.06060874594803899,0.01914356681127101
1761479774019161300,0.551161376953125,-0.13971534468233585,-0.07514817083156668,0.029958610009960827
1761479774029196500,0.561196533203125,-0.12685060241222382,-0.056454128752928226,0.029191826888546345
1761479774039232500,0.571232421875,-0.1335878017127514,-0.06384203791399486,0.019765552900824695
1761479774049268500,0.5812685546875,-0.13418869021534918,-0.06583687412617728,0.019100714050233364
1761479774059304400,0.591304443359375,-0.12566051584482194,-0.07679532611723988,0.028994897810649126
1761479774069339400,0.60133935546875,-0.13403788356781005,-0.0715296972066164,0.02199603363294154
1761479774079375600,0.611375732421875,-0.14137246423959732,-0.06841677108416333,0.020705007441714406
1761479774089411600,0.62141162109375,-0.12925357190072537,-0.05860208230074495,0.023453575497493148
1761479774099447600,0.631447509765625,-0.1316518652141094,-0.07305007517430931,0.023521416569314897
1761479774109483500,0.6414833984375,-0.1403314307540655,-0.06431052307542413,0.021718312670104205
1761479774119518500,0.6515185546875,-0.13659458231329918,-0.06371577205266803,0.022308698044996706
1761479774129554400,0.661554443359375,-0.12552023059129713,-0.07032375548295676,0.026192060550674794
1761479774139590400,0.67159033203125,-0.1321060387223959,-0.06561915798857808,0.01505629749763757
1761479774149626400,0.68162646484375,-0.1418348210543394,-0.0606543569217436,0.020310071573685855
1761479774159662600,0.69166259765625,-0.13211246846318245,-0.06365810531498864,0.021169830208178607
1761479774169697500,0.701697509765625,-0.12881810309290886,-0.06919023967469111,0.02122258330872282
1761479774179733500,0.7117333984375,-0.13689794917404652,-0.0701346809179522,0.02008755139680579
1761479774189769500,0.72176953125,-0.12627426382899284,-0.05537486388254911,0.02036521756071597
1761479774199805400,0.731805419921875,-0.13016601057052613,-0.06114148285156115,0.028201518943253904
1761479774209841400,0.74184130859375,-0.13151450257003305,-0.0600711136736907,0.018915749404765664
1761479774219876600,0.751876708984375,-0.12448328875899314,-0.06727711779605597,0.022228289752546697
1761479774229912600,0.76191259765625,-0.13601006042361258,-0.055787207543104886,0.02134827378131449
1761479774239948500,0.771948486328125,-0.12239479204714297,-0.05268175234105438,0.02195226755645126
1761479774249984500,0.781984619140625,-0.1339180565804243,-0.04583572237119078,0.01478566386271268
1761479774260020500,0.7920205078125,-0.11776070250570773,-0.06161185857597738,0.025096867458801714
1761479774270055400,0.802055419921875,-0.12285013459920882,-0.060482744948193425,0.01721519256457686
1761479774280091600,0.812091552734375,-0.12539748099446296,-0.05606430745143443,0.014536675804015247
1761479774290127600,0.822127685546875,-0.12076280693113803,-0.06127026033038273,0.01895535076279193
1761479774300163600,0.83216357421875,-0.1277963588297367,-0.05401738485898822,0.017163352779485285
1761479774310199600,0.842199462890625,-0.12061901454627513,-0.051586687113344666,0.01487874897364527
1761479774320235800,0.85223583984375,-0.1266109484374523,-0.0656462286585942,0.01882936802925542
1761479774330270700,0.862270751953125,-0.13948036688268184,-0.054986960543505846,0.025161329263448714
1761479774340306700,0.872306640625,-0.12915829483270644,-0.05425762335564941,0.01609000619323924
1761479774350342700,0.8823427734375,-0.12975450716018677,-0.05758638418586924,0.008998970220051705
1761479774360378600,0.892378662109375,-0.1279576868712902,-0.0609794058913365,0.02758543287152424
1761479774370414800,0.902414794921875,-0.12751403475701809,-0.06242047154512256,0.025175357788801193
1761479774380449800,0.91244970703125,-0.13290624918937682,-0.056206583732645955,0.004156315961852669
1761479774390485800,0.92248583984375,-0.13650105881094932,-0.05552725969897583,0.012199556359648703
1761479774400521700,0.932521728515625,-0.12348550989329814,-0.05601581040089949,0.029322230068873613
1761479774410557700,0.9425576171875,-0.12961889808177948,-0.052766873341239987,0.021367088079638778
1761479774420593700,0.95259375,-0.12677987526357173,-0.06049578709285706,0.02231215037740767
1761479774430628900,0.96262890625,-0.1282797584325075,-0.060428256548289205,0.02096859028134495
1761479774440664800,0.972664794921875,-0.113767248955369,-0.05752694561621174,0.014916706363856792
1761479774450700800,0.98270068359375,-0.12155015791654586,-0.05592022280562669,0.01673188429335132
1761479774460736800,0.99273681640625,-0.13053542840480803,-0.054124626359436656,0.020741923652309924
1761479774470772700,1.002772705078125,-0.1276958210647106,-0.05645235692095011,0.02235577032342553
1761479774480807700,1.0128076171875,-0.12874912950992584,-0.054125265680253505,0.017227741518896073
1761479774490843600,1.02284375,-0.12980185343325137,-0.05632177107753232,0.011201777493953704
1761479774500880000,1.0328798828125,-0.13938275172710418,-0.05287842569062486,0.018197043208777904
1761479774510915800,1.042915771484375,-0.12950959248840807,-0.05690245704231783,0.02492752050757408
1761479774520951800,1.052951904296875,-0.12846329830586908,-0.050820890372619026,0.020114183675404636
1761479774530986800,1.06298681640625,-0.1344493869781494,-0.055637843933980906,0.019458660642430185
1761479774541022700,1.073022705078125,-0.13265607382059097,-0.05242105557825416,0.0203968000090681
1761479774551058700,1.08305859375,-0.12727730339169502,-0.05043908798079937,0.013187307021673767
1761479774561094700,1.0930947265625,-0.11681026991307734,-0.048020464265439655,0.013920370536576956
1761479774571131000,1.103130859375,-0.1350683956593275,-0.045761067966092375,0.015418774134479462
1761479774581166800,1.113166748046875,-0.1359662212818861,-0.04772274169418961,0.014099471696838735
1761479774591201800,1.123201904296875,-0.13656944787204264,-0.04811104689203202,0.02327876691985875
1761479774601237800,1.13323779296875,-0.1337310095757246,-0.04971241767406463,0.025887743841856718
1761479774611273700,1.143273681640625,-0.14495266081392763,-0.06308377602575346,0.02412016791375354
1761479774621309700,1.153309814453125,-0.13103987079560755,-0.04997327883364632,0.01718052310999483
1761479774631345700,1.163345703125,-0.13074410271942616,-0.05166804525386542,0.016409082079771906
1761479774641380900,1.173380859375,-0.12640987290740013,-0.040960755012277514,0.026936814503371712
1761479774651416800,1.183416748046875,-0.13194997137784958,-0.047997211254015563,0.02222249933257699
1761479774661452800,1.193452880859375,-0.11683949600756167,-0.05186820746846497,0.01593216701671481
1761479774671488800,1.20348876953125,-0.12731588183641432,-0.049338780322391536,0.020258962440956384
1761479774681524700,1.213524658203125,-0.13121172023117542,-0.04652010617246851,0.024025347503460942
1761479774691559700,1.2235595703125,-0.13121522736251354,-0.050157184033188966,0.01695924504213035
1761479774701596000,1.233595947265625,-0.12972177393436432,-0.0561295912399888,0.021756123929843305
1761479774711632000,1.2436318359375,-0.12807751385867594,-0.05174677304588258,0.026758188267145305
1761479774721667800,1.253667724609375,-0.1310720194995403,-0.04718114563077688,0.02230568410400301
1761479774731703800,1.263703857421875,-0.13511808001995085,-0.04983496634149923,0.022441804639063773
1761479774741739800,1.27373974609375,-0.13886544985473157,-0.046980745954159644,0.02608922123070806
1761479774751774700,1.283774658203125,-0.13093874850869178,-0.05040505784703418,0.026043792920093983
1761479774761810700,1.293810791015625,-0.13782733897864818,-0.036789826003182674,0.021104710816405713
1761479774771846700,1.3038466796875,-0.13827625178992747,-0.04861477689677849,0.017812592202145604
1761479774781883000,1.3138828125,-0.14067045345008372,-0.050407907391246405,0.015444730559643356
1761479774791918800,1.3239189453125,-0.13513620019853115,-0.05388104512821883,0.021016886402480305
1761479774801953800,1.333953857421875,-0.13903379215896128,-0.05345931258480995,0.02007167797423899
1761479774811989800,1.34398974609375,-0.13993629395663737,-0.048284595094341784,0.02117092618672177
1761479774822025700,1.354025634765625,-0.13171207096874712,-0.05006541409650817,0.012943214333802461
1761479774832061700,1.364061767578125,-0.13096622103750705,-0.044452707047574216,0.017807678565010428
1761479774842097700,1.37409765625,-0.13336334530711172,-0.04145374442730099,0.02033429269948974
1761479774852133600,1.384133544921875,-0.13500994347035883,-0.043418833955191076,0.020272735237982124
1761479774862168800,1.3941689453125,-0.13186638474762438,-0.04904372463226318,0.008026983382739127
1761479774872204800,1.404204833984375,-0.1290250238418579,-0.04598581663267687,0.008076777341216802
1761479774882240800,1.41424072265625,-0.1294739366531372,-0.04172728240536525,0.01939759637126699
1761479774892276700,1.42427685546875,-0.14039865077137947,-0.04192287804270163,0.014566468154080211
1761479774902312700,1.434312744140625,-0.12648352266550064,-0.05414455490261316,0.02057096926588565
1761479774912348000,1.444347900390625,-0.13127835572659968,-0.04235483971918001,0.01736030012369156
1761479774922384000,1.4543837890625,-0.1359177059650421,-0.041727209340129044,0.021861484000459314
1761479774932419800,1.464419921875,-0.127687637758255,-0.047345177086070174,0.019553572384268043
1761479774942455800,1.474455810546875,-0.13622048830389977,-0.0428944812875241,0.029372754679713398
1761479774952491800,1.48449169921875,-0.12679448831081389,-0.04243954059425741,0.023597623610682784
1761479774962527700,1.49452783203125,-0.13128536998927592,-0.03555979101788252,0.011296360442228615
1761479774972562700,1.504562744140625,-0.13398001590073108,-0.04531107744257897,0.019325992439780382
1761479774982598700,1.5145986328125,-0.1450543676227331,-0.04782740764506161,0.03670010189311579
1761479774992635000,1.524634765625,-0.13039046697616577,-0.04339011931736022,0.018102350662648675
1761479775002670800,1.5346708984375,-0.13622867161035537,-0.04536790393004193,0.016166450696624816
1761479775012706800,1.544706787109375,-0.12515724249780177,-0.047931653470825404,0.01704741651592776
1761479775022742800,1.55474267578125,-0.13862696492373944,-0.04491066168183461,0.023745891241263598
1761479775032777700,1.56477783203125,-0.12860007642805577,-0.038334826955478636,0.01665688282838091
1761479775042813700,1.574813720703125,-0.1318967798858881,-0.04098970711212605,0.008309490118548273
1761479775052849700,1.584849609375,-0.13593641066551207,-0.042993448149971664,0.018528795913793146
1761479775062886000,1.594885986328125,-0.1414741710484028,-0.03658880527205765,0.02207582087088376
1761479775072921900,1.604921875,-0.13219780865907668,-0.040988044878002255,0.025793160893581805
1761479775082956800,1.614956787109375,-0.13429448867738247,-0.041708869965840126,0.021386505166161803
1761479775092992800,1.62499267578125,-0.13938508981466294,-0.04841742769377306,0.021675916566792873
1761479775103028700,1.63502880859375,-0.13864040892720222,-0.029097773663233965,0.012101283616945147
1761479775113064700,1.645064697265625,-0.136393506783247,-0.04137125377561897,0.010192600451409815
1761479775123100700,1.6551005859375,-0.135944009450078,-0.05029520426439121,0.014166509051062166
1761479775133136600,1.66513671875,-0.13026070311665533,-0.053651839482225475,0.01455059473151341
1761479775143171800,1.675171875,-0.1431330441713333,-0.044818362022191284,0.018185590233001855
1761479775153207800,1.685207763671875,-0.14672434666156767,-0.04619195193033665,0.01551596916494891
1761479775163243800,1.695243896484375,-0.1284673899590969,-0.041001689810864626,0.012217055483721196
1761479775173279700,1.70527978515625,-0.1349023914426565,-0.033678032391890884,0.004754062659293413
1761479775183315700,1.715315673828125,-0.14133622388243675,-0.041787890018802135,0.017958686141949145
1761479775193351700,1.7253515625,-0.1356523330271244,-0.045243053707666694,0.028114370382763442
1761479775203387000,1.735386962890625,-0.12697393653094768,-0.04227050417028367,0.009633121671434491
1761479775213422800,1.7454228515625,-0.14074468773007393,-0.04384586372822523,0.01592285119909793
1761479775223458800,1.755458740234375,-0.14089783246517182,-0.039475594488438216,0.022060659834370017
1761479775233494800,1.765494873046875,-0.13895546622574328,-0.04571386782350018,0.016938750243373213
1761479775243530800,1.77553076171875,-0.13686170881688595,-0.04452942554559559,0.018228790053911505
1761479775253565700,1.785565673828125,-0.1266845981955528,-0.03176856377506628,0.01661103439265862
1761479775263601700,1.7956015625,-0.12533610619604588,-0.04016182318693027,0.011601206874009222
1761479775273638000,1.805637939453125,-0.13820669368505478,-0.037463944138772784,0.018572452392429113
1761479775283673900,1.815673828125,-0.13177169220149515,-0.042517720397002995,0.024783545459620655
1761479775293709800,1.825709716796875,-0.1296750121831894,-0.03693159082774072,0.0159746179189533
1761479775303745800,1.835745849609375,-0.13730945258438587,-0.042700438286457205,0.013241649291105568
1761479775313780700,1.84578076171875,-0.1441962894886732,-0.035734928389079865,0.01740088786240667
1761479775323816200,1.855816162109375,-0.1314782622128725,-0.043482236313913014,0.026405666768737134
1761479775333852400,1.865852294921875,-0.13731529780328272,-0.042136721722781656,0.01792955137901008
1761479775343888400,1.875888427734375,-0.135669868683815,-0.03759009126909077,0.020018504748586564
1761479775353924400,1.88592431640625,-0.13537351608574388,-0.04842555620130151,0.01484769624825567
1761479775363960300,1.895960205078125,-0.13163432955741883,-0.04919038482764736,0.013621862514037637
1761479775373995300,1.905995361328125,-0.1338788936138153,-0.04581950188875198,0.017433913349173963
1761479775384031200,1.91603125,-0.14345862286388872,-0.04250560983410105,0.02773413889352232
1761479775394067200,1.926067138671875,-0.14091303003430367,-0.044564935250394046,0.018507606995292008
1761479775404103200,1.936103271484375,-0.14121347428560257,-0.03940223699128255,0.016093896917067467
1761479775414139400,1.946139404296875,-0.13911913235485554,-0.02851272205058485,0.01826378830205649
1761479775424175400,1.95617529296875,-0.14136252736747265,-0.04247125090677291,0.016455734233092517
1761479775434210300,1.966210205078125,-0.13358137197196482,-0.04341958287386223,0.016210728229768573
1761479775444246300,1.976246337890625,-0.14480477677583695,-0.04146704230029136,0.016239223671890794
1761479775454282200,1.9862822265625,-0.1395703832536936,-0.03549845275208354,0.019552695601433516
1761479775464318200,1.996318115234375,-0.13478431802093982,-0.03767966924868524,0.017990469519700854
1761479775474354200,2.006354248046875,-0.14750526790618895,-0.04101310625402257,0.016628076859004793
1761479775484389400,2.016389404296875,-0.14001988058686254,-0.03824928583018482,0.016670929620042442
1761479775494425300,2.02642529296875,-0.13388415431082248,-0.048408367604482916,0.017842147090192884
1761479775504461300,2.03646142578125,-0.14091712168753145,-0.04865222283033654,0.017783019047789273
1761479775514497300,2.046497314453125,-0.13643150070607662,-0.043601679708808655,0.019048289743252098
1761479775524533200,2.056533203125,-0.13583353481292723,-0.03981874537030235,0.014717585328873246
1761479775534569200,2.0665693359375,-0.14511223528981207,-0.03185525567783042,0.016530205975100395
1761479775544604400,2.0766044921875,-0.1436176128178835,-0.03904332228470594,0.01110467379502952
1761479775554640400,2.086640380859375,-0.13508826940357685,-0.04308943760404363,0.017548625770024955
1761479775564676400,2.09667626953125,-0.14122633376717567,-0.0394829010120593,0.014243446744792162
1761479775574712300,2.10671240234375,-0.1341933663904667,-0.04096804326958954,0.02621324946917593
1761479775584748300,2.116748291015625,-0.14436930796802044,-0.033071682262886315,0.015054050741624086
1761479775594784300,2.1267841796875,-0.1475122821688652,-0.0411928832677193,0.014996986792143433
1761479775604819200,2.136819091796875,-0.13419628899991512,-0.038779903841856866,0.018371906585339454
1761479775614855200,2.146855224609375,-0.13120470596849917,-0.030937464979477226,0.014476122989505529
1761479775624891400,2.156891357421875,-0.1472200212240219,-0.040305670370720324,0.012384740200825035
1761479775634927400,2.16692724609375,-0.1407891113936901,-0.03861844793614,0.020185531878564505
1761479775644963300,2.17696337890625,-0.1434820037394762,-0.03715162678658962,0.015826094560045748
1761479775654999300,2.186999267578125,-0.13510112888514994,-0.0354941784357652,0.008564926184341312
1761479775665034200,2.1970341796875,-0.13749474602341652,-0.042043472215067594,0.01704188182428479
1761479775675070200,2.2070703125,-0.13525018196702002,-0.039473146803025154,0.012546835427358747
1761479775685106200,2.217106201171875,-0.14961480740606783,-0.03393898488301784,0.010254578038025647
1761479775695142100,2.22714208984375,-0.14527473237514496,-0.03627831455077976,0.01466265853755176
1761479775705178400,2.237178466796875,-0.14108780207931995,-0.039338761567324396,0.010854827219806611
1761479775715214300,2.24721435546875,-0.14214052600264548,-0.03632308527426794,0.01635835653953254
1761479775725249300,2.257249267578125,-0.14094576326012612,-0.030406298978533593,0.015363244554959236
1761479775735285200,2.26728515625,-0.14723521879315377,-0.031442309229075906,0.014677070655394345
1761479775745321200,2.2773212890625,-0.1476905613452196,-0.030225170257966963,0.020704934376478194
1761479775755357200,2.287357177734375,-0.1406628546655178,-0.03517353164665401,0.01844268853291869
1761479775765393200,2.29739306640625,-0.13542787662148476,-0.04474146086107939,0.017812628734763712
1761479775775428400,2.307428466796875,-0.13602934964597224,-0.04053443762529641,0.018109036131761968
1761479775785464300,2.31746435546875,-0.14365852935016155,-0.04068462321832776,0.013646503764949738
1761479775795500300,2.327500244140625,-0.14291209489703177,-0.037622459168732164,0.01606635132301599
1761479775805536300,2.337536376953125,-0.13004326097369193,-0.03401077147759497,0.015588285482488572
1761479775815572200,2.347572265625,-0.13528408423662186,-0.03588814618941396,0.015881441476475446
1761479775825608200,2.357608154296875,-0.1318441729158163,-0.029654457697924224,0.011369224749039859
1761479775835643400,2.367643310546875,-0.13528583780229092,-0.037443321475852276,0.020808559147734194
1761479775845679400,2.377679443359375,-0.1382791743993759,-0.034833449504710734,0.018544249211251734
1761479775855715300,2.38771533203125,-0.1321440326452255,-0.032585707110539076,0.01973035372328013
1761479775865751300,2.397751220703125,-0.13559037370681762,-0.04424881850592792,0.016370996825397013
1761479775875787300,2.407787353515625,-0.1387327633857727,-0.03369222531402483,0.020053210735786704
1761479775885823200,2.4178232421875,-0.14711422276198863,-0.0362809631655924,0.01987947987038642
1761479775895858200,2.427858154296875,-0.13903437668085097,-0.03363066785251721,0.01546528015732765
1761479775905894400,2.437894287109375,-0.13918869045972823,-0.033379816630296405,0.0172690964425914
1761479775915930400,2.447930419921875,-0.1349994220763445,-0.03536852449579164,0.01269943217318505
1761479775925966300,2.45796630859375,-0.139935124912858,-0.02796122564766556,0.016084544566832483
1761479775936002300,2.468002197265625,-0.14263035534620283,-0.04377316381819546,0.02121175138745457
1761479775946038300,2.478038330078125,-0.1326028823286295,-0.037858058022893964,0.012825177444703876
1761479775956073200,2.4880732421875,-0.13350070795118807,-0.042472383417934176,0.016394980489183215
1761479775966109200,2.498109130859375,-0.1444265911132097,-0.024315672219544646,0.02035553641691804
1761479775976145200,2.508145263671875,-0.1359007548302412,-0.03065605422221124,0.019555947004444896
1761479775986181400,2.518181396484375,-0.1417389594644308,-0.037686080723162735,0.016545622739940882
1761479775996217300,2.52821728515625,-0.1406926652818918,-0.03465370902363211,0.015349709219951182
1761479776006253300,2.53825341796875,-0.1474246038854122,-0.0340909788406454,0.020848544098250568
1761479776016288300,2.548288330078125,-0.1427881762564182,-0.039617761171795426,0.01929431865988299
1761479776026324200,2.55832421875,-0.1379997729361057,-0.03194360981471837,0.01568102353354916
1761479776036360200,2.568360107421875,-0.1441354992121458,-0.03408261287109926,0.01366197532871738
1761479776046396200,2.578396240234375,-0.147281396022439,-0.0338354514433071,0.014786412781383842
1761479776056432000,2.58843212890625,-0.13785364246368406,-0.036223460824694485,0.014142525387275963
1761479776066468400,2.59846826171875,-0.13950082514882087,-0.03260784587711096,0.013590024337358772
1761479776076503300,2.60850341796875,-0.14189502680897711,-0.0265850053910166,0.021925964071415362
1761479776086539300,2.618539306640625,-0.13561083197295665,-0.03198713842919096,0.01764589386573061
1761479776096575200,2.6285751953125,-0.1348632284760475,-0.03166797121111303,0.00958572059944272
1761479776106611200,2.638611083984375,-0.14279635956287384,-0.03534523495174944,0.016211678077839315
1761479776116647200,2.648647216796875,-0.141900872027874,-0.03458119177669287,0.0176856413542293
1761479776126682400,2.658682373046875,-0.14519640644192694,-0.033321400973945856,0.012253040112555026
1761479776136718300,2.66871826171875,-0.13951134654283523,-0.03144216309860349,0.01716534380717203
1761479776146754300,2.67875439453125,-0.1377174488633871,-0.03491701786862686,0.019417068256717174
1761479776156790300,2.688790283203125,-0.12829086434841155,-0.031113588731363415,0.0162146189535968
1761479776166826200,2.698826171875,-0.14819500373601913,-0.03286386646479368,0.020207049590628592
1761479776176862200,2.7088623046875,-0.14355682254135607,-0.03524712660582736,0.015146807058993727
1761479776186897200,2.718897216796875,-0.14520400522649288,-0.02607785958647728,0.021141864489018915
1761479776196933400,2.728933349609375,-0.13308394384384153,-0.035807409103401,0.017447631347272546
1761479776206969300,2.73896923828125,-0.1380225692898035,-0.031659404312167315,0.006893558906018733
1761479776217005300,2.74900537109375,-0.1378700090765953,-0.03044966319622472,0.014653525383025407
1761479776227041300,2.759041259765625,-0.14924071339666842,-0.036005671621859074,0.009929163742251694
1761479776237077200,2.7690771484375,-0.15178455266058444,-0.03429448378980159,0.01811647051954642
1761479776247112200,2.7791123046875,-0.1341273154169321,-0.03302877470292151,0.016973529295809565
1761479776257148200,2.789148193359375,-0.1386187816172838,-0.03374068583194166,0.012151972624566406
1761479776267184400,2.799184326171875,-0.13039163601994513,-0.032718868503533304,0.017243651474080978
1761479776277220400,2.809220458984375,-0.13832184449732302,-0.030071660196688024,0.015333854063693433
1761479776287256300,2.81925634765625,-0.13697569058537482,-0.031822248457372186,0.01514872502144426
1761479776297292300,2.829292236328125,-0.1347334646165371,-0.03383782606348395,0.014749715766496956
1761479776307327200,2.8393271484375,-0.15224047973453997,-0.03528650876814499,0.017521628165245055
1761479776317363200,2.84936328125,-0.1516425138413906,-0.03543293150151148,0.016354009157977998
1761479776327399000,2.85939892578125,-0.14356675941348074,-0.0348852527571842,0.003923676249757409
1761479776337435000,2.869434814453125,-0.13773323095440865,-0.03204319773167372,0.011084726985543965
1761479776347471000,2.87947119140625,-0.14087328254580497,-0.027892544325627384,0.0036755101749673482
1761479776357507000,2.889507080078125,-0.1452162801861763,-0.03533217454077676,0.01128675236366689
1761479776367542000,2.8995419921875,-0.14790624992251394,-0.029505404616054144,0.015922394541371614
1761479776377578000,2.909577880859375,-0.14536124161481856,-0.03362126070335507,0.02310403140746057
1761479776387614000,2.919614013671875,-0.149698394036293,-0.03293088555270806,0.016750461129657924
1761479776397650000,2.92964990234375,-0.14266425761580467,-0.037030868217442184,0.012277133374195545
1761479776407686000,2.939685791015625,-0.14910042814314364,-0.036029929280281064,0.010741685701534151
1761479776417721000,2.94972119140625,-0.1341360832452774,-0.023378500967286525,0.01886474986989051
1761479776427757000,2.959757080078125,-0.1348848557859659,-0.025049868245609102,0.017571787449903786
1761479776437793000,2.96979296875,-0.14536241065859795,-0.03891538505610078,0.014396043490618467
1761479776447829000,2.9798291015625,-0.1417699391245842,-0.03692587347300723,0.017424634064175187
1761479776457865000,2.989864990234375,-0.13653320751488207,-0.028385424142796545,0.015045830902550369
1761479776467901000,2.99990087890625,-0.13503507791161537,-0.029328184885624796,0.005144979939330369
1761479776477936000,3.00993603515625,-0.1395212834149599,-0.03578368116794154,0.014281513732858001
1761479776487972000,3.01997216796875,-0.1404179399937391,-0.02562920250352472,0.013342369719222187
1761479776498008000,3.030008056640625,-0.13472878844141958,-0.03871474791746586,0.014137757880613206
1761479776508044000,3.0400439453125,-0.1381704533278942,-0.03193394693722948,0.011405318975728005
1761479776518080000,3.050080078125,-0.13876958826482294,-0.027974943645764142,0.013926928141526877
1761479776528116000,3.060115966796875,-0.13308394384384153,-0.022162914632447062,0.013819120385497808
1761479776538151000,3.07015087890625,-0.13622925613224507,-0.031143490679282692,0.020414025138504804
1761479776548187100,3.080187255859375,-0.15029460636377334,-0.0214914451116696,0.010132321631535888
1761479776558223000,3.09022314453125,-0.14475743050277232,-0.030200455941818652,0.01747210820140317
1761479776568259000,3.100259033203125,-0.1431114168614149,-0.03440784450378269,0.0086603676491417
1761479776578295000,3.110294921875,-0.1387760180056095,-0.029651882148347793,0.015345745430886744
1761479776588331000,3.1203310546875,-0.14266834926903246,-0.024064382605906574,0.009548475595284253
1761479776598366000,3.130365966796875,-0.12950257822573183,-0.02402412366075441,0.013946016434486955
1761479776608402000,3.14040185546875,-0.13892740917503832,-0.038770734154712404,0.01707050513057038
1761479776618438000,3.15043798828125,-0.14790098922550676,-0.032171847346331925,0.010499748438131064
1761479776628474000,3.16047412109375,-0.14835107108056544,-0.03058773822635412,0.020374442046787587
1761479776638510000,3.170510009765625,-0.13997311883568764,-0.03974531480791047,0.021683241356723008
1761479776648546000,3.180546142578125,-0.13443945010602473,-0.03309345570327714,0.01878171122893691
1761479776658581000,3.1905810546875,-0.13145078968405724,-0.03238114271545783,0.013648695722036064
1761479776668617000,3.200616943359375,-0.14267477900981904,-0.033330808123108,0.01030610729586333
1761479776678653000,3.21065283203125,-0.14222761976420878,-0.02727994711892679,0.019156499358080326
1761479776688689000,3.22068896484375,-0.14192951360046863,-0.02609974262472242,0.019686295385845005
1761479776698724900,3.230724853515625,-0.1384884332358837,-0.027876762234605848,0.01416822608411312
1761479776708761000,3.240760986328125,-0.13968436502218246,-0.03137561893472448,0.0004018405328504741
1761479776718796000,3.250796142578125,-0.13878595487773418,-0.03627055136943236,0.012149086547736079
1761479776728832000,3.26083203125,-0.13489713074564932,-0.04119151329454034,0.017736147698760033
1761479776738868000,3.270867919921875,-0.14866554385721684,-0.03910042276680469,0.005125197526626288
1761479776748904000,3.280904052734375,-0.14402677814066409,-0.025878665486257522,0.01433510708361864
1761479776758940000,3.29093994140625,-0.1365460669964552,-0.03041267392039299,0.014898914978839457
1761479776768975000,3.30097509765625,-0.1410328570216894,-0.030429935582447797,0.010003909478895366
1761479776779011000,3.311010986328125,-0.14357903437316416,-0.033003037473466244,0.01062043394204229
1761479776789047000,3.321047119140625,-0.1360959851413965,-0.036154578573256727,0.010849986647907643
1761479776799083000,3.3310830078125,-0.14238602519631385,-0.03132030855091288,0.012736019590217619
1761479776809119000,3.341118896484375,-0.14163959074318408,-0.029745332585461436,0.008100340879894792
1761479776819155000,3.351155029296875,-0.1382002639442682,-0.03881842748764902,0.009080237029027194
1761479776829190000,3.36118994140625,-0.13101882800757883,-0.03288100026268512,0.015005663288943469
1761479776839226000,3.37122607421875,-0.13042261568009852,-0.02955147224748507,0.008372417553234845
1761479776849262000,3.381261962890625,-0.13551204777359963,-0.027168997557740656,0.005617803349159658
1761479776859298000,3.391298095703125,-0.14194588021337984,-0.028823231038171797,0.014119674234651028
1761479776869334000,3.401333984375,-0.14404139118790626,-0.0352437108060345,0.016243023064173755
1761479776879370000,3.411369873046875,-0.15077625240087508,-0.028970658418536185,0.013922471162118017
1761479776889405000,3.421405029296875,-0.14374562311172484,-0.023776615173090248,0.02020823690071702
1761479776899441000,3.43144091796875,-0.13910978000462054,-0.03525624149404466,0.007759729014988988
1761479776909477000,3.44147705078125,-0.141207044544816,-0.03335563203711062,0.02155382455708459
1761479776919513000,3.45151318359375,-0.13686404690444468,-0.03081329061053693,0.012079327513463795
1761479776929549000,3.461549072265625,-0.13865560649633407,-0.028882907069846985,0.011280413954425602
1761479776939585000,3.4715849609375,-0.1394037945151329,-0.024584479223564267,0.0033876331442967054
1761479776949620000,3.481619873046875,-0.138506553414464,-0.027700565417483447,0.012510448939725756
1761479776959656000,3.491656005859375,-0.1461351485967636,-0.022831808603648095,0.014541644240077584
1761479776969692000,3.50169189453125,-0.14209785590469837,-0.029946353316586464,0.016401428496278823
1761479776979728000,3.511727783203125,-0.13940496355891227,-0.024214787394646553,0.011005889595672488
1761479776989764000,3.52176416015625,-0.14179741165339946,-0.03377365651978179,0.007449621886201203
1761479776999800000,3.531800048828125,-0.14673486805558203,-0.04343408632325008,0.012753226453345269
1761479777009835000,3.5418349609375,-0.13536533277928828,-0.024028945966344327,0.006209997088648379
1761479777019871000,3.55187109375,-0.1428460439234972,-0.028823632896970954,0.005565945297759026
1761479777029907000,3.561906982421875,-0.13461714476048944,-0.03460059059690684,0.009288966142572462
1761479777039943000,3.57194287109375,-0.1494295139670372,-0.03221879176059737,0.011618742530699819
1761479777049979000,3.581978759765625,-0.14972878917455673,-0.020664054376818237,0.017099311099946498
1761479777060014000,3.59201416015625,-0.14718378086686135,-0.02279458186579868,0.021575981589965522
1761479777070050000,3.602050048828125,-0.1491284851938486,-0.029280308889597654,0.013359649647586047
1761479777080086000,3.6120859375,-0.13401859434545038,-0.022274119921959934,0.012669877285137772
1761479777090122000,3.6221220703125,-0.12773323046565055,-0.02308519884282723,0.00926816081656143
1761479777100158000,3.632157958984375,-0.14359364742040634,-0.024037713794689625,0.008354206043109297
1761479777110194000,3.64219384765625,-0.14554127435684203,-0.028028902322705832,0.010814860535599291
1761479777120229000,3.65222900390625,-0.13821078533828257,-0.025436602540872988,0.005915471121482551
1761479777130265000,3.66226513671875,-0.14539631292819977,-0.029400829996727405,0.013779555560089647
1761479777140301000,3.672301025390625,-0.14928805966973305,-0.027676234693825245,0.011086699746921658
1761479777150337000,3.6823369140625,-0.14614274738132954,-0.03475738859381527,0.013213847968727349
1761479777160373000,3.692373046875,-0.13836626816093922,-0.02527145684072748,0.016984196820296345
1761479777170409000,3.702408935546875,-0.13642039479017257,-0.026361316170357165,0.010852324735466391
1761479777180444000,3.71244384765625,-0.13776830226778983,-0.026924831804633138,0.01716844907971099
1761479777190480000,3.72247998046875,-0.14180734852552412,-0.020655597075726836,0.004401687291357666
1761479777200516000,3.73251611328125,-0.13611995053887366,-0.01826479294905439,0.013163542553596197
1761479777210552000,3.742552001953125,-0.14046411722302435,-0.028312578102294355,0.01194178220629692
1761479777220588000,3.752588134765625,-0.13567512938082218,-0.027491397912520914,0.012436981844715773
1761479777230624000,3.7626240234375,-0.1338783090919256,-0.027162841811589896,0.012802910813968628
1761479777240659000,3.772658935546875,-0.13522738561332226,-0.013327701873052865,0.009562138794455676
1761479777250695000,3.78269482421875,-0.13284019821584223,-0.02639488964639604,0.012521335659921168
1761479777260731000,3.79273095703125,-0.1332861884176731,-0.023967936494108288,0.005594714734517037
1761479777270766800,3.802766845703125,-0.14151450305879115,-0.025342677179723976,0.010456676481384783
1761479777280803000,3.812802978515625,-0.1380745917379856,-0.022035141800623385,0.016091321367491036
1761479777290839000,3.822839111328125,-0.14196750752329826,-0.026760946479812264,0.012237258021533488
1761479777300874000,3.8328740234375,-0.144366385358572,-0.018992906294204293,0.010117745116911828
1761479777310910000,3.842909912109375,-0.13478840967416764,-0.025108868423849344,0.009869761705212294
1761479777320947200,3.852947265625,-0.1395773975163698,-0.02759562547197565,0.01298343674633652
1761479777330983200,3.862983154296875,-0.13119769170582293,-0.025752573154866693,0.009055595778115093
1761479777341019100,3.87301904296875,-0.1406236916989088,-0.022571769427973776,0.008504172440432011
1761479777351055000,3.88305517578125,-0.1397252815544605,-0.02838741517048329,0.013388820943143217
1761479777361090300,3.89309033203125,-0.13748013297617434,-0.018367175611294806,0.00782481187414378
1761479777371126300,3.903126220703125,-0.14960194792449474,-0.030633111738041043,0.011935261133965104
1761479777381162200,3.913162353515625,-0.14481412912607192,-0.03776082645980641,0.010854900285042822
1761479777391198200,3.9231982421875,-0.1525917773902416,-0.024933438791707157,0.010111607637070119
1761479777401234200,3.933234130859375,-0.14570435596406459,-0.03904940496562048,0.005319021331984549
1761479777411269000,3.94326904296875,-0.128049456807971,-0.03468898126641288,0.013037523287441581
1761479777421305000,3.95330517578125,-0.1349327865809202,-0.026328783873934298,0.008278638322558254
1761479777431341000,3.963341064453125,-0.14391045828461646,-0.023976010202709584,0.015171831902395932
1761479777441377300,3.973377197265625,-0.14735446125864982,-0.025024825135897842,0.02052824436901137
1761479777451413200,3.983413330078125,-0.14301847788095473,-0.02676067248517647,0.011664828428439796
1761479777461449200,3.99344921875,-0.13404372878670692,-0.030011764969304203,0.010766089490428567
1761479777471484200,4.003484130859375,-0.13748831628262995,-0.021726075851451605,0.01308518008776009
1761479777481520000,4.01352001953125,-0.142723294326663,-0.02301836241800338,0.020692403688468038
1761479777491556000,4.02355615234375,-0.14017711697518825,-0.02300142954951152,0.009791326174139976
1761479777501591300,4.03359130859375,-0.14077566739022732,-0.027390293891914188,0.005927435553912073
1761479777511627300,4.043627197265625,-0.14182897583544254,-0.01989129817234352,0.01400046830177307
1761479777521663200,4.053663330078125,-0.1382359197795391,-0.023852128094714133,0.01023313339119777
1761479777531699200,4.06369921875,-0.1400304019808769,-0.025526564112957565,0.010048150479421019
1761479777541735200,4.073735107421875,-0.13359656954109667,-0.03104065135931596,-0.001591178181581199
1761479777551771100,4.083771240234375,-0.13853344142138957,-0.022904709443077445,0.012217767869774252
1761479777561806000,4.09380615234375,-0.14302724570930003,-0.026121187271550297,0.018801858967822042
1761479777571842300,4.10384228515625,-0.13285247317552565,-0.027823972601443526,0.004379347595386207
1761479777581878300,4.113878173828125,-0.14003624719977378,-0.03192121531981975,0.01106909102499485
1761479777591914200,4.123914306640625,-0.14527356333136557,-0.022056677778996527,0.011691606837511062
1761479777601950200,4.1339501953125,-0.1306067400753498,-0.021794008254818618,0.01249764425707981
1761479777611986200,4.143986083984375,-0.13839081808030604,-0.027216362097114324,0.013280191203206776
1761479777622021000,4.154021240234375,-0.14602759656906128,-0.026376641603652388,0.010038140542060136
1761479777632057000,4.16405712890625,-0.13944412652552127,-0.020708989497087896,0.009035027914121746
1761479777642093000,4.174093017578125,-0.1382446876078844,-0.030635888217017054,0.013005264985654501
1761479777652129300,4.18412939453125,-0.14123919324874878,-0.02595454373406246,0.018449611464049664
1761479777662165200,4.194165283203125,-0.1291203009098768,-0.03193703394345939,0.012545008796453476
1761479777672201200,4.204201171875,-0.1267249302059412,-0.01823511019684374,0.010437770851515232
1761479777682236200,4.214236083984375,-0.13764555267095566,-0.026991759561002252,0.010219050066918135
1761479777692272000,4.224272216796875,-0.13555179526209832,-0.02771550725828856,0.004143986203242093
1761479777702308000,4.23430810546875,-0.14258593168258665,-0.03482954051457345,0.016832951781339943
1761479777712344000,4.244343994140625,-0.14498188690841196,-0.02327619137028232,0.011820968838222324
1761479777722380300,4.25438037109375,-0.14543138424158095,-0.013137732258904725,0.01276944693578407
1761479777732415200,4.264415283203125,-0.1400438459843397,-0.020566658416949213,0.008653736978955566
1761479777742451200,4.274451171875,-0.1373515381604433,-0.028500282694119958,0.006317055926006287
1761479777752487200,4.284487060546875,-0.14408172319829463,-0.027835096783656626,0.01760943431286141
1761479777762523100,4.294523193359375,-0.13480477628707885,-0.02416661913767457,0.004523651436902583
1761479777772559000,4.30455908203125,-0.13899462919235228,-0.022821013214997944,0.012170713857654482
1761479777782595000,4.314594970703125,-0.1466273160278797,-0.02597553172316402,0.01477176320152357
1761479777792630300,4.32463037109375,-0.1437871241658926,-0.033489286620449275,0.005668474090471863
1761479777802666200,4.334666259765625,-0.14288754497766493,-0.01395536878472194,0.012385799646750092
1761479777812702200,4.3447021484375,-0.13944821817874908,-0.020485556004755198,0.006916903248988092
1761479777822738200,4.35473828125,-0.14588731131553648,-0.02472863693460822,0.007655903314333409
1761479777832774100,4.364774169921875,-0.14274784424602985,-0.019338011671137065,0.009019428486190736
1761479777842810000,4.37481005859375,-0.13466975173056125,-0.027812939750775693,0.00443816511053592
1761479777852845300,4.38484521484375,-0.13361936589479445,-0.023275387652684002,0.010388488349691033
1761479777862881300,4.39488134765625,-0.13018179266154764,-0.031253216397762296,0.013639818295836447
1761479777872917200,4.404917236328125,-0.13691840744018555,-0.02902976819463074,0.011423475686926395
1761479777882953200,4.414953125,-0.14095745369791984,-0.03144926869282499,0.009420465301442891
1761479777892989200,4.4249892578125,-0.13781447949707507,-0.027219357771798968,0.012790471457503736
1761479777903025200,4.435025146484375,-0.1399088214278221,-0.035421113199554384,0.0070317252676934
1761479777913060000,4.44506005859375,-0.13795944092571735,-0.027215576645825055,0.014188739149179308
1761479777923096000,4.455095947265625,-0.13032733861207962,-0.023510274120792745,0.011335633006691931
1761479777933132300,4.46513232421875,-0.13257365623414516,-0.025487200216948985,0.003695785778015852
1761479777943168300,4.475168212890625,-0.1478349382519722,-0.02935752057796344,0.014360789514146745
1761479777953204200,4.485204345703125,-0.13616086707115171,-0.030492187163699416,0.010878902215138077
1761479777963240200,4.495240234375,-0.13556290117800235,-0.03209359447835013,0.012216562293376773
1761479777973275100,4.505275146484375,-0.1428939747184515,-0.02828170803999528,0.012518522648327052
1761479777983311000,4.51531103515625,-0.13526245692670344,-0.02244880063543096,0.01116232226639986
1761479777993347000,4.52534716796875,-0.1413952605932951,-0.026277656474895775,0.012477441719267516
1761479778003383000,4.535383056640625,-0.13600713781416415,-0.014537881380412726,0.009085698655433952
1761479778013419300,4.545419189453125,-0.13421148656904697,-0.022594510982744394,0.011136164911836385
1761479778023455200,4.555455322265625,-0.1334650521159172,-0.029287469282746312,0.011491663818620145
1761479778033490200,4.565490234375,-0.1390074886739254,-0.027734358089230953,0.00605433160290122
1761479778043526100,4.575526123046875,-0.1249427229642868,-0.01566531450776383,0.010217314767558126
1761479778053563100,4.585563232421875,-0.1330243226110935,-0.022679997309111057,0.008899674564041197
1761479778063599400,4.595599365234375,-0.13661620962321758,-0.027933935781940818,0.014769205918256192
1761479778073635300,4.60563525390625,-0.13392273275554178,-0.02400905395578593,0.011290624821186064
1761479778083671300,4.61567138671875,-0.1381137547045946,-0.024227957403473555,0.013530147376284003
1761479778093707300,4.625707275390625,-0.14963760375976562,-0.0217760159404017,0.011300689557474106
1761479778103743200,4.6357431640625,-0.1334779115974903,-0.022700766102503985,0.01752118977382779
1761479778113778400,4.6457783203125,-0.1352723937988281,-0.017445676852203905,0.01326495710145682
1761479778123814400,4.655814453125,-0.1481441503316164,-0.02736890404401347,0.01810675284313038
1761479778133850400,4.665850341796875,-0.13213351125121117,-0.02553233626661822,0.01015698114875704
1761479778143886300,4.67588623046875,-0.13437515269815922,-0.028139888416510075,0.011249598691053688
1761479778153922300,4.68592236328125,-0.13796294805705547,-0.018077179688774047,0.01672255020942539
1761479778163958300,4.695958251953125,-0.13691431578695773,-0.026449469377845525,0.013530202175211161
1761479778173993500,4.705993408203125,-0.13213117316365242,-0.02687279109014198,0.012865363324619829
1761479778184029400,4.716029541015625,-0.14200725501179695,-0.020346311930846423,0.011741711323242634
1761479778194065400,4.7260654296875,-0.1400625506848097,-0.01456807558927685,0.008222140628658234
1761479778204101400,4.736101318359375,-0.14350538461506365,-0.029176282259542493,0.013458360781706868
1761479778214137300,4.746137451171875,-0.13362930276691912,-0.02191076650228351,0.008439875032566487
1761479778224173300,4.75617333984375,-0.13647417080402374,-0.012808993494883179,0.010208784401230513
1761479778234208300,4.766208251953125,-0.1373731654703617,-0.026784601350035516,0.01166073677521199
1761479778244244200,4.776244140625,-0.13871815033853052,-0.031109003887791184,0.010514598947390914
1761479778254280400,4.786280517578125,-0.1400701494693756,-0.021233250833209604,0.004199296587053686
1761479778264316400,4.79631640625,-0.13453531169593333,-0.013707513237185776,0.010223397448472678
1761479778274352400,4.806352294921875,-0.12944587960243226,-0.01897473131669685,0.011521529233921319
1761479778284388400,4.816388427734375,-0.14381167408525944,-0.026872699758596717,0.009544986730255186
1761479778294423300,4.82642333984375,-0.1405231539338827,-0.019765242373570798,0.016412333482783287
1761479778304459300,4.836459228515625,-0.12960136242508888,-0.017197529043722896,0.01708084386149421
1761479778314495200,4.8464951171875,-0.13274316758215426,-0.012636961396224796,0.01878136416906491
1761479778324531200,4.85653125,-0.13648761480748653,-0.019770356940105555,0.014715959627367554
1761479778334567200,4.866567138671875,-0.13648644576370716,-0.026651257293950764,0.014947832154482601
1761479778344603100,4.87660302734375,-0.13618833959996698,-0.02494224315267056,0.006844294670503586
1761479778354638000,4.88663818359375,-0.13693652761876582,-0.025979148452356455,0.007743070141132921
1761479778364674000,4.896674072265625,-0.13768413111567496,-0.021609098408278078,0.014561974642053246
1761479778374710000,4.9067099609375,-0.13483984760046006,-0.015889917043875903,0.009073971685022116
1761479778384746000,4.91674609375,-0.13663491432368755,-0.02145021805213764,0.014896759554371237
1761479778394782000,4.926781982421875,-0.13873100982010364,-0.02342402060944587,0.004961166071332991
1761479778404818200,4.936818115234375,-0.1346896254748106,-0.027771036837808787,0.004300291009806096
1761479778414853000,4.94685302734375,-0.14546353294551373,-0.023962730596028266,0.01888798461500555
1761479778424889000,4.95688916015625,-0.14591127671301363,-0.022589670410845426,0.0161221183645539
1761479778434925000,4.966925048828125,-0.13274433662593363,-0.019538813206553457,0.006100801093131303
1761479778444961000,4.9769609375,-0.13199907121658325,-0.023403525810688733,0.0030723931826651093
1761479778454997000,4.9869970703125,-0.14008125538527966,-0.025801545129436998,0.0024194822318851948
1761479778465033000,4.997032958984375,-0.14172493093907831,-0.017901494328305123,0.014918660858925431
1761479778475069000,5.00706884765625,-0.12781097187697887,-0.025486305167805402,0.01933256831103936
1761479778485104000,5.017104248046875,-0.1388853235989809,-0.023483203450776636,0.01333517279345542
1761479778495140000,5.02714013671875,-0.13888357003331184,-0.023970968701411036,0.0071439352042041715
1761479778505176000,5.037176025390625,-0.14561492411494253,-0.023084650853555648,0.006284907222073525
1761479778515212000,5.0472119140625,-0.13858078769445417,-0.023322386865876614,0.005270907873939723
1761479778525248000,5.057248046875,-0.13888006290197372,-0.02156328650517389,0.004541333224065602
1761479778535284000,5.067283935546875,-0.14651158069372175,-0.02177291066786274,0.009527213611546903
1761479778545319200,5.077319091796875,-0.14052958367466925,-0.027210663008689878,0.011718074719328432
1761479778555355100,5.087355224609375,-0.14217676635980606,-0.026203860586322843,0.01119182235551998
1761479778565391000,5.09739111328125,-0.1426268482148647,-0.02485595310870558,0.010511785935796797
1761479778575427000,5.107427001953125,-0.14996025984287262,-0.029981716890912502,0.011526497669983654
1761479778585463000,5.117463134765625,-0.14397534021437167,-0.02167007134789601,0.01116044083656743
1761479778595499000,5.1274990234375,-0.14532266317009926,-0.01683879700023681,0.0074228434771299355
1761479778605534000,5.137533935546875,-0.13604513173699379,-0.021734661016706375,0.01348820793069899
1761479778615570200,5.147570068359375,-0.13679273523390292,-0.01762231206074357,0.019972272720374166
1761479778625606100,5.157606201171875,-0.14741817414462566,-0.021911844214517622,0.014438969316892324
1761479778635642000,5.16764208984375,-0.133498954385519,-0.021816274885553866,0.00490958201456815
1761479778645678000,5.177677978515625,-0.14217735088169575,-0.01842400209875777,0.011536580672580747
1761479778655714000,5.187714111328125,-0.13574585652947424,-0.029893728080205618,0.010590276265796273
1761479778665750300,5.197750244140625,-0.1300625501960516,-0.02158867667475715,0.007972312319744377
1761479778675785000,5.207784912109375,-0.14458324297964573,-0.021409411117713897,0.008099464097060263
1761479778685821200,5.2178212890625,-0.13440905496776104,-0.017664251506328582,0.014405615036562085
1761479778695857200,5.227857177734375,-0.13171557810008525,-0.030160379659757017,0.015394096350949257
1761479778705893000,5.23789306640625,-0.14024550603628158,-0.02546396547183394,0.014012670196220278
1761479778715929000,5.24792919921875,-0.14024375247061252,-0.017289883502293376,0.01383959691794589
1761479778725965300,5.25796533203125,-0.13859832335114478,-0.019524364556092768,0.004407733439654111
1761479778736000000,5.268,-0.129918173289299,-0.023051132176443934,0.004601356315612793
1761479778746036000,5.278035888671875,-0.14862579636871814,-0.01775395735008642,0.01080614750618115
1761479778756072000,5.288072021484375,-0.13111936577260494,-0.024921401294041422,0.007098324230499565
1761479778766108200,5.298108154296875,-0.14728198054432867,-0.019806524232029915,0.014058171572070568
1761479778776144400,5.308144287109375,-0.14219313297271727,-0.018594390229601413,0.012771237034071237
1761479778786180400,5.318180419921875,-0.13905132781565188,-0.005793105117138475,0.007785228782426565
1761479778796215000,5.328215087890625,-0.1423451086640358,-0.023670597515348342,0.007641619060654193
1761479778806251000,5.3382509765625,-0.1423451086640358,-0.019323654352221636,0.006123031191248446
1761479778816287000,5.348286865234375,-0.13964812466502188,-0.025517394425813106,0.003614866028912365
1761479778826323000,5.358322998046875,-0.13814707245230673,-0.0266207708241418,0.0067186955294571814
1761479778836359200,5.368359130859375,-0.14697802916169167,-0.026226419478002933,0.007928089585527777
1761479778846395100,5.37839501953125,-0.13814999506175518,-0.025088172695692627,0.006523209489975124
1761479778856430000,5.38843017578125,-0.1384451786160469,-0.02068365412643179,0.009989040703326462
1761479778866466000,5.398466064453125,-0.1357522862702608,-0.024722864780947564,0.004919007430039346
1761479778876502000,5.408501953125,-0.13544891940951345,-0.014760913013946265,0.00955965457642451
1761479778886538200,5.418538330078125,-0.1332031863093376,-0.01795276785781607,0.010426920663937926
1761479778896574200,5.42857421875,-0.1367939042776823,-0.02082980286516249,0.00667770593194291
1761479778906610200,5.438610107421875,-0.12886603388786316,-0.01519988895310089,0.014803382182493805
1761479778916645000,5.44864501953125,-0.14053952054679392,-0.02960325723364949,0.014186017469130455
1761479778926681000,5.45868115234375,-0.14099077144563196,-0.02415474603679031,0.010063567244261502
1761479778936717000,5.468717041015625,-0.1377004977285862,-0.017336298193596302,0.00960981386108324
1761479778946753300,5.478753173828125,-0.1502706409662962,-0.019702223607338965,0.008119063846673815
1761479778956789200,5.488789306640625,-0.14413199208080768,-0.024408227607514706,0.009209124105703084
1761479778966825200,5.4988251953125,-0.1525134514570236,-0.023387287061940876,0.010660291028395295
1761479778976861200,5.508861083984375,-0.1436865864008665,-0.021879677244275808,0.01163063389789313
1761479778986896100,5.518896240234375,-0.1409901869237423,-0.022823570498265326,0.004204009294789284
1761479778996932400,5.528932373046875,-0.1459258897602558,-0.020985450084600597,0.012706208973843603
1761479779006968300,5.53896826171875,-0.1439823544770479,-0.0247217688024044,0.00917560542859137
1761479779017004300,5.54900439453125,-0.13814590340852737,-0.026836715129762885,0.004702716064546257
1761479779027040300,5.559040283203125,-0.1447322960615158,-0.014185999202821403,0.006671404055319726
1761479779037076200,5.569076171875,-0.1353074651122093,-0.01766054344559088,0.010410645382571965
1761479779047111000,5.57911083984375,-0.1417430511176586,-0.015446246663294732,0.004652319317869842
1761479779057147400,5.5891474609375,-0.14743044910430908,-0.029106103100161998,0.008344671029783784
1761479779067183400,5.599183349609375,-0.15192249982655048,-0.025092629675101487,0.005989668868854642
1761479779077219300,5.60921923828125,-0.1359101071804762,-0.02311369428494945,0.0054406749502755695
1761479779087255300,5.61925537109375,-0.14069967954456805,-0.02162586687998846,0.006233304898999631
1761479779097291300,5.629291259765625,-0.14369360066354273,-0.02228880603443831,0.010383629511483012
1761479779107326200,5.639326171875,-0.1426455529153347,-0.022036365643329916,0.0002490611239336431
1761479779117362200,5.649362060546875,-0.14099953927397726,-0.020666794323176144,0.002003960233554244
1761479779127398100,5.659398193359375,-0.13950140967071056,-0.0169781506719999,0.003749415661394596
1761479779137434400,5.669434326171875,-0.1459387492418289,-0.012434917751792817,0.00896402677083388
1761479779147470300,5.67947021484375,-0.1505792685240507,-0.02312617017403245,0.005368431697972118
1761479779157506300,5.68950634765625,-0.14145371278226374,-0.02658403727663681,0.013439838744327425
1761479779167541200,5.699541259765625,-0.14145195921659467,-0.02372932369895279,0.005567297004628926
1761479779177577200,5.7095771484375,-0.13591302978992462,-0.01963752434067428,0.005223671198729425
1761479779187613200,5.71961328125,-0.13815467123687267,-0.0184218284079805,0.014356350801046937
1761479779197649200,5.729649169921875,-0.13126958789825438,-0.020657094913069156,0.0081176025419496
1761479779207685000,5.73968505859375,-0.1330640700995922,-0.01699921172633767,0.008733012760244309
1761479779217721300,5.749721435546875,-0.1386018304824829,-0.015464220711402594,0.00426224228804931
1761479779227757300,5.75975732421875,-0.14428981299102306,-0.01059376513082534,0.01399465961549431
1761479779237792300,5.769792236328125,-0.1421925484508276,-0.013167488076351583,0.00790441644899547
1761479779247828200,5.779828125,-0.13875088356435297,-0.02239769150270149,0.015055238051712511
1761479779257864200,5.7898642578125,-0.14713058937489987,-0.020008366947062314,0.008923786091990769
1761479779267900200,5.799900146484375,-0.1421925484508276,-0.012834328865539282,0.011004209095239638
1761479779277936000,5.80993603515625,-0.1385977388292551,-0.01751227581501007,0.014469894178118555
1761479779287972000,5.81997216796875,-0.14488193366527558,-0.018540997808240353,0.004972564248181879
1761479779298007300,5.83000732421875,-0.14159165994822978,-0.018538513590209187,0.009850180221907794
1761479779308043300,5.840043212890625,-0.14518296243846415,-0.019968601192254572,0.010098492427170275
1761479779318079200,5.850079345703125,-0.1430897895514965,-0.019193141574040055,-0.002706372881866991
1761479779328114400,5.860114501953125,-0.14787877739369867,-0.0178432613350451,-0.0019435718158259986
1761479779338150400,5.870150390625,-0.1463829858779907,-0.01353403810011223,0.0065029521532356735
1761479779348186400,5.880186279296875,-0.14533669169545171,-0.02263592070536688,0.005617894680704921
1761479779358221600,5.8902216796875,-0.1408463945388794,-0.02147889615735039,0.008446688365843147
1761479779368257500,5.900257568359375,-0.1453372762173414,-0.016694785419665275,0.011394578386005013
1761479779378293500,5.91029345703125,-0.13980185392200947,-0.024180227537918833,0.008032390210218726
1761479779388329500,5.92032958984375,-0.1387549752175808,-0.018729487851355225,0.009946535002160816
1761479779398365400,5.930365478515625,-0.13202128304839134,-0.012498173980042337,0.007750668925698846
1761479779408401700,5.940401611328125,-0.14534019882678983,-0.016412972803600132,0.009340751128736884
1761479779418436600,5.9504365234375,-0.14025076673328876,-0.027165691355802116,0.008930526360031216
1761479779428472600,5.96047265625,-0.13741057487130165,-0.02518282870920375,0.01007529421467334
1761479779438508500,5.970508544921875,-0.1435468856692314,-0.02322668967274949,0.0011499554864130913
1761479779448544500,5.98054443359375,-0.1354693776756525,-0.015272497531585395,0.007550086585991084
1761479779458580500,5.99058056640625,-0.15013620093166827,-0.017855390164256094,0.01355086137074977
1761479779468616700,6.00061669921875,-0.14369827683866024,-0.012095036539249121,0.012380538949742913
1761479779478651600,6.010651611328125,-0.14384674539864062,-0.023133440165035424,0.005264642529934645
1761479779488687600,6.0206875,-0.13845453096628188,-0.024582232467550782,0.009882511588931083
1761479779498723600,6.0307236328125,-0.14593173497915268,-0.018031422584597022,0.008916844894550741
1761479779508759600,6.040759521484375,-0.14293722933828829,-0.02044716022312641,0.004506809899955988
1761479779518795500,6.05079541015625,-0.14008943869173526,-0.017425949238426983,0.00617551029715687
1761479779528831700,6.060831787109375,-0.14472528179883956,-0.0221321176353842,-0.00005790419969707727
1761479779538867700,6.07086767578125,-0.1457733295470476,-0.02026245130598545,-0.0012825871564447879
1761479779548902400,6.08090234375,-0.1456254455089569,-0.020576741419546307,0.008554715317580848
1761479779558938600,6.090938720703125,-0.1484703135460615,-0.018746877377573398,0.008186977983731776
1761479779568974600,6.100974609375,-0.14607669640779494,-0.021657230132631957,0.004826543373614549
1761479779579010800,6.1110107421875,-0.14517887078523636,-0.013118753563798963,0.015003142538294195
1761479779589046800,6.121046875,-0.14832126046419142,-0.02406416341019794,0.014727650065161286
1761479779599082800,6.131082763671875,-0.1409890178799629,-0.018169552413653582,0.01048926357673481
1761479779609117400,6.141117431640625,-0.14009119225740432,-0.018330880455207078,0.008984466770663857
1761479779619153400,6.1511533203125,-0.13948679662346838,-0.024467794041335582,0.006307265184354037
1761479779629189400,6.161189453125,-0.14412497781813144,-0.020495657273661344,0.013068959605321288
1761479779639225600,6.1712255859375,-0.1554945130944252,-0.008629333190061152,0.007169672433659434
1761479779649261800,6.18126171875,-0.1502566124409437,-0.013141915243677794,0.008075754427909851
1761479779659297800,6.1912978515625,-0.14187515306472778,-0.01934243211792782,0.008938362606614828
1761479779669332500,6.20133251953125,-0.14771101961135863,-0.014350121989659964,0.006178871298022568
1761479779679368400,6.211368408203125,-0.13858721743524074,-0.020157036436442285,0.005613729962240905
1761479779689404700,6.22140478515625,-0.14052958367466925,-0.021371325863339004,0.008178319753240794
1761479779699440600,6.231440673828125,-0.14920856469273566,-0.02500853158822283,0.0072953446399420495
1761479779709476600,6.2414765625,-0.14397007951736449,-0.02905939614791423,0.000957465121615678
1761479779719512600,6.2515126953125,-0.13812895227372646,-0.022904983437713234,0.002630403302516788
1761479779729547500,6.261547607421875,-0.14052432297766207,-0.016138357113301752,0.004897197457030415
1761479779739583500,6.27158349609375,-0.14606032979488373,-0.016353917826432734,0.0017806180727668105
1761479779749619700,6.28161962890625,-0.14755670583248137,-0.02181057579712942,0.004983798028249293
1761479779759655700,6.29165576171875,-0.1384317346125841,-0.022816410105116664,0.007932181238755583
1761479779769691600,6.301691650390625,-0.13947919783890247,-0.008956099192705005,0.01009399891514331
1761479779779727600,6.3117275390625,-0.1355874510973692,-0.014833832119684665,0.0007980550425127148
1761479779789762600,6.321762451171875,-0.1382803434431553,-0.0011473616705276071,0.0014416136430576443
1761479779799798800,6.331798828125,-0.14725976871252058,-0.015636106679588556,0.005064224587008357
1761479779809834800,6.341834716796875,-0.14411620998978614,-0.01922894353978336,0.003077946140617132
1761479779819870700,6.35187060546875,-0.1456114169836044,-0.023679347077384588,0.006713818424940109
1761479779829906700,6.36190673828125,-0.13782733897864818,-0.022336207106430084,0.011488101888354868
1761479779839942700,6.371942626953125,-0.13857552699744702,-0.020094182066991925,0.005779679379984736
1761479779849977600,6.3819775390625,-0.14246318208575248,-0.026086426485422996,0.00651635962408036
1761479779860013800,6.392013916015625,-0.15159107591509818,-0.01841985564660281,0.014869944612681865
1761479779870049800,6.4020498046875,-0.1459042624503374,-0.017970833237469196,0.004813282033242285
1761479779880085800,6.412085693359375,-0.14530162038207053,-0.017050357391685245,-0.0005078216579742729
1761479779890121700,6.422121826171875,-0.1355740070939064,-0.017357998568750917,0.01544023704761639
1761479779900157700,6.43215771484375,-0.1337789403706789,-0.02319868742097169,0.009200922532938421
1761479779910193700,6.442193603515625,-0.14245909043252467,-0.02107619710797444,0.004429232885409146
1761479779920228600,6.452228515625,-0.1405143861055374,-0.018926362130325287,0.007568791286461055
1761479779930264800,6.462264892578125,-0.14006313520669936,-0.022295034845825283,0.00919005407905206
1761479779940300800,6.47230078125,-0.1464963831245899,-0.02076694849571213,0.007727452446892857
1761479779950336800,6.482336669921875,-0.13632102606892585,-0.014877780859265475,0.0064790232883766286
1761479779960372700,6.492372802734375,-0.1355740070939064,-0.016923370011150837,0.008727825128473341
1761479779970408700,6.50240869140625,-0.15053893651366232,-0.01572195833213627,0.005614551946148276
1761479779980443600,6.512443603515625,-0.13976795165240763,-0.025884401107300073,-0.0011213869790546594
1761479779990479600,6.522479736328125,-0.13079086447060106,-0.026755229125078765,0.00983834365364164
1761479780000515600,6.532515625,-0.13827391370236872,-0.019918368842359632,0.007843845368176698
1761479780010551800,6.5425517578125,-0.1396253283113241,-0.01848906669160351,0.00817269373005256
1761479780020587800,6.552587890625,-0.1430634860664606,-0.016593772730603813,0.009088237672392278
1761479780030623700,6.562623779296875,-0.15174129804074762,-0.011213467931747436,0.010053374643810092
1761479780040658700,6.57265869140625,-0.13917115480303763,-0.015189349292777477,0.0030693609753623605
1761479780050694700,6.582694580078125,-0.14396248073279858,-0.025460330476332456,0.0042030594467185435
1761479780060730600,6.592730712890625,-0.1354337218403816,-0.01993024194324389,0.004836662908829749
1761479780070766600,6.6027666015625,-0.1400707339912653,-0.017942337795346975,0.0018719313517212867
1761479780080802600,6.612802490234375,-0.13183774317502975,-0.02013392955549061,-0.0032971053166314956
1761479780090838800,6.6228388671875,-0.13827216013669966,-0.0188727870458737,0.005304116023797541
1761479780100873700,6.632873779296875,-0.1439572200357914,-0.023779501249920575,0.009557133825775235
1761479780110909700,6.64290966796875,-0.13333178112506866,-0.018996029833052305,0.005454283350519835
1761479780120945700,6.652945556640625,-0.1405138015836477,-0.021324253584910184,0.002793137849867344
1761479780130981600,6.662981689453125,-0.14171031789183616,-0.012373780415393412,0.012813560072146355
1761479780141017600,6.673017578125,-0.14649521408081054,-0.01422371913101524,0.005357727640867233
1761479780151053600,6.683053466796875,-0.13796820875406265,-0.015616433864738792,0.007626604154612869
1761479780161088800,6.6930888671875,-0.1411105984330177,-0.015144487237744033,0.0004116678071208298
1761479780171124700,6.703124755859375,-0.15173720638751984,-0.012334197323676199,-0.003050327481329441
1761479780181160700,6.71316064453125,-0.14485095400512218,-0.026478987733274697,0.004967358350101858
1761479780191196700,6.72319677734375,-0.1427536894649267,-0.0214381074892357,0.0050436749893240625
1761479780201232600,6.733232666015625,-0.12853870162963865,-0.022497169821802526,0.004486442965362221
1761479780211268600,6.7432685546875,-0.14634323838949204,-0.01738461258104071,0.008680716317426413
1761479780221303800,6.7533037109375,-0.15128361740112303,-0.016114483047369867,0.005157181833777577
1761479780231339800,6.76333984375,-0.13931670075356958,-0.017925605856254696,0.0034362580589950083
1761479780241375700,6.773375732421875,-0.13722703499794006,-0.02196651527751237,0.004585702088754624
1761479780251411700,6.78341162109375,-0.1423135444819927,-0.02515698188189417,0.006525657175388186
1761479780261447700,6.79344775390625,-0.14620236861407757,-0.013135576834436506,0.008629497586842626
1761479780271483600,6.803483642578125,-0.14261223516762256,-0.019330394620262085,0.002140847953595221
1761479780281518600,6.8135185546875,-0.1409638834387064,-0.01937039783708751,0.007589304351527244
1761479780291554800,6.823554931640625,-0.1352776544958353,-0.01984855500916019,0.002565484840143472
1761479780301590800,6.8335908203125,-0.1364759243696928,-0.026720979795604942,0.006477635048888623
1761479780311626800,6.843626708984375,-0.14231588256955147,-0.009271503551118075,0.006902472864836454
1761479780321663500,6.85366357421875,-0.13857494247555732,-0.014611165812332183,0.004185560322646051
1761479780331699500,6.863699462890625,-0.14097089770138263,-0.01258952379161492,0.005986198270134627
1761479780341734400,6.873734375,-0.1382797589212656,-0.02438588791154325,0.003838427385408431
1761479780351770400,6.883770263671875,-0.1417214238077402,-0.013778459581546484,0.009682824298366904
1761479780361806300,6.893806396484375,-0.1432154617577791,-0.020039036079961804,0.00534231087602675
1761479780371842300,6.90384228515625,-0.14336743744909763,-0.02199175931662321,-0.006498623037990182
1761479780381878300,6.913878173828125,-0.14351999766230583,-0.01962557817455381,-0.0009556932896375655
1761479780391914200,6.923914306640625,-0.1257096156835556,-0.01648696962157264,0.0030536519495770334
1761479780401949400,6.933949462890625,-0.1403711782425642,-0.016169373306073247,0.003323792394157499
1761479780411985400,6.9439853515625,-0.13827742083370684,-0.015175430365279316,0.006250219501182436
1761479780422021400,6.954021484375,-0.1501011296182871,-0.013864786158129572,0.001329257576074451
1761479780432057300,6.964057373046875,-0.14082476722896098,-0.02194755484871566,0.00453632825538516
1761479780442093300,6.97409326171875,-0.1480085412532091,-0.018636311408877372,0.004893562461528927
1761479780452129300,6.98412939453125,-0.14112754956781864,-0.01696530945673585,0.007512202261015772
1761479780462164500,6.99416455078125,-0.13753215542435646,-0.01798767477441579,0.005940569030120969
1761479780472200400,7.004200439453125,-0.13394202197790145,-0.020898009263165294,0.010544336498528718
1761479780482236400,7.014236328125,-0.14262392560541629,-0.023957853491511194,-0.0016356201115064323
1761479780492272400,7.0242724609375,-0.14352467383742332,-0.016750680325366557,-0.0025633294156752525
1761479780502308400,7.034308349609375,-0.14083119696974752,-0.016993019447568803,0.0006439969919621944
1761479780512344300,7.04434423828125,-0.1478653333902359,-0.021573442573007195,0.002885364444274455
1761479780522379500,7.054379638671875,-0.14218728775382042,-0.00942241979651153,0.00854163664029911
1761479780532415500,7.06441552734375,-0.13889701403677462,-0.012300806510727852,0.011958477612771093
1761479780542451500,7.074451416015625,-0.1348591368228197,-0.020982929333951322,0.0022052366930060087
1761479780552487400,7.0844873046875,-0.14682897607982157,-0.020403978668525814,0.010222538931947201
1761479780562523400,7.0945234375,-0.1409890178799629,-0.008052647546958178,0.006480429794173687
1761479780572559400,7.104559326171875,-0.14158406116366384,-0.016473269889783114,0.004712360675726086
1761479780582594300,7.11459423828125,-0.14502104987502099,-0.014859496283903716,0.007328351860400289
1761479780592630300,7.12463037109375,-0.1400871006041765,-0.00980033146450296,0.000978507909644395
1761479780602666500,7.13466650390625,-0.13500117564201355,-0.019595292634144425,0.0038169279396533962
1761479780612702500,7.144702392578125,-0.14891805731356142,-0.019078794479370116,0.0013851707480847834
1761479780622738400,7.154738525390625,-0.15056582452058792,-0.02384717792496085,0.009673599812295288
1761479780632774400,7.1647744140625,-0.1384451786160469,-0.01877212141668424,0.00012954466380178927
1761479780642809300,7.174809326171875,-0.13799918841421605,-0.018650650461483745,0.005238192914426326
1761479780652845300,7.18484521484375,-0.1411374864399433,-0.009447481172531842,0.012114252696372568
1761479780662881300,7.19488134765625,-0.13903905285596846,-0.01365145393470302,0.004759597350936382
1761479780672917200,7.204917236328125,-0.13245499829053878,-0.005822331211622804,0.002769044588226825
1761479780682953500,7.214953369140625,-0.14069091171622275,-0.019909363551996646,-0.0008013064455240965
1761479780692989400,7.224989501953125,-0.14667641586661337,-0.011238017851114272,0.008776523108407855
1761479780703024400,7.2350244140625,-0.13410744167268276,-0.011074187325220555,0.0056599619904533025
1761479780713060400,7.245060302734375,-0.13111468959748745,-0.019859679191373287,0.00682332494771108
1761479780723096300,7.255096435546875,-0.1367979959309101,-0.021219916427601127,0.00489453057590872
1761479780733132300,7.26513232421875,-0.14442951372265814,-0.009350834131333977,0.003930617447197437
1761479780743168300,7.275168212890625,-0.14143734616935252,-0.017198515424411743,0.004324037211574614
1761479780753204200,7.285204345703125,-0.1396434484899044,-0.019948563051223753,-0.0010599756480194629
1761479780763239400,7.295239501953125,-0.14068857362866402,-0.00681846610950306,0.0006475406559184193
1761479780773275400,7.305275390625,-0.13619827647209168,-0.014127419149689376,-0.00004455152777954936
1761479780783311400,7.315311279296875,-0.14098726431429384,-0.022872889532707632,0.008587247614003717
1761479780793347300,7.325347412109375,-0.13873919312655925,-0.017376885932311414,-0.0017244857050478458
1761479780803383300,7.33538330078125,-0.1370937640070915,-0.013451529182121157,-0.0031010712878778574
1761479780813419300,7.345419189453125,-0.1361971074283123,-0.011544234256073831,0.005827226582448929
1761479780823454500,7.355454345703125,-0.14547463886141776,-0.015909900385979562,-0.002117193083371967
1761479780833490400,7.365490478515625,-0.13919161306917666,-0.025067239505518226,0.002634641086217016
1761479780843526400,7.3755263671875,-0.14472177466750144,-0.017942995382472873,0.0008703165611252188
1761479780853562400,7.385562255859375,-0.1507066942960024,-0.007488382994011044,0.0013203436172567306
1761479780863598300,7.395598388671875,-0.1375380006432533,-0.02176297379573807,0.003455145422555506
1761479780873634300,7.40563427734375,-0.13694061927199364,-0.021987758994940668,-0.000012147095520049333
1761479780883669500,7.41566943359375,-0.135748194617033,-0.013629680494312197,-0.000031710312515497204
1761479780893705500,7.42570556640625,-0.14293021507561207,-0.014860446131974459,0.004737513383291661
1761479780903741400,7.435741455078125,-0.1393377435415983,-0.02164948521759361,0.00341000937288627
1761479780913777400,7.44577734375,-0.1423310801386833,-0.016871767688076942,-0.001184990267176181
1761479780923813400,7.4558134765625,-0.14607143571078776,-0.012513590744882822,0.006689816494844854
1761479780933849300,7.465849365234375,-0.139935124912858,-0.02033414656901732,0.006394194549135863
1761479780943884300,7.47588427734375,-0.1384364107877016,-0.020983477323222904,-0.0010118987225927413
1761479780953920300,7.485920166015625,-0.13963292709589004,-0.019115692423656582,0.0015421148754656314
1761479780963956500,7.49595654296875,-0.13454407952427863,-0.014019994986150412,-0.0019557554439641536
1761479780973992400,7.505992431640625,-0.14232406587600707,-0.016768489976692943,0.0041885559973306955
1761479780984028400,7.5160283203125,-0.14456804541051388,-0.018713285635225473,0.0023433665220625698
1761479780994064400,7.526064453125,-0.14083002792596816,-0.015791991361044345,-0.0035713922133669253
1761479781004099300,7.536099365234375,-0.13888357003331184,-0.0223265442289412,-0.0010089213142171502
1761479781014135300,7.54613525390625,-0.13978081113398075,-0.02494702892564237,0.004114321717340499
1761479781024171300,7.556171142578125,-0.13978548730909823,-0.013686799242720007,-0.0007513480902649462
1761479781034207200,7.566207275390625,-0.13963760327100752,-0.016903185739647598,0.0028321546860039233
1761479781044243500,7.576243408203125,-0.14142624025344847,-0.012964458051230757,0.006035206777323037
1761479781054279400,7.586279541015625,-0.1436731423974037,-0.017932273059058933,0.005879760487284511
1761479781064314400,7.596314453125,-0.14846329928338528,-0.02143021644372493,0.004063413514010608
1761479781074350300,7.606350341796875,-0.14487375035881994,-0.008835724216047674,0.002194934494700283
1761479781084386300,7.61638623046875,-0.14532558577954768,-0.015954543245304376,0.004257913172803819
1761479781094422300,7.62642236328125,-0.13814765697419643,-0.02155411681802943,0.0055889608471654355
1761479781104458200,7.636458251953125,-0.12782383135855196,-0.004024104416929185,0.006384805666282772
1761479781114494200,7.646494140625,-0.13186638474762438,-0.016394834358710794,0.005419979222118854
1761479781124529400,7.656529296875,-0.1415957516014576,-0.014558558842260389,0.007776515753008425
1761479781134565400,7.6665654296875,-0.14772855526804923,-0.014671682094223797,0.001487443812470883
1761479781144601300,7.676601318359375,-0.13067045296132565,-0.02001896140631288,0.0055013008300215
1761479781154637300,7.68663720703125,-0.1405453657656908,-0.0129927525639534,0.009324238385353237
1761479781164673300,7.69667333984375,-0.14593348854482174,-0.01778426115680486,0.006720503894053399
1761479781174708500,7.70670849609375,-0.14638649300932882,-0.01984175994219258,0.0027025917558930815
1761479781184744400,7.716744384765625,-0.1393523565888405,-0.016935517106670885,0.001083484387770295
1761479781194780400,7.726780517578125,-0.1320224520921707,-0.01942201842647046,0.0053626230116933585
1761479781204816400,7.73681640625,-0.14623802444934844,-0.014680796982441097,0.004512819515634328
1761479781214852400,7.746852294921875,-0.14878303275704383,-0.01376560009997338,0.0009788732358254491
1761479781224888300,7.756888427734375,-0.12978081064522265,-0.01904850893896073,0.0007960092158988118
1761479781234924300,7.76692431640625,-0.1471329274624586,-0.01736963420761749,0.003924315570574254
1761479781244959200,7.776959228515625,-0.14384031565785407,-0.008877992455195636,0.0033319026353769003
1761479781254995500,7.786995361328125,-0.14114566974639892,-0.018892770387977362,0.0041493016991764305
1761479781265031400,7.797031494140625,-0.1284241353392601,-0.015653678868897257,0.007811550533771514
1761479781275067400,7.8070673828125,-0.13336392982900142,-0.000751603818591684,0.008243548742868007
1761479781285103400,7.817103271484375,-0.1408452254951,-0.01602309670317918,0.005105122852977365
1761479781295138300,7.82713818359375,-0.13845102383494376,-0.011693141207471489,0.007210461101774126
1761479781305174300,7.83717431640625,-0.13051672370433806,-0.022822638916503636,0.008720244610216468
1761479781315210200,7.847210205078125,-0.1348591368228197,-0.020251473254244774,0.0025540866632945834
1761479781325246200,7.85724609375,-0.1444324363321066,-0.02124457594482228,0.006378905648458748
1761479781335282200,7.8672822265625,-0.13156243336498735,-0.01169847496971488,0.006195511905569583
1761479781345318100,7.877318115234375,-0.14593231950104235,-0.009523268088791519,0.011898618918005376
1761479781355353000,7.88735302734375,-0.1459346575886011,-0.018041322924103587,0.006458418891765177
1761479781365389000,7.89738916015625,-0.13381868785917758,-0.021745200677029786,0.0023384528849273918
1761479781375425000,7.907425048828125,-0.1297790570795536,-0.012806947668269276,0.0024159385679289698
1761479781385461000,7.9174609375,-0.1421966401040554,-0.008012516465969384,0.0015512845626100896
1761479781395497000,7.9274970703125,-0.1513280410647392,-0.024214805660955605,-0.0013881664227694272
1761479781405533200,7.937533203125,-0.14175298798978328,-0.009468633558414876,0.002375496959686279
1761479781415568100,7.947568115234375,-0.14070494024157523,-0.014786869439110159,0.0016903825060464442
1761479781425604000,7.95760400390625,-0.14624211610257626,-0.024350889663398264,0.0055995553064160045
1761479781435640000,7.96764013671875,-0.13995558317899703,-0.022886169139388946,0.0001536744580604136
1761479781445676000,7.977676025390625,-0.14339315641224384,-0.02116855156654492,0.0027117249104194343
1761479781455712000,7.9877119140625,-0.14054711933135985,-0.012271708280406891,0.0018827815392985939
1761479781465748000,7.997748046875,-0.1456347978591919,-0.017264822126273064,0.008985928075388073
1761479781475783200,8.007783203125,-0.13516191916167736,-0.029298739595431833,0.0022564006246626376
1761479781485817900,8.01781787109375,-0.13830372431874274,-0.014775014604534953,0.005678739756159484
1761479781495854000,8.02785400390625,-0.13890519734323023,-0.012206990747433154,-0.0021289748527109622
1761479781505889000,8.037888916015625,-0.1490805543988943,-0.013870887105353176,0.0007444251591339707
1761479781515925000,8.047925048828125,-0.13142507072091103,-0.013071169828716665,0.004070756570249795
1761479781525961000,8.0579609375,-0.13322364457547664,-0.018025522566772995,0.003781436501163989
1761479781535997000,8.067996826171875,-0.13427052327990532,-0.015047748865000902,0.0004751066984608769
1761479781546033200,8.078033203125,-0.13008125489652156,-0.02162033218834549,0.006035919163376093
1761479781556069000,8.088069091796875,-0.13367314190864563,-0.014902294246014207,0.004887772041559219
1761479781566103800,8.098103759765625,-0.13651333377063274,-0.007650660883635282,0.0019755378566682336
1761479781576140000,8.10814013671875,-0.14040391146838666,-0.0171502923685126,-0.0036329862074926493
1761479781586176000,8.118176025390625,-0.136658295199275,-0.019209307257551697,0.004628865377046168
1761479781596212000,8.1282119140625,-0.14443886607289314,-0.01744679109705612,0.004190930617507547
1761479781606248200,8.138248291015625,-0.14009820652008056,-0.00513796567665413,-0.002821048770099878
1761479781616284200,8.1482841796875,-0.13860416857004165,-0.020042196151427924,0.010706815317552536
1761479781626318800,8.15831884765625,-0.13606032930612563,-0.016559359004348514,0.009458733218908309
1761479781636354800,8.168354736328125,-0.1270809040367603,-0.012849179374799131,0.007207739421725273
1761479781646391000,8.17839111328125,-0.14533201552033423,-0.014935959053598343,0.001558152694813907
1761479781656427000,8.188427001953125,-0.13784955081045627,-0.017865436634235083,-0.004075469277985393
1761479781666463200,8.198463134765625,-0.1390472361624241,-0.011517108787130564,0.005933116376027465
1761479781676499200,8.208499267578125,-0.14398878421783445,-0.020317798222415147,0.010420107330661267
1761479781686534000,8.218533935546875,-0.15027765522897243,-0.020653222455549985,0.011713836935628205
1761479781696569900,8.22856982421875,-0.13875146808624267,-0.022286942870914934,0.009544219545274972
1761479781706605800,8.238605712890624,-0.13350947577953337,-0.01791941357748583,0.010465846168529242
1761479781716642000,8.24864208984375,-0.13440379427075386,-0.018124946086946873,0.004503357567545026
1761479781726678000,8.258677978515625,-0.12976327498853205,-0.015116905111074446,0.008259221236035227
1761479781736714200,8.26871435546875,-0.13619418481886386,-0.01213060104297474,0.010483546222001313
1761479781746749000,8.2787490234375,-0.1339496207624674,-0.015420819961093365,0.0086863606069237
1761479781756785000,8.288784912109374,-0.1472679520189762,-0.022199867375660685,0.0026407968323677775
1761479781766820900,8.29882080078125,-0.1444230839818716,-0.018363485816866157,0.0013634338403120637
1761479781776857000,8.308857177734374,-0.14576865337193012,-0.006867657279781997,0.0032691943963989614
1761479781786893000,8.31889306640625,-0.13394552910923957,-0.014312822186574339,0.000011178981140255927
1761479781796929000,8.328928955078124,-0.14322306054234504,-0.01621529480703175,0.0029410949531942605
1761479781806964000,8.3389638671875,-0.1366366678893566,-0.010024075484089554,0.0024851496129296717
1761479781817000000,8.349,-0.14008008634150027,-0.009718534932564943,0.0025269246617332097
1761479781827036200,8.3590361328125,-0.13573825774490833,-0.013085490615013986,0.00724498442588374
1761479781837072100,8.369072021484374,-0.13947452166378496,-0.014704305722191929,0.003990330011490732
1761479781847108000,8.379108154296874,-0.13333470373451708,-0.013210961891897022,0.004631239997223019
1761479781857144000,8.38914404296875,-0.22373218301832676,0.018814828047249463,-0.01637636712025851
1761479781867179000,8.399178955078124,0.04038753996789455,-0.06705123661831021,0.05343976763412356
1761479781877215000,8.409215087890624,-0.23374738107621668,0.008297215158864855,-0.012201583919953555
1761479781887251200,8.419251220703124,-0.11807634432613849,-0.0023704554583877323,-0.0770707820577547
1761479781897287200,8.429287109375,-0.1230079555094242,0.0030350203143432735,0.07844272799808531
1761479781907323100,8.4393232421875,-0.14260522090494632,-0.0641904951586388,0.05510191042637452
1761479781917357800,8.44935791015625,-0.17223989619016647,0.00530802501393482,-0.06266697538578883
