time,seconds_elapsed,z,y,x
1761478234744769800,0.105769775390625,-0.17359072627723215,0.022432708017155526,0.12339943904504179
1761478234754805800,0.1158056640625,-0.10792027649283409,-0.09450652203783393,0.019627952794730664
1761478234764841700,0.125841796875,-0.03866787656843662,-0.15891645036712287,-0.07621639371812343
1761478234774876400,0.13587646484375,0.014910568884015082,-0.17789909099563955,-0.14322437571659682
1761478234784913400,0.145913330078125,0.03911971198916435,-0.1597618882153183,-0.17960078034698962
1761478234794949400,0.155949462890625,0.083598905184865,-0.12207783505246042,-0.0888835675895214
1761478234804985300,0.1659853515625,0.06875146466493606,-0.06175707573294639,0.09018617462068795
1761478234815021300,0.176021240234375,-0.20707038655281065,0.03236870335899293,0.19211159461289642
1761478234825057300,0.186057373046875,-0.47188744415342804,0.08551935185343026,0.14490911393314598
1761478234835093200,0.19609326171875,-0.5789981578290462,0.043856019796058535,0.0433393755108118
1761478234845130500,0.206130615234375,-0.5045312381267547,0.009561462941020726,-0.07914031834080815
1761478234855166500,0.21616650390625,-0.3615840719163418,0.00990786522589624,-0.1847529024131596
1761478234865202400,0.226202392578125,-0.16060615701973438,-0.022272622084617614,-0.20797917196080087
1761478234875238400,0.23623828125,0.01964110453724861,-0.06904796339347959,-0.1354337218403816
1761478234885274400,0.2462744140625,0.10512333925068378,-0.057669368027895684,-0.05201674909368157
1761478234895311400,0.256311279296875,0.11666764657199383,-0.05029540519379079,0.0016200024172663688
1761478234905347300,0.266347412109375,0.11849544652104377,-0.05437924044132232,0.02264189378842711
1761478234915383300,0.27638330078125,0.07062251923382282,-0.039859716701507564,-0.012377981666475534
1761478234925419300,0.286419189453125,-0.06506605415046214,-0.035062545552849766,-0.017044073781371117
1761478234935455200,0.296455322265625,-0.17355273235440252,-0.03416917690970003,0.0036966625608503816
1761478234945491200,0.3064912109375,-0.20258651913702486,-0.008770677889510988,-0.019259850134700534
1761478234955528200,0.316528076171875,-0.23839023844599722,-0.004085223487019538,-0.010417933639883994
1761478234965564200,0.326564208984375,-0.2937099746078253,0.016955372584611175,-0.0375065777041018
1761478234975600000,0.33660009765625,-0.25423428878784177,0.0136124918974936,-0.046508945457637306
1761478234985636400,0.34663623046875,-0.14388064766824243,-0.014757058822736143,-0.016312690766900777
1761478234995672300,0.35667236328125,-0.1483054783731699,-0.040289851747080684,-0.005093669877201319
1761478235005709300,0.366709228515625,-0.20040742153227328,-0.05423303690366447,-0.021543138766288755
1761478235015745300,0.376745361328125,-0.23187632650732992,-0.04918130647204816,-0.05510229401886463
1761478235025781500,0.386781494140625,-0.2426613398939371,-0.03560607784502208,-0.10805515491887926
1761478235035817500,0.3968173828125,-0.18581249446868894,-0.022832009533047676,-0.1289217095978558
1761478235045853400,0.406853515625,-0.057789925667643544,-0.021442747131735086,-0.09696019880026578
1761478235055889400,0.416889404296875,0.06121814655065536,-0.02401303601115942,0.01197451543211937
1761478235065926400,0.426926513671875,0.07435235341191292,-0.013607377330958842,0.11640388106927275
1761478235075962400,0.43696240234375,-0.07540332376956939,0.024665727766230702,0.1664040296435356
1761478235085998300,0.446998291015625,-0.3289221577644348,0.05503638917580247,0.060210576943308114
1761478235096034300,0.457034423828125,-0.41596506592333315,0.012589651655778288,-0.05554126995801925
1761478235106070300,0.4670703125,-0.34047464839220043,-0.029241072857752442,-0.07688435610756278
1761478235116107300,0.477107177734375,-0.1693488509237766,-0.05942658695876598,-0.02059884365350008
1761478235126143200,0.487143310546875,-0.04841945525407791,-0.09381934349127113,0.057116556450724595
1761478235136179500,0.497179443359375,-0.01641395918428898,-0.06433291757032275,0.08474325291439891
1761478235146215400,0.50721533203125,-0.07441548177599906,0.009042334437742829,0.03210559544339776
1761478235156251400,0.51725146484375,-0.1567845529049635,0.019157704934477805,-0.009095452864468096
1761478235166287400,0.527287353515625,-0.2158428910732269,0.008549947810918092,0.012582418197393417
1761478235176324400,0.537324462890625,-0.19439619841873645,0.013494929932430386,0.037875703277438874
1761478235186360300,0.5473603515625,-0.1574152520239353,0.011154431220889091,0.006572948649525642
1761478235196396300,0.557396240234375,-0.04646247596740723,0.03519011745527387,-0.05058905437812209
1761478235206432300,0.567432373046875,0.012666589349508284,0.0428161553543061,-0.06622194618731737
1761478235216468200,0.57746826171875,-0.020240823996067046,0.053132236054912206,-0.055708443218469614
1761478235226505200,0.587505126953125,-0.1382879422277212,0.10846870415583253,-0.08997107056528329
1761478235236541200,0.597541259765625,-0.26241701072156426,0.12512670122906566,-0.1268552785873413
1761478235246577200,0.6075771484375,-0.3554688039064407,0.07664163339287042,-0.20451587976440785
1761478235256613400,0.61761328125,-0.2786456764668226,0.029443098235875365,-0.25609511422365905
1761478235266649300,0.6276494140625,-0.1057540383696556,-0.010026596234738826,-0.22638708144128322
1761478235276685300,0.637685302734375,0.036298224827647205,-0.016658654660359023,-0.1413676419340074
1761478235286722300,0.647722412109375,0.10843757836520672,-0.01031900331005454,-0.010032003062218428
1761478235296758500,0.657758544921875,0.07207973230481148,0.041612040261551735,0.09826207517907024
1761478235306794500,0.66779443359375,-0.038325346741080284,0.10579575861953198,0.11725231459215282
1761478235316830500,0.67783056640625,-0.15566227087676524,0.08019954507015645,0.08924494824782013
1761478235326866400,0.687866455078125,-0.22414427095055578,0.026413667412102222,0.025968553993105888
1761478235336903400,0.6979033203125,-0.35666999638974667,0.011930310964211821,-0.06033829497620463
1761478235346939400,0.707939453125,-0.4038853365510702,-0.009067834205180406,-0.09904241190180182
1761478235356975400,0.717975341796875,-0.3491080367028713,-0.02971680061072111,-0.06280395443737506
1761478235367011300,0.72801123046875,-0.22543255719542502,-0.051264980878308414,0.01784501490071416
1761478235377047300,0.73804736328125,-0.19565467404723166,-0.016856953711435196,0.0527669829390943
1761478235387084300,0.748084228515625,-0.11818038922250271,0.001128565638512373,0.027400048100948333
1761478235397120300,0.758120361328125,-0.03782499600350857,-0.030497941051051018,0.0027070670016109944
1761478235407156200,0.76815625,0.07367781515121459,-0.008170885365456342,0.0208973882086575
1761478235417192200,0.778192138671875,0.06626490854620933,0.003293780848383903,0.08286839895322919
1761478235427228400,0.788228515625,-0.06372399189174174,-0.01322451549321413,0.10589636944979429
1761478235437265400,0.798265380859375,-0.1783808831632137,0.02723009836152196,-0.006193009421229362
1761478235447301400,0.80830126953125,-0.2436941900730133,0.006775047092884778,-0.14619798469990491
1761478235457337300,0.81833740234375,-0.20576047299802303,-0.05175934026651084,-0.24458821630328892
1761478235467373300,0.828373291015625,-0.12809037334024906,-0.014116495896875858,-0.25207725688442584
1761478235477409300,0.8384091796875,-0.0806137518942356,0.009784750302881002,-0.12892229411974548
1761478235487445200,0.8484453125,-0.0816857650399208,0.014157193233445286,0.031426381007581945
1761478235497482200,0.858482177734375,-0.06227203951776027,0.016742168225347995,0.09128229929432273
1761478235507518200,0.868518310546875,-0.029991818159818648,0.005543386406078934,0.06519041118249297
1761478235517554200,0.87855419921875,-0.012147533911466597,0.004207680822908878,-0.0028087738104164597
1761478235527590400,0.88859033203125,-0.048560909551382064,0.005151318348571658,-0.06611307898536324
1761478235537626400,0.89862646484375,-0.11509586721062659,-0.0005471124887466431,-0.06232391583546996
1761478235547663400,0.908663330078125,-0.12322481313049792,-0.022834786012023687,-0.02425546646490693
1761478235557699300,0.91869921875,-0.12237959447801113,-0.008048720290511846,0.009870528890192508
1761478235567735600,0.928735595703125,-0.2230459543198347,-0.017942118599638342,0.017148995460569857
1761478235577771500,0.938771484375,-0.2993728226751089,-0.02996902180612087,-0.03249634832665324
1761478235587807500,0.948807373046875,-0.27035247989594935,-0.016570611050724982,-0.049183425363898275
1761478235597844500,0.958844482421875,-0.18295593599379062,0.0018105565533041953,0.007503945889323949
1761478235607880400,0.96888037109375,-0.15057166973948477,-0.0022860651105642317,0.09869082198515534
1761478235617916400,0.97891650390625,-0.10630641155540943,-0.013966127640753983,0.09457768757790326
1761478235627952400,0.988952392578125,-0.11042203018069266,0.007095803479850292,0.00037160979136824607
1761478235637988400,0.99898828125,-0.1293476799249649,0.05092530059516429,-0.10941153796389698
1761478235648025300,1.009025390625,-0.1591015976756811,0.029975451546907422,-0.10096519665792583
1761478235658061300,1.019061279296875,-0.10502981574833392,-0.011577186677604913,0.00966653075069189
1761478235668097300,1.02909716796875,-0.03526771273612976,-0.033206834683567284,0.09643252166435122
1761478235678133200,1.03913330078125,-0.08597147953510284,-0.05251914565786719,0.07866831691488624
1761478235688169200,1.049169189453125,-0.2444260114789009,-0.019941548788547515,-0.026966625119745728
1761478235698206500,1.05920654296875,-0.31557226232588287,0.014114450070261955,-0.13401684077978132
1761478235708242400,1.069242431640625,-0.32770869032144545,0.029254882187396285,-0.1353242701165378
1761478235718278400,1.0792783203125,-0.2527297294437885,0.029066300812736152,-0.06409063324704765
1761478235728314400,1.089314453125,-0.06357493880987167,0.015152487881109117,0.01195508007928729
1761478235738350300,1.099350341796875,0.14379296938478947,-0.025675562395900485,0.07099675937369465
1761478235748387300,1.10938720703125,0.20973697541356084,-0.03464548918455839,0.06985869525447487
1761478235758423300,1.11942333984375,0.14190671724677084,-0.035514088712632653,-0.0006419511653482914
1761478235768459300,1.129459228515625,0.0016109423279762267,-0.04415427209027111,-0.07328077865764498
1761478235778496000,1.13949609375,-0.14677636910974978,-0.00843874252140522,-0.057603463184833524
1761478235788532000,1.149531982421875,-0.2772147668808698,0.014575930102169513,-0.025717209580540655
1761478235798569000,1.15956884765625,-0.34854748021066184,0.017785685928910968,-0.008408493513613939
1761478235808605000,1.16960498046875,-0.341038712015748,0.0114481534704566,-0.008068301773816346
1761478235818641000,1.179640869140625,-0.24104572139084338,-0.0439908251568675,-0.021687223412096498
1761478235828676900,1.1896767578125,-0.20437281803190707,-0.0836481511540711,-0.06574585310816765
1761478235838712800,1.199712890625,-0.21570085225403307,-0.06393135103210806,-0.08676818287074566
1761478235848749800,1.209749755859375,-0.20405834525525568,-0.03216251326240599,-0.03644362464770674
1761478235858785800,1.219785888671875,-0.17602233733832834,-0.020526070678234098,0.03949234469383955
1761478235868821800,1.22982177734375,-0.13879998340308666,0.0006051262862980365,0.05525690005868673
1761478235878857700,1.239857666015625,-0.0873193870127201,0.007298340314626693,0.04084492834657431
1761478235888894000,1.24989404296875,0.00018938509225845335,-0.0040877077050507065,0.01389393918737769
1761478235898931000,1.259930908203125,0.08826280534267425,-0.028600217670947312,-0.008578881644457578
1761478235908967000,1.269966796875,0.11386018793582915,-0.06506115877963602,-0.027923195192217826
1761478235919003100,1.280003173828125,0.06563830108046531,-0.04903495680391788,-0.06201689571291208
1761478235929039000,1.2900390625,-0.037653731089830396,-0.009212211111932992,-0.05781725206598639
1761478235939075000,1.300074951171875,-0.16103285799920558,0.005103095292672515,-0.03597863748446107
1761478235949112000,1.310112060546875,-0.2743184609174728,0.00920578137114644,-0.05657572757229209
1761478235959148000,1.32014794921875,-0.3524222758173942,-0.011054624108225107,-0.08534414141699671
1761478235969184000,1.33018408203125,-0.33515140754282474,-0.03465411088243127,-0.08194660793319344
1761478235979220000,1.340219970703125,-0.24292495926618574,-0.05540777977146208,0.021338556104898453
1761478235989256000,1.350255859375,-0.1773152997583151,-0.06214117967970669,0.1166641394406557
1761478235999293000,1.36029296875,-0.09889408947229385,-0.07887684509903192,0.15801920926645396
1761478236009329000,1.370328857421875,-0.06604571283757686,-0.08774477281793952,0.16361907510012388
1761478236019365000,1.380365234375,-0.06751344730257988,-0.06106836281642317,0.11577172064557671
1761478236029401000,1.390401123046875,-0.1230208149909973,-0.01242737376615405,-0.0039449382334947585
1761478236039438000,1.40043798828125,-0.2221083812087774,0.011309767913073301,-0.1289393913850188
1761478236049474000,1.41047412109375,-0.28429157339930533,0.02336582414880395,-0.21949133057817816
1761478236059510000,1.420510009765625,-0.27087036629021166,-0.00884893075749278,-0.22019129554107783
1761478236069546000,1.4305458984375,-0.18706629392206667,-0.04189209931194782,-0.14305866376087067
1761478236079582000,1.44058203125,-0.08379588906168937,-0.06465016682595014,-0.0413255514703691
1761478236089619000,1.450618896484375,0.01853694268763065,-0.05208082730583846,-0.00455678652152419
1761478236099655000,1.460655029296875,0.08568740189671516,-0.0475080394975841,0.043913668267428874
1761478236109691000,1.47069091796875,0.08250292664170265,-0.029567820594087243,0.09081541243493556
1761478236119726800,1.480726806640625,0.005615501794219017,-0.03637684302181005,0.07612170117199421
1761478236129762800,1.4907626953125,-0.08627250830829143,-0.030304172044619916,-0.008883417548984288
1761478236139800000,1.500800048828125,-0.22555881392359733,-0.023100012819468975,-0.13318448160886764
1761478236149836000,1.5108359375,-0.31229893974363804,-0.015488661032915114,-0.22772519817724823
1761478236159872000,1.5208720703125,-0.33279461528360843,-0.016638196394219994,-0.21309578432217238
1761478236169908000,1.530907958984375,-0.2954845830649137,-0.030597236707061527,-0.13074147237092257
1761478236179944000,1.54094384765625,-0.24327976405322552,-0.05162292747050524,-0.043886487999558445
1761478236189981000,1.55098095703125,-0.16836977675855158,-0.08261296288743615,-0.0037343642227351662
1761478236200017000,1.561016845703125,-0.08977554799318313,-0.11179836003519594,-0.02564911278039217
1761478236210052900,1.571052978515625,-0.05022387432754039,-0.12507350973710418,-0.0752528093829751
1761478236220088800,1.5810888671875,-0.04397299723923206,-0.1176801846154034,-0.09094912181720137
1761478236230125000,1.591125,-0.06316577348709106,-0.07341806823648513,-0.04886486093401909
1761478236240161800,1.601161865234375,-0.11512509330511092,-0.06700111386626958,0.026855419830232857
1761478236250197800,1.61119775390625,-0.17250293104052541,-0.08785999669544398,0.0910167802259326
1761478236260234000,1.62123388671875,-0.19118951133191583,-0.05614668850526213,0.08112024011164903
1761478236270270000,1.63127001953125,-0.20066285759806632,-0.044131329606100916,0.058962914969772094
1761478236280307000,1.641306884765625,-0.1323848556637764,-0.05420373774394393,0.06763575850799679
1761478236290343200,1.65134326171875,-0.03953063087761402,-0.04182575607746839,0.07785992314144968
1761478236300379100,1.661379150390625,-0.02297346383035183,-0.03588818272203207,0.08613938344791532
1761478236310415000,1.6714150390625,-0.09363923768401146,-0.05738127180151641,0.06885740925744176
1761478236320451000,1.681451171875,-0.15247545753419398,-0.04981463593952357,-0.023134061219543218
1761478236330488000,1.691488037109375,-0.1705477053195238,-0.07652998971194028,-0.11367898615002632
1761478236340524000,1.70152392578125,-0.19118366611301899,-0.08895626749955117,-0.16880714526250956
1761478236350560000,1.71156005859375,-0.21490414891839027,-0.03169643012061715,-0.159969028159976
1761478236360596000,1.721595947265625,-0.21116203978061676,-0.001175619650632143,-0.09342471815049648
1761478236370632000,1.7316318359375,-0.1555114642292261,0.04073912988454103,-0.02126286052018404
1761478236380669000,1.7416689453125,-0.11046762288808822,0.03211633603312075,-0.02101180836856365
1761478236390705000,1.751704833984375,-0.05745031844973564,0.007550561510026454,-0.011076397548615932
1761478236400740900,1.761740966796875,-0.02322247015535831,-0.01040602400638163,-0.005916822828352451
1761478236410776800,1.77177685546875,-0.009875497326254845,-0.029267011016607284,-0.005085486570745706
1761478236420812800,1.781812744140625,-0.028387305572628974,-0.04096687422581017,-0.026064269452542064
1761478236430850000,1.79185009765625,-0.09347732512056826,-0.05615706376880407,-0.004072217874974012
1761478236440886000,1.801885986328125,-0.18569500556886195,-0.05785071594417095,-0.000031710312515497204
1761478236450922000,1.811921875,-0.23955635961592195,-0.021043226420134304,-0.08022533709853887
1761478236460958000,1.8219580078125,-0.19241466921269892,-0.011863383207842707,-0.1167937571696937
1761478236470995000,1.831994873046875,-0.0850888514816761,-0.042534123542532325,-0.09300853856503963
1761478236481031000,1.842031005859375,-0.026374796706438063,-0.08429945466965437,-0.015337708254903553
1761478236491067000,1.85206689453125,-0.011743044763803482,-0.09945508435592054,0.07182838789224624
1761478236501102800,1.862102783203125,-0.07471183437407017,-0.08332038050442933,0.09037512132152914
1761478236511138800,1.872138916015625,-0.20637012932896612,-0.04656023725345731,0.04357172296196222
1761478236521175800,1.88217578125,-0.31516543509066103,-0.0017818419154733418,-0.0460376746840775
1761478236531211800,1.892211669921875,-0.3573866202265024,-0.010315861504897475,-0.0943497240409255
1761478236541247700,1.902247802734375,-0.30347441277503967,-0.009096037386357784,-0.0758441994048655
1761478236551284000,1.912283935546875,-0.1873486179947853,-0.020304756077751517,-0.04196384937390685
1761478236561320200,1.9223203125,-0.043622868627309797,-0.046087651305645704,-0.04080269664004445
1761478236571357000,1.93235693359375,0.09402736021876335,-0.06931435924470425,-0.04684051549956202
1761478236581393000,1.942392822265625,0.14396774142980576,-0.0656597822599113,-0.04400675337836146
1761478236591429000,1.95242919921875,0.12471768203675747,-0.05320128270313144,-0.063770169121027
1761478236601465000,1.962465087890625,0.034061844077706335,-0.042412689119949935,-0.062279053780436515
1761478236611501000,1.9725009765625,-0.11033201380968093,-0.05468304569348693,-0.0337409415602684
1761478236621538000,1.9825380859375,-0.21451777994930743,-0.05768427333608269,-0.03152165807560086
1761478236631574000,1.992573974609375,-0.27728958568274975,-0.039538229662179944,-0.06783025816679
1761478236641610000,2.00260986328125,-0.3101911538094282,-0.05938559736125171,-0.09117416274473071
1761478236651646000,2.01264599609375,-0.33299393724799153,-0.03243592337630689,-0.13097294303923845
1761478236661683000,2.022682861328125,-0.3289654123842716,0.008449921502545475,-0.11017828455269336
1761478236671719200,2.03271923828125,-0.2693184606730938,-0.01522825653105974,-0.06694368459060787
1761478236681755100,2.042755126953125,-0.1810702683776617,0.007955635179579257,-0.04439209943413734
1761478236691791000,2.052791015625,-0.09236264187693595,-0.019324512868747114,-0.0027659575819969176
1761478236701827000,2.0628271484375,-0.04009703258872032,-0.03451762502118945,0.017246756746619938
1761478236711864000,2.072864013671875,-0.012855389919877051,-0.04884111473225057,0.0035147301226854323
1761478236721900000,2.082900146484375,-0.058062312868237494,-0.04780497661754489,-0.02658303262963891
1761478236731936000,2.09293603515625,-0.09580196867585182,-0.033462636075541376,-0.082019234777987
1761478236741972000,2.102971923828125,-0.12707505881786346,-0.026211788164451716,-0.10447627351880073
1761478236752008000,2.113008056640625,-0.21829437587857245,-0.011893997541815042,-0.1318240069106221
1761478236762045000,2.123044921875,-0.26592063492834567,0.003461173304542899,-0.10636778635382652
1761478236772081000,2.133080810546875,-0.24140344878733155,-0.018023951664194463,-0.0483566191509366
1761478236782117000,2.1431171875,-0.08592179517447948,-0.06212079447880387,0.009495265837013721
1761478236792153000,2.153153076171875,0.03278583279252052,-0.08532689802125096,0.05028101134225726
1761478236802190000,2.163190185546875,0.08308218783438205,-0.08300035476982592,0.0561687542065978
1761478236812226000,2.17322607421875,0.09512976850271225,-0.05537592332847416,0.06695961281210183
1761478236822262000,2.183261962890625,0.029947394496202467,-0.0629595103252679,0.0626888036251068
1761478236832298000,2.193298095703125,-0.14687807591855526,-0.03974098569266498,0.006009323417395353
1761478236842334000,2.203333984375,-0.3337754430145025,0.013470233882591127,-0.036923370988667006
1761478236852371200,2.21337109375,-0.40290217073261736,0.0018934125311672687,-0.03295622092336416
1761478236862407200,2.2234072265625,-0.3737035487771034,0.020439926764741538,-0.014837357517331838
1761478236872443100,2.233443115234375,-0.2869932335734367,0.02906900422647595,0.030681553989648818
1761478236882479000,2.24347900390625,-0.18874036461412905,0.00849646405801177,-0.032510669112950565
1761478236892515000,2.25351513671875,-0.09472995553016662,-0.025130495733767747,-0.14037483150437474
1761478236902552000,2.263552001953125,-0.05440612844824791,-0.04317921651303768,-0.19072569321244953
1761478236912588000,2.273588134765625,-0.06743687493503094,-0.06144574476145208,-0.16499708545506
1761478236922624000,2.2836240234375,-0.12747545631229876,-0.012144026780128478,-0.11946633737981319
1761478236932660200,2.29366015625,-0.22247253834605216,0.018583339112624525,-0.050552375629544254
1761478236942697000,2.303697021484375,-0.2787906378954649,0.00753244133144617,0.0009561316810548305
1761478236952733000,2.31373291015625,-0.2717430574715137,0.003893792568147182,0.02111658391728997
1761478236962769200,2.32376904296875,-0.20946809534430502,-0.005838496895134449,0.04008402697667479
1761478236972805000,2.33380517578125,-0.13752338759601115,-0.04590513434559106,0.06146028474345803
1761478236982841000,2.343841064453125,-0.07962240276932715,-0.05981975099481642,0.044643589977175
1761478236992878000,2.353878173828125,-0.048286768785119054,-0.0681360361803323,0.02908200983852148
1761478237002914300,2.363914306640625,-0.054549920833110804,-0.0763417736634612,0.07668459575176238
1761478237012950300,2.3739501953125,-0.09483575399219989,-0.04937112995572388,0.11022957634851335
1761478237022986200,2.383986328125,-0.13729308597147463,-0.009817775789648294,0.11283201393187045
1761478237033022200,2.394022216796875,-0.17990356268584728,-0.014439444240927695,0.1008360173203051
1761478237043059200,2.40405908203125,-0.18434476000368594,0.0032441695529967546,0.04738251342177391
1761478237053095200,2.41409521484375,-0.18323884458839892,0.018697905403003097,0.01841229339465499
1761478237063131100,2.424131103515625,-0.1866208882421255,0.004312456371635198,-0.0426258204139769
1761478237073167000,2.4341669921875,-0.17976210838854312,0.01698233365677297,-0.16944515090510248
1761478237083203000,2.444203125,-0.15973054322898386,-0.006242328455671668,-0.2185389982894063
1761478237093240000,2.454239990234375,-0.14707505979537963,0.015613821782544255,-0.1963894180625677
1761478237103276000,2.464276123046875,-0.12005202831327914,0.04555449427701533,-0.13156024140790104
1761478237113312000,2.47431201171875,-0.056607437884807585,0.05412007804848253,-0.07157792026251554
1761478237123348200,2.48434814453125,-0.02528875503540039,0.06688457481451332,-0.038629882645606996
1761478237133385200,2.49438525390625,0.010613748472929,0.06476093372404575,-0.0407874990709126
1761478237143421200,2.504421142578125,-0.04800795184373855,0.04553768927268684,-0.04835165071487427
1761478237153457200,2.51445703125,-0.14703998848199842,0.020408508713170886,-0.041835108427703376
1761478237163493000,2.5244931640625,-0.21766192319393157,0.011984890695661306,-0.07313932436034083
1761478237173529000,2.534529052734375,-0.26897359275817867,-0.0201939161144197,-0.08808481842726469
1761478237183566000,2.544566162109375,-0.254269360101223,-0.03854527310207486,-0.04692775539159774
1761478237193602000,2.55460205078125,-0.2142880628466606,-0.021017434391751886,0.007692600329220294
1761478237203638000,2.564637939453125,-0.14600655378103256,-0.0031833792764693497,0.05856003325730562
1761478237213674000,2.574674072265625,-0.11536065562665462,0.008656330794841051,0.09814473240971565
1761478237223710000,2.5847099609375,-0.09743570735752582,0.018062383978441357,0.1150796467281878
1761478237233747000,2.594746826171875,-0.03490180203318596,0.026362667877227068,0.09045958473458886
1761478237243783200,2.604783203125,-0.014056582403182983,0.024120003516972063,0.04084551286846399
1761478237253819100,2.614819091796875,-0.026765841850638388,0.022546689785644412,-0.02934942860305309
1761478237263855000,2.624855224609375,-0.08025076380074024,0.028074294100701808,-0.09536649986803532
1761478237273892000,2.63489208984375,-0.11949088729918002,0.03920088746659457,-0.1290587799809873
1761478237283928000,2.644927978515625,-0.1881634415090084,0.033364801724255086,-0.1596726755619049
1761478237293964000,2.654964111328125,-0.22025895394980907,0.021740122643113136,-0.17827493857070803
1761478237304000300,2.665000244140625,-0.2563993578672409,0.004049932977929711,-0.14418781392127275
1761478237314036200,2.6750361328125,-0.2781798125207424,0.0405701299931854,-0.08069397752359508
1761478237324073000,2.685072998046875,-0.23916063829660414,0.04993307468742132,-0.004483867415785789
1761478237334109200,2.695109130859375,-0.1990168439567089,0.002897036615759134,0.0299611307606101
1761478237344145200,2.705145263671875,-0.15296996305286883,-0.029901290332153437,-0.006285802271217107
1761478237354181000,2.71518115234375,-0.07456395033597946,-0.048649318487197155,-0.05163125690743327
1761478237364217000,2.725217041015625,-0.019599603483080864,-0.05634228414259851,-0.06536518322750925
1761478237374254300,2.73525439453125,0.04822773207426071,-0.026264760460704563,-0.02023380973339081
1761478237384290300,2.745290283203125,0.0040916532278060915,-0.013882467945292591,0.05274360206350684
1761478237394326300,2.755326171875,-0.05078443081974983,0.006652516691759229,0.1104579782769084
1761478237404362200,2.7653623046875,-0.1300572894990444,0.02400324526950717,0.0754391257353127
1761478237414398200,2.775398193359375,-0.22549159390628337,-0.01779270019158721,0.03718348322957754
1761478237424435200,2.785435302734375,-0.2776648487359285,-0.06581891834437847,-0.03190583508759737
1761478237434471200,2.79547119140625,-0.28381635710299014,-0.046507191891968246,-0.07419789350256323
1761478237444507100,2.805507080078125,-0.2894330279409885,-0.040725978142023084,-0.011079466288536786
1761478237454543000,2.815543212890625,-0.28043080631792544,-0.041734643727913495,0.017686024946719406
1761478237464579000,2.8255791015625,-0.2268319025993347,0.011860752859339118,0.015122604199498891
1761478237474616000,2.835615966796875,-0.16801029579639434,0.013955679311975836,0.029652503202855587
1761478237484652000,2.845652099609375,-0.11942366728186607,0.0009144844964146614,0.04468231455236673
1761478237494688000,2.85568798828125,-0.11548691235482691,-0.006074570673331618,0.020297084227949378
1761478237504724000,2.865723876953125,-0.10364683695733547,0.0021978023052215577,-0.047120209223777056
1761478237514760000,2.875760009765625,-0.12994564581811427,-0.009388517526909708,-0.08435922203287481
1761478237524797200,2.885797119140625,-0.16481237653791903,0.02293305875472724,-0.09533099016323685
1761478237534833200,2.895833251953125,-0.15769991418421267,0.052517172896489495,-0.0878682530671358
1761478237544869000,2.905869140625,-0.12244856806099415,0.02437894671410322,-0.10143325256109237
1761478237554905000,2.915905029296875,-0.053258127456903455,0.018023805533722043,-0.129272861123085
1761478237564942000,2.925942138671875,0.0032832594543695448,-0.002285480588674545,-0.14858590274974703
1761478237574978000,2.93597802734375,0.06110825643539428,-0.020832579344138503,-0.09440160035863518
1761478237585014000,2.946013916015625,0.03819909001290798,-0.012852832636609673,-0.018159779938310385
1761478237595050000,2.956050048828125,-0.0501321043908596,0.008298895659297704,0.03720744862705469
1761478237605086200,2.966086181640625,-0.17549626763761042,0.017969956454634665,0.04206175679042935
1761478237615123000,2.976123046875,-0.2740022345751524,-0.010432327491417526,-0.008090513605624437
1761478237625159000,2.986158935546875,-0.3187959005475044,-0.03223601689003408,-0.042349487690627574
1761478237635195100,2.996195068359375,-0.2986830868452787,-0.07600231257602572,-0.004512216727435589
1761478237645231000,3.006231201171875,-0.23426292938292026,-0.09099003834947943,0.043927842923253774
1761478237655267300,3.016267333984375,-0.2166629752844572,-0.07028072005882859,0.08363178454115987
1761478237665304000,3.026303955078125,-0.28358839356601234,-0.01851290422491729,0.043226708916574715
1761478237675340300,3.03634033203125,-0.3077116119533777,-0.012226663562282919,0.017881839779764413
1761478237685376300,3.046376220703125,-0.25425182444453237,-0.038417262808233495,0.029564386527985334
1761478237695412200,3.056412109375,-0.17404723787307738,-0.04114997570775449,-0.0036902328200638292
1761478237705448200,3.0664482421875,-0.11362170300483702,-0.018274200098216533,-0.045974107928574086
1761478237715485200,3.076485107421875,-0.05010872351527214,-0.011399565088376402,-0.0658501902654767
1761478237725521200,3.086521240234375,0.018837971460819242,-0.011612550251930951,-0.0756578830525279
1761478237735557000,3.09655712890625,-0.026345570611953733,-0.003919949922710657,-0.0703260205052793
1761478237745593000,3.106593017578125,-0.1217746143221855,-0.015657660924270747,-0.04108677427843213
1761478237755629000,3.116629150390625,-0.17253157261312008,-0.01855557432286441,-0.047529520677030083
1761478237765666000,3.126666015625,-0.15599720191955566,-0.03165646343640983,-0.07008154422491789
1761478237775702300,3.136702392578125,-0.10850655194818973,-0.062137599483132355,-0.06774842510223389
1761478237785737500,3.146737548828125,-0.05305237575173378,-0.06606514819040894,-0.037265462424606086
1761478237795773400,3.1567734375,-0.05115794030725956,-0.013152619300782679,-0.0024289807125926015
1761478237805809400,3.166809326171875,-0.13842413582801819,0.040103754590451714,0.02828048419728875
1761478237815846400,3.176846435546875,-0.24316461324095726,0.08843187829926609,0.016517127297818658
1761478237825882400,3.18688232421875,-0.2932230678737163,0.08434431672468781,-0.02252615845426917
1761478237835918300,3.19691845703125,-0.24872049380242822,0.029399405224621294,-0.10078443326354027
1761478237845954300,3.206954345703125,-0.17959025895297526,-0.025331059807166455,-0.13818915802836418
1761478237855990500,3.216990478515625,-0.10020166493952273,-0.08408676176704466,-0.09122501614913343
1761478237866027300,3.22702734375,-0.05512450585067272,-0.06159910869225859,0.014536328744143246
1761478237876063200,3.237063232421875,-0.08700082258284092,-0.03525689908117056,0.058480976671725506
1761478237886099500,3.247099365234375,-0.13780045097172258,-0.021975246573239564,0.05579363728389144
1761478237896135700,3.2571357421875,-0.1513286255866289,0.005807663365453481,0.02477028411924839
1761478237906171600,3.267171630859375,-0.16172259382903575,0.010751622573658824,-0.02486789927482605
1761478237916208400,3.27720849609375,-0.16716098549067973,-0.010622881627455352,-0.018986440020799637
1761478237926244600,3.28724462890625,-0.1947083331078291,0.02185775767341256,0.026303338905423877
1761478237936280600,3.297280517578125,-0.2076660143584013,0.03306874138712883,0.060378773117065423
1761478237946316500,3.307316650390625,-0.20539748490452764,0.0017460399497300385,0.040200346832722424
1761478237956352500,3.3173525390625,-0.17866320723593235,-0.014780001306906342,-0.04739639581665397
1761478237966389500,3.327389404296875,-0.15723346571624278,-0.031686931639909745,-0.10232464844286442
1761478237976425500,3.337425537109375,-0.1625531994342804,-0.022412103620544074,-0.09706775082796812
1761478237986461400,3.34746142578125,-0.1263368076711893,-0.0043375908128917215,-0.035381694504618644
1761478237996497400,3.357497314453125,-0.06307926424741744,-0.0007343056239187717,0.008617313958704471
1761478238006533400,3.367533447265625,-0.008254618126153945,-0.01303987964130938,0.05284925439506769
1761478238016570600,3.377570556640625,-0.025725392886996268,-0.019421251241490245,0.08737681628838181
1761478238026606600,3.387606689453125,-0.1132306578606367,-0.043007805468887085,0.09786109316274523
1761478238036642600,3.397642578125,-0.19142039747834205,-0.04708374967090785,0.07109919683486222
1761478238046678500,3.407678466796875,-0.24031799163818357,-0.020452786246314643,0.02185337375923991
1761478238056715500,3.417715576171875,-0.21752631411552428,-0.011661869286373257,0.0003387304350733757
1761478238066751500,3.42775146484375,-0.1451993290513754,-0.00749335143007338,-0.017581833919882772
1761478238076787500,3.437787353515625,-0.049131987437605856,-0.024285204016044736,0.005060498259961604
1761478238086823400,3.447823486328125,-0.06557634176015853,-0.056258770577609536,0.05012056008353829
1761478238096859400,3.457859375,-0.1944330232977867,-0.04979490832574665,0.026446692898869514
1761478238106895400,3.467895263671875,-0.34984921045899386,-0.03073591452538967,-0.06135536306425929
1761478238116932400,3.477932373046875,-0.45145314341187476,0.0013340250827372072,-0.11509732851535082
1761478238126968300,3.48796826171875,-0.4307932172209024,0.028854265497252344,-0.10882847737893461
1761478238137004300,3.49800439453125,-0.25453064138591286,0.03705729956664145,-0.07167801963612437
1761478238147040300,3.508040283203125,-0.03896306012272834,0.007052621925249696,-0.06013707331568002
1761478238157077500,3.518077392578125,0.13795067309737205,-0.014134323814511298,-0.04943257781937718
1761478238167113500,3.528113525390625,0.20188100121617317,-0.014111746656522154,-0.02700125804170966
1761478238177149400,3.5381494140625,0.11624094559252261,-0.002421820319443941,-0.024107436296343803
1761478238187185400,3.548185302734375,-0.016389993786811826,0.028356618173420427,-0.02821764809414744
1761478238197221600,3.5582216796875,-0.10915770933330059,-0.016044687480479478,-0.036349662753939624
1761478238207257600,3.568257568359375,-0.10951309864223002,-0.04722666527293622,-0.061110302262008184
1761478238217294300,3.57829443359375,-0.09831775088906287,-0.06407105176374316,-0.0686896514751017
1761478238227330600,3.58833056640625,-0.1264116264730692,-0.0699696082830429,-0.06713496937900781
1761478238237366500,3.598366455078125,-0.16491291430294513,-0.044165670267120004,-0.06332286374494434
1761478238247402500,3.608402587890625,-0.27003391546607014,0.0045874739207327365,-0.021663696406036614
1761478238257438500,3.6184384765625,-0.4125327533870935,0.03894830094501376,-0.02115750044956803
1761478238267475500,3.628475341796875,-0.4891945527851581,0.07315284142903983,-0.08973170885145663
1761478238277511400,3.638511474609375,-0.3853390415132045,0.03425933941118419,-0.14408508419916033
1761478238287547400,3.64854736328125,-0.21178163298368452,-0.037502193789929146,-0.11445873835086821
1761478238297583400,3.658583251953125,-0.04992459912002086,-0.06382379900440573,-0.049278556301444766
1761478238307619600,3.66861962890625,0.06739654292464256,-0.05428469402566552,0.006158376499265432
1761478238317656600,3.678656494140625,0.08934007918536663,-0.04365238698273897,0.02852744469568133
1761478238327692500,3.688692626953125,0.027855975174903867,-0.021704466807842254,0.018158903155475855
1761478238337728500,3.698728515625,-0.04817220249474048,-0.0038898470453917976,-0.013554331969469785
1761478238347764500,3.708764404296875,-0.09565174655020237,0.006804711578786373,-0.040969431509077545
1761478238357800400,3.718800537109375,-0.10379939717054366,-0.016716522327437994,-0.028880495917052027
1761478238367837400,3.72883740234375,-0.17008301041722296,-0.028432825214788317,-0.02126739056482911
1761478238377873400,3.738873291015625,-0.2557230660408735,0.010537176105380058,-0.04571136533915996
1761478238387909400,3.748909423828125,-0.3208616009056568,-0.012617562576010823,0.017853636598587037
1761478238397945300,3.7589453125,-0.31670155861675736,-0.01265628715120256,0.06499839574173093
1761478238407981300,3.768981201171875,-0.25385142695009705,-0.01521671222373843,0.04862579148113727
1761478238418018300,3.779018310546875,-0.19078677574992178,-0.01766140196211636,0.0017094342663884162
1761478238428054500,3.789054443359375,-0.10647007768452167,-0.041978973877802486,-0.06999824985563755
1761478238438090500,3.799090576171875,-0.05770575451552867,-0.03281995425783098,-0.10219254649579525
1761478238448126500,3.80912646484375,-0.11514730513691901,0.01434131762869656,-0.1423227507017553
1761478238458162400,3.819162353515625,-0.17182137851715087,0.04561185048744082,-0.1888034929782152
1761478238468199400,3.829199462890625,-0.2139081236183643,0.05117854470387101,-0.22048165678977966
1761478238478235400,3.8392353515625,-0.19481471609175205,0.06819996826201677,-0.19946502611562608
1761478238488271400,3.849271240234375,-0.11540624833405017,0.06657353610396385,-0.10809665597304702
1761478238498307600,3.8593076171875,-0.02545125212073326,0.055056920507177705,-0.07359832017421722
1761478238508343600,3.869343505859375,0.06592939298152924,0.023061069048568604,-0.09640767948403954
1761478238518380300,3.87938037109375,0.10350655170381069,-0.023397388330847025,-0.11851400509104132
1761478238528416500,3.88941650390625,0.11941197684407233,-0.0571881603822112,-0.0929981633014977
1761478238538452500,3.899452392578125,0.07834639148414134,-0.06183817814514041,-0.013626812683790922
1761478238548488400,3.909488525390625,-0.07036240699291228,-0.060435398675128815,0.037945992034673685
1761478238558524400,3.9195244140625,-0.2306143437474966,-0.0414511506114155,0.01891761256828904
1761478238568561700,3.929561767578125,-0.35905893735289574,-0.03192103265672922,-0.04292845662236214
1761478238578597600,3.93959765625,-0.391339743232727,-0.06534742837511003,-0.04294701519235968
1761478238588633600,3.949633544921875,-0.34009587820768356,-0.05421170185469091,0.015905279009789226
1761478238598669600,3.959669677734375,-0.24953999349176884,-0.04820362054631114,0.11261997861638665
1761478238608705500,3.96970556640625,-0.19075287348031997,-0.08122216611616313,0.16353329651281237
1761478238618741500,3.979741455078125,-0.1631406439334154,-0.09277494900487362,0.1356651925086975
1761478238628778500,3.989778564453125,-0.2138034942001104,-0.09515117661692202,0.05049100083112716
1761478238638814500,3.999814453125,-0.279243642359972,-0.09650945935808121,-0.05009469498991966
1761478238648850400,4.009850341796875,-0.23298691809773445,-0.06164755094386637,-0.09486439556479453
1761478238658886400,4.019886474609375,-0.15372458081245421,-0.06022212125062942,-0.04233253655582666
1761478238668922400,4.02992236328125,-0.0640969168573618,-0.02638422212190926,0.04991729259639978
1761478238678958300,4.039958251953125,-0.01889700817167759,0.017579495832324026,0.07855170479789375
1761478238688994300,4.049994384765625,-0.028967735809087753,0.004074044505879283,0.07793722616136074
1761478238699030300,4.0600302734375,-0.07687164275646209,-0.0019834289021790027,0.020943273176997897
1761478238709067300,4.0700673828125,-0.1341618022084236,0.0065237757455557585,-0.10987389477863907
1761478238719103500,4.080103515625,-0.11210896035432814,-0.014101955914869903,-0.1909428430944681
1761478238729139500,4.090139404296875,-0.02406885785162449,-0.019983122907951473,-0.17230653168559074
1761478238739175700,4.10017578125,0.039676176828145976,-0.039205563641712064,-0.10138269141763448
1761478238749211600,4.110211669921875,0.011791560080647467,-0.017072130832076073,-0.05619140442982316
1761478238759248400,4.120248291015625,-0.1084340712338686,0.02060615017712116,-0.014288491462916135
1761478238769284600,4.13028466796875,-0.20299626898169518,0.012187500595673919,0.010402005418390035
1761478238779321000,4.140321044921875,-0.2775602193176746,-0.011607435685396194,-0.007440671394765377
1761478238789357300,4.150357421875,-0.2942933274537325,-0.0213037770524621,-0.07822232671305537
1761478238799393300,4.160393310546875,-0.2409445991039276,-0.022937881060317158,-0.10682356729730963
1761478238809430000,4.170429931640625,-0.17990940790474413,-0.06354417834542692,-0.044215866084396836
1761478238819466200,4.18046630859375,-0.1591407606422901,-0.09589256956875324,0.06898629633411765
1761478238829502200,4.190502197265625,-0.21248598186075687,-0.09360358184874057,0.12244403801634907
1761478238839538200,4.2005380859375,-0.2780377737015486,-0.06640884706154465,0.07858619158938526
1761478238849574100,4.21057421875,-0.34765199267566205,-0.052203284641727805,0.052109103552252053
1761478238859611100,4.220611083984375,-0.3116419371396303,-0.0170088563375175,0.0370522580653429
1761478238869647000,4.230647216796875,-0.23978023149967193,-0.005600377290323377,0.034103491262346505
1761478238879683000,4.24068310546875,-0.10992343300879001,-0.000020823592320084572,0.007151333059370517
1761478238889719000,4.250718994140625,0.008540449330210685,-0.008372472352162003,-0.029665801075845957
1761478238899755000,4.260755126953125,0.097401805087924,-0.034384280965104694,-0.08884966531991959
1761478238909791000,4.270791015625,0.1400625506848097,-0.03738609312959015,-0.10884572077468037
1761478238919828200,4.280828125,0.11817629756927489,-0.05102437705546617,-0.05963219253346324
1761478238929864200,4.2908642578125,0.021782208219170568,-0.04586735961847007,0.00819821176379919
1761478238939900200,4.300900146484375,-0.13013386186659334,-0.015863339564204215,-0.0013986147515475749
1761478238949936000,4.31093603515625,-0.27047055331766606,0.018482362956181168,-0.06397402113005518
1761478238959972000,4.32097216796875,-0.32806524867415426,0.03192622028850019,-0.13328589615672826
1761478238970009000,4.331009033203125,-0.33838790524601936,0.02078537920154631,-0.15702406074926256
1761478238980045000,4.341045166015625,-0.30875965970158575,0.0343728097230196,-0.1379429281823337
1761478238990081000,4.3510810546875,-0.2872387327671051,0.02785276030451059,-0.04835296588912606
1761478239000117000,4.361116943359375,-0.2427653847903013,0.0348062327042222,0.01420198222324252
1761478239010153000,4.371153076171875,-0.18606033174991607,0.033941286437958476,0.03664908409193158
1761478239020190000,4.38118994140625,-0.13354045543968676,-0.005212035559862852,-0.0034380116246640682
1761478239030226000,4.391225830078125,-0.0897901610404253,0.0013483458690345287,-0.11392083208188414
1761478239040262000,4.401261962890625,-0.06883914294838905,0.016164660598337648,-0.18626462215036152
1761478239050297900,4.4112978515625,-0.09801730663776397,0.03084427027069032,-0.20366379297971723
1761478239060334000,4.421333984375,-0.11537760676145553,0.06617613428421318,-0.2008490278199315
1761478239070371000,4.43137109375,-0.1372077457755804,0.05978760229088366,-0.10155644054934382
1761478239080407000,4.441406982421875,-0.09585165303647518,0.0037211394149810075,-0.006075228260457515
1761478239090443000,4.451443115234375,0.011363690057396889,-0.028836145318672058,-0.011973930910229682
1761478239100479200,4.461479248046875,0.07587269484698772,-0.06098448392525315,-0.007663228104263543
1761478239110515200,4.47151513671875,0.05057692554891109,-0.05513970341980457,0.02171396528854966
1761478239120551200,4.48155126953125,-0.008894669595360755,-0.03590126139931381,0.046519320721179244
1761478239130588200,4.491588134765625,-0.09996551809608936,0.005182078813016414,0.09936243763640522
1761478239140624100,4.5016240234375,-0.20317571720182895,0.028120982786640523,0.12146525611206889
1761478239150660000,4.51166015625,-0.3035410482704639,0.00278130128160119,0.09115545804426073
1761478239160696000,4.521696044921875,-0.33236732978224753,-0.01895662940442562,0.00011456629037857055
1761478239170732000,4.53173193359375,-0.33449732754826544,-0.04527531200945377,-0.1078008878968656
1761478239180769000,4.54176904296875,-0.2955038722872734,-0.06342157487906515,-0.16459128113314508
1761478239190805200,4.55180517578125,-0.2608259421378374,-0.018170520528033373,-0.17793138583004472
1761478239200841200,4.56184130859375,-0.2345090130984783,0.004286372082307935,-0.1164610180839896
1761478239210877200,4.571877197265625,-0.18217910640239715,0.0307847221031785,0.007508037542551756
1761478239220913200,4.5819130859375,-0.10699790095090865,0.031974151083454486,0.08569456228986382
1761478239230950100,4.5919501953125,-0.014011574217677115,0.05160656085759401,0.07482450096830726
1761478239240986000,4.601986083984375,0.03132043641507625,0.02006283708065748,-0.021331980233639476
1761478239251022000,4.61202197265625,0.04519815512001514,0.004021218340098858,-0.1399662507034838
1761478239261058000,4.62205810546875,-0.0304296250551939,-0.0017105302449315785,-0.21256007001027463
1761478239271094000,4.632093994140625,-0.09687222825586796,0.005698650033026933,-0.18340835593640803
1761478239281130000,4.6421298828125,-0.14703940396010876,0.017380319998413322,-0.09752367790192365
1761478239291167000,4.6521669921875,-0.19799159256219862,0.004848243748769164,-0.009111527216434477
1761478239301203000,4.662202880859375,-0.18643676384687421,-0.0005985504150390625,0.05493585141077637
1761478239311239000,4.672239013671875,-0.16678513791561125,-0.009752966925129294,0.06542334315553307
1761478239321275000,4.68227490234375,-0.13507073374688625,-0.034891207573935386,0.05394216419830918
1761478239331311000,4.69231103515625,-0.12163549811244011,-0.04191343436092138,0.034153467883914705
1761478239341348000,4.70234814453125,-0.11980302198827265,-0.06418963664211333,0.04306026630848646
1761478239351384000,4.712384033203125,-0.1407978792220354,-0.0689339816249907,0.045592707395553586
1761478239361420000,4.722419921875,-0.1262111354649067,-0.07305405722968279,0.03393456443622708
1761478239371456300,4.732456298828125,-0.13033026122152805,-0.10285824386291205,0.0343465062379837
1761478239381492200,4.7424921875,-0.15343582699894903,-0.10200286914259195,0.036018969494849444
1761478239391529000,4.752529052734375,-0.15752397309541702,-0.06122764503136277,0.053226271013915534
1761478239401565200,4.762565185546875,-0.18275310689806937,-0.03570836917571723,0.06715878864601255
1761478239411601200,4.77260107421875,-0.21315701299011705,-0.03202244720458984,0.0961110346250236
1761478239421637000,4.78263720703125,-0.22397300603687761,0.0021461451832205055,0.09692731944397091
1761478239431673000,4.792673095703125,-0.23046061449050903,0.011037892169132828,0.11582067435383796
1761478239441710000,4.8027099609375,-0.21691315065324304,0.006789440944418311,0.07457271816432476
1761478239451746000,4.81274609375,-0.24693945560455322,-0.00268982360586524,-0.03305325155705213
1761478239461782000,4.822781982421875,-0.23953882395923137,0.0004229746524244547,-0.18773907861709593
1761478239471818000,4.83281787109375,-0.1897106709510088,-0.010648162199184298,-0.2958124998450279
1761478239481854200,4.842854248046875,-0.08890811750888825,0.00509644635617733,-0.2960400249905884
1761478239491891200,4.85289111328125,-0.007840192106366157,0.0015532207913696765,-0.1587828871153295
1761478239501927200,4.86292724609375,0.0018435820400714872,0.01818791005425155,-0.014596242237836121
1761478239511963100,4.872963134765625,-0.026425650110840797,0.0343654301341623,0.04159530832245946
1761478239521999000,4.8829990234375,-0.09723463182747363,0.03640519233345985,-0.014129647639393806
1761478239532035000,4.89303515625,-0.17914602231681345,0.035231910770386454,-0.10487857070937752
1761478239542071000,4.903071044921875,-0.21206746418774128,0.03233275526277721,-0.16032719394788145
1761478239552108000,4.91310791015625,-0.1451817933946848,-0.014509879128634929,-0.12621420420482754
1761478239562144000,4.92314404296875,-0.051693362358212466,-0.04938530461154878,-0.054445583675801754
1761478239572180000,4.933179931640625,0.017853052076697348,-0.0777034174054861,0.04094926550388336
1761478239582216000,4.9432158203125,0.021262568259239195,-0.08359590951018035,0.11875789684951304
1761478239592252000,4.953251953125,-0.04339958126544952,-0.09275960530526936,0.15255290668457747
1761478239602289200,4.9632890625,-0.1421580616593361,-0.08505582599490881,0.11414528848752378
1761478239612325000,4.9733251953125,-0.25454934608638285,-0.0447469042211771,0.034462533833086485
1761478239622361000,4.983361083984375,-0.3397171080231666,-0.02856361198760569,-0.025129180559515952
1761478239632397000,4.99339697265625,-0.33557752400040625,-0.04803951602578163,-0.05732756885290145
1761478239642433300,5.003433349609375,-0.3175730807542801,-0.05245645568519831,-0.020299276185035704
1761478239652470000,5.013469970703125,-0.3118371674507856,-0.04233304801248014,0.01396057468280196
1761478239662506000,5.023506103515625,-0.2793383349061012,-0.014180939435213804,-0.005699088424444198
1761478239672542200,5.033542236328125,-0.24425007039010524,0.01939231740795076,-0.03968815952688455
1761478239682578200,5.043578125,-0.18477847524583338,-0.00018880057036876677,-0.051258185811340805
1761478239692614100,5.0536142578125,-0.09902385333180427,-0.022668854860588908,-0.06317249548882245
1761478239702651100,5.063651123046875,-0.04236205491125583,-0.0009402765247970819,-0.0723290308907628
1761478239712687000,5.07368701171875,-0.060412090864777564,0.014564385794848202,-0.10504852044880389
1761478239722723000,5.08372314453125,-0.10569500165879726,0.03711355979852378,-0.1502228563018143
1761478239732759000,5.093759033203125,-0.09641513213813305,0.06634827598072587,-0.15838643514364956
1761478239742795000,5.103794921875,-0.04617372215390205,0.04957637020424008,-0.10267916096895932
1761478239752831000,5.1138310546875,0.025258944419026375,0.004082154747098684,-0.057938540358096355
1761478239762868200,5.1238681640625,0.02827858450114727,0.014697729850932956,-0.016476064635068177
1761478239772904200,5.133904296875,0.0464157142162323,-0.007956511962413787,-0.023110826474428175
1761478239782941000,5.14394091796875,0.0047989247143268585,-0.03598725918233395,-0.03976736224293709
1761478239792977000,5.153976806640625,-0.07362637722492217,-0.04265606942176819,-0.03822349380180239
1761478239803012900,5.164012939453125,-0.1303887134104967,-0.025324922327324747,-0.01221884558200836
1761478239813049900,5.1740498046875,-0.17368366525769233,-0.03279533127322793,0.021612112349271774
1761478239823085800,5.1840859375,-0.21976737104058264,-0.041622926981747146,0.023235329636931416
1761478239833121800,5.194121826171875,-0.31109073299765583,-0.01964738814756274,0.028202742785960435
1761478239843157800,5.20415771484375,-0.3786006731688976,-0.018649024759978056,0.017609452579170463
1761478239853193700,5.21419384765625,-0.40142157678604123,-0.04394128692671656,-0.011178835009783505
1761478239863230700,5.224230712890625,-0.3309206381052732,-0.05772738182544708,-0.022058979333937166
1761478239873266700,5.2342666015625,-0.2581926710247993,-0.05024564776793122,-0.0029050737917423247
1761478239883302700,5.244302734375,-0.1719113948881626,-0.023783538104221222,0.01817380846366286
1761478239893338600,5.254338623046875,-0.10133388383984565,-0.04202500497661531,0.015351006127893923
1761478239903374600,5.26437451171875,-0.07331131992638111,-0.04840871466435492,0.0008835048362612724
1761478239913411800,5.274411865234375,-0.04179565320014953,-0.03097995241433382,-0.0252631822027266
1761478239923447800,5.28444775390625,-0.04298866237699985,-0.016594064991548658,-0.021847382409870622
1761478239933483800,5.29448388671875,-0.06696691933572292,0.010048004348948597,-0.018149112413823602
1761478239943519700,5.304519775390625,-0.0360720148563385,0.00845130974203348,-0.030387685609608885
1761478239953555700,5.3145556640625,-0.021469489008188247,-0.027467121987789868,-0.014432576108723878
1761478239963592000,5.324592041015625,-0.04751753797829151,-0.041230566663295026,-0.030808249109238385
1761478239973628700,5.334628662109375,-0.09364859003424644,-0.013561273166909813,-0.047606823696941136
1761478239983664600,5.34466455078125,-0.14850070868432522,-0.031162250178679823,-0.029609686974436042
1761478239993700900,5.354700927734375,-0.1908387981981039,-0.03293992737568915,-0.03349661141037941
1761478240003736800,5.36473681640625,-0.21466332589983939,-0.02398402911238372,-0.019063450779765845
1761478240013772800,5.374772705078125,-0.21233283712565898,-0.013403744517639279,-0.03812690155953169
1761478240023809800,5.384809814453125,-0.14879180058538913,-0.028515315866470336,-0.027749299930036067
1761478240033845800,5.394845703125,-0.11827508176863193,-0.019127821252867577,0.007148556580394506
1761478240043881700,5.4048818359375,-0.18219138136208057,0.030894246892258524,0.030041502520442007
1761478240053917700,5.414917724609375,-0.2868441804915666,0.03193535344302654,0.011897504673153161
1761478240063953700,5.42495361328125,-0.3595131108611822,0.0053747518409043545,-0.022921587512642144
1761478240073991000,5.434990966796875,-0.37020752335488794,-0.0030745851397514343,-0.1134533607006073
1761478240084027000,5.44502685546875,-0.24424597873687742,-0.0003355886299163103,-0.21374080422744154
1761478240094062800,5.455062744140625,-0.081603347453475,-0.01985058256946504,-0.24277225292250512
1761478240104098800,5.465098876953125,0.030599136403203008,-0.01990918088890612,-0.16213979632779954
1761478240114134800,5.475134765625,0.10101122775673865,-0.013769143763929605,-0.0056575873702764505
1761478240124171800,5.485171875,0.0666717357814312,-0.01595284447856247,0.1304980190038681
1761478240134207700,5.495207763671875,-0.048395489856600755,0.0037917204331606624,0.142023913885653
1761478240144243700,5.50524365234375,-0.19314649061858652,0.019292071903869508,0.07223492286652326
1761478240154279700,5.51527978515625,-0.273933845514059,0.007831716538965701,-0.007230974166840314
1761478240164315600,5.525315673828125,-0.2957189763426781,-0.05576799138598144,-0.07941402071565389
1761478240174351600,5.5353515625,-0.23615327317416668,-0.09318944808989763,-0.10492869346141814
1761478240184388600,5.545388671875,-0.14529343707561493,-0.11642251270450651,-0.04796630465909838
1761478240194424800,5.5554248046875,-0.034248891082406044,-0.1305169429000467,0.024412995114177462
1761478240204460800,5.565460693359375,-0.0018915128350257872,-0.0864714649464935,0.09253566035628319
1761478240214496800,5.575496826171875,-0.05206453375816345,-0.041160277906060215,0.11475713677555321
1761478240224532700,5.58553271484375,-0.10446107594966887,-0.030440584840625524,0.11547244543805718
1761478240234569700,5.59556982421875,-0.210475226560235,0.009351619582623243,0.0644075902417302
1761478240244605700,5.605605712890625,-0.33019583096206184,0.029284619738534093,-0.017918372397869826
1761478240254641700,5.6156416015625,-0.39195173765122887,0.04683050556220114,-0.07997413881644606
1761478240264678000,5.625677978515625,-0.2975812630832195,0.022081848752871155,-0.131165835262835
1761478240274713900,5.6357138671875,-0.1674362953007221,-0.009764292036741971,-0.14868264112249016
1761478240284750600,5.64575048828125,-0.03223579769432545,-0.0032755145393311975,-0.15241174464821813
1761478240294786800,5.655786865234375,0.01245499242544174,-0.008212532550096512,-0.0563463027305901
1761478240304822800,5.66582275390625,-0.003421206620335579,-0.012059782562777399,0.011100801337510346
1761478240314858800,5.675858642578125,-0.07189326982200145,0.010622735496982932,-0.015274726021289825
1761478240324894700,5.685894775390625,-0.18434359095990657,0.00497391595505178,-0.08225421257764101
1761478240334930700,5.6959306640625,-0.2776321155101061,0.0435877973139286,-0.1671681458838284
1761478240344968000,5.705968017578125,-0.25224399175345896,0.05978614098615944,-0.1847184156216681
1761478240355004000,5.71600390625,-0.10745908872187138,0.03346811596825719,-0.11389496698826551
1761478240365039900,5.726039794921875,0.033037177205085755,0.0013947422940284013,0.016429010622948406
1761478240375075800,5.736075927734375,0.04134264873564243,-0.027839754692465066,0.11320888442024588
1761478240385111800,5.74611181640625,0.010818331134319304,-0.0317075360365212,0.08307999587729573
1761478240395148800,5.756148681640625,-0.14528759185671805,-0.0406828696526587,-0.06223959855288267
1761478240405184800,5.766184814453125,-0.28269056794345376,-0.041790465568378565,-0.15416837905719874
1761478240415220700,5.776220703125,-0.2989519669145346,-0.03873151638917625,-0.12332096698135137
1761478240425256700,5.786256591796875,-0.2644885562986135,-0.043055590133368966,-0.016828823595494032
1761478240435292700,5.796292724609375,-0.16886311323344708,-0.04128799593895673,0.08668445011004805
1761478240445328600,5.80632861328125,-0.1085989064067602,-0.022644962528347967,0.132808926294744
1761478240455365600,5.81636572265625,-0.08768354414999484,-0.02380881867595017,0.0841119692735374
1761478240465401600,5.826401611328125,-0.09537292960882186,-0.035241043924912806,-0.0092412910759449
1761478240475437600,5.8364375,-0.11034487329125403,-0.05262107166238129,-0.0818687203913927
1761478240485473500,5.8464736328125,-0.11631225726306438,-0.07430223065987229,-0.07782543634995817
1761478240495509800,5.856509765625,-0.1412982299596071,-0.06553674040213227,0.0010528700537979602
1761478240505546800,5.866546630859375,-0.208244691029191,-0.030836379225179553,0.05364128155559301
1761478240515582700,5.876582763671875,-0.2164630687981844,-0.033152985604479907,0.018045213647931813
1761478240525618700,5.88661865234375,-0.22050912931859493,-0.02339709606990218,-0.028343612561374902
1761478240535654700,5.896654541015625,-0.21367606842815876,-0.02656447405964136,-0.036302316480875015
1761478240545691000,5.90669091796875,-0.20584815128147602,-0.015240750686451792,-0.003089490447938442
1761478240555727600,5.9167275390625,-0.19316461079716682,0.004927665660530329,0.045948388965427876
1761478240565763600,5.926763671875,-0.18307225584983824,0.015066197837144135,0.0630931466422975
1761478240575799800,5.9367998046875,-0.12867021905481815,0.011858707032725214,0.007764350391179323
1761478240585835800,5.946835693359375,-0.05297755694985389,0.026338556349277495,-0.07964446847066282
1761478240595871700,5.956871826171875,0.013705869269371031,0.03717763801068067,-0.13836919077038765
1761478240605907700,5.96690771484375,0.028326515296101567,0.03084163992218673,-0.15821064018532632
1761478240615945000,5.976945068359375,0.0024660978525876997,0.048467312983795995,-0.16566811658442018
1761478240625981000,5.98698095703125,-0.09370587317943573,0.056141500873491165,-0.09434548625722528
1761478240636017000,5.997016845703125,-0.161632577458024,0.0323556977469474,-0.0004556348130106926
1761478240646052900,6.007052978515625,-0.19078034600913524,0.018850392550975082,0.020910832212120294
1761478240656088800,6.0170888671875,-0.1908206780195236,0.006370923271402716,-0.0707432230040431
1761478240666125800,6.027125732421875,-0.17519991503953933,-0.024850509748607873,-0.2028743961676955
1761478240676161800,6.037161865234375,-0.14559797298014163,-0.04209090981967747,-0.2536192256294191
1761478240686197800,6.04719775390625,-0.13021627945303915,-0.04166567014493048,-0.1407682147361338
1761478240696233700,6.057233642578125,-0.1395388190716505,-0.056706149018928405,0.052615445639193056
1761478240706269700,6.067269775390625,-0.15452069962620735,-0.07756386280432342,0.18555574322864413
1761478240716305700,6.0773056640625,-0.19742402180731294,-0.0554963348377496,0.2170417454689741
1761478240726342700,6.0873427734375,-0.26211189029514786,-0.04494396116323769,0.15944558880776166
1761478240736378600,6.097378662109375,-0.2561158647507429,-0.03744476451426744,0.07024111870080232
1761478240746414600,6.10741455078125,-0.20644436360895632,-0.06399316422194243,0.01146247425675392
1761478240756450600,6.117450439453125,-0.1598252357751131,-0.0848120803669095,0.007650076361745596
1761478240766486500,6.127486572265625,-0.1406365511804819,-0.08937734245583415,0.0337760128736496
1761478240776523800,6.137523681640625,-0.1432721603810787,-0.08862345534861087,0.039650457864999766
1761478240786559200,6.147559326171875,-0.12016425651609897,-0.1074545586772263,0.018152035023272037
1761478240796595200,6.15759521484375,-0.10379238290786742,-0.09031228521838784,0.0031268998488783836
1761478240806631200,6.167631103515625,-0.09440554588139057,-0.03986994583457708,0.006845774241536855
1761478240816667100,6.177667236328125,-0.08225450483858585,-0.02157185340411961,-0.005371171644330024
1761478240826703000,6.187703125,-0.13522270943820475,0.023528759625554084,-0.050400399938225746
1761478240836740000,6.197739990234375,-0.20221943939030168,0.05298208699449897,-0.08803191919624805
1761478240846776000,6.207776123046875,-0.21148761847317218,0.03446764839962125,-0.12509689061269164
1761478240856812000,6.21781201171875,-0.18972002330124377,0.03997326007857919,-0.1619395975805819
1761478240866848000,6.227847900390625,-0.17392507279813288,0.039518648178875446,-0.15552403144985436
1761478240876884000,6.237884033203125,-0.1509007555633783,-0.00749605484381318,-0.10034837993383407
1761478240886920000,6.247919921875,-0.12032500003576278,-0.014433014500141143,-0.06292626564279198
1761478240896957200,6.257957275390625,-0.09737491708099842,-0.03604987608976662,-0.09523381339907645
1761478240906993200,6.2679931640625,-0.08371230243146419,-0.030454028844088314,-0.14377762568518518
1761478240917029000,6.278029052734375,-0.031156185764074324,-0.04481587780416012,-0.15337094506919383
1761478240927065000,6.288065185546875,-0.013431728503108024,-0.03990823201835155,-0.107210813049227
1761478240937101000,6.29810107421875,0.00104220252931118,-0.021461451832205054,-0.01758680235594511
1761478240947138000,6.308137939453125,-0.023137129959464073,-0.03538571309261024,0.07556888959482312
1761478240957174000,6.318174072265625,-0.05981178688406944,-0.04873151687793433,0.15791998667567966
1761478240967210000,6.3282099609375,-0.11748714626133441,-0.06078801150508224,0.1844282005034387
1761478240977246000,6.338245849609375,-0.20581424901187417,-0.08448189856447279,0.132040572270751
1761478240987282000,6.348281982421875,-0.2810755339622497,-0.09564312485232948,0.039731706407666205
1761478240997318100,6.358318115234375,-0.4017582613945007,-0.07892952513433993,-0.04400850694403052
1761478241007355000,6.36835498046875,-0.4743365908712148,-0.043630029020458455,-0.09467091881930828
1761478241017390800,6.378390869140625,-0.45599838562607764,-0.025504005221277475,-0.039980566602200264
1761478241027427000,6.388427001953125,-0.3766320034444332,-0.021936010541394352,0.0462435725197196
1761478241037463300,6.39846337890625,-0.2019096427887678,0.007031213811039924,0.0694186964020133
1761478241047499300,6.408499267578125,-0.07535714654028415,-0.003605769407004118,0.0335762525178492
1761478241057535200,6.41853515625,-0.0013268646895885467,-0.016081585424765944,-0.04696355735734105
1761478241067572200,6.428572265625,0.03485036410689354,-0.002952712325751781,-0.13404080617725847
1761478241077608200,6.438608154296875,0.07506020942032336,0.005235197239741683,-0.15084712567999958
1761478241087644200,6.44864404296875,0.06663724898993968,0.014534209852293133,-0.14503040222525596
1761478241097680100,6.45868017578125,0.009444120171666145,0.007358326873555779,-0.15553265314772724
1761478241107716000,6.468716064453125,-0.08684066358506679,0.0070458999235183,-0.1450860779352486
1761478241117753000,6.478753173828125,-0.14662439341843128,0.011100362946093081,-0.13767331746071576
1761478241127789000,6.4887890625,-0.1349941613793373,0.02293890397362411,-0.06997355380579828
1761478241137825000,6.498824951171875,-0.1318091016024351,0.016664061487838625,-0.02948503768146038
1761478241147861000,6.508861083984375,-0.14660451967418192,0.01111526825428009,-0.025377894623577594
1761478241157897000,6.51889697265625,-0.1480962195366621,-0.0029046354003250596,-0.043805823978781695
1761478241167933000,6.528932861328125,-0.09942600439190864,-0.04941387311890721,-0.034305005183815955
1761478241177970200,6.53897021484375,-0.11529109752178192,-0.07173932136930525,0.016381810480356217
1761478241188006100,6.549006103515625,-0.17170155152976513,-0.07979520205296575,0.07193769348561764
1761478241198042000,6.5590419921875,-0.2299871517598629,-0.10029409246332943,0.13146744855791329
1761478241208078000,6.569078125,-0.2839443673968315,-0.07930164638236165,0.10104410711303352
1761478241218114000,6.579114013671875,-0.33000936847925183,-0.04161189413107931,-0.0009739595986902713
1761478241228150000,6.58914990234375,-0.2949409777075052,-0.019757278262823818,-0.08260404892861843
1761478241238187000,6.59918701171875,-0.17632336611151694,-0.017498612615838644,-0.07036708316802978
1761478241248223000,6.609222900390625,-0.014594927063584328,-0.03977846815884113,0.02060366595908999
1761478241258259000,6.619259033203125,0.1075450134396553,-0.054179991542175406,0.10961246736347674
1761478241268295200,6.629295166015625,0.1338128426402807,-0.06487038544788956,0.12976459016278385
1761478241278331100,6.6393310546875,0.0230967979490757,-0.059785118072852486,0.049000616142898794
1761478241288367000,6.6493671875,-0.15923136153519152,-0.014154343689233065,-0.082513448035717
1761478241298404000,6.659404052734375,-0.309510770329833,0.013992869517207145,-0.18240487798228858
1761478241308440000,6.669440185546875,-0.3797755621671676,-0.004618965037539601,-0.1819971739642322
1761478241318476300,6.679476318359375,-0.2726747853636741,-0.015407777816429734,-0.10680062481313943
1761478241328512300,6.68951220703125,-0.11605039145648478,-0.04068199286982417,-0.006956687270104885
1761478241338548200,6.69954833984375,-0.03534720771312713,-0.06018836511150002,0.062165072011947625
1761478241348584200,6.709584228515625,-0.029117957934737204,-0.07395254043936729,0.11395590339526533
1761478241358621200,6.71962109375,-0.10329320121407508,-0.06220562321804463,0.1562931161262095
1761478241368657200,6.7296572265625,-0.21108429836928844,-0.053730275013297794,0.14376651976928115
1761478241378693000,6.739693115234375,-0.2918050177693367,-0.03172258747518063,0.04724617369100451
1761478241388729000,6.74972900390625,-0.2789391064554453,-0.0015918723013252018,-0.10419935627356171
1761478241398765000,6.75976513671875,-0.18733517399132252,-0.03339183586165309,-0.19379311795905232
1761478241408801000,6.769801025390625,-0.08438157999515533,-0.0694903003334999,-0.1855596887513995
1761478241418838000,6.779838134765625,-0.10781213994324207,-0.01970759390220046,-0.09865151288807392
1761478241428874000,6.7898740234375,-0.1680114648401737,0.011883768408745526,0.02084317380338907
1761478241438910000,6.799909912109375,-0.21697803258299828,0.01261544368416071,0.09928761883452535
1761478241448946000,6.80994580078125,-0.1971434513002634,0.008167305168882012,0.08408815000653266
1761478241458982000,6.81998193359375,-0.1317348673224449,-0.00359444429539144,0.00833133662417531
1761478241469019100,6.83001904296875,-0.05775836148560047,-0.03248750743307173,-0.05303396331220865
1761478241479055000,6.84005517578125,-0.0018307225584983824,-0.031593262007087466,-0.08916355357468128
1761478241489091000,6.850091064453125,-0.0057160395592451094,0.006020721594244241,-0.11409151247367262
1761478241499127000,6.860126953125,-0.09141337832808494,0.024523250555619595,-0.1283066464394331
1761478241509163300,6.870163330078125,-0.17533493959605692,0.015653203944861888,-0.1104573937550187
1761478241519199200,6.88019921875,-0.17059680515825748,-0.010135828762874007,-0.08036006939411162
1761478241529236000,6.890236083984375,-0.15311784709095955,-0.013094386307522654,-0.05620163356289267
1761478241539272200,6.900272216796875,-0.1705132185280323,-0.00475917722582817,-0.04296338180527091
1761478241549308200,6.91030810546875,-0.20901333731412886,-0.020815189817920327,-0.03721650871634483
1761478241559344000,6.92034423828125,-0.2092155818879604,0.0031154286067932844,-0.02011164465844631
1761478241569380000,6.930380126953125,-0.2182218951642513,0.0358391559485346,-0.007283288875967264
1761478241579416000,6.940416015625,-0.21992343838512896,0.019957477010041476,-0.0038313948564231396
1761478241589453000,6.950453125,-0.1475514451354742,0.007901859165728092,-0.03666296648681164
1761478241599489000,6.960489013671875,-0.0602449176043272,-0.02567329737357795,-0.07411635269895195
1761478241609525000,6.97052490234375,-0.00649286915063858,-0.043037616085261104,-0.07694003181755542
1761478241619561200,6.980561279296875,-0.010157236877083777,-0.04829042204692959,-0.06043517947942018
1761478241629597200,6.99059716796875,-0.030167174726724623,-0.035890155483409764,-0.05642477479428053
1761478241639633200,7.000633056640625,-0.07363514505326747,-0.03848440976031124,-0.05241685432717204
1761478241649670100,7.010670166015625,-0.1069914712101221,-0.0036507775925099847,-0.007683832500874996
1761478241659706000,7.0207060546875,-0.11762743151485919,0.005323094718903303,0.07012509110569953
1761478241669742000,7.0307421875,-0.1428770235836506,0.01134878474920988,0.09850538241565227
1761478241679778000,7.040778076171875,-0.20691957990527152,0.01943352620117366,-0.0015916531056165695
1761478241689814000,7.05081396484375,-0.27170214093923567,-0.0097482907500118,-0.1365663791321218
1761478241699850000,7.06085009765625,-0.3326993382155895,-0.00777830585129559,-0.20819851379990575
1761478241709887000,7.070886962890625,-0.3438514313489198,-0.02048888047300279,-0.13644406792670488
1761478241719923000,7.0809228515625,-0.2583376324534416,-0.04512574747093022,-0.01873451108634472
1761478241729959000,7.090958984375,-0.16456512377858162,-0.03909954598397016,0.04806508885845542
1761478241739995000,7.100994873046875,-0.09343757763206958,-0.03798953891545534,0.07832154930382966
1761478241750031000,7.111031005859375,-0.07606909420192241,-0.05049070857018232,0.08767199984267353
1761478241760067000,7.121067138671875,-0.12417232311367987,-0.05268251952603459,0.06684446199983358
1761478241770104000,7.13110400390625,-0.21004560297131536,0.006291574424877763,-0.01506751301139593
1761478241780140300,7.141140380859375,-0.22783903381526469,0.024229162979871034,-0.10675342467054724
1761478241790176500,7.151176513671875,-0.1715542520135641,0.007725479685515165,-0.1347530460998416
1761478241800212700,7.161212646484375,-0.04839081368148326,-0.008638795138150452,-0.080659636862576
1761478241810248700,7.171248779296875,0.03296645005643368,-0.04417597246542573,0.03722483815327286
1761478241820284700,7.18128466796875,0.035113398957252503,-0.07962854024916886,0.12505363599285482
1761478241830321700,7.19132177734375,-0.08078735489547252,-0.04784611234553158,0.08405585517212748
1761478241840357600,7.201357666015625,-0.22318857766091824,-0.0049715048022568225,-0.034003391888737675
1761478241850393600,7.2113935546875,-0.3018769144505262,0.005884527993947267,-0.14813582089468835
1761478241860429600,7.2214296875,-0.2602081025004387,0.011738660849630832,-0.19750906974226234
1761478241870465500,7.231465576171875,-0.16363690301775932,-0.016276158148795364,-0.11371171937584876
1761478241880501500,7.24150146484375,-0.07807049715220928,-0.046005525980144735,0.032799861317873
1761478241890538800,7.251538818359375,-0.017203063735365866,-0.059997007257863874,0.09039894058853387
1761478241900574700,7.26157470703125,-0.020754034215211867,-0.056232247896865005,0.06590323562696576
1761478241910610700,7.271610595703125,-0.028255203625559805,-0.050839156681671736,0.05357026214599609
1761478241920646700,7.281646728515625,-0.06051262862980365,-0.038252135374397034,0.023471038088947533
1761478241930682600,7.2916826171875,-0.12972528106570244,-0.025233152390643953,-0.00258241770863533
1761478241940718600,7.301718505859375,-0.21306582757532597,0.0041246056493371725,0.0029141338810324668
1761478241950755600,7.311755615234375,-0.31350013222694395,0.028293343678861854,-0.025899288149178027
1761478241960791600,7.32179150390625,-0.38933015697598455,0.029431480863317847,-0.12829013369604944
1761478241970827500,7.33182763671875,-0.37049335455894467,0.0016717326045036314,-0.18066577922999857
1761478241980863500,7.341863525390625,-0.26133272261619567,-0.04054258439913392,-0.14315364856794477
1761478241990899500,7.3518994140625,-0.15697861417233944,-0.052417584979534144,-0.04785524550005793
1761478242000935700,7.361935791015625,-0.10077508091330528,-0.03547814061641693,0.03505377772450447
1761478242010972400,7.371972412109375,-0.0716688134163618,-0.019177213352546095,0.11646540199816226
1761478242021008400,7.38200830078125,-0.053472062468528744,0.0028618191719055174,0.13661328701376915
1761478242031044600,7.392044677734375,-0.03602876023650169,0.01887771894931793,0.08225304353386163
1761478242041080600,7.40208056640625,-0.04416822755038738,-0.006166340610012411,-0.0053033671051263805
1761478242051116500,7.412116455078125,-0.07401625332534313,-0.0027022446960210797,-0.12136442608609795
1761478242061152800,7.42215283203125,-0.08533844232857227,-0.002159516121447086,-0.1807138561554253
1761478242071189800,7.432189697265625,-0.08957271889746189,-0.028382994723692535,-0.1770063799396157
1761478242081225700,7.442225830078125,-0.11715630687177181,-0.0036409868508577347,-0.12508417726159096
1761478242091261700,7.45226171875,-0.1619634168475866,0.023179873122647403,-0.033736265385150906
1761478242101297700,7.462297607421875,-0.19719255113899706,0.028198285806551576,0.05715864202678203
1761478242111333600,7.472333740234375,-0.2229547689050436,0.028737507249787447,0.06728373019993304
1761478242121369600,7.48236962890625,-0.24412381366193292,0.017422113313525913,0.02384016366228461
1761478242131406600,7.492406494140625,-0.26530688694417476,0.006026859074085951,-0.0295898132301867
1761478242141442600,7.502442626953125,-0.25194296298027036,0.007553191858530044,-0.07521993002668023
1761478242151478500,7.512478515625,-0.19540566772222517,-0.002841726231947541,-0.10514204395115374
1761478242161514500,7.522514404296875,-0.1176093113362789,-0.005555661365762353,-0.06278320391029119
1761478242171550500,7.532550537109375,-0.03561842586994171,-0.01246916708126664,-0.026565935364365575
1761478242181586400,7.54258642578125,-0.002364975565671921,-0.033325931018590924,-0.022429127820581197
1761478242191623700,7.552623779296875,-0.05618482855856418,0.0015945757150650024,-0.06793664115071296
1761478242201659600,7.56265966796875,-0.15046411771178245,0.033862449048086996,-0.10497107129842043
1761478242211695600,7.572695556640625,-0.19685762009620666,0.04348981683216989,-0.07256634677797555
1761478242221731600,7.582731689453125,-0.22825930505394934,0.031542408602684736,-0.05128025151267648
1761478242231767600,7.592767578125,-0.20127134488523005,0.009073021836951375,-0.07246829323098063
1761478242241803500,7.602803466796875,-0.11793021385371684,-0.011783522904664277,-0.0888261383138597
1761478242251840500,7.612840576171875,-0.004102759143710136,-0.04195902706831693,-0.056184097906202074
1761478242261876500,7.62287646484375,0.025592121896147728,-0.062391939570382235,0.014288637593388557
1761478242271912400,7.632912353515625,-0.04473287569582462,-0.027096023653075098,0.10069938532859087
1761478242281948700,7.64294873046875,-0.12665244949162005,-0.008858210042491555,0.1130078088901937
1761478242291984600,7.652984619140625,-0.2011690535545349,-0.020130422424152493,0.10252090166732668
1761478242302020600,7.6630205078125,-0.28703415010571476,-0.0021362083110958337,0.05873787404224276
1761478242312057600,7.6730576171875,-0.34402737243771553,0.005981485562399029,-0.051609775727987285
1761478242322093600,7.683093505859375,-0.33213936624526974,-0.013748831628262995,-0.18827464679852127
1761478242332129500,7.693129638671875,-0.2745060924440622,-0.0037891631498932835,-0.26099983740001914
1761478242342165500,7.70316552734375,-0.16717735210359094,-0.02703771759457886,-0.13059636481180786
1761478242352201700,7.71320166015625,-0.06638590457737445,-0.06834653712585569,0.036795068433880807
1761478242362237700,7.72323779296875,-0.07605857280790805,-0.05635054051429033,0.09792349087446928
1761478242372274700,7.733274658203125,-0.09179799373149872,0.00037314416132867335,0.05736833925470709
1761478242382310700,7.743310546875,-0.05983166062831878,-0.011950550034642219,0.004434329185634851
1761478242392346600,7.7533466796875,-0.05457330170869827,0.010978636262565851,-0.05034516261965036
1761478242402382600,7.763382568359375,-0.07229132922887802,0.036627383716776964,-0.11356968055665492
1761478242412418600,7.77341845703125,-0.058628714579343794,0.01251877837665379,-0.08683686419278383
1761478242422454500,7.78345458984375,-0.1158189207881689,0.011667568374797701,-0.013821312342584132
1761478242432491500,7.793491455078125,-0.1097106670409441,-0.027612814068794247,0.002493278120458126
1761478242442527500,7.803527587890625,-0.0892623377740383,-0.09912439109683036,-0.038869828881323336
1761478242452563500,7.8135634765625,-0.06311024390757083,-0.11711144481673837,-0.13754837590679525
1761478242462599400,7.823599365234375,-0.07250234163105487,-0.09431837905459105,-0.10044263408854603
1761478242472635400,7.833635498046875,-0.09882336232364178,-0.07865501904189587,0.018885171603411435
1761478242482671600,7.843671630859375,-0.20141104561686515,-0.029799656588584182,0.10823854866176844
1761478242492708600,7.85370849609375,-0.30833646585345265,0.009137684570997952,0.1614785559400916
1761478242502744600,7.86374462890625,-0.3972738094568252,0.026040450185537335,0.16565028866678475
1761478242512780500,7.873780517578125,-0.4518482802093029,0.033655016842484474,0.09239800545126199
1761478242522816800,7.883816650390625,-0.39802725817263124,-0.01711976936608553,-0.01252674248740077
1761478242532852700,7.893852783203125,-0.22354162888228893,-0.06948277461417018,-0.08784194958209991
1761478242542888700,7.903888671875,-0.08849544505476951,-0.07109992748722434,-0.12167334590479731
1761478242552925700,7.91392578125,0.00474222609102726,-0.07246924307905137,-0.150024849511683
1761478242562961700,7.923961669921875,-0.01734627159833908,-0.046167730804532764,-0.12186126969233155
1761478242572997600,7.93399755859375,-0.07535188584327697,0.00047390112206339833,-0.041742023316770786
1761478242583033600,7.94403369140625,-0.10293196668624878,0.0520587616045028,0.00642272652387619
1761478242593069600,7.954069580078125,-0.06290858385562896,0.08709164267145096,0.002924801405519247
1761478242603105500,7.96410546875,-0.0076888009369373315,0.08196626248173415,0.021676409757137298
1761478242613141500,7.9741416015625,0.040835868257284164,0.027512349369004367,0.01631838985532522
1761478242623178500,7.984178466796875,0.0809843387722969,-0.027962504289299247,-0.05729395884424448
1761478242633214500,7.99421435546875,0.07570318349897862,-0.07674852783344685,-0.12198328863680362
1761478242643250400,8.00425048828125,-0.020954525223374366,-0.0751347359612584,-0.1281508713558316
1761478242653286700,8.01428662109375,-0.17308979101777075,-0.05143821855336427,-0.09872180164530872
1761478242663322600,8.024322509765625,-0.37925942933857437,-0.0631208383668214,-0.09035130205452442
1761478242673358600,8.034358642578125,-0.4740846619367599,-0.013375760532170534,-0.0728683984644711
1761478242683395600,8.0443955078125,-0.4228115708172321,0.023685338426753876,-0.0077959145732223985
1761478242693431600,8.054431640625,-0.30004560737013813,0.02221972285360098,0.1037881451241672
1761478242703467500,8.064467529296875,-0.19110884731113909,0.016985475461930036,0.16453165990039706
1761478242713503500,8.07450341796875,-0.10463818608224391,0.007008709718286991,0.14738938644155858
1761478242723539700,8.084539794921875,-0.04899579383730888,-0.008132087725028395,0.037234190503507854
1761478242733575700,8.09457568359375,-0.07295593061745166,-0.025613383879885075,-0.08987403993159532
1761478242743612400,8.1046123046875,-0.14571195474863052,-0.014406637949869036,-0.1522453020401299
1761478242753648600,8.114648681640626,-0.22831366558969018,-0.013619944551587104,-0.1738442626468837
1761478242763684600,8.1246845703125,-0.30554946548342704,-0.017557941587641835,-0.1600629900537431
1761478242773720600,8.134720458984376,-0.2943441808581352,0.01595876276269555,-0.11902853048443794
1761478242783755500,8.144755615234375,-0.12511164979040623,0.031234511697292328,-0.0589237520031631
1761478242793791500,8.15479150390625,0.08459785309433937,-0.0032818712148815392,0.023299627044796944
1761478242803828500,8.164828369140626,0.20242168396413326,-0.017732494436949492,0.03795870538577437
1761478242813864400,8.174864501953126,0.20406068334281444,-0.01613784565664828,-0.025316227564215657
1761478242823900700,8.184900634765626,-0.01230301673412323,0.002211684700101614,-0.07773731967508793
1761478242833936600,8.1949365234375,-0.38885377163588997,0.009518719777837395,-0.11173691217154263
1761478242843972600,8.20497265625,-0.6208908416628838,0.020344503566250203,-0.23790654658228158
1761478242854008600,8.215008544921876,-0.6147212131172418,0.030383813152089715,-0.15272782486006617
1761478242864045600,8.225045654296874,-0.09494330601990222,0.06061323946006596,0.06696954968422651
1761478242874081500,8.23508154296875,0.4337047207534313,0.4189993190526962,0.19680019082054495
1761478242884117500,8.245117431640624,0.9227607418507338,-0.393957378385216,0.38749446598142384
1761478242894153500,8.255153564453124,0.16133856294751167,-0.6398101347316056,0.08253580599799752
1761478242904189700,8.265189697265624,-0.5921148290336131,0.03879749429747462,-0.13587357456237076
1761478242914225700,8.2752255859375,-0.8132067266762256,0.1346761814713478,-0.10888020756617188
1761478242924261600,8.28526171875,-0.6759487120181322,-0.10577486196197569,-0.01812923866957426
1761478242934298600,8.295298583984374,-0.8282078964531421,0.09010733723081647,-0.17825024252086877
1761478242944334600,8.30533447265625,-0.5923901388436555,0.09492715860269964,-0.2468124682240188
1761478242954370600,8.31537060546875,-0.24319150124788283,0.09763064540773629,-0.18961919327527282
1761478242964406500,8.325406494140625,0.0715162532031536,0.45230654537081716,-0.2049056097343564
