time,seconds_elapsed,z,y,x
1761478234727208000,0.0882080078125,-0.993560791015625,-0.0802154541015625,-0.163909912109375
1761478234737244000,0.098243896484375,-0.9965362548828125,-0.0882720947265625,-0.1750640869140625
1761478234747280000,0.10827978515625,-0.9896087646484375,-0.1007843017578125,-0.1851043701171875
1761478234757315800,0.11831591796875,-0.9834747314453125,-0.1090850830078125,-0.1960296630859375
1761478234767351800,0.128351806640625,-0.9760284423828125,-0.11151123046875,-0.2030181884765625
1761478234777386500,0.138386474609375,-0.9744110107421875,-0.1100921630859375,-0.2087860107421875
1761478234787423500,0.148423583984375,-0.9696044921875,-0.1066436767578125,-0.2025299072265625
1761478234797459500,0.15845947265625,-0.9684600830078125,-0.0998382568359375,-0.1856231689453125
1761478234807495400,0.168495361328125,-0.9897003173828125,-0.0907745361328125,-0.1712799072265625
1761478234817531400,0.178531494140625,-1.0205841064453125,-0.0828857421875,-0.1734466552734375
1761478234827567400,0.1885673828125,-1.035552978515625,-0.0855865478515625,-0.182403564453125
1761478234837604400,0.198604248046875,-1.0321807861328125,-0.0905914306640625,-0.194976806640625
1761478234847640300,0.208640380859375,-1.0185546875,-0.0917816162109375,-0.2065277099609375
1761478234857676300,0.21867626953125,-0.9994659423828125,-0.094573974609375,-0.2116851806640625
1761478234867712300,0.228712158203125,-0.9787750244140625,-0.1002960205078125,-0.20623779296875
1761478234877748200,0.238748291015625,-0.9680328369140625,-0.1010894775390625,-0.19757080078125
1761478234887784200,0.2487841796875,-0.96527099609375,-0.099151611328125,-0.1908721923828125
1761478234897821400,0.258821533203125,-0.96514892578125,-0.0994873046875,-0.188079833984375
1761478234907857400,0.268857421875,-0.9682464599609375,-0.098297119140625,-0.19012451171875
1761478234917893400,0.278893310546875,-0.9800262451171875,-0.0964813232421875,-0.1926422119140625
1761478234927929300,0.288929443359375,-0.99346923828125,-0.097015380859375,-0.189544677734375
1761478234937965300,0.29896533203125,-0.99737548828125,-0.093658447265625,-0.191741943359375
1761478234948002300,0.309002197265625,-1.00042724609375,-0.093109130859375,-0.1914215087890625
1761478234958038300,0.319038330078125,-1.0064544677734375,-0.0914764404296875,-0.19281005859375
1761478234968074200,0.32907421875,-1.0052947998046875,-0.091033935546875,-0.1950225830078125
1761478234978110200,0.339110107421875,-0.9947662353515625,-0.09368896484375,-0.19146728515625
1761478234988146400,0.349146484375,-0.9915008544921875,-0.0966033935546875,-0.190093994140625
1761478234998182400,0.359182373046875,-0.996673583984375,-0.0986175537109375,-0.1911163330078125
1761478235008219100,0.36921923828125,-1.0006561279296875,-0.0987548828125,-0.1944732666015625
1761478235018255400,0.37925537109375,-1.00201416015625,-0.0976715087890625,-0.1997833251953125
1761478235028291300,0.389291259765625,-0.9984588623046875,-0.0966796875,-0.202606201171875
1761478235038327300,0.399327392578125,-0.9870147705078125,-0.0967559814453125,-0.2010955810546875
1761478235048363500,0.409363525390625,-0.97332763671875,-0.0967559814453125,-0.191253662109375
1761478235058399500,0.4193994140625,-0.9686431884765625,-0.096221923828125,-0.1800689697265625
1761478235068436500,0.4294365234375,-0.9794921875,-0.0927886962890625,-0.173004150390625
1761478235078472400,0.439472412109375,-1.0049285888671875,-0.089019775390625,-0.179840087890625
1761478235088508400,0.44950830078125,-1.0193634033203125,-0.09161376953125,-0.1934356689453125
1761478235098544400,0.45954443359375,-1.01495361328125,-0.097442626953125,-0.1977081298828125
1761478235108580400,0.469580322265625,-0.999237060546875,-0.1005859375,-0.1933441162109375
1761478235118617300,0.479617431640625,-0.9841766357421875,-0.1046905517578125,-0.1856231689453125
1761478235128653300,0.4896533203125,-0.9787445068359375,-0.10400390625,-0.18121337890625
1761478235138689300,0.499689208984375,-0.98236083984375,-0.0964508056640625,-0.1852264404296875
1761478235148725200,0.509725341796875,-0.9910430908203125,-0.09375,-0.1907806396484375
1761478235158761200,0.51976123046875,-0.998443603515625,-0.095062255859375,-0.189666748046875
1761478235168798500,0.529798583984375,-0.997344970703125,-0.0948944091796875,-0.186981201171875
1761478235178834400,0.53983447265625,-0.9949951171875,-0.095458984375,-0.1882171630859375
1761478235188870400,0.549870361328125,-0.98431396484375,-0.0934600830078125,-0.1945037841796875
1761478235198906400,0.55990625,-0.976226806640625,-0.0921173095703125,-0.1975860595703125
1761478235208942300,0.5699423828125,-0.9767303466796875,-0.091583251953125,-0.196380615234375
1761478235218978300,0.579978271484375,-0.9883880615234375,-0.0868988037109375,-0.1989898681640625
1761478235229015300,0.590015380859375,-0.999725341796875,-0.08294677734375,-0.202362060546875
1761478235239051300,0.60005126953125,-1.01263427734375,-0.0876312255859375,-0.2094573974609375
1761478235249087200,0.610087158203125,-1.0083770751953125,-0.0930938720703125,-0.21588134765625
1761478235259123200,0.620123291015625,-0.9924163818359375,-0.098388671875,-0.214385986328125
1761478235269159400,0.630159423828125,-0.9762420654296875,-0.099884033203125,-0.207244873046875
1761478235279196200,0.640196044921875,-0.96649169921875,-0.0994873046875,-0.1949005126953125
1761478235289232100,0.650232177734375,-0.9676513671875,-0.095458984375,-0.1822357177734375
1761478235299268400,0.660268310546875,-0.97747802734375,-0.08782958984375,-0.1786041259765625
1761478235309304300,0.67030419921875,-0.9902801513671875,-0.087310791015625,-0.180511474609375
1761478235319340300,0.68034033203125,-0.997344970703125,-0.093231201171875,-0.1862945556640625
1761478235329377500,0.69037744140625,-1.0102996826171875,-0.0952911376953125,-0.194854736328125
1761478235339413500,0.70041357421875,-1.01751708984375,-0.0981292724609375,-0.200958251953125
1761478235349449500,0.710449462890625,-1.014923095703125,-0.1000518798828125,-0.1987457275390625
1761478235359485400,0.7204853515625,-1.002349853515625,-0.103912353515625,-0.1913604736328125
1761478235369521400,0.730521484375,-0.9971466064453125,-0.101715087890625,-0.1856536865234375
1761478235379557400,0.740557373046875,-0.990997314453125,-0.09918212890625,-0.187713623046875
1761478235389594400,0.750594482421875,-0.982635498046875,-0.102386474609375,-0.1902618408203125
1761478235399630300,0.76063037109375,-0.971527099609375,-0.10174560546875,-0.189788818359375
1761478235409666300,0.770666259765625,-0.9678955078125,-0.099273681640625,-0.1846160888671875
1761478235419702300,0.780702392578125,-0.9793701171875,-0.1012115478515625,-0.17962646484375
1761478235429738200,0.79073828125,-0.9921417236328125,-0.098297119140625,-0.1883697509765625
1761478235439775200,0.800775146484375,-1.0002288818359375,-0.0976409912109375,-0.2031402587890625
1761478235449811200,0.810811279296875,-0.9994964599609375,-0.1053619384765625,-0.2140350341796875
1761478235459847400,0.820847412109375,-0.991119384765625,-0.103515625,-0.217620849609375
1761478235469883400,0.83088330078125,-0.9854583740234375,-0.10009765625,-0.2082977294921875
1761478235479919400,0.84091943359375,-0.9843902587890625,-0.1000213623046875,-0.1910858154296875
1761478235489956400,0.850956298828125,-0.983673095703125,-0.0995330810546875,-0.1822052001953125
1761478235499992300,0.860992431640625,-0.9805908203125,-0.100677490234375,-0.1827850341796875
1761478235510028300,0.8710283203125,-0.9773101806640625,-0.1007232666015625,-0.189300537109375
1761478235520064300,0.881064208984375,-0.9803009033203125,-0.100677490234375,-0.19598388671875
1761478235530100200,0.891100341796875,-0.986785888671875,-0.100738525390625,-0.1976165771484375
1761478235540137200,0.90113720703125,-0.989471435546875,-0.1028289794921875,-0.19403076171875
1761478235550173200,0.911173095703125,-0.988189697265625,-0.10211181640625,-0.1904449462890625
1761478235560209200,0.921209228515625,-0.9960479736328125,-0.102142333984375,-0.1885528564453125
1761478235570245400,0.931245361328125,-1.0061798095703125,-0.103729248046875,-0.1920928955078125
1761478235580281300,0.94128125,-1.0062408447265625,-0.103118896484375,-0.195526123046875
1761478235590318300,0.951318359375,-0.9966888427734375,-0.1013641357421875,-0.1916961669921875
1761478235600354600,0.9613544921875,-0.9927215576171875,-0.101531982421875,-0.1818389892578125
1761478235610390500,0.971390625,-0.9881439208984375,-0.1030120849609375,-0.179595947265625
1761478235620426500,0.981426513671875,-0.987091064453125,-0.1019439697265625,-0.1872711181640625
1761478235630462500,0.99146240234375,-0.989013671875,-0.097412109375,-0.199066162109375
1761478235640499500,1.00149951171875,-0.992584228515625,-0.097808837890625,-0.201812744140625
1761478235650535400,1.011535400390625,-0.989349365234375,-0.1022796630859375,-0.1915283203125
1761478235660571400,1.0215712890625,-0.981109619140625,-0.104766845703125,-0.18157958984375
1761478235670607400,1.031607421875,-0.98236083984375,-0.10687255859375,-0.1803741455078125
1761478235680643300,1.041643310546875,-0.9976348876953125,-0.1046295166015625,-0.1898651123046875
1761478235690679300,1.05167919921875,-1.00762939453125,-0.100738525390625,-0.202239990234375
1761478235700716300,1.06171630859375,-1.010223388671875,-0.09912109375,-0.2057037353515625
1761478235710752300,1.071752197265625,-1.00506591796875,-0.099639892578125,-0.19927978515625
1761478235720788200,1.081788330078125,-0.9886627197265625,-0.100616455078125,-0.1909027099609375
1761478235730824200,1.09182421875,-0.9660797119140625,-0.1047210693359375,-0.18359375
1761478235740861400,1.101861328125,-0.955230712890625,-0.1067657470703125,-0.1817779541015625
1761478235750897400,1.1118974609375,-0.959442138671875,-0.10595703125,-0.1875
1761478235760933400,1.121933349609375,-0.972503662109375,-0.1070556640625,-0.195648193359375
1761478235770969300,1.13196923828125,-0.9877471923828125,-0.1038665771484375,-0.1965484619140625
1761478235781005800,1.142005859375,-1.0020751953125,-0.100128173828125,-0.1929779052734375
1761478235791043000,1.15204296875,-1.01080322265625,-0.0996551513671875,-0.190521240234375
1761478235801079000,1.1620791015625,-1.0128021240234375,-0.099395751953125,-0.19024658203125
1761478235811115000,1.172114990234375,-1.0037384033203125,-0.1043243408203125,-0.190704345703125
1761478235821151000,1.18215087890625,-0.9979248046875,-0.1096954345703125,-0.194091796875
1761478235831187000,1.19218701171875,-0.9983062744140625,-0.109375,-0.1981353759765625
1761478235841224000,1.202223876953125,-0.9978485107421875,-0.1061553955078125,-0.194580078125
1761478235851260000,1.212260009765625,-0.995452880859375,-0.1048583984375,-0.1864013671875
1761478235861295900,1.2222958984375,-0.99139404296875,-0.1034698486328125,-0.1832275390625
1761478235871331800,1.232331787109375,-0.9870758056640625,-0.102020263671875,-0.1843414306640625
1761478235881367800,1.242367919921875,-0.979095458984375,-0.1029510498046875,-0.186767578125
1761478235891404800,1.25240478515625,-0.969482421875,-0.1050872802734375,-0.1893768310546875
1761478235901440800,1.262440673828125,-0.9648895263671875,-0.1085357666015625,-0.1911163330078125
1761478235911476700,1.272476806640625,-0.967987060546875,-0.1080474853515625,-0.1946563720703125
1761478235921513000,1.282512939453125,-0.9774017333984375,-0.10321044921875,-0.1953125
1761478235931549200,1.292549072265625,-0.990142822265625,-0.1005401611328125,-0.192779541015625
1761478235941586000,1.3025859375,-1.0017547607421875,-0.0998687744140625,-0.1935882568359375
1761478235951622000,1.312621826171875,-1.01171875,-0.10107421875,-0.1965789794921875
1761478235961658000,1.322658203125,-1.0125579833984375,-0.1038970947265625,-0.1973724365234375
1761478235971694000,1.332694091796875,-1.0041656494140625,-0.106597900390625,-0.188751220703125
1761478235981730000,1.34272998046875,-0.9966278076171875,-0.107635498046875,-0.1775665283203125
1761478235991767000,1.35276708984375,-0.9891204833984375,-0.109100341796875,-0.1719207763671875
1761478236001803000,1.362802978515625,-0.98394775390625,-0.110595703125,-0.1710662841796875
1761478236011839000,1.3728388671875,-0.983551025390625,-0.1084747314453125,-0.1739044189453125
1761478236021875000,1.382875,-0.98748779296875,-0.1035003662109375,-0.1852569580078125
1761478236031911000,1.392910888671875,-0.99700927734375,-0.1003265380859375,-0.1979522705078125
1761478236041948000,1.402947998046875,-1.0052032470703125,-0.0987091064453125,-0.20904541015625
1761478236051984100,1.412984130859375,-1.0059356689453125,-0.101287841796875,-0.2108001708984375
1761478236062020000,1.42302001953125,-0.9984893798828125,-0.10540771484375,-0.20458984375
1761478236072056000,1.43305615234375,-0.988128662109375,-0.108917236328125,-0.1931610107421875
1761478236082092000,1.443092041015625,-0.9775848388671875,-0.1081390380859375,-0.1878204345703125
1761478236092129000,1.45312890625,-0.9691925048828125,-0.1074676513671875,-0.1836395263671875
1761478236102165000,1.4631650390625,-0.967864990234375,-0.1053924560546875,-0.1780242919921875
1761478236112201000,1.473200927734375,-0.9739837646484375,-0.1052093505859375,-0.178070068359375
1761478236122237000,1.48323681640625,-0.9836578369140625,-0.1046600341796875,-0.1851348876953125
1761478236132274000,1.49327392578125,-0.9960174560546875,-0.103515625,-0.197601318359375
1761478236142310000,1.503309814453125,-1.0077056884765625,-0.102142333984375,-0.208984375
1761478236152345900,1.513345947265625,-1.01141357421875,-0.1024932861328125,-0.21014404296875
1761478236162381800,1.5233818359375,-1.00830078125,-0.10382080078125,-0.2028045654296875
1761478236172417800,1.533417724609375,-1.0040435791015625,-0.1062469482421875,-0.1928558349609375
1761478236182455000,1.543455078125,-0.995880126953125,-0.1092071533203125,-0.1871337890625
1761478236192491000,1.553490966796875,-0.9883880615234375,-0.1131134033203125,-0.18798828125
1761478236202527000,1.56352685546875,-0.98248291015625,-0.1144256591796875,-0.1931915283203125
1761478236212563000,1.57356298828125,-0.98162841796875,-0.1148529052734375,-0.1962127685546875
1761478236222599000,1.583598876953125,-0.9825439453125,-0.1110992431640625,-0.1936187744140625
1761478236232636000,1.593635986328125,-0.98687744140625,-0.1085968017578125,-0.1866912841796875
1761478236242671900,1.603671875,-0.99346923828125,-0.1113128662109375,-0.1793670654296875
1761478236252707800,1.613707763671875,-0.99578857421875,-0.108795166015625,-0.178497314453125
1761478236262744000,1.623744140625,-0.9976806640625,-0.107330322265625,-0.181396484375
1761478236272780000,1.633780029296875,-0.9926605224609375,-0.1079864501953125,-0.180694580078125
1761478236282816800,1.643816650390625,-0.982513427734375,-0.1079864501953125,-0.1796417236328125
1761478236292853000,1.65385302734375,-0.978973388671875,-0.106201171875,-0.1783294677734375
1761478236302889000,1.663888916015625,-0.983917236328125,-0.1085662841796875,-0.179534912109375
1761478236312925000,1.673925048828125,-0.991668701171875,-0.10809326171875,-0.1866912841796875
1761478236322961000,1.6839609375,-0.9933319091796875,-0.10943603515625,-0.197265625
1761478236332998100,1.693998046875,-0.99591064453125,-0.112945556640625,-0.203277587890625
1761478236343034000,1.7040341796875,-0.9980621337890625,-0.1077117919921875,-0.2046051025390625
1761478236353070000,1.714070068359375,-0.9992523193359375,-0.104583740234375,-0.19879150390625
1761478236363106000,1.72410595703125,-0.9937744140625,-0.1008148193359375,-0.1903533935546875
1761478236373143000,1.73414306640625,-0.98944091796875,-0.0999298095703125,-0.18927001953125
1761478236383179000,1.744178955078125,-0.983795166015625,-0.102813720703125,-0.188323974609375
1761478236393215000,1.754215087890625,-0.979888916015625,-0.1046905517578125,-0.188140869140625
1761478236403251000,1.7642509765625,-0.978179931640625,-0.106781005859375,-0.187347412109375
1761478236413287000,1.774286865234375,-0.978515625,-0.1077728271484375,-0.1897735595703125
1761478236423324000,1.784323974609375,-0.984527587890625,-0.1087188720703125,-0.1884918212890625
1761478236433360000,1.79435986328125,-0.9932708740234375,-0.109832763671875,-0.1865234375
1761478236443395800,1.804395751953125,-1.00054931640625,-0.1068267822265625,-0.1934661865234375
1761478236453431800,1.814431884765625,-0.99884033203125,-0.1038360595703125,-0.1992645263671875
1761478236463468000,1.824468017578125,-0.9879913330078125,-0.1072845458984375,-0.1975555419921875
1761478236473505000,1.834505126953125,-0.9807891845703125,-0.1105804443359375,-0.1910552978515625
1761478236483541000,1.844541015625,-0.9777984619140625,-0.1132354736328125,-0.1812744140625
1761478236493577000,1.854576904296875,-0.9822540283203125,-0.1116485595703125,-0.178253173828125
1761478236503613000,1.864613037109375,-0.9943084716796875,-0.108306884765625,-0.18182373046875
1761478236513649000,1.87464892578125,-1.00689697265625,-0.1027069091796875,-0.19061279296875
1761478236523686000,1.884685791015625,-1.0128021240234375,-0.1026153564453125,-0.197296142578125
1761478236533721900,1.894721923828125,-1.0100860595703125,-0.103515625,-0.1962890625
1761478236543757800,1.9047578125,-0.99920654296875,-0.10418701171875,-0.1928863525390625
1761478236553793800,1.914793701171875,-0.9853363037109375,-0.1071929931640625,-0.1914520263671875
1761478236563830800,1.924830810546875,-0.9700164794921875,-0.110015869140625,-0.192138671875
1761478236573866800,1.93486669921875,-0.9626007080078125,-0.110107421875,-0.19140625
1761478236583903000,1.944903076171875,-0.9633331298828125,-0.1088714599609375,-0.193084716796875
1761478236593939000,1.95493896484375,-0.9706573486328125,-0.10638427734375,-0.1934967041015625
1761478236603975200,1.96497509765625,-0.9847564697265625,-0.1066741943359375,-0.1909332275390625
1761478236614012000,1.975011962890625,-0.9971923828125,-0.1072998046875,-0.1895599365234375
1761478236624047900,1.9850478515625,-1.004150390625,-0.10467529296875,-0.1927947998046875
1761478236634084000,1.995083984375,-1.0082550048828125,-0.1060333251953125,-0.1953887939453125
1761478236644120000,2.0051201171875,-1.01080322265625,-0.1046600341796875,-0.198883056640625
1761478236654156000,2.015156005859375,-1.011474609375,-0.1001739501953125,-0.1990966796875
1761478236664193000,2.025193115234375,-1.0064849853515625,-0.101898193359375,-0.1940460205078125
1761478236674229000,2.03522900390625,-0.9985198974609375,-0.1011199951171875,-0.1919097900390625
1761478236684265000,2.045264892578125,-0.9883880615234375,-0.1018524169921875,-0.188018798828125
1761478236694301000,2.055301025390625,-0.9825897216796875,-0.1048736572265625,-0.1850433349609375
1761478236704338200,2.065338134765625,-0.9782257080078125,-0.1056671142578125,-0.1861419677734375
1761478236714374100,2.0753740234375,-0.9815826416015625,-0.1064910888671875,-0.188507080078125
1761478236724410000,2.08541015625,-0.985687255859375,-0.1043701171875,-0.1946563720703125
1761478236734446000,2.095446044921875,-0.98931884765625,-0.1033477783203125,-0.197723388671875
1761478236744482000,2.10548193359375,-0.99658203125,-0.1023406982421875,-0.2005462646484375
1761478236754519000,2.11551904296875,-1.00341796875,-0.1002349853515625,-0.1997528076171875
1761478236764555000,2.125554931640625,-1.0040435791015625,-0.1021881103515625,-0.193756103515625
1761478236774591200,2.13559130859375,-0.9900054931640625,-0.106292724609375,-0.1876220703125
1761478236784627200,2.145627197265625,-0.9759979248046875,-0.109375,-0.1824188232421875
1761478236794663200,2.1556630859375,-0.9696807861328125,-0.1101531982421875,-0.1812896728515625
1761478236804700200,2.1657001953125,-0.967193603515625,-0.1068572998046875,-0.18048095703125
1761478236814736100,2.175736083984375,-0.9715576171875,-0.105804443359375,-0.1802825927734375
1761478236824772000,2.185772216796875,-0.987060546875,-0.104888916015625,-0.1850738525390625
1761478236834808000,2.19580810546875,-1.00762939453125,-0.0984039306640625,-0.190704345703125
1761478236844844000,2.205843994140625,-1.017578125,-0.0986175537109375,-0.1904754638671875
1761478236854881000,2.215881103515625,-1.017303466796875,-0.097808837890625,-0.1892547607421875
1761478236864917000,2.2259169921875,-1.009063720703125,-0.096405029296875,-0.183685302734375
1761478236874953000,2.235952880859375,-0.9991302490234375,-0.098388671875,-0.1869049072265625
1761478236884989000,2.245989013671875,-0.9889984130859375,-0.10205078125,-0.1981201171875
1761478236895026200,2.256026123046875,-0.9832000732421875,-0.10382080078125,-0.2053070068359375
1761478236905062100,2.266062255859375,-0.983245849609375,-0.1063232421875,-0.204376220703125
1761478236915098000,2.27609814453125,-0.9880523681640625,-0.1029510498046875,-0.2004547119140625
1761478236925134000,2.286134033203125,-0.9978179931640625,-0.097991943359375,-0.1938934326171875
1761478236935170000,2.296170166015625,-1.004608154296875,-0.09869384765625,-0.1877593994140625
1761478236945207000,2.30620703125,-1.006072998046875,-0.0997161865234375,-0.185211181640625
1761478236955243000,2.316242919921875,-1.0003662109375,-0.100616455078125,-0.18359375
1761478236965279000,2.326279052734375,-0.9930572509765625,-0.1045684814453125,-0.181365966796875
1761478236975315200,2.336315185546875,-0.986602783203125,-0.10723876953125,-0.1819915771484375
1761478236985351200,2.34635107421875,-0.9824676513671875,-0.1074981689453125,-0.184783935546875
1761478236995388000,2.356387939453125,-0.982147216796875,-0.10894775390625,-0.18157958984375
1761478237005424000,2.366424072265625,-0.9853515625,-0.1073455810546875,-0.1775970458984375
1761478237015460000,2.376460205078125,-0.9897613525390625,-0.1026153564453125,-0.1766357421875
1761478237025496000,2.38649609375,-0.994537353515625,-0.1020050048828125,-0.1772918701171875
1761478237035533300,2.396533203125,-0.9958648681640625,-0.1016693115234375,-0.1820526123046875
1761478237045569300,2.4065693359375,-0.995513916015625,-0.098358154296875,-0.18603515625
1761478237055605200,2.416605224609375,-0.99566650390625,-0.10076904296875,-0.1900787353515625
1761478237065641200,2.42664111328125,-0.995635986328125,-0.099029541015625,-0.2028045654296875
1761478237075677200,2.43667724609375,-0.99359130859375,-0.1018218994140625,-0.21063232421875
1761478237085714200,2.446714111328125,-0.9920654296875,-0.1005859375,-0.2095947265625
1761478237095750100,2.456750244140625,-0.990447998046875,-0.0981292724609375,-0.20330810546875
1761478237105786000,2.4667861328125,-0.98406982421875,-0.0966339111328125,-0.1968841552734375
1761478237115822000,2.476822021484375,-0.980316162109375,-0.095458984375,-0.1923065185546875
1761478237125858000,2.486858154296875,-0.97613525390625,-0.0949249267578125,-0.1917572021484375
1761478237135895000,2.49689501953125,-0.9793243408203125,-0.0962066650390625,-0.1927490234375
1761478237145931000,2.506930908203125,-0.990020751953125,-0.09906005859375,-0.1923370361328125
1761478237155967200,2.51696728515625,-0.9970703125,-0.0997467041015625,-0.1945343017578125
1761478237166003200,2.527003173828125,-1.003997802734375,-0.1022491455078125,-0.1973419189453125
1761478237176039200,2.5370390625,-1.00335693359375,-0.1054534912109375,-0.1944122314453125
1761478237186076200,2.547076171875,-1.0003204345703125,-0.104034423828125,-0.18878173828125
1761478237196112100,2.557112060546875,-0.99310302734375,-0.102508544921875,-0.1837615966796875
1761478237206148000,2.567148193359375,-0.9892578125,-0.10101318359375,-0.179290771484375
1761478237216184000,2.57718408203125,-0.9875335693359375,-0.100128173828125,-0.1768035888671875
1761478237226221000,2.587220947265625,-0.981964111328125,-0.099212646484375,-0.1784820556640625
1761478237236257000,2.597257080078125,-0.978271484375,-0.0986785888671875,-0.1826019287109375
1761478237246293000,2.60729296875,-0.978790283203125,-0.0986480712890625,-0.1897735595703125
1761478237256329000,2.617328857421875,-0.9837493896484375,-0.09820556640625,-0.1968536376953125
1761478237266365000,2.627364990234375,-0.987945556640625,-0.0966033935546875,-0.200958251953125
1761478237276402200,2.637402099609375,-0.9945526123046875,-0.0960540771484375,-0.2037811279296875
1761478237286438100,2.647438232421875,-0.999114990234375,-0.0969696044921875,-0.206146240234375
1761478237296474000,2.65747412109375,-1.001861572265625,-0.0989990234375,-0.204010009765625
1761478237306510300,2.66751025390625,-1.00543212890625,-0.0966796875,-0.198394775390625
1761478237316546300,2.67754638671875,-1.0030517578125,-0.094268798828125,-0.1902313232421875
1761478237326583000,2.6875830078125,-0.9976959228515625,-0.097991943359375,-0.1851348876953125
1761478237336619300,2.697619384765625,-0.994720458984375,-0.1024932861328125,-0.1869964599609375
1761478237346655200,2.7076552734375,-0.9860076904296875,-0.1044921875,-0.1923675537109375
1761478237356691200,2.717691162109375,-0.980987548828125,-0.10601806640625,-0.19464111328125
1761478237366727200,2.72772705078125,-0.9729156494140625,-0.1032867431640625,-0.191192626953125
1761478237376764200,2.73776416015625,-0.9752655029296875,-0.1010589599609375,-0.1842498779296875
1761478237386800000,2.747800048828125,-0.9805908203125,-0.099151611328125,-0.1772003173828125
1761478237396836000,2.757836181640625,-0.988494873046875,-0.0962066650390625,-0.17864990234375
1761478237406872000,2.7678720703125,-0.9977569580078125,-0.0982818603515625,-0.18316650390625
1761478237416909300,2.777909423828125,-1.0050201416015625,-0.1042327880859375,-0.1884918212890625
1761478237426945300,2.7879453125,-1.006317138671875,-0.1037445068359375,-0.1947174072265625
1761478237436981200,2.797981201171875,-1.0065765380859375,-0.1019134521484375,-0.19000244140625
1761478237447017200,2.808017333984375,-1.0065765380859375,-0.1034088134765625,-0.1852264404296875
1761478237457053200,2.81805322265625,-1.0021514892578125,-0.09844970703125,-0.1853179931640625
1761478237467090200,2.828090087890625,-0.9961090087890625,-0.097015380859375,-0.1842498779296875
1761478237477126100,2.838126220703125,-0.9903106689453125,-0.09808349609375,-0.182525634765625
1761478237487162000,2.848162109375,-0.989227294921875,-0.09954833984375,-0.183807373046875
1761478237497198000,2.858197998046875,-0.9879913330078125,-0.0979461669921875,-0.1902008056640625
1761478237507234000,2.868234130859375,-0.9899749755859375,-0.0998382568359375,-0.195098876953125
1761478237517271000,2.87827099609375,-0.9932098388671875,-0.0974273681640625,-0.1965789794921875
1761478237527307000,2.88830712890625,-0.993927001953125,-0.093597412109375,-0.196197509765625
1761478237537343000,2.898343017578125,-0.9915618896484375,-0.0953826904296875,-0.196502685546875
1761478237547379000,2.90837890625,-0.9847259521484375,-0.097015380859375,-0.1988372802734375
1761478237557415000,2.918414794921875,-0.9786376953125,-0.098480224609375,-0.2014312744140625
1761478237567452200,2.9284521484375,-0.972442626953125,-0.1000823974609375,-0.1975555419921875
1761478237577488100,2.938488037109375,-0.972442626953125,-0.09991455078125,-0.1897125244140625
1761478237587524000,2.948524169921875,-0.980072021484375,-0.0970001220703125,-0.1833953857421875
1761478237597560000,2.95856005859375,-0.99267578125,-0.0949859619140625,-0.1811065673828125
1761478237607596000,2.968595947265625,-1.003662109375,-0.0968017578125,-0.18505859375
1761478237617633000,2.978633056640625,-1.0094757080078125,-0.0991668701171875,-0.1900482177734375
1761478237627669000,2.9886689453125,-1.0097198486328125,-0.102935791015625,-0.18743896484375
1761478237637705000,2.998705078125,-1.0034332275390625,-0.10577392578125,-0.182525634765625
1761478237647741200,3.0087412109375,-0.9993896484375,-0.10467529296875,-0.1780548095703125
1761478237657777200,3.018777099609375,-1.0051116943359375,-0.0998382568359375,-0.1802215576171875
1761478237667814100,3.028814208984375,-1.009185791015625,-0.0973052978515625,-0.184356689453125
1761478237677850000,3.03885009765625,-1.00555419921875,-0.0999603271484375,-0.1833953857421875
1761478237687886300,3.04888623046875,-0.997222900390625,-0.1017608642578125,-0.185516357421875
1761478237697922300,3.05892236328125,-0.9905242919921875,-0.0994110107421875,-0.19024658203125
1761478237707959300,3.068959228515625,-0.9848480224609375,-0.0988006591796875,-0.1927490234375
1761478237717995300,3.078995361328125,-0.976409912109375,-0.09881591796875,-0.1937408447265625
1761478237728031200,3.08903125,-0.97833251953125,-0.0980682373046875,-0.1939849853515625
1761478237738067200,3.099067138671875,-0.9875030517578125,-0.0990142822265625,-0.191009521484375
1761478237748103200,3.109103271484375,-0.9949798583984375,-0.0993804931640625,-0.1907501220703125
1761478237758140200,3.11914013671875,-0.993927001953125,-0.100433349609375,-0.19293212890625
1761478237768176000,3.129176025390625,-0.9904022216796875,-0.103179931640625,-0.1935272216796875
1761478237778211300,3.13921142578125,-0.98431396484375,-0.105133056640625,-0.1907806396484375
1761478237788247300,3.149247314453125,-0.9820098876953125,-0.10003662109375,-0.18731689453125
1761478237798283300,3.159283203125,-0.989105224609375,-0.0945892333984375,-0.1837921142578125
1761478237808320500,3.169320556640625,-1.0000762939453125,-0.0891265869140625,-0.1841888427734375
1761478237818356500,3.1793564453125,-1.00714111328125,-0.0879364013671875,-0.1873321533203125
1761478237828392400,3.189392333984375,-1.0048980712890625,-0.09307861328125,-0.19427490234375
1761478237838428400,3.199428466796875,-0.9977264404296875,-0.0983123779296875,-0.2002105712890625
1761478237848464400,3.20946435546875,-0.989593505859375,-0.105499267578125,-0.197540283203125
1761478237858501400,3.21950146484375,-0.983551025390625,-0.10467529296875,-0.1871795654296875
1761478237868537300,3.229537353515625,-0.9855194091796875,-0.1018218994140625,-0.1808319091796875
1761478237878573300,3.2395732421875,-0.990386962890625,-0.1002197265625,-0.1803131103515625
1761478237888609500,3.249609619140625,-0.9931488037109375,-0.0974273681640625,-0.182647705078125
1761478237898645500,3.2596455078125,-0.994049072265625,-0.096099853515625,-0.18798828125
1761478237908682200,3.26968212890625,-0.993988037109375,-0.0980377197265625,-0.1893768310546875
1761478237918718500,3.279718505859375,-0.9969482421875,-0.096282958984375,-0.1849212646484375
1761478237928754700,3.289754638671875,-0.99847412109375,-0.09356689453125,-0.1808624267578125
1761478237938790700,3.299790771484375,-0.9987945556640625,-0.0968475341796875,-0.1811981201171875
1761478237948826600,3.30982666015625,-0.9963836669921875,-0.098602294921875,-0.189178466796875
1761478237958863600,3.319863525390625,-0.9940338134765625,-0.100677490234375,-0.1963348388671875
1761478237968899600,3.329899658203125,-0.994293212890625,-0.1005706787109375,-0.197265625
1761478237978935600,3.339935546875,-0.9913330078125,-0.098724365234375,-0.1917724609375
1761478237988971500,3.349971435546875,-0.9862518310546875,-0.098175048828125,-0.18646240234375
1761478237999007500,3.360007568359375,-0.978912353515625,-0.0989227294921875,-0.182281494140625
1761478238009044500,3.37004443359375,-0.97900390625,-0.099578857421875,-0.1781463623046875
1761478238019080400,3.38008056640625,-0.9867401123046875,-0.101226806640625,-0.17633056640625
1761478238029116400,3.390116455078125,-0.99542236328125,-0.10235595703125,-0.178558349609375
1761478238039152400,3.40015234375,-1.0012969970703125,-0.09991455078125,-0.18341064453125
1761478238049188400,3.410188232421875,-1.0010833740234375,-0.098541259765625,-0.1863861083984375
1761478238059225600,3.4202255859375,-0.9947357177734375,-0.09783935546875,-0.1881103515625
1761478238069261600,3.430261474609375,-0.984527587890625,-0.0988922119140625,-0.1868438720703125
1761478238079297500,3.440297607421875,-0.9826507568359375,-0.10205078125,-0.1822662353515625
1761478238089333500,3.45033349609375,-0.993438720703125,-0.1020965576171875,-0.182220458984375
1761478238099369500,3.460369384765625,-1.0096588134765625,-0.1007080078125,-0.19091796875
1761478238109406500,3.470406494140625,-1.022064208984375,-0.0971832275390625,-0.198028564453125
1761478238119442400,3.4804423828125,-1.023529052734375,-0.095306396484375,-0.199005126953125
1761478238129478400,3.490478515625,-1.0087890625,-0.094085693359375,-0.1952056884765625
1761478238139514400,3.500514404296875,-0.986541748046875,-0.0968170166015625,-0.193359375
1761478238149550300,3.51055029296875,-0.96728515625,-0.0998382568359375,-0.192626953125
1761478238159587300,3.52058740234375,-0.9566497802734375,-0.100189208984375,-0.19073486328125
1761478238169623300,3.530623291015625,-0.9623260498046875,-0.0992279052734375,-0.189453125
1761478238179659300,3.5406591796875,-0.9760589599609375,-0.0955657958984375,-0.18988037109375
1761478238189695200,3.5506953125,-0.9871368408203125,-0.097503662109375,-0.1900177001953125
1761478238199731500,3.5607314453125,-0.989501953125,-0.1022796630859375,-0.19256591796875
1761478238209768400,3.5707685546875,-0.98736572265625,-0.1027069091796875,-0.19378662109375
1761478238219804400,3.580804443359375,-0.9899139404296875,-0.1041412353515625,-0.1935882568359375
1761478238229840600,3.590840576171875,-0.99322509765625,-0.1016387939453125,-0.1935882568359375
1761478238239876600,3.600876708984375,-1.001708984375,-0.096466064453125,-0.1903228759765625
1761478238249912600,3.61091259765625,-1.0159759521484375,-0.093170166015625,-0.1885986328125
1761478238259949600,3.620949462890625,-1.026885986328125,-0.0890045166015625,-0.19384765625
1761478238269985500,3.630985595703125,-1.0209808349609375,-0.0914764404296875,-0.2009429931640625
1761478238280021500,3.641021484375,-1.003631591796875,-0.099761962890625,-0.1995697021484375
1761478238290057500,3.651057373046875,-0.9864349365234375,-0.1042938232421875,-0.1934814453125
1761478238300093400,3.661093505859375,-0.9729156494140625,-0.103759765625,-0.1869049072265625
1761478238310130400,3.67113037109375,-0.9682769775390625,-0.1031646728515625,-0.1842803955078125
1761478238320166400,3.68116650390625,-0.9724884033203125,-0.100433349609375,-0.1847991943359375
1761478238330202400,3.691202392578125,-0.9806976318359375,-0.0986328125,-0.1873626708984375
1761478238340238600,3.701238525390625,-0.9861907958984375,-0.096435546875,-0.1912078857421875
1761478238350274600,3.711274658203125,-0.98779296875,-0.0978851318359375,-0.1906280517578125
1761478238360311600,3.7213115234375,-0.9925537109375,-0.09991455078125,-0.189117431640625
1761478238370347500,3.731347412109375,-1.001678466796875,-0.096343994140625,-0.191680908203125
1761478238380383500,3.741383544921875,-1.0089263916015625,-0.0975341796875,-0.1875152587890625
1761478238390419500,3.75141943359375,-1.010894775390625,-0.098541259765625,-0.1805877685546875
1761478238400455400,3.761455322265625,-1.005035400390625,-0.098541259765625,-0.1815185546875
1761478238410492400,3.771492431640625,-0.99871826171875,-0.0992584228515625,-0.1851043701171875
1761478238420528400,3.7815283203125,-0.990447998046875,-0.10137939453125,-0.193328857421875
1761478238430564400,3.791564453125,-0.983551025390625,-0.1019134521484375,-0.1973724365234375
1761478238440600300,3.801600341796875,-0.9871368408203125,-0.09771728515625,-0.20111083984375
1761478238450636300,3.81163623046875,-0.9935455322265625,-0.09326171875,-0.2064056396484375
1761478238460672300,3.82167236328125,-0.998382568359375,-0.09326171875,-0.2097320556640625
1761478238470709500,3.83170947265625,-0.9984588623046875,-0.091583251953125,-0.2095947265625
1761478238480745500,3.841745361328125,-0.9909515380859375,-0.092071533203125,-0.2010498046875
1761478238490781400,3.851781494140625,-0.98248291015625,-0.0926513671875,-0.19512939453125
1761478238500817700,3.861817626953125,-0.972625732421875,-0.0958709716796875,-0.1966094970703125
1761478238510853600,3.871853515625,-0.967315673828125,-0.1002044677734375,-0.199554443359375
1761478238520890400,3.881890380859375,-0.965057373046875,-0.1036834716796875,-0.1983642578125
1761478238530926600,3.891926513671875,-0.9675140380859375,-0.1043853759765625,-0.191131591796875
1761478238540962600,3.901962646484375,-0.9799346923828125,-0.1035614013671875,-0.184478759765625
1761478238550998500,3.91199853515625,-0.9972381591796875,-0.1013946533203125,-0.1846160888671875
1761478238561034500,3.922034423828125,-1.0113677978515625,-0.09942626953125,-0.190948486328125
1761478238571071500,3.932071533203125,-1.01776123046875,-0.1020965576171875,-0.192657470703125
1761478238581107500,3.942107421875,-1.01409912109375,-0.102691650390625,-0.1880035400390625
1761478238591143400,3.952143310546875,-1.0052947998046875,-0.1009674072265625,-0.1785430908203125
1761478238601179400,3.962179443359375,-0.9979705810546875,-0.10430908203125,-0.171630859375
1761478238611215400,3.97221533203125,-0.9945068359375,-0.1060943603515625,-0.172760009765625
1761478238621252600,3.982252685546875,-0.9966583251953125,-0.10638427734375,-0.1808929443359375
1761478238631288600,3.99228857421875,-1.0052947998046875,-0.1075592041015625,-0.19091796875
1761478238641322500,4.002322509765625,-1.0030364990234375,-0.1048126220703125,-0.19793701171875
1761478238651359500,4.012359375,-0.9949188232421875,-0.1038665771484375,-0.1948089599609375
1761478238661395500,4.0223955078125,-0.9859771728515625,-0.1025238037109375,-0.1851348876953125
1761478238671431400,4.032431396484375,-0.9796142578125,-0.0970916748046875,-0.180450439453125
1761478238681467600,4.042467529296875,-0.979736328125,-0.097381591796875,-0.1803436279296875
1761478238691503600,4.052503662109375,-0.9832305908203125,-0.0988616943359375,-0.1840362548828125
1761478238701540400,4.062540283203125,-0.98992919921875,-0.0974273681640625,-0.1962738037109375
1761478238711576600,4.07257666015625,-0.9900665283203125,-0.0993804931640625,-0.2069091796875
1761478238721612500,4.082612548828125,-0.9821014404296875,-0.1002044677734375,-0.206787109375
1761478238731648500,4.0926484375,-0.9744720458984375,-0.1014862060546875,-0.20037841796875
1761478238741684500,4.1026845703125,-0.9739837646484375,-0.1007843017578125,-0.19464111328125
1761478238751720400,4.112720458984375,-0.98529052734375,-0.0956878662109375,-0.1904754638671875
1761478238761757400,4.12275732421875,-0.995635986328125,-0.095489501953125,-0.1871490478515625
1761478238771793400,4.13279345703125,-1.0043182373046875,-0.09771728515625,-0.1871490478515625
1761478238781830100,4.142830078125,-1.0079345703125,-0.0990142822265625,-0.1937713623046875
1761478238791866000,4.1528662109375,-1.0036773681640625,-0.099334716796875,-0.1988525390625
1761478238801902000,4.162902099609375,-0.9970855712890625,-0.1023712158203125,-0.1944580078125
1761478238811939000,4.17293896484375,-0.9934234619140625,-0.1064300537109375,-0.183837890625
1761478238821975000,4.18297509765625,-0.9970550537109375,-0.1072998046875,-0.1755218505859375
1761478238832011000,4.193010986328125,-1.0037689208984375,-0.104705810546875,-0.1788177490234375
1761478238842047000,4.203046875,-1.011810302734375,-0.103759765625,-0.182403564453125
1761478238852083000,4.2130830078125,-1.010467529296875,-0.100677490234375,-0.184356689453125
1761478238862120200,4.2231201171875,-1.00408935546875,-0.0994415283203125,-0.18475341796875
1761478238872156200,4.23315625,-0.991790771484375,-0.0992584228515625,-0.1872100830078125
1761478238882192100,4.243192138671875,-0.9787750244140625,-0.09991455078125,-0.190277099609375
1761478238892228000,4.25322802734375,-0.968963623046875,-0.1026153564453125,-0.196533203125
1761478238902264000,4.26326416015625,-0.9635772705078125,-0.1031646728515625,-0.1998443603515625
1761478238912301000,4.273301025390625,-0.96337890625,-0.104278564453125,-0.1961822509765625
1761478238922337000,4.2833369140625,-0.9721527099609375,-0.103973388671875,-0.188629150390625
1761478238932373000,4.293373046875,-0.98638916015625,-0.1013031005859375,-0.18768310546875
1761478238942409000,4.303408935546875,-1.0016937255859375,-0.0972900390625,-0.192718505859375
1761478238952445000,4.31344482421875,-1.00994873046875,-0.0948638916015625,-0.2005157470703125
1761478238962481000,4.32348095703125,-1.0119171142578125,-0.0963897705078125,-0.2034759521484375
1761478238972518000,4.333517822265625,-1.00970458984375,-0.0952911376953125,-0.203521728515625
1761478238982554000,4.34355419921875,-1.0070037841796875,-0.096099853515625,-0.1954803466796875
1761478238992590000,4.353590087890625,-1.0034332275390625,-0.0963287353515625,-0.188018798828125
1761478239002626300,4.363626220703125,-0.9974517822265625,-0.0957794189453125,-0.184539794921875
1761478239012662300,4.373662353515625,-0.9919586181640625,-0.1000213623046875,-0.1865234375
1761478239022699000,4.383698974609375,-0.9872283935546875,-0.100616455078125,-0.1975250244140625
1761478239032735200,4.3937353515625,-0.9838409423828125,-0.0989227294921875,-0.2065887451171875
1761478239042771200,4.403771240234375,-0.98583984375,-0.0981292724609375,-0.2098388671875
1761478239052807200,4.41380712890625,-0.9879150390625,-0.094940185546875,-0.21026611328125
1761478239062843100,4.423843017578125,-0.990631103515625,-0.09405517578125,-0.2027740478515625
1761478239072880000,4.433880126953125,-0.9883575439453125,-0.099945068359375,-0.1909332275390625
1761478239082916000,4.443916015625,-0.9785614013671875,-0.10357666015625,-0.1893768310546875
1761478239092952000,4.4539521484375,-0.969879150390625,-0.107452392578125,-0.1895904541015625
1761478239102988000,4.463988037109375,-0.970367431640625,-0.10723876953125,-0.186767578125
1761478239113024000,4.47402392578125,-0.9758148193359375,-0.1049652099609375,-0.184844970703125
1761478239123060000,4.48406005859375,-0.9847259521484375,-0.101318359375,-0.1801605224609375
1761478239133097200,4.49409716796875,-0.9947967529296875,-0.0969696044921875,-0.1767578125
1761478239143133200,4.50413330078125,-1.0058441162109375,-0.0991058349609375,-0.178436279296875
1761478239153169200,4.514169189453125,-1.01031494140625,-0.100799560546875,-0.1864013671875
1761478239163205000,4.524205078125,-1.01104736328125,-0.1038818359375,-0.197601318359375
1761478239173241000,4.534240966796875,-1.0080108642578125,-0.1068572998046875,-0.20501708984375
1761478239183278000,4.544278076171875,-1.0042724609375,-0.10394287109375,-0.2071533203125
1761478239193314000,4.55431396484375,-1.00164794921875,-0.100738525390625,-0.2035675048828125
1761478239203350000,4.56435009765625,-0.9966888427734375,-0.0989227294921875,-0.1913604736328125
1761478239213386000,4.574385986328125,-0.990142822265625,-0.098388671875,-0.181365966796875
1761478239223423000,4.584423095703125,-0.97991943359375,-0.0969085693359375,-0.1802520751953125
1761478239233460200,4.594460205078125,-0.974365234375,-0.0984344482421875,-0.1884613037109375
1761478239243496200,4.60449609375,-0.971588134765625,-0.1012725830078125,-0.2005767822265625
1761478239253532200,4.6145322265625,-0.9771575927734375,-0.1016387939453125,-0.2098388671875
1761478239263568100,4.624568115234375,-0.985443115234375,-0.1010284423828125,-0.2097015380859375
1761478239273604000,4.63460400390625,-0.98992919921875,-0.099639892578125,-0.201385498046875
1761478239283641000,4.64464111328125,-0.9963531494140625,-0.1007232666015625,-0.192169189453125
1761478239293677000,4.654677001953125,-0.9961700439453125,-0.10113525390625,-0.1837005615234375
1761478239303713000,4.664713134765625,-0.9946746826171875,-0.1018829345703125,-0.18170166015625
1761478239313749000,4.6747490234375,-0.9913787841796875,-0.104034423828125,-0.1821746826171875
1761478239323785000,4.684784912109375,-0.989776611328125,-0.10516357421875,-0.1845703125
1761478239333822000,4.694822021484375,-0.9888763427734375,-0.107086181640625,-0.1843719482421875
1761478239343858000,4.70485791015625,-0.9910430908203125,-0.10809326171875,-0.18353271484375
1761478239353894000,4.714893798828125,-0.9903564453125,-0.10821533203125,-0.1844635009765625
1761478239363930000,4.72493017578125,-0.989837646484375,-0.110748291015625,-0.1847991943359375
1761478239373966000,4.734966064453125,-0.992156982421875,-0.1118011474609375,-0.1840362548828125
1761478239384002000,4.745001953125,-0.9929962158203125,-0.108184814453125,-0.1827392578125
1761478239394039000,4.7550390625,-0.994873046875,-0.10455322265625,-0.181182861328125
1761478239404075300,4.7650751953125,-0.997833251953125,-0.104248046875,-0.178314208984375
1761478239414111200,4.775111328125,-0.9999237060546875,-0.10107421875,-0.177581787109375
1761478239424147200,4.785147216796875,-1.000518798828125,-0.09954833984375,-0.175689697265625
1761478239434183200,4.79518310546875,-0.9997406005859375,-0.0998382568359375,-0.1780242919921875
1761478239444220200,4.80522021484375,-1.001190185546875,-0.1014251708984375,-0.1872406005859375
1761478239454256000,4.815256103515625,-1.0023345947265625,-0.1011810302734375,-0.202606201171875
1761478239464292000,4.8252919921875,-0.9979705810546875,-0.1027069091796875,-0.21539306640625
1761478239474328000,4.835328125,-0.98931884765625,-0.101837158203125,-0.2185821533203125
1761478239484364000,4.845364013671875,-0.9788055419921875,-0.1016998291015625,-0.2072296142578125
1761478239494401000,4.855401123046875,-0.97698974609375,-0.1011505126953125,-0.1915283203125
1761478239504437000,4.86543701171875,-0.9779052734375,-0.0982666015625,-0.183135986328125
1761478239514473200,4.87547314453125,-0.985687255859375,-0.09820556640625,-0.18634033203125
1761478239524509200,4.88550927734375,-0.992462158203125,-0.0983123779296875,-0.19561767578125
1761478239534545200,4.895545166015625,-0.9993743896484375,-0.0979461669921875,-0.2028045654296875
1761478239544582100,4.90558203125,-0.9939727783203125,-0.1024017333984375,-0.20184326171875
1761478239554618000,4.9156181640625,-0.9846649169921875,-0.10595703125,-0.1942596435546875
1761478239564654000,4.925654052734375,-0.9766998291015625,-0.1095123291015625,-0.184967041015625
1761478239574690000,4.93568994140625,-0.9740142822265625,-0.1102447509765625,-0.1761016845703125
1761478239584726000,4.94572607421875,-0.97979736328125,-0.110443115234375,-0.171478271484375
1761478239594763000,4.955762939453125,-0.9886474609375,-0.110321044921875,-0.173126220703125
1761478239604799000,4.965799072265625,-1.000640869140625,-0.1060333251953125,-0.1815643310546875
1761478239614835000,4.9758349609375,-1.0103607177734375,-0.103302001953125,-0.1881103515625
1761478239624871000,4.985870849609375,-1.0123138427734375,-0.105010986328125,-0.192840576171875
1761478239634907000,4.995906982421875,-1.009735107421875,-0.10601806640625,-0.1902923583984375
1761478239644943000,5.005943115234375,-1.0092010498046875,-0.10565185546875,-0.18609619140625
1761478239654980000,5.01597998046875,-1.0064849853515625,-0.1038818359375,-0.1865081787109375
1761478239665016000,5.02601611328125,-1.0028839111328125,-0.1003265380859375,-0.190277099609375
1761478239675052300,5.03605224609375,-0.997772216796875,-0.101776123046875,-0.1918487548828125
1761478239685088300,5.046088134765625,-0.9895477294921875,-0.1047515869140625,-0.192962646484375
1761478239695124200,5.056124267578125,-0.98162841796875,-0.10400390625,-0.1942901611328125
1761478239705161200,5.0661611328125,-0.982086181640625,-0.1017913818359375,-0.197296142578125
1761478239715197200,5.076197265625,-0.98663330078125,-0.1002197265625,-0.2022247314453125
1761478239725233200,5.086233154296875,-0.9873809814453125,-0.0973358154296875,-0.2042388916015625
1761478239735269000,5.09626904296875,-0.983367919921875,-0.097412109375,-0.199676513671875
1761478239745305000,5.10630517578125,-0.9752960205078125,-0.1026763916015625,-0.1942138671875
1761478239755342000,5.116342041015625,-0.97393798828125,-0.1025848388671875,-0.189727783203125
1761478239765378000,5.1263779296875,-0.972503662109375,-0.1032562255859375,-0.1891632080078125
1761478239775414000,5.1364140625,-0.9743194580078125,-0.1060028076171875,-0.1907501220703125
1761478239785450800,5.14645068359375,-0.982696533203125,-0.1072540283203125,-0.1915435791015625
1761478239795486700,5.15648681640625,-0.98883056640625,-0.10504150390625,-0.189422607421875
1761478239805522700,5.166522705078125,-0.9939422607421875,-0.1045379638671875,-0.1860809326171875
1761478239815560000,5.176559814453125,-0.99749755859375,-0.1056060791015625,-0.185333251953125
1761478239825596000,5.186595947265625,-1.006683349609375,-0.10382080078125,-0.18475341796875
1761478239835631900,5.1966318359375,-1.0140533447265625,-0.102874755859375,-0.185302734375
1761478239845667800,5.206667724609375,-1.0186004638671875,-0.10516357421875,-0.1878662109375
1761478239855703800,5.216703857421875,-1.012908935546875,-0.1077117919921875,-0.1895599365234375
1761478239865740800,5.22674072265625,-1.0051422119140625,-0.107940673828125,-0.1884918212890625
1761478239875776800,5.23677685546875,-0.9966583251953125,-0.10540771484375,-0.186279296875
1761478239885812700,5.246812744140625,-0.9884033203125,-0.1062774658203125,-0.1858978271484375
1761478239895848700,5.2568486328125,-0.9849395751953125,-0.108612060546875,-0.1874237060546875
1761478239905884700,5.266884765625,-0.981689453125,-0.1065216064453125,-0.18994140625
1761478239915921700,5.276921630859375,-0.980560302734375,-0.1058502197265625,-0.1906585693359375
1761478239925957600,5.28695751953125,-0.983612060546875,-0.1031646728515625,-0.1892852783203125
1761478239935993600,5.29699365234375,-0.981170654296875,-0.1023101806640625,-0.19091796875
1761478239946029600,5.307029541015625,-0.978912353515625,-0.105224609375,-0.1894073486328125
1761478239956065500,5.3170654296875,-0.9809112548828125,-0.1077728271484375,-0.190093994140625
1761478239966102800,5.327102783203125,-0.984954833984375,-0.1047821044921875,-0.19232177734375
1761478239976138800,5.337138671875,-0.9906768798828125,-0.105804443359375,-0.1909942626953125
1761478239986174700,5.3471748046875,-0.9954681396484375,-0.1062774658203125,-0.19061279296875
1761478239996210700,5.357210693359375,-0.9980316162109375,-0.1058807373046875,-0.189605712890625
1761478240006247000,5.367246826171875,-0.999481201171875,-0.104339599609375,-0.1905670166015625
1761478240016283600,5.37728369140625,-0.9935760498046875,-0.10528564453125,-0.190765380859375
1761478240026319600,5.387319580078125,-0.9889068603515625,-0.1055908203125,-0.1874847412109375
1761478240036355800,5.39735595703125,-0.99298095703125,-0.10064697265625,-0.1844329833984375
1761478240046391800,5.407391845703125,-1.003662109375,-0.099151611328125,-0.1857757568359375
1761478240056427800,5.417427734375,-1.012054443359375,-0.1017608642578125,-0.188751220703125
1761478240066463700,5.427463623046875,-1.01519775390625,-0.1037445068359375,-0.19647216796875
1761478240076500700,5.437500732421875,-1.0060272216796875,-0.104034423828125,-0.2075653076171875
1761478240086536700,5.44753662109375,-0.988555908203125,-0.1060333251953125,-0.21270751953125
1761478240096572700,5.45757275390625,-0.9763336181640625,-0.1069183349609375,-0.2072906494140625
1761478240106609000,5.46760888671875,-0.9670562744140625,-0.10626220703125,-0.192474365234375
1761478240116644900,5.477644775390625,-0.9677276611328125,-0.1063079833984375,-0.17681884765625
1761478240126681900,5.487681884765625,-0.9781036376953125,-0.104583740234375,-0.1725921630859375
1761478240136717800,5.4977177734375,-0.9929351806640625,-0.1022491455078125,-0.178466796875
1761478240146753800,5.50775390625,-1.0032806396484375,-0.102752685546875,-0.1861724853515625
1761478240156789800,5.517789794921875,-1.0071258544921875,-0.108673095703125,-0.1943206787109375
1761478240166825700,5.52782568359375,-1.0026092529296875,-0.1136932373046875,-0.19842529296875
1761478240176862700,5.53786279296875,-0.994049072265625,-0.1165008544921875,-0.194183349609375
1761478240186898700,5.547898681640625,-0.98297119140625,-0.1187591552734375,-0.1868743896484375
1761478240196934700,5.5579345703125,-0.9761962890625,-0.1156463623046875,-0.1793365478515625
1761478240206970600,5.567970703125,-0.9805755615234375,-0.110260009765625,-0.1757965087890625
1761478240217006600,5.578006591796875,-0.9857177734375,-0.108428955078125,-0.175262451171875
1761478240227042600,5.58804248046875,-0.99505615234375,-0.1051025390625,-0.1785430908203125
1761478240237079800,5.598079833984375,-1.0074462890625,-0.1022186279296875,-0.187347412109375
1761478240247115800,5.60811572265625,-1.0164794921875,-0.1010284423828125,-0.193450927734375
1761478240257151700,5.61815185546875,-1.010589599609375,-0.1026611328125,-0.1989898681640625
1761478240267187700,5.628187744140625,-0.9969329833984375,-0.1072540283203125,-0.2015228271484375
1761478240277224000,5.638223876953125,-0.9829254150390625,-0.1074981689453125,-0.202728271484375
1761478240287260700,5.6482607421875,-0.9754638671875,-0.1072540283203125,-0.19537353515625
1761478240297296600,5.658296630859375,-0.9760284423828125,-0.1087646484375,-0.186370849609375
1761478240307332900,5.668332763671875,-0.981597900390625,-0.106292724609375,-0.18719482421875
1761478240317368800,5.678368896484375,-0.992462158203125,-0.1063079833984375,-0.193328857421875
1761478240327404800,5.68840478515625,-1.0031280517578125,-0.1041412353515625,-0.20220947265625
1761478240337441800,5.69844189453125,-1.0041351318359375,-0.1009368896484375,-0.2057647705078125
1761478240347477800,5.708477783203125,-0.992462158203125,-0.1036834716796875,-0.2006072998046875
1761478240357513700,5.718513671875,-0.9748687744140625,-0.1068878173828125,-0.18780517578125
1761478240367549700,5.7285498046875,-0.9724578857421875,-0.1099853515625,-0.17645263671875
1761478240377585700,5.738585693359375,-0.97357177734375,-0.1107940673828125,-0.1759185791015625
1761478240387621600,5.74862158203125,-0.986724853515625,-0.111114501953125,-0.188934326171875
1761478240397659000,5.758658935546875,-1.00299072265625,-0.1116180419921875,-0.2012481689453125
1761478240407694800,5.76869482421875,-1.007354736328125,-0.111175537109375,-0.2005615234375
1761478240417730800,5.778730712890625,-1.0050048828125,-0.11175537109375,-0.1910400390625
1761478240427766800,5.788766845703125,-0.9965057373046875,-0.1117706298828125,-0.1800079345703125
1761478240437802800,5.798802734375,-0.988311767578125,-0.1101226806640625,-0.173370361328125
1761478240447839700,5.80883984375,-0.9857940673828125,-0.10943603515625,-0.1763763427734375
1761478240457875700,5.818875732421875,-0.9857635498046875,-0.1104278564453125,-0.1856231689453125
1761478240467911700,5.82891162109375,-0.9875030517578125,-0.111907958984375,-0.1939849853515625
1761478240477947600,5.83894775390625,-0.9881439208984375,-0.1142730712890625,-0.1959381103515625
1761478240487983600,5.848983642578125,-0.9896392822265625,-0.1146697998046875,-0.189361572265625
1761478240498019600,5.85901953125,-0.9965362548828125,-0.110931396484375,-0.1820220947265625
1761478240508056600,5.869056640625,-0.9987030029296875,-0.110565185546875,-0.183746337890625
1761478240518092500,5.879092529296875,-0.9985504150390625,-0.110198974609375,-0.1888427734375
1761478240528128800,5.889128662109375,-0.9984893798828125,-0.1102752685546875,-0.190826416015625
1761478240538164700,5.899164794921875,-0.997772216796875,-0.11016845703125,-0.1886138916015625
1761478240548201000,5.909200927734375,-0.9962310791015625,-0.1082305908203125,-0.18389892578125
1761478240558237700,5.91923779296875,-0.995452880859375,-0.10675048828125,-0.180816650390625
1761478240568273700,5.929273681640625,-0.9910430908203125,-0.1071929931640625,-0.1849365234375
1761478240578310000,5.939309814453125,-0.9838409423828125,-0.1066131591796875,-0.19329833984375
1761478240588345900,5.949345947265625,-0.9759521484375,-0.1045074462890625,-0.2003631591796875
1761478240598381800,5.9593818359375,-0.973480224609375,-0.1053924560546875,-0.202972412109375
1761478240608418800,5.969418701171875,-0.9748382568359375,-0.10382080078125,-0.2045135498046875
1761478240618454800,5.979454833984375,-0.983154296875,-0.10205078125,-0.1993255615234375
1761478240628490800,5.98949072265625,-0.9915924072265625,-0.1035308837890625,-0.18914794921875
1761478240638526700,5.999526611328125,-0.9952850341796875,-0.1055450439453125,-0.1842803955078125
1761478240648562700,6.009562744140625,-0.996124267578125,-0.1058807373046875,-0.191314697265625
1761478240658598700,6.0195986328125,-0.99493408203125,-0.1087646484375,-0.204681396484375
1761478240668636000,6.029635986328125,-0.9923248291015625,-0.1111907958984375,-0.2129974365234375
1761478240678672000,6.039671875,-0.990020751953125,-0.111114501953125,-0.205596923828125
1761478240688707800,6.049707763671875,-0.9902496337890625,-0.1121826171875,-0.1862030029296875
1761478240698743800,6.059743896484375,-0.9918975830078125,-0.1142425537109375,-0.1706085205078125
1761478240708779800,6.06977978515625,-0.9948577880859375,-0.1128387451171875,-0.165008544921875
1761478240718815700,6.079815673828125,-1.002227783203125,-0.110809326171875,-0.1690521240234375
1761478240728852700,6.089852783203125,-1.00347900390625,-0.110137939453125,-0.177978515625
1761478240738888700,6.099888671875,-0.9988861083984375,-0.1118621826171875,-0.1850128173828125
1761478240748924700,6.109924560546875,-0.993927001953125,-0.1149139404296875,-0.1869659423828125
1761478240758960600,6.119960693359375,-0.9908905029296875,-0.1157379150390625,-0.184539794921875
1761478240768996600,6.12999658203125,-0.991363525390625,-0.115875244140625,-0.18292236328125
1761478240779033000,6.140033203125,-0.9893035888671875,-0.1174468994140625,-0.184722900390625
1761478240789069000,6.150069091796875,-0.9870452880859375,-0.117431640625,-0.1864166259765625
1761478240799105300,6.160105224609375,-0.9864959716796875,-0.1119537353515625,-0.1864166259765625
1761478240809141200,6.170141357421875,-0.9848785400390625,-0.1096038818359375,-0.1866302490234375
1761478240819177200,6.18017724609375,-0.9881134033203125,-0.1055908203125,-0.1907958984375
1761478240829214200,6.190214111328125,-0.996124267578125,-0.1016082763671875,-0.195037841796875
1761478240839250200,6.200250244140625,-0.998382568359375,-0.1029205322265625,-0.1986083984375
1761478240849286100,6.2102861328125,-0.9965362548828125,-0.1033935546875,-0.2023468017578125
1761478240859322000,6.220322021484375,-0.9949188232421875,-0.10235595703125,-0.2032318115234375
1761478240869358000,6.230358154296875,-0.9922943115234375,-0.1071319580078125,-0.1983489990234375
1761478240879394000,6.24039404296875,-0.9898834228515625,-0.10894775390625,-0.193145751953125
1761478240889431000,6.25043115234375,-0.98638916015625,-0.11065673828125,-0.19476318359375
1761478240899467000,6.260467041015625,-0.9860687255859375,-0.1111297607421875,-0.2001953125
1761478240909503000,6.2705029296875,-0.9806671142578125,-0.1118011474609375,-0.2024993896484375
1761478240919539000,6.2805390625,-0.97857666015625,-0.1118621826171875,-0.199127197265625
1761478240929575000,6.290574951171875,-0.976531982421875,-0.1099395751953125,-0.1903076171875
1761478240939611100,6.300611083984375,-0.9782867431640625,-0.110107421875,-0.18072509765625
1761478240949648100,6.310648193359375,-0.98187255859375,-0.1112823486328125,-0.171417236328125
1761478240959684000,6.32068408203125,-0.98699951171875,-0.112030029296875,-0.1668243408203125
1761478240969720000,6.330719970703125,-0.9956817626953125,-0.11376953125,-0.17071533203125
1761478240979756000,6.340756103515625,-1.0034027099609375,-0.115692138671875,-0.1796112060546875
1761478240989792000,6.3507919921875,-1.01416015625,-0.1137542724609375,-0.1890411376953125
1761478240999829000,6.3608291015625,-1.024505615234375,-0.1114501953125,-0.1959381103515625
1761478241009865000,6.370864990234375,-1.0238494873046875,-0.1089630126953125,-0.192779541015625
1761478241019901000,6.38090087890625,-1.018402099609375,-0.1096038818359375,-0.183563232421875
1761478241029937200,6.390937255859375,-1.001617431640625,-0.107391357421875,-0.17926025390625
1761478241039973000,6.40097314453125,-0.9868621826171875,-0.10809326171875,-0.18182373046875
1761478241050009000,6.411009033203125,-0.97796630859375,-0.1100616455078125,-0.188995361328125
1761478241060046000,6.421046142578125,-0.9734649658203125,-0.1096954345703125,-0.1991729736328125
1761478241070082300,6.431082275390625,-0.9696807861328125,-0.1083984375,-0.2025146484375
1761478241080118300,6.4411181640625,-0.9685821533203125,-0.107208251953125,-0.2018890380859375
1761478241090154200,6.451154296875,-0.973724365234375,-0.1075286865234375,-0.2032470703125
1761478241100190200,6.461190185546875,-0.9826812744140625,-0.1077117919921875,-0.2021331787109375
1761478241110226200,6.47122607421875,-0.99041748046875,-0.107208251953125,-0.20166015625
1761478241120263200,6.48126318359375,-0.9905548095703125,-0.1060333251953125,-0.1959228515625
1761478241130299100,6.491299072265625,-0.989532470703125,-0.1062469482421875,-0.189971923828125
1761478241140335000,6.501335205078125,-0.9908599853515625,-0.10687255859375,-0.1889801025390625
1761478241150371000,6.51137109375,-0.991943359375,-0.10748291015625,-0.1907501220703125
1761478241160407000,6.521406982421875,-0.98748779296875,-0.111663818359375,-0.1911773681640625
1761478241170443000,6.531443115234375,-0.9871673583984375,-0.11474609375,-0.1865234375
1761478241180480000,6.54147998046875,-0.99237060546875,-0.1150054931640625,-0.181488037109375
1761478241190516000,6.551515869140625,-0.9984130859375,-0.117156982421875,-0.1747894287109375
1761478241200552000,6.561552001953125,-1.0040283203125,-0.116241455078125,-0.1751708984375
1761478241210588000,6.571587890625,-1.0094757080078125,-0.1121673583984375,-0.1846466064453125
1761478241220624000,6.581623779296875,-1.0082244873046875,-0.110260009765625,-0.1943817138671875
1761478241230661000,6.5916611328125,-0.9980621337890625,-0.1097259521484375,-0.1957855224609375
1761478241240697000,6.601697021484375,-0.982269287109375,-0.1117095947265625,-0.1875152587890625
1761478241250733000,6.611733154296875,-0.96728515625,-0.11297607421875,-0.1780853271484375
1761478241260769000,6.62176904296875,-0.9624176025390625,-0.1140899658203125,-0.1736602783203125
1761478241270805200,6.63180517578125,-0.969696044921875,-0.113525390625,-0.179901123046875
1761478241280841200,6.64184130859375,-0.9881744384765625,-0.109527587890625,-0.19287109375
1761478241290878000,6.6518779296875,-1.0042266845703125,-0.1050567626953125,-0.204803466796875
1761478241300914200,6.6619140625,-1.015350341796875,-0.1067352294921875,-0.2066650390625
1761478241310950100,6.6719501953125,-1.0077972412109375,-0.1079559326171875,-0.200531005859375
1761478241320986000,6.681986083984375,-0.9922332763671875,-0.110626220703125,-0.190185546875
1761478241331022000,6.69202197265625,-0.98126220703125,-0.1126861572265625,-0.1815185546875
1761478241341058000,6.70205810546875,-0.978973388671875,-0.1146087646484375,-0.1765594482421875
1761478241351095300,6.71209521484375,-0.984588623046875,-0.1135101318359375,-0.171783447265625
1761478241361131300,6.72213134765625,-0.995361328125,-0.1124420166015625,-0.1714324951171875
1761478241371167200,6.732167236328125,-1.004852294921875,-0.110595703125,-0.1790313720703125
1761478241381203200,6.742203125,-1.0059661865234375,-0.10736083984375,-0.194366455078125
1761478241391239200,6.7522392578125,-0.9986572265625,-0.1087493896484375,-0.2052764892578125
1761478241401275100,6.762275146484375,-0.9868011474609375,-0.1140289306640625,-0.2071685791015625
1761478241411312000,6.77231201171875,-0.9859619140625,-0.1103973388671875,-0.1997528076171875
1761478241421348000,6.78234814453125,-0.992340087890625,-0.10638427734375,-0.1878814697265625
1761478241431384000,6.792384033203125,-0.9978179931640625,-0.105926513671875,-0.1780242919921875
1761478241441420000,6.802419921875,-0.997955322265625,-0.1065521240234375,-0.1770477294921875
1761478241451456000,6.8124560546875,-0.9915313720703125,-0.107513427734375,-0.1840362548828125
1761478241461492000,6.822491943359375,-0.984130859375,-0.110076904296875,-0.190948486328125
1761478241471529000,6.832529052734375,-0.9776763916015625,-0.1112213134765625,-0.1954803466796875
1761478241481565000,6.84256494140625,-0.9761810302734375,-0.1077728271484375,-0.1983642578125
1761478241491601000,6.852600830078125,-0.9832916259765625,-0.1051177978515625,-0.2004241943359375
1761478241501636900,6.862636962890625,-0.9929351806640625,-0.1049346923828125,-0.19891357421875
1761478241511673000,6.872673095703125,-0.99468994140625,-0.1078033447265625,-0.195892333984375
1761478241521709000,6.882708984375,-0.991912841796875,-0.1083526611328125,-0.19305419921875
1761478241531746000,6.89274609375,-0.9933319091796875,-0.10748291015625,-0.19158935546875
1761478241541782000,6.902781982421875,-0.9967498779296875,-0.1085205078125,-0.1912994384765625
1761478241551818200,6.912818359375,-0.998443603515625,-0.10760498046875,-0.1894989013671875
1761478241561854200,6.922854248046875,-0.9978485107421875,-0.103363037109375,-0.188690185546875
1761478241571890200,6.93289013671875,-0.999481201171875,-0.1043853759765625,-0.187774658203125
1761478241581926100,6.942926025390625,-0.9938201904296875,-0.1058807373046875,-0.1899871826171875
1761478241591963100,6.952963134765625,-0.984649658203125,-0.10882568359375,-0.194488525390625
1761478241601999000,6.9629990234375,-0.977813720703125,-0.111114501953125,-0.1953125
1761478241612035000,6.97303515625,-0.977081298828125,-0.111846923828125,-0.1942138671875
1761478241622071000,6.983071044921875,-0.978912353515625,-0.1102142333984375,-0.193084716796875
1761478241632107000,6.99310693359375,-0.9827423095703125,-0.110626220703125,-0.19329833984375
1761478241642144000,7.00314404296875,-0.9867095947265625,-0.1070556640625,-0.189788818359375
1761478241652180200,7.01318017578125,-0.9884033203125,-0.1048126220703125,-0.1825408935546875
1761478241662216200,7.02321630859375,-0.99005126953125,-0.10430908203125,-0.177032470703125
1761478241672252200,7.033252197265625,-0.99603271484375,-0.10247802734375,-0.1845245361328125
1761478241682288000,7.0432880859375,-1.0028076171875,-0.1049652099609375,-0.1985321044921875
1761478241692324000,7.053323974609375,-1.009368896484375,-0.105987548828125,-0.2083587646484375
1761478241702360000,7.063360107421875,-1.0122833251953125,-0.106536865234375,-0.2041015625
1761478241712397000,7.07339697265625,-1.00555419921875,-0.1097259521484375,-0.1920013427734375
1761478241722433000,7.08343310546875,-0.9954833984375,-0.1094970703125,-0.18377685546875
1761478241732469000,7.093468994140625,-0.987640380859375,-0.1093292236328125,-0.18011474609375
1761478241742505000,7.1035048828125,-0.9840545654296875,-0.1101531982421875,-0.1791229248046875
1761478241752541200,7.113541259765625,-0.9872283935546875,-0.111236572265625,-0.1804046630859375
1761478241762578000,7.123577880859375,-0.9955902099609375,-0.1063079833984375,-0.1872406005859375
1761478241772614000,7.13361376953125,-1.000335693359375,-0.1027679443359375,-0.197418212890625
1761478241782650400,7.143650390625,-0.9959716796875,-0.104736328125,-0.2019805908203125
1761478241792686600,7.1536865234375,-0.9844818115234375,-0.1068572998046875,-0.1985626220703125
1761478241802722800,7.163722900390625,-0.9743804931640625,-0.109344482421875,-0.1872711181640625
1761478241812758800,7.1737587890625,-0.9715728759765625,-0.1138458251953125,-0.17626953125
1761478241822795500,7.18379541015625,-0.98095703125,-0.1116790771484375,-0.1779022216796875
1761478241832831700,7.193831787109375,-0.995758056640625,-0.1066436767578125,-0.1885986328125
1761478241842867700,7.20386767578125,-1.00616455078125,-0.1052093505859375,-0.201263427734375
1761478241852903700,7.213903564453125,-1.0048828125,-0.1042022705078125,-0.2086181640625
1761478241862939600,7.223939697265625,-0.9953460693359375,-0.10650634765625,-0.2032318115234375
1761478241872975600,7.2339755859375,-0.98651123046875,-0.10943603515625,-0.1881866455078125
1761478241883012600,7.2440126953125,-0.9792327880859375,-0.1116790771484375,-0.1790924072265625
1761478241893048600,7.254048583984375,-0.9782257080078125,-0.111358642578125,-0.18035888671875
1761478241903084500,7.26408447265625,-0.979248046875,-0.1107635498046875,-0.18182373046875
1761478241913120500,7.27412060546875,-0.9812164306640625,-0.1091156005859375,-0.1845855712890625
1761478241923156500,7.284156494140625,-0.9879302978515625,-0.107574462890625,-0.187713623046875
1761478241933192400,7.2941923828125,-0.996002197265625,-0.1047210693359375,-0.1878509521484375
1761478241943229700,7.304229736328125,-1.0061492919921875,-0.1017303466796875,-0.1889190673828125
1761478241953265700,7.314265625,-1.014739990234375,-0.1010894775390625,-0.19830322265625
1761478241963301600,7.324301513671875,-1.01629638671875,-0.1031494140625,-0.2057342529296875
1761478241973337600,7.334337646484375,-1.0063629150390625,-0.1085357666015625,-0.2037200927734375
1761478241983373600,7.34437353515625,-0.9947662353515625,-0.1108245849609375,-0.195068359375
1761478241993409500,7.354409423828125,-0.98834228515625,-0.1094818115234375,-0.185791015625
1761478242003445500,7.364445556640625,-0.9841766357421875,-0.1083526611328125,-0.17791748046875
1761478242013482500,7.374482421875,-0.9825592041015625,-0.105987548828125,-0.173309326171875
1761478242023518500,7.3845185546875,-0.9805145263671875,-0.1036529541015625,-0.1774749755859375
1761478242033554400,7.394554443359375,-0.9803924560546875,-0.1056976318359375,-0.1860504150390625
1761478242043590700,7.404590576171875,-0.98321533203125,-0.105987548828125,-0.1975555419921875
1761478242053626600,7.414626708984375,-0.98541259765625,-0.1050262451171875,-0.2059478759765625
1761478242063663400,7.424663330078125,-0.984893798828125,-0.107635498046875,-0.2065277099609375
1761478242073699600,7.434699462890625,-0.9879302978515625,-0.106414794921875,-0.202911376953125
1761478242083735600,7.444735595703125,-0.99176025390625,-0.102935791015625,-0.193939208984375
1761478242093771800,7.454771728515625,-0.9961395263671875,-0.1019287109375,-0.18377685546875
1761478242103807700,7.464807861328125,-0.9985504150390625,-0.1015625,-0.1803436279296875
1761478242113843700,7.47484375,-1.001129150390625,-0.10247802734375,-0.18402099609375
1761478242123880700,7.484880615234375,-1.003173828125,-0.104095458984375,-0.1895294189453125
1761478242133916700,7.494916748046875,-1.0031890869140625,-0.1041412353515625,-0.1945343017578125
1761478242143952600,7.50495263671875,-0.998291015625,-0.105224609375,-0.1985015869140625
1761478242153988600,7.514988525390625,-0.9905548095703125,-0.1060638427734375,-0.196136474609375
1761478242164024600,7.525024658203125,-0.9820098876953125,-0.1060943603515625,-0.191314697265625
1761478242174060500,7.535060546875,-0.976837158203125,-0.10888671875,-0.1899871826171875
1761478242184097500,7.54509765625,-0.9798431396484375,-0.1060028076171875,-0.1934051513671875
1761478242194133500,7.555133544921875,-0.9895477294921875,-0.102294921875,-0.198883056640625
1761478242204169500,7.56516943359375,-0.9958953857421875,-0.1002960205078125,-0.196746826171875
1761478242214205400,7.575205322265625,-0.9988861083984375,-0.1013946533203125,-0.193634033203125
1761478242224241400,7.585241455078125,-0.9986419677734375,-0.10357666015625,-0.1945953369140625
1761478242234277400,7.59527734375,-0.9909820556640625,-0.1059417724609375,-0.1973724365234375
1761478242244314600,7.605314697265625,-0.979583740234375,-0.1085662841796875,-0.1945343017578125
1761478242254350600,7.6153505859375,-0.9736785888671875,-0.1118621826171875,-0.188385009765625
1761478242264386600,7.625386474609375,-0.978729248046875,-0.10870361328125,-0.1791229248046875
1761478242274422500,7.635422607421875,-0.987701416015625,-0.1053924560546875,-0.1762542724609375
1761478242284458800,7.645458740234375,-0.994873046875,-0.1061248779296875,-0.1776123046875
1761478242294494700,7.65549462890625,-1.0037689208984375,-0.10467529296875,-0.1804046630859375
1761478242304531500,7.665531494140625,-1.0106353759765625,-0.1028289794921875,-0.1907196044921875
1761478242314567700,7.675567626953125,-1.011199951171875,-0.10498046875,-0.204254150390625
1761478242324603600,7.685603759765625,-1.0063323974609375,-0.1048431396484375,-0.215423583984375
1761478242334639600,7.6956396484375,-0.9967041015625,-0.1064605712890625,-0.206268310546875
1761478242344675600,7.705675537109375,-0.98468017578125,-0.111480712890625,-0.1882781982421875
1761478242354711600,7.715711669921875,-0.9833221435546875,-0.1118621826171875,-0.1789398193359375
1761478242364747500,7.72574755859375,-0.985687255859375,-0.1062164306640625,-0.1812744140625
1761478242374784500,7.735784423828125,-0.9833526611328125,-0.1056060791015625,-0.186859130859375
1761478242384820700,7.74582080078125,-0.9817047119140625,-0.105224609375,-0.192474365234375
1761478242394856700,7.755856689453125,-0.9836883544921875,-0.1011199951171875,-0.1992034912109375
1761478242404892700,7.765892578125,-0.9822235107421875,-0.103271484375,-0.199493408203125
1761478242414928600,7.7759287109375,-0.9870758056640625,-0.1036834716796875,-0.191070556640625
1761478242424964600,7.785964599609375,-0.9879302978515625,-0.10595703125,-0.188201904296875
1761478242435001600,7.796001708984375,-0.986297607421875,-0.113250732421875,-0.1898040771484375
1761478242445037600,7.80603759765625,-0.98321533203125,-0.116729736328125,-0.19989013671875
1761478242455073500,7.816073486328125,-0.983795166015625,-0.114593505859375,-0.20001220703125
1761478242465109500,7.826109619140625,-0.98565673828125,-0.11248779296875,-0.188446044921875
1761478242475145500,7.8361455078125,-0.994476318359375,-0.1083984375,-0.178192138671875
1761478242485181700,7.846181640625,-1.0051422119140625,-0.10272216796875,-0.1723480224609375
1761478242495218400,7.856218505859375,-1.0157318115234375,-0.1018829345703125,-0.1703948974609375
1761478242505254400,7.86625439453125,-1.022003173828125,-0.0998992919921875,-0.1756134033203125
1761478242515290600,7.87629052734375,-1.0200347900390625,-0.1047821044921875,-0.1863250732421875
1761478242525326600,7.88632666015625,-1.00396728515625,-0.111175537109375,-0.195068359375
1761478242535362600,7.896362548828125,-0.9886016845703125,-0.1127777099609375,-0.19927978515625
1761478242545398500,7.9063984375,-0.9776763916015625,-0.1132049560546875,-0.2028045654296875
1761478242555435800,7.916435791015625,-0.976531982421875,-0.1115264892578125,-0.2019500732421875
1761478242565471700,7.9264716796875,-0.9827423095703125,-0.1071929931640625,-0.194610595703125
1761478242575507700,7.9365078125,-0.9867401123046875,-0.1019287109375,-0.1879425048828125
1761478242585543700,7.946543701171875,-0.9842529296875,-0.0978851318359375,-0.1873321533203125
1761478242595579600,7.95657958984375,-0.979095458984375,-0.0971221923828125,-0.1856689453125
1761478242605615600,7.96661572265625,-0.973358154296875,-0.10150146484375,-0.1847076416015625
1761478242615652600,7.976652587890625,-0.9696197509765625,-0.1073455810546875,-0.1907958984375
1761478242625688600,7.9866884765625,-0.9677581787109375,-0.1117095947265625,-0.19830322265625
1761478242635724500,7.996724609375,-0.9762115478515625,-0.1128692626953125,-0.20068359375
1761478242645759500,8.006759521484375,-0.98956298828125,-0.109161376953125,-0.1980743408203125
1761478242655795500,8.01679541015625,-1.0108489990234375,-0.110198974609375,-0.19635009765625
1761478242665831700,8.026831787109375,-1.0242156982421875,-0.1066741943359375,-0.1950836181640625
1761478242675867600,8.03686767578125,-1.0225982666015625,-0.101959228515625,-0.189300537109375
1761478242685904400,8.046904296875,-1.0106353759765625,-0.101715087890625,-0.1786346435546875
1761478242695940600,8.056940673828125,-0.999053955078125,-0.102447509765625,-0.17010498046875
1761478242705976600,8.0669765625,-0.9898681640625,-0.1038055419921875,-0.1701202392578125
1761478242716012500,8.077012451171875,-0.9824981689453125,-0.1047515869140625,-0.1793670654296875
1761478242726048500,8.087048583984375,-0.9830169677734375,-0.1071014404296875,-0.1934967041015625
1761478242736085800,8.097085693359375,-0.9892120361328125,-0.10601806640625,-0.201934814453125
1761478242746121700,8.107121826171875,-0.9980010986328125,-0.1057586669921875,-0.20440673828125
1761478242756157700,8.11715771484375,-1.006072998046875,-0.1067047119140625,-0.2042694091796875
1761478242766193700,8.127193603515625,-1.008819580078125,-0.1051483154296875,-0.2001800537109375
1761478242776229600,8.137229736328125,-0.9945831298828125,-0.102386474609375,-0.1941375732421875
1761478242786264600,8.1472646484375,-0.973052978515625,-0.105377197265625,-0.185821533203125
1761478242796300500,8.157300537109375,-0.9579010009765625,-0.10760498046875,-0.1819000244140625
1761478242806337500,8.167337646484375,-0.9546051025390625,-0.107330322265625,-0.1868133544921875
1761478242816373500,8.17737353515625,-0.9698028564453125,-0.105194091796875,-0.193450927734375
1761478242826409500,8.187409423828125,-1.0079345703125,-0.1044158935546875,-0.195709228515625
1761478242836445700,8.19744580078125,-1.034820556640625,-0.10308837890625,-0.2077178955078125
1761478242846481700,8.207481689453125,-1.0464324951171875,-0.10357666015625,-0.20556640625
1761478242856517600,8.217517578125,-1.000091552734375,-0.1013031005859375,-0.1842193603515625
1761478242866554600,8.2275546875,-0.9526824951171875,-0.0723419189453125,-0.1669464111328125
1761478242876590600,8.237590576171876,-0.88031005859375,-0.1228790283203125,-0.1468963623046875
1761478242886626600,8.24762646484375,-0.9356842041015625,-0.1737823486328125,-0.165557861328125
1761478242896662500,8.25766259765625,-1.0225067138671875,-0.12091064453125,-0.1976165771484375
1761478242906698500,8.267698486328126,-1.06085205078125,-0.0817718505859375,-0.199188232421875
1761478242916734700,8.277734619140626,-1.0463104248046875,-0.1136932373046875,-0.18963623046875
1761478242926771700,8.287771728515626,-1.0587005615234375,-0.10064697265625,-0.199005126953125
1761478242936807700,8.2978076171875,-1.0470428466796875,-0.0933837890625,-0.2129669189453125
1761478242946843600,8.30784375,-1.0094451904296875,-0.10064697265625,-0.2047576904296875
1761478242956879600,8.317879638671876,-0.977813720703125,-0.067626953125,-0.207061767578125
