time,seconds_elapsed,z,y,x
1761478234727208000,0.0882080078125,-0.02286004275083542,0.009472863748669624,0.014637532643973827
1761478234737244000,0.098243896484375,-0.019410982728004456,0.023366842418909073,0.021576398983597755
1761478234747280000,0.10827978515625,-0.016221314668655396,0.02244831807911396,0.015904132276773453
1761478234757315800,0.11831591796875,-0.008719189092516899,-0.0005792375304736197,-0.0010516822803765535
1761478234767351800,0.128351806640625,-0.004131628200411797,-0.00700730923563242,-0.012051869183778763
1761478234777386500,0.138386474609375,-0.005839246790856123,-0.0041494714096188545,-0.023568442091345787
1761478234787423500,0.148423583984375,-0.003820570884272456,-0.0030312100425362587,-0.04061533510684967
1761478234797459500,0.15845947265625,0.007501858286559582,-0.015738217160105705,-0.06637103110551834
1761478234807495400,0.168495361328125,0.02461426705121994,-0.022530077025294304,-0.05553516373038292
1761478234817531400,0.178531494140625,0.03152810037136078,0.0010881676571443677,-0.013948306441307068
1761478234827567400,0.1885673828125,0.027544543147087097,0.006287723314017057,0.02383023127913475
1761478234837604400,0.198604248046875,0.012267052195966244,0.0041579934768378735,0.05047861859202385
1761478234847640300,0.208640380859375,-0.0008892294717952609,0.004268248099833727,0.0677524134516716
1761478234857676300,0.21867626953125,-0.01512915175408125,-0.0007542071980424225,0.06462240219116211
1761478234867712300,0.228712158203125,-0.019566243514418602,-0.0116135124117136,0.04117247089743614
1761478234877748200,0.238748291015625,-0.01648256927728653,-0.01010802760720253,0.016401343047618866
1761478234887784200,0.2487841796875,-0.012492089532315731,-0.015541142784059048,-0.0028160265646874905
1761478234897821400,0.258821533203125,-0.010163954459130764,-0.0162372924387455,-0.024339161813259125
1761478234907857400,0.268857421875,-0.01167210191488266,-0.013761351816356182,-0.04033277556300163
1761478234917893400,0.278893310546875,-0.012760802172124386,-0.008768990635871887,-0.03942809998989105
1761478234927929300,0.288929443359375,-0.007393734063953161,-0.007108243182301521,-0.03382161259651184
1761478234937965300,0.29896533203125,-0.008461395278573036,-0.002360093407332897,-0.024833977222442627
1761478234948002300,0.309002197265625,-0.011534150689840317,0.00879002921283245,-0.014436730183660984
1761478234958038300,0.319038330078125,-0.01877315528690815,0.024050740525126457,0.007606787141412497
1761478234968074200,0.32907421875,-0.02340519055724144,0.03218856081366539,0.011707521975040436
1761478234978110200,0.339110107421875,-0.024981781840324402,0.0189617071300745,0.008167382329702377
1761478234988146400,0.349146484375,-0.024982048198580742,-0.004723116289824247,0.0002508697798475623
1761478234998182400,0.359182373046875,-0.02010553516447544,-0.02491760067641735,0.00007243797881528735
1761478235008219100,0.36921923828125,-0.020140156149864197,-0.02750645950436592,0.010972755961120129
1761478235018255400,0.37925537109375,-0.02634638547897339,-0.014817828312516212,0.026808710768818855
1761478235028291300,0.389291259765625,-0.030842334032058716,-0.00022370553051587194,0.03808533400297165
1761478235038327300,0.399327392578125,-0.03921611234545708,0.011865714564919472,0.030471090227365494
1761478235048363500,0.409363525390625,-0.0395873561501503,0.004547347314655781,0.007156180217862129
1761478235058399500,0.4193994140625,-0.029592514038085938,-0.014855378307402134,-0.01847621239721775
1761478235068436500,0.4294365234375,-0.012151204980909824,-0.02051779255270958,-0.02316630631685257
1761478235078472400,0.439472412109375,-0.010307231917977333,-0.015359248965978622,0.002454369328916073
1761478235088508400,0.44950830078125,-0.01678004488348961,0.006173740141093731,0.030662838369607925
1761478235098544400,0.45954443359375,-0.02034628391265869,0.02009621262550354,0.04765380546450615
1761478235108580400,0.469580322265625,-0.015598666854202747,0.01079645473510027,0.044133905321359634
1761478235118617300,0.479617431640625,-0.001957423286512494,-0.021256553009152412,0.02429948002099991
1761478235128653300,0.4896533203125,0.013791445642709732,-0.033544644713401794,0.011003382503986359
1761478235138689300,0.499689208984375,0.02003735676407814,-0.02484915778040886,0.01124865934252739
1761478235148725200,0.509725341796875,0.021046696230769157,-0.021449897438287735,0.012505405582487583
1761478235158761200,0.51976123046875,0.02040593884885311,-0.008778844028711319,0.023388680070638657
1761478235168798500,0.529798583984375,0.02467658370733261,-0.006274407263845205,0.025105353444814682
1761478235178834400,0.53983447265625,0.027028420940041542,-0.006621683482080698,0.023982563987374306
1761478235188870400,0.549870361328125,0.023261645808815956,-0.010036654770374298,0.013666809536516666
1761478235198906400,0.55990625,0.019360115751624107,-0.023074958473443985,-0.0054786549881100655
1761478235208942300,0.5699423828125,0.01312219351530075,-0.028495291247963905,-0.01775875687599182
1761478235218978300,0.579978271484375,0.0038509308360517025,-0.011408182792365551,-0.012146944180130959
1761478235229015300,0.590015380859375,-0.0002644518972374499,-0.0020751350093632936,0.012713930569589138
1761478235239051300,0.60005126953125,-0.012533901259303093,0.013732856139540672,0.03952717036008835
1761478235249087200,0.610087158203125,-0.031073763966560364,0.024022778496146202,0.05393140763044357
1761478235259123200,0.620123291015625,-0.0388035885989666,0.01501223910599947,0.04450834542512894
1761478235269159400,0.630159423828125,-0.04496507719159126,-0.0013598100049421191,0.021037373691797256
1761478235279196200,0.640196044921875,-0.03639662265777588,-0.0190218947827816,-0.004337490536272526
1761478235289232100,0.650232177734375,-0.02684226632118225,-0.02497858740389347,-0.022964971140027046
1761478235299268400,0.660268310546875,-0.017122527584433556,-0.017551297321915627,-0.028853485360741615
1761478235309304300,0.67030419921875,-0.009158078581094742,-0.008829976432025433,-0.02341504395008087
1761478235319340300,0.68034033203125,-0.012828979641199112,-0.005810218397527933,-0.015543805435299873
1761478235329377500,0.69037744140625,-0.019692745059728622,0.0021427792962640524,0.010748784057796001
1761478235339413500,0.70041357421875,-0.022295985370874405,0.012716327793896198,0.0341678224503994
1761478235349449500,0.710449462890625,-0.021821409463882446,0.007046990562230349,0.04928392544388771
1761478235359485400,0.7204853515625,-0.014733405783772469,-0.007364705670624971,0.05253538116812706
1761478235369521400,0.730521484375,-0.0049042110331356525,-0.015035142190754414,0.055758070200681686
1761478235379557400,0.740557373046875,-0.0002748382103163749,-0.01378132589161396,0.05124640837311745
1761478235389594400,0.750594482421875,-0.0006641923682764173,-0.012543221935629845,0.04237275570631027
1761478235399630300,0.76063037109375,0.003326021833345294,-0.009032377041876316,0.025059813633561134
1761478235409666300,0.770666259765625,0.010183394886553288,-0.0182876605540514,0.002695119008421898
1761478235419702300,0.780702392578125,0.0195462703704834,-0.017893780022859573,0.002255697501823306
1761478235429738200,0.79073828125,0.02003176510334015,-0.0028767467010766268,0.015737418085336685
1761478235439775200,0.800775146484375,0.0055803875438869,-0.00022556974727194756,0.02460680902004242
1761478235449811200,0.810811279296875,-0.01525645051151514,0.009068063460290432,0.030491862446069717
1761478235459847400,0.820847412109375,-0.035060249269008636,0.012047075666487217,0.025790585204958916
1761478235469883400,0.83088330078125,-0.039375901222229004,-0.003858121344819665,0.016267120838165283
1761478235479919400,0.84091943359375,-0.031382422894239426,-0.013052152469754219,0.01299489475786686
1761478235489956400,0.850956298828125,-0.016746222972869873,-0.008616924285888672,0.008188687264919281
1761478235499992300,0.860992431640625,-0.012165320105850697,-0.0018524948973208666,-0.001862082164734602
1761478235510028300,0.8710283203125,-0.018097776919603348,0.00893597025424242,-0.009750631637871265
1761478235520064300,0.881064208984375,-0.026806846261024475,0.022577481344342232,-0.010403638705611229
1761478235530100200,0.891100341796875,-0.03339843824505806,0.0172016229480505,-0.014762434177100658
1761478235540137200,0.90113720703125,-0.03105059452354908,0.009613478556275368,-0.017608288675546646
1761478235550173200,0.911173095703125,-0.02749607339501381,0.005067196674644947,-0.021076522767543793
1761478235560209200,0.921209228515625,-0.020139889791607857,0.0007816377910785377,-0.010297112166881561
1761478235570245400,0.931245361328125,-0.018935607746243477,-0.00038269624928943813,0.006364156026393175
1761478235580281300,0.94128125,-0.021442174911499023,0.010449178516864777,0.017173927277326584
1761478235590318300,0.951318359375,-0.014215687289834023,0.01076769270002842,0.022185996174812317
1761478235600354600,0.9613544921875,-0.000015180017726379447,0.004691424313932657,0.020539363846182823
1761478235610390500,0.971390625,0.008556736633181572,-0.009735452011227608,0.016888169571757317
1761478235620426500,0.981426513671875,0.0023608922492712736,-0.005261873826384544,0.009185775183141232
1761478235630462500,0.99146240234375,-0.007066697813570499,0.014396250247955322,0.014673750847578049
1761478235640499500,1.00149951171875,-0.011937352828681469,0.022363895550370216,0.01884452812373638
1761478235650535400,1.011535400390625,-0.005653624422848225,0.014373612590134144,0.010635600425302982
1761478235660571400,1.0215712890625,0.010298443958163261,-0.00936127733439207,-0.012682239525020123
1761478235670607400,1.031607421875,0.025971146300435066,-0.0355854257941246,-0.0167896319180727
1761478235680643300,1.041643310546875,0.025654496625065804,-0.04934997111558914,-0.0139554962515831
1761478235690679300,1.05167919921875,0.016535034403204918,-0.034445591270923615,0.010807107202708721
1761478235700716300,1.06171630859375,0.006228867452591658,-0.0030099046416580677,0.03833700343966484
1761478235710752300,1.071752197265625,0.0023616913240402937,0.021993715316057205,0.062425028532743454
1761478235720788200,1.081788330078125,-0.0004165183927398175,0.03339710459113121,0.05620761215686798
1761478235730824200,1.09182421875,0.0009467537747696042,0.03105086088180542,0.028602616861462593
1761478235740861400,1.101861328125,-0.0005036037764512002,0.012859073467552662,-0.010150904767215252
1761478235750897400,1.1118974609375,-0.0065316688269376755,-0.0033017871901392937,-0.036613404750823975
1761478235760933400,1.121933349609375,-0.013624199666082859,-0.007023022044450045,-0.05271434411406517
1761478235770969300,1.13196923828125,-0.013737383298575878,-0.004514590837061405,-0.053403571248054504
1761478235781005800,1.142005859375,-0.009227853268384933,-0.00024234765442088246,-0.038907185196876526
1761478235791043000,1.15204296875,-0.006703709252178669,0.01107608713209629,-0.015813050791621208
1761478235801079000,1.1620791015625,0.00010253170330543071,0.02202274464070797,0.0065559037029743195
1761478235811115000,1.172114990234375,-0.0014146711910143495,0.012168781831860542,0.009893110953271389
1761478235821151000,1.18215087890625,-0.004938299767673016,0.00751996785402298,0.011638280004262924
1761478235831187000,1.19218701171875,-0.01471582893282175,0.008764729835093021,0.024510934948921204
1761478235841224000,1.202223876953125,-0.014900652691721916,0.004547613672912121,0.027061179280281067
1761478235851260000,1.212260009765625,-0.013310745358467102,-0.005016063805669546,0.027843348681926727
1761478235861295900,1.2222958984375,-0.0027411917690187693,-0.009916280396282673,0.02791791781783104
1761478235871331800,1.232331787109375,0.0030807447619736195,-0.0100813964381814,0.023812389001250267
1761478235881367800,1.242367919921875,0.004845355171710253,-0.0008349010022357106,0.010617757216095924
1761478235891404800,1.25240478515625,0.010238789021968842,-0.0006868292111903429,-0.012715528719127178
1761478235901440800,1.262440673828125,0.007208910770714283,-0.003319630166515708,-0.03678011894226074
1761478235911476700,1.272476806640625,0.0020178770646452904,-0.006143379956483841,-0.05781269818544388
1761478235921513000,1.282512939453125,-0.0009179916232824326,-0.004819522611796856,-0.059793293476104736
1761478235931549200,1.292549072265625,-0.0031132353469729424,0.004343882203102112,-0.047682568430900574
1761478235941586000,1.3025859375,-0.0067971860989928246,0.008360194973647594,-0.02857705019414425
1761478235951622000,1.312621826171875,-0.012887835502624512,0.016167784109711647,-0.0009973538108170033
1761478235961658000,1.322658203125,-0.014229536056518555,0.027347467839717865,0.02003868855535984
1761478235971694000,1.332694091796875,-0.00941853504627943,0.026687802746891975,0.022037126123905182
1761478235981730000,1.34272998046875,0.0009664611425250769,0.019767578691244125,0.01745888590812683
1761478235991767000,1.35276708984375,0.018460232764482498,0.01290754321962595,0.009734120219945908
1761478236001803000,1.362802978515625,0.03405703604221344,-0.0013166668359190226,0.0004037352045997977
1761478236011839000,1.3728388671875,0.04543565958738327,-0.01582370325922966,-0.012596218846738338
1761478236021875000,1.382875,0.04108378663659096,-0.020057331770658493,-0.016169382259249687
1761478236031911000,1.392910888671875,0.029867351055145264,-0.006108758971095085,-0.0001400822657160461
1761478236041948000,1.402947998046875,0.010665427893400192,0.011027084663510323,0.019625632092356682
1761478236051984100,1.412984130859375,-0.003553189570084214,0.02526327781379223,0.03376568481326103
1761478236062020000,1.42302001953125,-0.01275813952088356,0.029587719589471817,0.04147180914878845
1761478236072056000,1.43305615234375,-0.010096842423081398,0.028985844925045967,0.034864507615566254
1761478236082092000,1.443092041015625,-0.008103732950985432,0.016763001680374146,0.01679176278412342
1761478236092129000,1.45312890625,0.004643221385776997,0.0046903593465685844,-0.00809201505035162
1761478236102165000,1.4631650390625,0.015143000520765781,-0.01082947850227356,-0.028353877365589142
1761478236112201000,1.473200927734375,0.02178012952208519,-0.023433420807123184,-0.04297436401247978
1761478236122237000,1.48323681640625,0.018387796357274055,-0.01588522270321846,-0.04457119479775429
1761478236132274000,1.49327392578125,0.0046786414459347725,-0.006286391522735357,-0.03591592237353325
1761478236142310000,1.503309814453125,-0.01925811730325222,0.010043312795460224,-0.016107063740491867
1761478236152345900,1.513345947265625,-0.03779930993914604,0.021700235083699226,0.0010610034223645926
1761478236162381800,1.5233818359375,-0.04639546200633049,0.023310648277401924,0.013452425599098206
1761478236172417800,1.533417724609375,-0.044254280626773834,0.012264922261238098,0.022710371762514114
1761478236182455000,1.543455078125,-0.037465084344148636,-0.0010010822443291545,0.02576128952205181
1761478236192491000,1.553490966796875,-0.03247618302702904,-0.009286176413297653,0.018733207136392593
1761478236202527000,1.56352685546875,-0.03369937464594841,-0.019660253077745438,0.00820972677320242
1761478236212563000,1.57356298828125,-0.03828400745987892,-0.02622760832309723,-0.0015547533985227346
1761478236222599000,1.583598876953125,-0.03799052536487579,-0.025342907756567,-0.007774832658469677
1761478236232636000,1.593635986328125,-0.03454545885324478,-0.02257321961224079,-0.009708020836114883
1761478236242671900,1.603671875,-0.029746443033218384,-0.023374298587441444,-0.004449343308806419
1761478236252707800,1.613707763671875,-0.02490934357047081,-0.00026045716367661953,0.00920255295932293
1761478236262744000,1.623744140625,-0.022294120863080025,0.01338478084653616,0.017652230337262154
1761478236272780000,1.633780029296875,-0.01709376648068428,0.01095491275191307,0.01636352762579918
1761478236282816800,1.643816650390625,-0.008520251139998436,0.004640824627131224,0.005726329050958157
1761478236292853000,1.65385302734375,0.0006719155353493989,-0.010507501661777496,-0.007375890854746103
1761478236302889000,1.663888916015625,0.010823619551956654,-0.015542740933597088,-0.010482735000550747
1761478236312925000,1.673925048828125,0.0123030049726367,-0.005314338020980358,0.000025300030756625347
1761478236322961000,1.6839609375,0.00541447289288044,-0.006080795545130968,0.0015683355741202831
1761478236332998100,1.693998046875,-0.0021702100057154894,-0.006461627781391144,0.007698133587837219
1761478236343034000,1.7040341796875,-0.011597267352044582,-0.0006743124104104936,0.017249559983611107
1761478236353070000,1.714070068359375,-0.014699850231409073,-0.004641090985387564,0.020134828984737396
1761478236363106000,1.72410595703125,-0.01498374342918396,-0.004322576802223921,0.020866399630904198
1761478236373143000,1.73414306640625,-0.01834864728152752,-0.006459763273596764,0.01798139698803425
1761478236383179000,1.744178955078125,-0.018252240493893623,-0.011393535882234573,0.005166532471776009
1761478236393215000,1.754215087890625,-0.023204654455184937,-0.009259544312953949,-0.005723399575799704
1761478236403251000,1.7642509765625,-0.01996838115155697,-0.005732986610382795,-0.02046293020248413
1761478236413287000,1.774286865234375,-0.017479125410318375,-0.0030189594253897667,-0.029876938089728355
1761478236423324000,1.784323974609375,-0.005859486758708954,-0.0013006879016757011,-0.02708061970770359
1761478236433360000,1.79435986328125,0.0008964200387708843,-0.009137838147580624,-0.01582317240536213
1761478236443395800,1.804395751953125,-0.0011086739832535386,-0.0007185208378359675,-0.002400573343038559
1761478236453431800,1.814431884765625,-0.0054754591546952724,0.012271580286324024,0.004868258256465197
1761478236463468000,1.824468017578125,-0.00771704176440835,0.013218067586421967,-0.0008149272762238979
1761478236473505000,1.834505126953125,-0.006441920530050993,0.0008953547803685069,-0.016337694600224495
1761478236483541000,1.844541015625,0.00017869810108095407,-0.018671156838536263,-0.036623526364564896
1761478236493577000,1.854576904296875,0.00635057408362627,-0.03701847046613693,-0.04977394640445709
1761478236503613000,1.864613037109375,0.007922638207674026,-0.0404808484017849,-0.04355812817811966
1761478236513649000,1.87464892578125,-0.0032599754631519318,-0.025829466059803963,-0.02424595132470131
1761478236523686000,1.884685791015625,-0.008625179529190063,-0.010221478529274464,0.0020458402577787638
1761478236533721900,1.894721923828125,-0.012647352181375027,0.008344748988747597,0.02654212899506092
1761478236543757800,1.9047578125,-0.0103770075365901,0.022352976724505424,0.039149265736341476
1761478236553793800,1.914793701171875,-0.013665478676557541,0.02581907995045185,0.033845316618680954
1761478236563830800,1.924830810546875,-0.01576591283082962,0.022478943690657616,0.009921872988343239
1761478236573866800,1.93486669921875,-0.01956304907798767,0.008765527978539467,-0.024471787735819817
1761478236583903000,1.944903076171875,-0.021573202684521675,0.0015904398169368505,-0.05119234696030617
1761478236593939000,1.95493896484375,-0.021336980164051056,0.0034756914246827364,-0.06393903493881226
1761478236603975200,1.96497509765625,-0.01679069735109806,-0.004396612755954266,-0.06641151756048203
1761478236614012000,1.975011962890625,-0.009771670214831829,-0.00010679275874281302,-0.05795731022953987
1761478236624047900,1.9850478515625,-0.007331416010856628,0.004107926040887833,-0.03990400582551956
1761478236634084000,1.995083984375,-0.010428139939904213,0.008959938772022724,-0.024517593905329704
1761478236644120000,2.0051201171875,-0.009196694009006023,0.010185792110860348,-0.005541239399462938
1761478236654156000,2.015156005859375,-0.017944911494851112,0.0054368432611227036,0.01264042779803276
1761478236664193000,2.025193115234375,-0.017485516145825386,-0.005453088786453009,0.0184093676507473
1761478236674229000,2.03522900390625,-0.018683141097426414,-0.004893025849014521,0.019460782408714294
1761478236684265000,2.045264892578125,-0.010803911834955215,-0.010609234683215618,0.013884922489523888
1761478236694301000,2.055301025390625,-0.007202519103884697,-0.01624315232038498,0.000041545314161339775
1761478236704338200,2.065338134765625,-0.003051982494071126,-0.017198162153363228,-0.01498347707092762
1761478236714374100,2.0753740234375,-0.0015414375811815262,-0.017771007493138313,-0.02171674743294716
1761478236724410000,2.08541015625,-0.007218498270958662,-0.023805730044841766,-0.026852652430534363
1761478236734446000,2.095446044921875,-0.012839099392294884,-0.021937523037195206,-0.024818263947963715
1761478236744482000,2.10548193359375,-0.02365446276962757,-0.009727195836603642,-0.006780407857149839
1761478236754519000,2.11551904296875,-0.03160666301846504,0.000907338981050998,0.009326389990746975
1761478236764555000,2.125554931640625,-0.0315382182598114,0.013249225914478302,0.022422218695282936
1761478236774591200,2.13559130859375,-0.025849174708127975,0.022828882560133934,0.016271913424134254
1761478236784627200,2.145627197265625,-0.017552895471453667,0.01636805385351181,-0.002364886924624443
1761478236794663200,2.1556630859375,-0.00549197057262063,0.0034011229872703552,-0.023797208443284035
1761478236804700200,2.1657001953125,0.005342833697795868,-0.008954346179962158,-0.0467081181704998
1761478236814736100,2.175736083984375,0.013813816010951996,-0.015776298940181732,-0.06131875142455101
1761478236824772000,2.185772216796875,0.014816496521234512,-0.01453020703047514,-0.05951499193906784
1761478236834808000,2.19580810546875,0.009664345532655716,0.009572199545800686,-0.034023746848106384
1761478236844844000,2.205843994140625,0.002439721953123808,0.02834668569266796,-0.0009038768475875258
1761478236854881000,2.215881103515625,-0.002016811864450574,0.03965819627046585,0.019902069121599197
1761478236864917000,2.2259169921875,0.0029435919132083654,0.03128175809979439,0.032819997519254684
1761478236874953000,2.235952880859375,0.005094094667583704,0.009881659410893917,0.024406272917985916
1761478236884989000,2.245989013671875,-0.0020306603983044624,-0.00672235107049346,0.012194348499178886
1761478236895026200,2.256026123046875,-0.009023056365549564,-0.022055767476558685,-0.0033076461404561996
1761478236905062100,2.266062255859375,-0.013793043792247772,-0.03495984897017479,-0.01423486229032278
1761478236915098000,2.27609814453125,-0.021442174911499023,-0.036740172654390335,-0.020673053339123726
1761478236925134000,2.286134033203125,-0.02003123238682747,-0.027184749022126198,-0.008388158865272999
1761478236935170000,2.296170166015625,-0.019991284236311913,-0.014977351762354374,0.0076153092086315155
1761478236945207000,2.30620703125,-0.015281484462320805,-0.005601692944765091,0.022896526381373405
1761478236955243000,2.316242919921875,-0.01082654856145382,-0.0012596751330420375,0.03684563189744949
1761478236965279000,2.326279052734375,-0.0023675502743571997,-0.004495682194828987,0.03145752474665642
1761478236975315200,2.336315185546875,0.0027473168447613716,-0.013341638259589672,0.025058481842279434
1761478236985351200,2.34635107421875,0.009843309409916401,-0.023601466789841652,0.011868110857903957
1761478236995388000,2.356387939453125,0.01708098314702511,-0.029322467744350433,-0.00035180358099751174
1761478237005424000,2.366424072265625,0.021083714440464973,-0.024285631254315376,-0.0030088394414633512
1761478237015460000,2.376460205078125,0.03129613772034645,-0.015731558203697205,-0.003096723696216941
1761478237025496000,2.38649609375,0.03924700617790222,-0.009839847683906555,0.005425125360488892
1761478237035533300,2.396533203125,0.04078391566872597,0.0005715143634006381,0.008267517201602459
1761478237045569300,2.4065693359375,0.04881787300109863,-0.005155613645911217,0.011433483101427555
1761478237055605200,2.416605224609375,0.04837978258728981,-0.006382531952112913,0.018077271059155464
1761478237065641200,2.42664111328125,0.034443460404872894,-0.010579407215118408,0.020245084539055824
1761478237075677200,2.43667724609375,0.021168135106563568,-0.0067657604813575745,0.020989704877138138
1761478237085714200,2.446714111328125,0.0054791877046227455,-0.0005539375124499202,0.022543657571077347
1761478237095750100,2.456750244140625,-0.004743622615933418,0.0044046021066606045,0.025138376280665398
1761478237105786000,2.4667861328125,-0.005771868862211704,0.006727677304297686,0.01691107265651226
1761478237115822000,2.476822021484375,-0.01404524501413107,-0.001704689348116517,0.0003283677506260574
1761478237125858000,2.486858154296875,-0.014910772442817688,0.0007329019135795534,-0.014213290996849537
1761478237135895000,2.49689501953125,-0.022854715585708618,-0.008127168752253056,-0.02852591685950756
1761478237145931000,2.506930908203125,-0.026147447526454926,-0.009169530123472214,-0.027293406426906586
1761478237155967200,2.51696728515625,-0.028267057612538338,-0.002859169617295265,-0.016081498935818672
1761478237166003200,2.527003173828125,-0.029410619288682938,0.003593935864046216,-0.0033486587926745415
1761478237176039200,2.5370390625,-0.026186596602201462,-0.002201635157689452,0.008529306389391422
1761478237186076200,2.547076171875,-0.01534726470708847,-0.00953598041087389,0.014809838496148586
1761478237196112100,2.557112060546875,-0.0025124261155724525,-0.010836401954293251,0.012563196010887623
1761478237206148000,2.567148193359375,0.0086616650223732,-0.008356733247637749,0.009066731669008732
1761478237216184000,2.57718408203125,0.016582438722252846,-0.0014149374328553677,0.008947688154876232
1761478237226221000,2.587220947265625,0.01782400533556938,0.0009526127250865102,-0.0031185615807771683
1761478237236257000,2.597257080078125,0.01967197097837925,-0.003919906914234161,-0.017663149163126945
1761478237246293000,2.60729296875,0.016983777284622192,-0.004849616438150406,-0.03122103586792946
1761478237256329000,2.617328857421875,0.010754376649856567,0.004189684987068176,-0.03644455969333649
1761478237266365000,2.627364990234375,0.00572952488437295,0.01444125734269619,-0.033430662006139755
1761478237276402200,2.637402099609375,-0.00009054747351910919,0.0067452541552484035,-0.03031795844435692
1761478237286438100,2.647438232421875,-0.0062941149808466434,-0.0015936355339363217,-0.021687185391783714
1761478237296474000,2.65747412109375,-0.015510249882936478,-0.01455896906554699,-0.016142217442393303
1761478237306510300,2.66751025390625,-0.021562816575169563,-0.016045013442635536,-0.004849882796406746
1761478237316546300,2.67754638671875,-0.022586002945899963,-0.006056294776499271,0.003222158644348383
1761478237326583000,2.6875830078125,-0.017661551013588905,-0.0019086875254288316,0.008557002991437912
1761478237336619300,2.697619384765625,-0.01882615126669407,0.006937800906598568,0.011315771378576756
1761478237346655200,2.7076552734375,-0.02135668694972992,0.00971547793596983,0.006721286103129387
1761478237356691200,2.717691162109375,-0.026613235473632812,0.020005399361252785,-0.0013936321483924985
1761478237366727200,2.72772705078125,-0.029155489057302475,0.01848100684583187,-0.020130833610892296
1761478237376764200,2.73776416015625,-0.018324945122003555,0.0014045510906726122,-0.034624822437763214
1761478237386800000,2.747800048828125,-0.007527957204729319,0.0006804376607760787,-0.04294480383396149
1761478237396836000,2.757836181640625,-0.0007930893916636705,-0.0033843449782580137,-0.04265664890408516
1761478237406872000,2.7678720703125,0.0027659591287374496,-0.002254632068797946,-0.03440271317958832
1761478237416909300,2.777909423828125,-0.0020684772171080112,0.01618296466767788,-0.020648818463087082
1761478237426945300,2.7879453125,-0.0033076461404561996,0.025139708071947098,-0.01010802760720253
1761478237436981200,2.797981201171875,-0.0011891013709828258,0.02076599933207035,0.006050968077033758
1761478237447017200,2.808017333984375,0.00015046859334688634,0.01155518926680088,0.016223179176449776
1761478237457053200,2.81805322265625,0.003992344718426466,-0.002112419344484806,0.014628477394580841
1761478237467090200,2.828090087890625,0.00686110183596611,-0.0111607750877738,0.012673450633883476
1761478237477126100,2.838126220703125,0.012618323788046837,-0.01600506529211998,0.003421629313379526
1761478237487162000,2.848162109375,0.01743891090154648,-0.018429873511195183,-0.00018429075134918094
1761478237497198000,2.858197998046875,0.012197810225188732,-0.012197277508676052,-0.001463406952098012
1761478237507234000,2.868234130859375,0.009711749851703644,-0.008279767818748951,-0.0034405377227813005
1761478237517271000,2.87827099609375,0.005323925521224737,0.005923402961343527,0.005537777207791805
1761478237527307000,2.88830712890625,0.0011507519520819187,0.012997291050851345,0.014199175871908665
1761478237537343000,2.898343017578125,-0.00860201008617878,0.01727033406496048,0.011591674759984016
1761478237547379000,2.90837890625,-0.01739683374762535,0.02184750884771347,0.0018700717482715845
1761478237557415000,2.918414794921875,-0.033719081431627274,0.01558242179453373,-0.016405338421463966
1761478237567452200,2.9284521484375,-0.036372654139995575,0.004542820155620575,-0.038962580263614655
1761478237577488100,2.938488037109375,-0.03531964123249054,-0.005626726895570755,-0.053189717233181
1761478237587524000,2.948524169921875,-0.027400998398661613,-0.00911759864538908,-0.059897154569625854
1761478237597560000,2.95856005859375,-0.02008689194917679,0.00296276668086648,-0.049800045788288116
1761478237607596000,2.968595947265625,-0.017523067072033882,0.012867062352597713,-0.03327273577451706
1761478237617633000,2.978633056640625,-0.017462080344557762,0.01847062073647976,-0.019837087020277977
1761478237627669000,2.9886689453125,-0.012236958369612694,0.01654195785522461,-0.004831773228943348
1761478237637705000,2.998705078125,-0.003477822057902813,0.009218798018991947,-0.005380117800086737
1761478237647741200,3.0087412109375,0.006646451074630022,-0.01236399170011282,-0.0015656723408028483
1761478237657777200,3.018777099609375,0.010424677282571793,-0.024332769215106964,0.0068387314677238464
1761478237667814100,3.028814208984375,0.010972755961120129,-0.02303953841328621,0.01980512961745262
1761478237677850000,3.03885009765625,0.012024438939988613,-0.016115320846438408,0.027834294363856316
1761478237687886300,3.04888623046875,0.009254750795662403,-0.008271511644124985,0.03182211145758629
1761478237697922300,3.05892236328125,0.005028314422816038,0.0004237089306116104,0.03074166737496853
1761478237707959300,3.068959228515625,0.0005872269975952804,0.0004261057765688747,0.01961471326649189
1761478237717995300,3.078995361328125,-0.00236222380772233,-0.0028929917607456446,0.001654355670325458
1761478237728031200,3.08903125,-0.0027457191608846188,-0.01477761473506689,-0.006527407560497522
1761478237738067200,3.099067138671875,0.002638926263898611,-0.010834538377821445,-0.006040581967681646
1761478237748103200,3.109103271484375,-0.00008602010348113254,-0.0032077773939818144,0.0030282805673778057
1761478237758140200,3.11914013671875,-0.0016884441720321774,0.007626228034496307,0.007894940674304962
1761478237768176000,3.129176025390625,-0.003920705523341894,0.012497415766119957,0.003960386849939823
1761478237778211300,3.13921142578125,-0.008419317193329334,0.0008498146780766547,-0.008679774589836597
1761478237788247300,3.149247314453125,-0.010556504130363464,-0.014170413836836815,-0.02527260035276413
1761478237798283300,3.159283203125,-0.013887852430343628,-0.009584982879459858,-0.023633157834410667
1761478237808320500,3.169320556640625,-0.012927516363561153,-0.0032839439809322357,-0.012880378402769566
1761478237818356500,3.1793564453125,-0.014740596525371075,0.005511145573109388,0.0017451694002375007
1761478237828392400,3.189392333984375,-0.018613364547491074,0.0003001382574439049,0.01110218558460474
1761478237838428400,3.199428466796875,-0.029335251078009605,-0.0016588830621913075,0.008655273355543613
1761478237848464400,3.20946435546875,-0.025548769161105156,-0.008364190347492695,0.0021949773654341698
1761478237858501400,3.21950146484375,-0.01756461337208748,-0.007166832685470581,-0.004933505784720182
1761478237868537300,3.229537353515625,-0.006291984114795923,-0.003998203668743372,-0.0046240463852882385
1761478237878573300,3.2395732421875,0.004177967086434364,-0.0073202308267354965,-0.004033890087157488
1761478237888609500,3.249609619140625,0.007154315710067749,-0.005626460537314415,0.0008977515972219408
1761478237898645500,3.2596455078125,-0.00043223105603829026,-0.006331665441393852,-0.0011499529937282205
1761478237908682200,3.26968212890625,-0.008614793419837952,-0.004542287439107895,-0.005675462540239096
1761478237918718500,3.279718505859375,-0.008127435110509396,-0.004058124963194132,-0.0009962886106222868
1761478237928754700,3.289754638671875,-0.004262122791260481,-0.006366552785038948,0.004488225560635328
1761478237938790700,3.299790771484375,0.0003904194163624197,-0.014698518440127373,0.004797418136149645
1761478237948826600,3.30982666015625,-0.006988401059061289,-0.015400794334709644,0.0049510826356709
1761478237958863600,3.319863525390625,-0.017546769231557846,-0.010780209675431252,0.009694971144199371
1761478237968899600,3.329899658203125,-0.016894029453396797,-0.004703674931079149,0.013907293789088726
1761478237978935600,3.339935546875,-0.012469186447560787,0.00020825919636990875,0.013243633322417736
1761478237988971500,3.349971435546875,-0.010628942400217056,0.005498628597706556,0.00595429539680481
1761478237999007500,3.360007568359375,-0.0031406658235937357,-0.0037830201908946037,-0.007638478651642799
1761478238009044500,3.37004443359375,0.004707669839262962,-0.010370615869760513,-0.020497284829616547
1761478238019080400,3.38008056640625,0.013173325918614864,-0.023364711552858353,-0.02743402123451233
1761478238029116400,3.390116455078125,0.018071411177515984,-0.014394385740160942,-0.01629827916622162
1761478238039152400,3.40015234375,0.020024575293064117,-0.0011062771081924438,-0.007345264777541161
1761478238049188400,3.410188232421875,0.021631792187690735,0.014482269994914532,0.00689066294580698
1761478238059225600,3.4202255859375,0.02557353675365448,0.023803599178791046,0.0076270271092653275
1761478238069261600,3.430261474609375,0.02798875793814659,0.014372281730175018,-0.003944674041122198
1761478238079297500,3.440297607421875,0.04001053422689438,-0.01073972973972559,-0.020852018147706985
1761478238089333500,3.45033349609375,0.045695316046476364,-0.032408539205789566,-0.021583855152130127
1761478238099369500,3.460369384765625,0.03863554447889328,-0.03834712132811546,-0.003507383167743683
1761478238109406500,3.470406494140625,0.026320287957787514,-0.02690405212342739,0.026986077427864075
1761478238119442400,3.4804423828125,0.016330769285559654,-0.012631372548639774,0.0564853809773922
1761478238129478400,3.490478515625,0.010204967111349106,0.00020532972121145576,0.06478432565927505
1761478238139514400,3.500514404296875,0.009350358508527279,0.003323358716443181,0.05410584434866905
1761478238149550300,3.51055029296875,0.005233910400420427,-0.007998005487024784,0.02160196378827095
1761478238159587300,3.52058740234375,0.003013632958754897,-0.01554993074387312,-0.011624963954091072
1761478238169623300,3.530623291015625,0.0022266688756644726,-0.002001898130401969,-0.02454928494989872
1761478238179659300,3.5406591796875,0.002492984989657998,0.011228153482079506,-0.02562946267426014
1761478238189695200,3.5506953125,0.003427754621952772,0.015212242491543293,-0.026746924966573715
1761478238199731500,3.5607314453125,0.0013965616235509515,0.02088797092437744,-0.02877092733979225
1761478238209768400,3.5707685546875,-0.0015835155500099063,0.014031130820512772,-0.038065627217292786
1761478238219804400,3.580804443359375,-0.0027742148377001286,0.0022748722694814205,-0.042989544570446014
1761478238229840600,3.590840576171875,-0.0062461779452860355,-0.007473628968000412,-0.04206676036119461
1761478238239876600,3.600876708984375,-0.007290936075150967,-0.012120844796299934,-0.034387268126010895
1761478238249912600,3.61091259765625,-0.003251453395932913,-0.009821471758186817,-0.00577905960381031
1761478238259949600,3.620949462890625,-0.010328005068004131,0.002231196267530322,0.031010113656520844
1761478238269985500,3.630985595703125,-0.018858110532164574,0.019287411123514175,0.054187338799238205
1761478238280021500,3.641021484375,-0.022610237821936607,0.022721024230122566,0.057248108088970184
1761478238290057500,3.651057373046875,-0.019869046285748482,0.007334345486015081,0.040111999958753586
1761478238300093400,3.661093505859375,-0.008593222126364708,-0.016502810642123222,0.013074789196252823
1761478238310130400,3.67113037109375,0.000972852751147002,-0.024532506242394447,-0.006591057404875755
1761478238320166400,3.68116650390625,0.0063007730059325695,-0.02743348851799965,-0.0193736981600523
1761478238330202400,3.691202392578125,0.012879579328000546,-0.01489159744232893,-0.020475180819630623
1761478238340238600,3.701238525390625,0.007360710762441158,-0.005327919963747263,-0.020592626184225082
1761478238350274600,3.711274658203125,0.007151386234909296,-0.0006002765148878098,-0.024771658703684807
1761478238360311600,3.7213115234375,0.0029382656794041395,0.0002490055630914867,-0.018456771969795227
1761478238370347500,3.731347412109375,-0.0012511530658230186,0.00866219773888588,-0.003129480639472604
1761478238380383500,3.741383544921875,0.004173972178250551,0.0035950010642409325,0.010073939338326454
1761478238390419500,3.75141943359375,0.015871373936533928,0.0028900622855871916,0.02154683694243431
1761478238400455400,3.761455322265625,0.024983379989862442,-0.0004474110610317439,0.03014644980430603
1761478238410492400,3.771492431640625,0.03117416426539421,-0.01185186579823494,0.02587660402059555
1761478238420528400,3.7815283203125,0.028922194615006447,-0.032884180545806885,0.014662832021713257
1761478238430564400,3.791564453125,0.02033216878771782,-0.0346732921898365,0.003257312346249819
1761478238440600300,3.801600341796875,0.009346630424261093,-0.028019117191433907,0.0027686222456395626
1761478238450636300,3.81163623046875,-0.008380968123674393,-0.01278556976467371,0.009183644317090511
1761478238460672300,3.82167236328125,-0.028239095583558083,-0.000913197931367904,0.026688868179917336
1761478238470709500,3.83170947265625,-0.04236796498298645,0.011411645449697971,0.03199468553066254
1761478238480745500,3.841745361328125,-0.04439729079604149,0.00458569684997201,0.024272849783301353
1761478238490781400,3.851781494140625,-0.042021751403808594,-0.002441585995256901,0.0167387668043375
1761478238500817700,3.861817626953125,-0.04988659918308258,-0.0054365769028663635,-0.0038666436448693275
1761478238510853600,3.871853515625,-0.053339920938014984,-0.009181780740618706,-0.028185565024614334
1761478238520890400,3.881890380859375,-0.055803876370191574,0.0009707222343422472,-0.0473073273897171
1761478238530926600,3.891926513671875,-0.05127490684390068,0.004286624025553465,-0.06499923765659332
1761478238540962600,3.901962646484375,-0.04303428530693054,-0.005872536450624466,-0.07205475121736526
1761478238550998500,3.91199853515625,-0.03696653991937637,-0.002028796123340726,-0.058456119149923325
1761478238561034500,3.922034423828125,-0.03840278089046478,0.004167846869677305,-0.034030403941869736
1761478238571071500,3.932071533203125,-0.04048271104693413,0.013614611700177193,-0.011716577224433422
1761478238581107500,3.942107421875,-0.03689463436603546,0.014186126179993153,0.003989947959780693
1761478238591143400,3.952143310546875,-0.024049144238233566,-0.00010120012302650139,0.007666175253689289
1761478238601179400,3.962179443359375,-0.003163302782922983,-0.01673796772956848,0.00637933611869812
1761478238611215400,3.97221533203125,0.00875913631170988,-0.02972620353102684,0.004589691758155823
1761478238621252600,3.982252685546875,0.016204269602894783,-0.028911009430885315,0.012618057429790497
1761478238631288600,3.99228857421875,0.015172295272350311,-0.012711267918348312,0.027468908578157425
1761478238641322500,4.002322509765625,0.005216067191213369,-0.0010223875287920237,0.04260711371898651
1761478238651359500,4.012359375,0.002272741636261344,0.001930525409989059,0.03647571802139282
1761478238661395500,4.0223955078125,0.005944175645709038,-0.004417917691171169,0.02841193415224552
1761478238671431400,4.032431396484375,0.01152695994824171,-0.014022075571119785,0.012045211158692837
1761478238681467600,4.042467529296875,0.015214638784527779,-0.025621740147471428,0.0037531929556280375
1761478238691503600,4.052503662109375,0.01437920518219471,-0.024763936176896095,-0.0034298852551728487
1761478238701540400,4.062540283203125,0.006131928414106369,-0.008256864733994007,-0.00007004113285802305
1761478238711576600,4.07257666015625,-0.010160225443542004,0.005203284323215485,0.0035987296141684055
1761478238721612500,4.082612548828125,-0.013594372197985649,0.015671903267502785,-0.008024103939533234
1761478238731648500,4.0926484375,-0.015467639081180096,0.009093896485865116,-0.021795310080051422
1761478238741684500,4.1026845703125,-0.015116634778678417,0.0030365362763404846,-0.0383327417075634
1761478238751720400,4.112720458984375,-0.013618607074022293,-0.0027981833554804325,-0.03765230253338814
1761478238761757400,4.12275732421875,-0.012566125951707363,0.0009307747823186219,-0.030242856591939926
1761478238771793400,4.13279345703125,-0.018521219491958618,0.0020029633305966854,-0.017609354108572006
1761478238781830100,4.142830078125,-0.021456822752952576,0.003468767274171114,-0.006719155237078667
1761478238791866000,4.1528662109375,-0.032697491347789764,0.005874134600162506,-0.0012247877893969417
1761478238801902000,4.162902099609375,-0.025714684277772903,0.0054885088466107845,0.0005187837523408234
1761478238811939000,4.17293896484375,-0.011139203794300556,-0.0059963734820485115,-0.0022184131667017937
1761478238821975000,4.18297509765625,0.005860019475221634,-0.013762949965894222,0.004445614758878946
1761478238832011000,4.193010986328125,0.013998906128108501,-0.01642531156539917,0.01672065630555153
1761478238842047000,4.203046875,0.01876995898783207,-0.022483738139271736,0.03254116326570511
1761478238852083000,4.2130830078125,0.018147578462958336,-0.014970693737268448,0.048587776720523834
1761478238862120200,4.2231201171875,0.018512697890400887,-0.013051619753241539,0.05609522759914398
1761478238872156200,4.23315625,0.016892697662115097,-0.011826299130916595,0.05201233550906181
1761478238882192100,4.243192138671875,0.016345150768756866,-0.006053897552192211,0.03635561093688011
1761478238892228000,4.25322802734375,0.011084875091910362,-0.0002359560749027878,0.015912920236587524
1761478238902264000,4.26326416015625,0.006780674215406179,0.00007190534961409867,-0.006668022833764553
1761478238912301000,4.273301025390625,0.010362626053392887,-0.0033633061684668064,-0.02521747164428234
1761478238922337000,4.2833369140625,0.022416092455387115,-0.0032525185961276293,-0.03455504775047302
1761478238932373000,4.293373046875,0.026993000879883766,0.00017310546536464244,-0.030556045472621918
1761478238942409000,4.303408935546875,0.023447802290320396,0.0009201221400871873,-0.014669756405055523
1761478238952445000,4.31344482421875,0.013278520666062832,0.0029345371294766665,-0.0013259878614917397
1761478238962481000,4.32348095703125,-0.0009827064350247383,0.01173149049282074,0.014936871826648712
1761478238972518000,4.333517822265625,-0.015176556073129177,0.005672533065080643,0.020928984507918358
1761478238982554000,4.34355419921875,-0.014372281730175018,-0.0033193640410900116,0.025175128132104874
1761478238992590000,4.353590087890625,-0.011549330316483974,0.00034434671397320926,0.032042354345321655
1761478239002626300,4.363626220703125,-0.00015686018741689622,-0.0060267336666584015,0.036065325140953064
1761478239012662300,4.373662353515625,0.003599262097850442,-0.01618562825024128,0.03226952254772186
1761478239022699000,4.383698974609375,-0.00044767739018425345,-0.028798358514904976,0.024806279689073563
1761478239032735200,4.3937353515625,-0.008316786028444767,-0.0346117727458477,0.01673317328095436
1761478239042771200,4.403771240234375,-0.022457106038928032,-0.02955043502151966,0.01787673495709896
1761478239052807200,4.41380712890625,-0.03576359152793884,-0.009463010355830193,0.019764117896556854
1761478239062843100,4.423843017578125,-0.03598836064338684,0.012458800338208675,0.02895468659698963
1761478239072880000,4.433880126953125,-0.032039958983659744,0.017599767073988914,0.028864137828350067
1761478239082916000,4.443916015625,-0.029333654791116714,0.016333432868123055,0.014650847762823105
1761478239092952000,4.4539521484375,-0.02785559929907322,0.006888798903673887,-0.009211874566972256
1761478239102988000,4.463988037109375,-0.025598037987947464,-0.008234494365751743,-0.031198665499687195
1761478239113024000,4.47402392578125,-0.01636192947626114,-0.01025476772338152,-0.043534159660339355
1761478239123060000,4.48406005859375,-0.00914396345615387,-0.005101551301777363,-0.042635079473257065
1761478239133097200,4.49409716796875,0.0036011263728141785,-0.0032029838766902685,-0.03136298432946205
1761478239143133200,4.50413330078125,0.014246313832700253,0.0026202842127531767,-0.01811269111931324
1761478239153169200,4.514169189453125,0.010627610608935356,0.0057188719511032104,-0.0005997438565827906
1761478239163205000,4.524205078125,0.006882407236844301,0.007961253635585308,0.012515258975327015
1761478239173241000,4.534240966796875,-0.005182777531445026,-0.0033281524665653706,0.018756909295916557
1761478239183278000,4.544278076171875,-0.01588575541973114,-0.008451275527477264,0.028266524896025658
1761478239193314000,4.55431396484375,-0.02424515224993229,-0.014908109791576862,0.031860727816820145
1761478239203350000,4.56435009765625,-0.021857894957065582,-0.011542140506207943,0.03419019281864166
1761478239213386000,4.574385986328125,-0.010612696409225464,-0.008146077394485474,0.030158434063196182
1761478239223423000,4.584423095703125,-0.0037113812286406755,-0.016084427013993263,0.016443155705928802
1761478239233460200,4.594460205078125,-0.008372179232537746,-0.01949194259941578,-0.0004261057765688747
1761478239243496200,4.60449609375,-0.021631259471178055,-0.015356851741671562,-0.013818344101309776
1761478239253532200,4.6145322265625,-0.04453258216381073,-0.004588626325130463,-0.02051113359630108
1761478239263568100,4.624568115234375,-0.056417204439640045,0.009945308789610863,-0.022046979516744614
1761478239273604000,4.63460400390625,-0.06272463500499725,0.0106491819024086,-0.01804744452238083
1761478239283641000,4.64464111328125,-0.055451273918151855,0.015783756971359253,-0.0123605290427804
1761478239293677000,4.654677001953125,-0.047153931111097336,0.017181649804115295,-0.006461095064878464
1761478239303713000,4.664713134765625,-0.04138392582535744,0.007361509837210178,-0.007450193166732788
1761478239313749000,4.6747490234375,-0.03176724910736084,0.002796585438773036,-0.011025486513972282
1761478239323785000,4.684784912109375,-0.031084949150681496,0.002269545802846551,-0.016139555722475052
1761478239333822000,4.694822021484375,-0.026016686111688614,0.0021339908707886934,-0.013076120987534523
1761478239343858000,4.70485791015625,-0.02298867329955101,0.00805952399969101,-0.01164733525365591
1761478239353894000,4.714893798828125,-0.022815300151705742,0.017190970480442047,-0.010978614911437035
1761478239363930000,4.72493017578125,-0.018692728132009506,0.017617342993617058,-0.01194188091903925
1761478239373966000,4.734966064453125,-0.013525662012398243,0.014088654890656471,-0.009749832563102245
1761478239384002000,4.745001953125,-0.0062461779452860355,0.006322344299405813,-0.009800166822969913
1761478239394039000,4.7550390625,0.000604004948399961,0.0006372944335453212,-0.006895456463098526
1761478239404075300,4.7650751953125,0.011896606534719467,-0.0013928331900388002,-0.002671683207154274
1761478239414111200,4.775111328125,0.020236030220985413,0.005184908397495747,0.003314836649224162
1761478239424147200,4.785147216796875,0.03147563338279724,0.0064776064828038216,0.006511695217341185
1761478239434183200,4.79518310546875,0.03766348958015442,0.003492469433695078,0.014917430467903614
1761478239444220200,4.80522021484375,0.03563522547483444,-0.004321511369198561,0.021751901134848595
1761478239454256000,4.815256103515625,0.021801702678203583,-0.0016253271605819464,0.03067961521446705
1761478239464292000,4.8252919921875,-0.0012013519881293178,0.004464789759367704,0.03261546790599823
1761478239474328000,4.835328125,-0.0191356111317873,0.0051771849393844604,0.0293701384216547
1761478239484364000,4.845364013671875,-0.02130129374563694,-0.005095425993204117,0.012083294801414013
1761478239494401000,4.855401123046875,-0.014182664453983307,-0.014713698998093605,-0.0025800704024732113
1761478239504437000,4.86543701171875,-0.00691995769739151,-0.019514579325914383,-0.014396515674889088
1761478239514473200,4.87547314453125,-0.00809334684163332,-0.022054169327020645,-0.016645023599267006
1761478239524509200,4.88550927734375,-0.014020211063325405,-0.012678510509431362,-0.008444084785878658
1761478239534545200,4.895545166015625,-0.031504131853580475,0.0023451796732842922,0.005050152540206909
1761478239544582100,4.90558203125,-0.039329562336206436,0.022283202037215233,0.007654191460460424
1761478239554618000,4.9156181640625,-0.04469077289104462,0.027165574952960014,0.004209125880151987
1761478239564654000,4.925654052734375,-0.03208496421575546,0.024758342653512955,-0.013079582713544369
1761478239574690000,4.93568994140625,-0.015973906964063644,0.010747984983026981,-0.029743248596787453
1761478239584726000,4.94572607421875,-0.0019864519126713276,-0.008709069341421127,-0.04297809302806854
1761478239594763000,4.955762939453125,0.013003416359424591,-0.008233695290982723,-0.039498671889305115
1761478239604799000,4.965799072265625,0.013790912926197052,-0.009671535342931747,-0.02864229679107666
1761478239614835000,4.9758349609375,0.013795707374811172,-0.01010669581592083,-0.010235327295958996
1761478239624871000,4.985870849609375,0.013303820975124836,0.000502804818097502,0.005302087403833866
1761478239634907000,4.995906982421875,0.012731507420539856,0.00006870955257909372,0.019283151254057884
1761478239644943000,5.005943115234375,0.016876185312867165,0.0031284152064472437,0.03136271610856056
1761478239654980000,5.01597998046875,0.015391472727060318,0.004014449194073677,0.04280046001076698
1761478239665016000,5.02601611328125,0.01452807616442442,0.0004021373169962317,0.05289224162697792
1761478239675052300,5.03605224609375,0.014927017502486706,-0.007447796408087015,0.0499555766582489
1761478239685088300,5.046088134765625,0.01426655426621437,-0.026265691965818405,0.036799825727939606
1761478239695124200,5.056124267578125,0.014581073075532913,-0.037878938019275665,0.01992257498204708
1761478239705161200,5.0661611328125,0.009257148019969463,-0.0394909493625164,0.014972291886806488
1761478239715197200,5.076197265625,-0.002532399957999587,-0.021032048389315605,0.019168367609381676
1761478239725233200,5.086233154296875,-0.01522768847644329,0.001374457380734384,0.023488814011216164
1761478239735269000,5.09626904296875,-0.022300245240330696,0.01540505513548851,0.019896741956472397
1761478239745305000,5.10630517578125,-0.023986293002963066,0.016088955104351044,0.006768424063920975
1761478239755342000,5.116342041015625,-0.021707160398364067,0.006376673001796007,-0.009692308492958546
1761478239765378000,5.1263779296875,-0.01805676519870758,0.001350755337625742,-0.030601052567362785
1761478239775414000,5.1364140625,-0.021584121510386467,-0.008621984161436558,-0.044536042958498
1761478239785450800,5.14645068359375,-0.018262093886733055,-0.006310626398772001,-0.047926247119903564
1761478239795486700,5.15648681640625,-0.018398981541395187,-0.004351605195552111,-0.048645567148923874
1761478239805522700,5.166522705078125,-0.013397297821938992,-0.0025454494170844555,-0.04291044920682907
1761478239815560000,5.176559814453125,-0.013236177153885365,0.0016519587952643633,-0.03735163435339928
1761478239825596000,5.186595947265625,-0.005759884603321552,0.003988616168498993,-0.021679196506738663
1761478239835631900,5.1966318359375,-0.010202836245298386,0.002502838848158717,0.0014231932582333684
1761478239845667800,5.206667724609375,-0.010339989326894283,0.0014913701452314854,0.02010233886539936
1761478239855703800,5.216703857421875,-0.010120278224349022,0.0014482269762083888,0.03478168323636055
1761478239865740800,5.22674072265625,-0.008022240363061428,-0.010879545472562313,0.03990080952644348
1761478239875776800,5.23677685546875,-0.0017955031944438815,-0.01689988747239113,0.03748292848467827
1761478239885812700,5.246812744140625,-0.00047058056225068867,-0.024778317660093307,0.02924204058945179
1761478239895848700,5.2568486328125,0.0031033814884722233,-0.02171275205910206,0.024265391752123833
1761478239905884700,5.266884765625,-0.0014056164072826505,-0.00603472301736474,0.018922824412584305
1761478239915921700,5.276921630859375,0.0023987090680748224,-0.001442900625988841,0.017361147329211235
1761478239925957600,5.28695751953125,-0.00045833003241568804,0.0062885223887860775,0.012689696624875069
1761478239935993600,5.29699365234375,-0.0001496696495451033,0.00541340745985508,0.003907123580574989
1761478239946029600,5.307029541015625,-0.0017182715237140656,0.004348409362137318,-0.010467820800840855
1761478239956065500,5.3170654296875,-0.003887948812916875,-0.001430916483514011,-0.021819278597831726
1761478239966102800,5.327102783203125,-0.004344680812209845,0.002243713242933154,-0.020591827109456062
1761478239976138800,5.337138671875,-0.0012128035305067897,-0.0004444815858732909,-0.01901443675160408
1761478239986174700,5.3471748046875,-0.0005118595436215401,0.006053098943084478,-0.009994843043386936
1761478239996210700,5.357210693359375,0.0029795446898788214,0.005029113497585058,-0.0007102650706656277
1761478240006247000,5.367246826171875,-0.00040799626731313765,0.005510612856596708,0.004613127559423447
1761478240016283600,5.37728369140625,-0.00012410330236889422,0.0033547841012477875,-0.002082591876387596
1761478240026319600,5.387319580078125,0.0010972223244607449,-0.004634699318557978,-0.009238772094249725
1761478240036355800,5.39735595703125,0.0049428269267082214,-0.009791644290089607,-0.011691010557115078
1761478240046391800,5.407391845703125,0.007399859372526407,-0.01673050969839096,0.0010215885704383254
1761478240056427800,5.417427734375,0.009335178881883621,-0.013744307681918144,0.0209505558013916
1761478240066463700,5.427463623046875,0.0006684534018859267,-0.019224295392632484,0.041249170899391174
1761478240076500700,5.437500732421875,-0.017078053206205368,-0.0025917883031070232,0.05077316612005234
1761478240086536700,5.44753662109375,-0.03515186160802841,0.0024535702541470528,0.0434875562787056
1761478240096572700,5.45757275390625,-0.04400048032402992,-0.003192863892763853,0.023937290534377098
1761478240106609000,5.46760888671875,-0.03623843193054199,-0.010155964642763138,0.0002956108655780554
1761478240116644900,5.477644775390625,-0.022245917469263077,-0.017849570140242577,-0.018372083082795143
1761478240126681900,5.487681884765625,-0.009675797075033188,-0.013778396882116795,-0.022101040929555893
1761478240136717800,5.4977177734375,-0.005076251458376646,-0.00532605592161417,-0.011742675676941872
1761478240146753800,5.50775390625,-0.00526693370193243,0.000618918624240905,0.002663427498191595
1761478240156789800,5.517789794921875,-0.01495418231934309,0.009227054193615913,0.022591328248381615
1761478240166825700,5.52782568359375,-0.017960358411073685,0.021323397755622864,0.03226925805211067
1761478240176862700,5.53786279296875,-0.015028484165668488,0.018663698807358742,0.027844680473208427
1761478240186898700,5.547898681640625,-0.009242233820259571,0.009412409737706184,0.014653511345386505
1761478240196934700,5.5579345703125,0.00018242653459310532,-0.006584399379789829,-0.0032953955233097076
1761478240206970600,5.567970703125,0.012514726258814335,-0.015423697419464588,-0.00956740602850914
1761478240217006600,5.578006591796875,0.018425079062581062,-0.008747418411076069,-0.011803928762674332
1761478240227042600,5.58804248046875,0.020254937931895256,0.0031846079509705305,-0.0017267935909330845
1761478240237079800,5.598079833984375,0.021739384159445763,0.010015616193413734,0.0179987084120512
1761478240247115800,5.60811572265625,0.01260926853865385,0.019725767895579338,0.04337570443749428
1761478240257151700,5.61815185546875,0.0037209687288850546,0.015295333229005337,0.05281900614500046
1761478240267187700,5.628187744140625,-0.005799565929919481,0.005606486462056637,0.044912345707416534
1761478240277224000,5.638223876953125,-0.010457701049745083,0.0011116034584119916,0.03159627690911293
1761478240287260700,5.6482607421875,-0.008682438172399998,-0.012708604335784912,0.01158794667571783
1761478240297296600,5.658296630859375,0.0036815537605434656,-0.019046928733587265,-0.0009888317435979843
1761478240307332900,5.668332763671875,0.005602492019534111,-0.021760689094662666,-0.006329002324491739
1761478240317368800,5.678368896484375,-0.003528155852109194,-0.013758689165115356,-0.00003728425508597866
1761478240327404800,5.68840478515625,-0.019715115427970886,0.007091199047863483,0.016758473590016365
1761478240337441800,5.69844189453125,-0.02954244613647461,0.02293434366583824,0.031374167650938034
1761478240347477800,5.708477783203125,-0.04222441837191582,0.03486077859997749,0.02700738236308098
1761478240357513700,5.718513671875,-0.029203692451119423,0.014186925254762173,0.007019559852778912
1761478240367549700,5.7285498046875,-0.010409764014184475,-0.013847106136381626,-0.018089521676301956
1761478240377585700,5.738585693359375,0.005679723806679249,-0.018924422562122345,-0.02839488908648491
1761478240387621600,5.74862158203125,-0.0019568908028304577,-0.01056129764765501,-0.02196548692882061
1761478240397659000,5.758658935546875,-0.015222894959151745,0.00552126532420516,-0.005655222572386265
1761478240407694800,5.76869482421875,-0.0224459208548069,0.011154383420944214,0.008564460091292858
1761478240417730800,5.778730712890625,-0.01781761273741722,0.005032309330999851,0.012591158971190453
1761478240427766800,5.788766845703125,-0.013108344748616219,-0.008317052386701107,0.0051564122550189495
1761478240437802800,5.798802734375,0.0014929680619388819,-0.021981464698910713,-0.0011896340874955058
1761478240447839700,5.80883984375,0.009559948928654194,-0.023808926343917847,-0.0054967645555734634
1761478240457875700,5.818875732421875,0.007164435926824808,-0.019062640145421028,-0.009409747086465359
1761478240467911700,5.82891162109375,0.005120726302266121,-0.008732505142688751,-0.008985771797597408
1761478240477947600,5.83894775390625,-0.0005408879951573908,0.0013438310706987977,-0.007127684075385332
1761478240487983600,5.848983642578125,0.00421365350484848,0.0030027141328901052,-0.004032824654132128
1761478240498019600,5.85901953125,0.012492355890572071,0.005649363622069359,0.008225439116358757
1761478240508056600,5.869056640625,0.01858833245933056,0.0016817862633615732,0.014191985130310059
1761478240518092500,5.879092529296875,0.014089986681938171,-0.006045375484973192,0.015844743698835373
1761478240528128800,5.889128662109375,0.007125020958483219,-0.01272937748581171,0.018733473494648933
1761478240538164700,5.899164794921875,0.007226487621665001,-0.021706361323595047,0.0185872670263052
1761478240548201000,5.909200927734375,0.012584767304360867,-0.02533012442290783,0.021706094965338707
1761478240558237700,5.91923779296875,0.02346750907599926,-0.015789348632097244,0.023539414629340172
1761478240568273700,5.929273681640625,0.026069417595863342,-0.005126585252583027,0.02389441430568695
1761478240578310000,5.939309814453125,0.01985866017639637,0.0028157602064311504,0.015802664682269096
1761478240588345900,5.949345947265625,0.011422297917306423,0.004290618933737278,-0.0002969424531329423
1761478240598381800,5.9593818359375,0.0021486382465809584,-0.004433364141732454,-0.01636326126754284
1761478240608418800,5.969418701171875,-0.008335161954164505,-0.004895955324172974,-0.027898475527763367
1761478240618454800,5.979454833984375,-0.010306167416274548,-0.003757187630981207,-0.030550984665751457
1761478240628490800,5.98949072265625,-0.005242698825895786,-0.008890963159501553,-0.021503427997231483
1761478240638526700,5.999526611328125,0.0010934938909485936,-0.0100774010643363,-0.023996945470571518
1761478240648562700,6.009562744140625,-0.0049521480686962605,-0.0038461373187601566,-0.020595289766788483
1761478240658598700,6.0195986328125,-0.022846460342407227,0.0011709919199347496,-0.01575312949717045
1761478240668636000,6.029635986328125,-0.04172001779079437,0.016336096450686455,-0.009894176386296749
1761478240678672000,6.039671875,-0.050512176007032394,0.01763651706278324,-0.016652479767799377
1761478240688707800,6.049707763671875,-0.03840065374970436,0.00447064870968461,-0.019754795357584953
1761478240698743800,6.059743896484375,-0.024929052218794823,-0.0073804184794425964,-0.022646989673376083
1761478240708779800,6.06977978515625,-0.005881857592612505,-0.0247812457382679,-0.022110095247626305
1761478240718815700,6.079815673828125,0.00024394555657636374,-0.01974654011428356,-0.008610266260802746
1761478240728852700,6.089852783203125,-0.0017014936311170459,0.0010266485624015331,0.003975300583988428
1761478240738888700,6.099888671875,-0.0032684975303709507,0.006070675794035196,0.009520268067717552
1761478240748924700,6.109924560546875,-0.0016194682102650404,0.005227785091847181,0.011417238041758537
1761478240758960600,6.119960693359375,0.012600480578839779,0.009796437807381153,0.015171762555837631
1761478240768996600,6.12999658203125,0.019747072830796242,0.007769772317260504,0.017460215836763382
1761478240779033000,6.140033203125,0.023873373866081238,0.00586747657507658,0.014940866269171238
1761478240789069000,6.150069091796875,0.029338713735342026,0.0034967304673045874,0.013170396909117699
1761478240799105300,6.160105224609375,0.03146844357252121,-0.006676012184470892,0.003945473115891218
1761478240809141200,6.170141357421875,0.029884662479162216,-0.015526494942605495,-0.007499195169657469
1761478240819177200,6.18017724609375,0.023272566497325897,-0.010714962147176266,-0.007442736066877842
1761478240829214200,6.190214111328125,0.012863067910075188,-0.0005142564186826348,-0.0035955337807536125
1761478240839250200,6.200250244140625,0.0017177389236167073,0.008022240363061428,0.005303685087710619
1761478240849286100,6.2102861328125,-0.0038890140131115913,0.006874417886137962,0.010470218025147915
1761478240859322000,6.220322021484375,-0.015017032623291016,0.006482666824012995,0.011654791422188282
1761478240869358000,6.230358154296875,-0.016039419919252396,-0.006702111102640629,0.009554356336593628
1761478240879394000,6.24039404296875,-0.018453042954206467,-0.0039880839176476,0.007376157213002443
1761478240889431000,6.25043115234375,-0.02148718200623989,-0.006825681775808334,0.0038546593859791756
1761478240899467000,6.260467041015625,-0.030048713088035583,-0.0030927290208637714,0.002406432293355465
1761478240909503000,6.2705029296875,-0.040832649916410446,0.002656236756592989,-0.006617156323045492
1761478240919539000,6.2805390625,-0.04627721756696701,0.006058957893401384,-0.015237542800605297
1761478240929575000,6.290574951171875,-0.04423750191926956,0.01950259506702423,-0.024525582790374756
1761478240939611100,6.300611083984375,-0.03346048668026924,0.022716231644153595,-0.031571775674819946
1761478240949648100,6.310648193359375,-0.015337144955992699,0.017437046393752098,-0.038836877793073654
1761478240959684000,6.32068408203125,0.004772917367517948,0.004261324182152748,-0.039687491953372955
1761478240969720000,6.330719970703125,0.016994696110486984,-0.006706106010824442,-0.03705202788114548
1761478240979756000,6.340756103515625,0.020300744101405144,-0.017251957207918167,-0.02683347836136818
1761478240989792000,6.3507919921875,0.01309023518115282,-0.022897591814398766,-0.006333263125270605
1761478240999829000,6.3608291015625,0.007015565410256386,-0.0038655782118439674,0.024629978463053703
1761478241009865000,6.370864990234375,0.010027334094047546,0.0046426886692643166,0.05212339013814926
1761478241019901000,6.38090087890625,0.013761351816356182,0.008202269673347473,0.06812819093465805
1761478241029937200,6.390937255859375,0.020727915689349174,-0.002862365450710058,0.07090746611356735
1761478241039973000,6.40097314453125,0.028175711631774902,-0.018506838008761406,0.05608350783586502
1761478241050009000,6.411009033203125,0.024097079411149025,-0.026431340724229813,0.04053464159369469
1761478241060046000,6.421046142578125,0.012811935506761074,-0.027689151465892792,0.021884260699152946
1761478241070082300,6.431082275390625,0.006906109396368265,-0.025353293865919113,0.003078614128753543
1761478241080118300,6.4411181640625,0.0002556634717620909,-0.024826519191265106,-0.011906993575394154
1761478241090154200,6.451154296875,-0.008115717209875584,-0.013877466320991516,-0.0191997941583395
1761478241100190200,6.461190185546875,-0.021041102707386017,-0.003382214577868581,-0.014329404570162296
1761478241110226200,6.47122607421875,-0.03401362523436546,0.011546667665243149,-0.00894103106111288
1761478241120263200,6.48126318359375,-0.03858467563986778,0.01095464639365673,-0.010260360315442085
1761478241130299100,6.491299072265625,-0.03767227753996849,0.003829092951491475,-0.01697099395096302
1761478241140335000,6.501335205078125,-0.03976445645093918,-0.003780623432248831,-0.016695355996489525
1761478241150371000,6.51137109375,-0.03930000215768814,-0.0037846181076020002,-0.019568907096982002
1761478241160407000,6.521406982421875,-0.038070421665906906,-0.0013755226973444223,-0.024388430640101433
1761478241170443000,6.531443115234375,-0.03284822776913643,-0.001282045734114945,-0.026010561734437943
1761478241180480000,6.54147998046875,-0.021398499608039856,0.0006258428329601884,-0.022728482261300087
1761478241190516000,6.551515869140625,-0.008743956685066223,-0.0037891454994678497,-0.016651947051286697
1761478241200552000,6.561552001953125,0.0019742012955248356,-0.01218609232455492,-0.0017923073610290885
1761478241210588000,6.571587890625,0.0011978897964581847,-0.008814264088869095,0.014598383568227291
1761478241220624000,6.581623779296875,-0.005253884010016918,0.003320429241284728,0.032706547528505325
1761478241230661000,6.5916611328125,-0.014801583252847195,0.0027145601343363523,0.03187377750873566
1761478241240697000,6.601697021484375,-0.011093131266534328,0.0033864756114780903,0.013925403356552124
1761478241250733000,6.611733154296875,0.002558232517912984,-0.008168980479240417,-0.014155765995383263
1761478241260769000,6.62176904296875,0.014243916608393192,-0.027574103325605392,-0.04400207847356796
1761478241270805200,6.63180517578125,0.02159690484404564,-0.04248540848493576,-0.060029249638319016
1761478241280841200,6.64184130859375,0.018426144495606422,-0.02610750123858452,-0.04722130671143532
1761478241290878000,6.6518779296875,0.0029499835800379515,-0.008049670606851578,-0.018150508403778076
1761478241300914200,6.6619140625,-0.010805776342749596,0.02063150890171528,0.013037770986557007
1761478241310950100,6.6719501953125,-0.017121462151408195,0.038310904055833817,0.022605177015066147
1761478241320986000,6.681986083984375,-0.015460182912647724,0.027175428345799446,0.01781654730439186
1761478241331022000,6.69202197265625,-0.007241401355713606,0.0003787015157286078,-0.0016953683225437999
1761478241341058000,6.70205810546875,0.0020359866321086884,-0.020138291642069817,-0.017361413687467575
1761478241351095300,6.71209521484375,0.018183264881372452,-0.023620640859007835,-0.02339826710522175
1761478241361131300,6.72213134765625,0.028498221188783646,-0.010253436863422394,-0.013660685159265995
1761478241371167200,6.732167236328125,0.03344477713108063,0.004664526786655188,0.0003174488083459437
1761478241381203200,6.742203125,0.022487465292215347,0.01275813952088356,0.01635926589369774
1761478241391239200,6.7522392578125,0.00848349928855896,0.015143533237278461,0.016156865283846855
1761478241401275100,6.762275146484375,-0.004717257339507341,0.004278634674847126,0.006527673918753862
1761478241411312000,6.77231201171875,-0.009697102010250092,-0.006461894139647484,0.0034469293896108866
1761478241421348000,6.78234814453125,-0.0013145363191142678,-0.01284682285040617,0.006854177452623844
1761478241431384000,6.792384033203125,0.011951201595366001,-0.011811652220785618,0.017343569546937943
1761478241441420000,6.802419921875,0.019458120688796043,-0.005458415020257235,0.019151058048009872
1761478241451456000,6.8124560546875,0.022601716220378876,0.0012444951571524143,0.01798272877931595
1761478241461492000,6.822491943359375,0.021678131073713303,-0.0023931164760142565,0.008068845607340336
1761478241471529000,6.832529052734375,0.015416506677865982,-0.007921839132905006,-0.005078648217022419
1761478241481565000,6.84256494140625,0.011894476599991322,-0.005919940769672394,-0.013254020363092422
1761478241491601000,6.852600830078125,0.00555082643404603,0.005393433850258589,-0.01404631044715643
1761478241501636900,6.862636962890625,-0.0005201153689995408,0.007047523278743029,-0.006037652492523193
1761478241511673000,6.872673095703125,-0.0027057717088609934,0.0051505533047020435,-0.008889365009963512
1761478241521709000,6.882708984375,-0.006894924212247133,0.0015795208746567369,-0.009690710343420506
1761478241531746000,6.89274609375,-0.007261641323566437,-0.014521950855851173,-0.013963486067950726
1761478241541782000,6.902781982421875,-0.006774016655981541,-0.02400120720267296,-0.012249741703271866
1761478241551818200,6.912818359375,-0.006308229640126228,-0.019335614517331123,-0.0065130265429615974
1761478241561854200,6.922854248046875,-0.00860254280269146,-0.011552526615560055,0.0036695697344839573
1761478241571890200,6.93289013671875,-0.006310626398772001,-0.001945439144037664,0.012174374423921108
1761478241581926100,6.942926025390625,-0.006868824828416109,0.006631803698837757,0.014285461977124214
1761478241591963100,6.952963134765625,-0.008882441557943821,0.004791559185832739,0.004028031136840582
1761478241601999000,6.9629990234375,-0.007801730185747147,0.004151601810008287,-0.007654191460460424
1761478241612035000,6.97303515625,-0.010103234089910984,-0.002171275205910206,-0.02160862274467945
1761478241622071000,6.983071044921875,-0.007635016459971666,-0.01552596315741539,-0.033069003373384476
1761478241632107000,6.99310693359375,-0.009220662526786327,-0.01296613272279501,-0.033603765070438385
1761478241642144000,7.00314404296875,-0.006668821442872286,-0.012345349416136742,-0.0414598248898983
1761478241652180200,7.01318017578125,-0.0021654162555933,-0.006412891671061516,-0.03975566849112511
1761478241662216200,7.02321630859375,0.006853645201772451,-0.004218180663883686,-0.039615850895643234
1761478241672252200,7.033252197265625,0.007949535734951496,-0.0057553574442863464,-0.032519325613975525
1761478241682288000,7.0432880859375,-0.006078931502997875,0.005352421198040247,-0.013100622221827507
1761478241692324000,7.053323974609375,-0.024803616106510162,0.012771455571055412,0.004210724029690027
1761478241702360000,7.063360107421875,-0.028737638145685196,0.008599613793194294,0.019587816670536995
1761478241712397000,7.07339697265625,-0.02292129397392273,0.002258094260469079,0.025729332119226456
1761478241722433000,7.08343310546875,-0.013496367260813713,-0.012380769476294518,0.0169073436409235
1761478241732469000,7.093468994140625,-0.001574194524437189,-0.02708568051457405,0.0031286815647035837
1761478241742505000,7.1035048828125,0.0065801385790109634,-0.03892795741558075,-0.008226770907640457
1761478241752541200,7.113541259765625,0.006589725613594055,-0.04405587539076805,-0.011653726920485497
1761478241762578000,7.123577880859375,0.004491420928388834,-0.026377012953162193,0.001889246515929699
1761478241772614000,7.13361376953125,-0.0031406658235937357,0.007752728182822466,0.023140739649534225
1761478241782650400,7.143650390625,-0.009815879166126251,0.027121631428599358,0.031317442655563354
1761478241792686600,7.1536865234375,-0.011658520437777042,0.02948465570807457,0.02509470097720623
1761478241802722800,7.163722900390625,-0.00002663161103555467,0.0027539748698472977,0.0006807039608247578
1761478241812758800,7.1737587890625,0.011567173525691032,-0.02526647411286831,-0.022764168679714203
1761478241822795500,7.18379541015625,0.01883467473089695,-0.03548422455787659,-0.032339565455913544
1761478241832831700,7.193831787109375,0.011157579720020294,-0.03616253286600113,-0.024569258093833923
1761478241842867700,7.20386767578125,-0.003939614165574312,-0.019334282726049423,-0.009112006053328514
1761478241852903700,7.213903564453125,-0.023963389918208122,0.005238970275968313,0.007859520614147186
1761478241862939600,7.223939697265625,-0.02900981344282627,0.019649334251880646,0.011320564895868301
1761478241872975600,7.2339755859375,-0.021074125543236732,0.019479958340525627,0.0036645096261054277
1761478241883012600,7.2440126953125,-0.005852296482771635,0.01577416993677616,-0.0034179009962826967
1761478241893048600,7.254048583984375,0.0007989483419805765,0.010362359695136547,-0.015137939713895321
1761478241903084500,7.26408447265625,0.008614260703325272,0.0010490191634744406,-0.023802535608410835
1761478241913120500,7.27412060546875,0.01011069118976593,-0.004977714270353317,-0.035541217774152756
1761478241923156500,7.284156494140625,0.006952980998903513,-0.0018197379540652037,-0.03845391422510147
1761478241933192400,7.2941923828125,0.006990797817707062,-0.0037976677995175123,-0.030014891177415848
1761478241943229700,7.304229736328125,0.003724164329469204,-0.003066629869863391,-0.0113400062546134
1761478241953265700,7.314265625,-0.0038365498185157776,0.004461061209440231,0.009751430712640285
1761478241963301600,7.324301513671875,-0.015843944624066353,0.0075665730983018875,0.029325397685170174
1761478241973337600,7.334337646484375,-0.02333994396030903,0.011986888013780117,0.03195979818701744
1761478241983373600,7.34437353515625,-0.019298063591122627,-0.0003193130251020193,0.027894748374819756
1761478241993409500,7.354409423828125,-0.00732449209317565,-0.010899785906076431,0.021623536944389343
1761478242003445500,7.364445556640625,0.006410761270672083,-0.01750788651406765,0.015213307924568653
1761478242013482500,7.374482421875,0.018789932131767273,-0.01709429919719696,0.009760485030710697
1761478242023518500,7.3845185546875,0.028423385694622993,-0.016810139641165733,0.0018053569365292788
1761478242033554400,7.394554443359375,0.026094185188412666,-0.009166067466139793,-0.004455468617379665
1761478242043590700,7.404590576171875,0.01577603444457054,-0.003063700394704938,-0.009839048609137535
1761478242053626600,7.414626708984375,0.0012777847005054355,-0.002037584548816085,-0.011992480605840683
1761478242063663400,7.424663330078125,-0.012111790478229523,0.003320429241284728,-0.015807459130883217
1761478242073699600,7.434699462890625,-0.015599998645484447,0.006135124247521162,-0.016353406012058258
1761478242083735600,7.444735595703125,-0.011348527856171131,0.007844873704016209,-0.015221296809613705
1761478242093771800,7.454771728515625,-0.002843989757820964,-0.0025992451701313257,-0.012073706835508347
1761478242103807700,7.464807861328125,0.0006183860241435468,-0.008157262578606606,-0.007989749312400818
1761478242113843700,7.47484375,0.005830991081893444,-0.00824754312634468,0.0015992282424122095
1761478242123880700,7.484880615234375,0.0023462448734790087,-0.008688562549650669,0.010486196726560593
1761478242133916700,7.494916748046875,-0.0035233621019870043,0.0005171858938410878,0.019935891032218933
1761478242143952600,7.50495263671875,-0.00711596617475152,0.004831506870687008,0.022491993382573128
1761478242153988600,7.514988525390625,-0.0059993029572069645,0.003935619257390499,0.019688749685883522
1761478242164024600,7.525024658203125,-0.0006854976527392864,-0.0010287790792062879,0.006444850005209446
1761478242174060500,7.535060546875,0.0005459480453282595,-0.013932060450315475,-0.010897655040025711
1761478242184097500,7.54509765625,-0.0035569178871810436,-0.02333887852728367,-0.019118301570415497
1761478242194133500,7.555133544921875,-0.009585515595972538,-0.01913747563958168,-0.016496950760483742
1761478242204169500,7.56516943359375,-0.015460981987416744,-0.009639577940106392,-0.004745753016322851
1761478242214205400,7.575205322265625,-0.01776142045855522,-0.00021491710504051298,0.006750048138201237
1761478242224241400,7.585241455078125,-0.016873521730303764,0.01477308664470911,0.018938537687063217
1761478242234277400,7.59527734375,-0.023505859076976776,0.01786768063902855,0.014738465659320354
1761478242244314600,7.605314697265625,-0.022729014977812767,0.009883789345622063,-0.003070358419790864
1761478242254350600,7.6153505859375,-0.01751800812780857,0.0015182681381702423,-0.01973349042236805
1761478242264386600,7.625386474609375,-0.003997937310487032,-0.005182245280593634,-0.03299150615930557
1761478242274422500,7.635422607421875,0.0064831990748643875,-0.013332849368453026,-0.03596998378634453
1761478242284458800,7.645458740234375,0.020743893459439278,-0.019206717610359192,-0.032216526567935944
1761478242294494700,7.65549462890625,0.02617514505982399,-0.018665829673409462,-0.019946277141571045
1761478242304531500,7.665531494140625,0.021812621504068375,-0.015849802643060684,-0.0013840447645634413
1761478242314567700,7.675567626953125,0.0025241440162062645,-0.0014285196084529161,0.01896543614566326
1761478242324603600,7.685603759765625,-0.01296267006546259,0.008077367208898067,0.033484723418951035
1761478242334639600,7.6956396484375,-0.019293271005153656,0.0013278521364554763,0.03187404200434685
1761478242344675600,7.705675537109375,-0.00965475756675005,-0.0060299295000731945,0.020484235137701035
1761478242354711600,7.715711669921875,-0.0007012102869339287,-0.01540478877723217,0.011380219832062721
1761478242364747500,7.72574755859375,0.00009827064059209079,-0.017785921692848206,0.006665891967713833
1761478242374784500,7.735784423828125,-0.004880775231868029,-0.01684209704399109,-0.0007046724203974009
1761478242384820700,7.74582080078125,-0.012497149407863617,-0.009882724843919277,-0.0057039582170546055
1761478242394856700,7.755856689453125,-0.02478737197816372,0.0023587618488818407,-0.011117366142570972
1761478242404892700,7.765892578125,-0.029338713735342026,0.010982876643538475,-0.013137373141944408
1761478242414928600,7.7759287109375,-0.022731943055987358,0.021512748673558235,-0.010518421418964863
1761478242424964600,7.785964599609375,-0.018866099417209625,0.026637736707925797,-0.009665942750871181
1761478242435001600,7.796001708984375,-0.01792200841009617,0.021829398348927498,-0.014820490963757038
1761478242445037600,7.80603759765625,-0.02249758504331112,0.022058697417378426,-0.021994248032569885
1761478242455073500,7.816073486328125,-0.02701377496123314,0.0072901370003819466,-0.03224848210811615
1761478242465109500,7.826109619140625,-0.021577997133135796,0.0006793724023737013,-0.0384397991001606
1761478242475145500,7.8361455078125,-0.014341655187308788,-0.008682969957590103,-0.034934546798467636
1761478242485181700,7.846181640625,-0.0046693203039467335,-0.007761250250041485,-0.019510583952069283
1761478242495218400,7.856218505859375,0.00980496034026146,0.0012711267918348312,0.007090666331350803
1761478242505254400,7.86625439453125,0.016946492716670036,0.009097890928387642,0.03911304846405983
1761478242515290600,7.87629052734375,0.019710853695869446,0.008706938475370407,0.056343432515859604
1761478242525326600,7.88632666015625,0.015429023653268814,-0.003245061729103327,0.052204083651304245
1761478242535362600,7.896362548828125,0.013678262010216713,-0.01040603592991829,0.0412726067006588
1761478242545398500,7.9063984375,0.010994860902428627,-0.018099641427397728,0.023427560925483704
1761478242555435800,7.916435791015625,0.007905327714979649,-0.0294905137270689,0.013936055824160576
1761478242565471700,7.9264716796875,0.007845672778785229,-0.01930898241698742,0.015409582294523716
1761478242575507700,7.9365078125,0.004748682491481304,-0.00022796659322921187,0.018921492621302605
1761478242585543700,7.946543701171875,0.0025041704066097736,0.01266892347484827,0.01769883558154106
1761478242595579600,7.95657958984375,0.0028298748657107353,0.025600435212254524,0.004116448108106852
1761478242605615600,7.96661572265625,0.0022887205705046654,0.021731659770011902,-0.016412528231739998
1761478242615652600,7.976652587890625,-0.0036525253672152758,0.004971056245267391,-0.04126647859811783
1761478242625688600,7.9866884765625,-0.010836668312549591,-0.003718838095664978,-0.06276697665452957
1761478242635724500,7.996724609375,-0.013948572799563408,0.005931125953793526,-0.07105979323387146
1761478242645759500,8.006759521484375,-0.015153120271861553,0.0030330740846693516,-0.06037119776010513
1761478242655795500,8.01679541015625,-0.013547500595450401,0.01206917967647314,-0.03268657252192497
1761478242665831700,8.026831787109375,-0.015084677375853062,0.021868014708161354,0.0007917577750049531
1761478242675867600,8.03686767578125,-0.018033862113952637,0.03212890774011612,0.02496819943189621
1761478242685904400,8.046904296875,-0.013420733623206615,0.026970364153385162,0.030490797013044357
1761478242695940600,8.056940673828125,0.00041545313433744013,0.010687265545129776,0.026640664786100388
1761478242705976600,8.0669765625,0.015033011324703693,-0.010357033461332321,0.016281768679618835
1761478242716012500,8.077012451171875,0.017961157485842705,-0.026516828685998917,0.001669003046117723
1761478242726048500,8.087048583984375,0.012926717288792133,-0.028670260682702065,-0.007819839753210545
1761478242736085800,8.097085693359375,0.004199805203825235,-0.025407088920474052,-0.005031243897974491
1761478242746121700,8.107121826171875,-0.002433596644550562,-0.007649131119251251,0.010978614911437035
1761478242756157700,8.11715771484375,-0.010565824806690216,0.0041310954838991165,0.032582178711891174
1761478242766193700,8.127193603515625,-0.015117433853447437,0.024103472009301186,0.05126585066318512
1761478242776229600,8.137229736328125,-0.01709829270839691,0.022583073005080223,0.0478932224214077
1761478242786264600,8.1472646484375,-0.011575962416827679,0.0033694314770400524,0.019508186727762222
1761478242796300500,8.157300537109375,-0.010233995504677296,-0.010759171098470688,-0.01877235621213913
1761478242806337500,8.167337646484375,-0.012287292629480362,0.00016644757124595344,-0.04723116010427475
1761478242816373500,8.17737353515625,-0.023502662777900696,-0.004466920159757137,-0.05472023785114288
1761478242826409500,8.187409423828125,-0.023558055981993675,0.012864932417869568,-0.02280438132584095
1761478242836445700,8.19744580078125,-0.036676254123449326,0.03915619105100632,0.028112327679991722
1761478242846481700,8.207481689453125,-0.041060350835323334,0.03924087807536125,0.06928293406963348
1761478242856517600,8.217517578125,-0.03706427663564682,-0.003023220458999276,0.06151662394404411
1761478242866554600,8.2275546875,-0.033543046563863754,0.10897734761238098,0.08494099229574203
1761478242876590600,8.237590576171876,-0.005064799915999174,0.04631716385483742,-0.09108196943998337
1761478242886626600,8.24762646484375,-0.00004420847471919842,-0.07660795748233795,-0.1523171067237854
1761478242896662500,8.25766259765625,0.012830311432480812,-0.11580196768045425,-0.10399031639099121
1761478242906698500,8.267698486328126,0.0027385284192860126,-0.05118701979517937,-0.04174984246492386
1761478242916734700,8.277734619140626,-0.00043649208964779973,-0.022430473938584328,0.009408948011696339
1761478242926771700,8.287771728515626,-0.01926317624747753,-0.03530605882406235,0.052861083298921585
1761478242936807700,8.2978076171875,-0.04799362272024155,0.021868014708161354,0.10379377007484436
1761478242946843600,8.30784375,-0.07255090028047562,0.07359912246465683,0.15088404715061188
1761478242956879600,8.317879638671876,-0.08951656520366669,0.12237225472927094,0.1639937311410904
