time,seconds_elapsed,z,y,x
1761478234744769800,0.105769775390625,-0.011002447456121445,0.028995422646403313,0.018285583704710007
1761478234754805800,0.1158056640625,-0.006285722833126783,0.009614800103008747,0.005911737680435181
1761478234764841700,0.125841796875,-0.00013215607032179832,-0.006594846956431866,-0.010430976748466492
1761478234774876400,0.13587646484375,0.0006401604041457176,-0.0014850397128611803,-0.01631816104054451
1761478234784913400,0.145913330078125,-0.00019923225045204163,0.0018870423082262278,-0.03455827757716179
1761478234794949400,0.155949462890625,0.009838754311203957,-0.00932220183312893,-0.05843165144324303
1761478234804985300,0.1659853515625,0.028741266578435898,-0.021380819380283356,-0.059140413999557495
1761478234815021300,0.176021240234375,0.03532273694872856,0.00018785684369504452,-0.022875085473060608
1761478234825057300,0.186057373046875,0.034115806221961975,0.007879992015659809,0.0155156459659338
1761478234835093200,0.19609326171875,0.02368340827524662,0.00980865303426981,0.046785686165094376
1761478234845130500,0.206130615234375,0.011145664379000664,0.010949335992336273,0.06674446165561676
1761478234855166500,0.21616650390625,-0.006302568130195141,0.004771867301315069,0.07134267687797546
1761478234865202400,0.226202392578125,-0.01499838288873434,-0.0070348260924220085,0.04851597175002098
1761478234875238400,0.23623828125,-0.013813543133437634,-0.006822838447988033,0.027065010741353035
1761478234885274400,0.2462744140625,-0.005883971694856882,-0.011427722871303558,0.004099116660654545
1761478234895311400,0.256311279296875,-0.0036881952546536922,-0.01469036191701889,-0.017406174913048744
1761478234905347300,0.266347412109375,-0.005350007209926844,-0.009712114930152893,-0.0353071466088295
1761478234915383300,0.27638330078125,-0.007849650457501411,-0.0052758208476006985,-0.041786082088947296
1761478234925419300,0.286419189453125,-0.0017300285398960114,-0.001823261147364974,-0.03449104353785515
1761478234935455200,0.296455322265625,-0.001751333475112915,-0.001988643081858754,-0.02807256020605564
1761478234945491200,0.3064912109375,-0.004035214893519878,0.004798930138349533,-0.017695004120469093
1761478234955528200,0.316528076171875,-0.010268609039485455,0.024363841861486435,0.0021540673915296793
1761478234965564200,0.326564208984375,-0.015949904918670654,0.032058894634246826,0.0142659367993474
1761478234975600000,0.33660009765625,-0.01911267451941967,0.030710803344845772,0.009888232685625553
1761478234985636400,0.34663623046875,-0.017556287348270416,0.005110355094075203,0.004485614597797394
1761478234995672300,0.35667236328125,-0.015626827254891396,-0.017157133668661118,0.0014179195277392864
1761478235005709300,0.366709228515625,-0.013845732435584068,-0.02178395912051201,0.00955193117260933
1761478235015745300,0.376745361328125,-0.01729745604097843,-0.01975303143262863,0.023199032992124557
1761478235025781500,0.386781494140625,-0.0248344074934721,0.0008966890163719654,0.037384044378995895
1761478235035817500,0.3968173828125,-0.03223293647170067,0.012905415147542953,0.03631238639354706
1761478235045853400,0.406853515625,-0.03308558091521263,0.010569112375378609,0.017488714307546616
1761478235055889400,0.416889404296875,-0.027999211102724075,-0.009619512595236301,-0.011801263317465782
1761478235065926400,0.426926513671875,-0.009427539072930813,-0.016932755708694458,-0.025300446897745132
1761478235075962400,0.43696240234375,-0.0067212339490652084,-0.01531435176730156,-0.008265002630650997
1761478235085998300,0.446998291015625,-0.008223455399274826,0.006621813401579857,0.02629643864929676
1761478235096034300,0.457034423828125,-0.014236606657505035,0.023052984848618507,0.04683021083474159
1761478235106070300,0.4670703125,-0.012093797326087952,0.017545148730278015,0.04549578204751015
1761478235116107300,0.477107177734375,-0.0011247703805565834,-0.009694994427263737,0.030331477522850037
1761478235126143200,0.487143310546875,0.015164827927947044,-0.029374081641435623,0.012898655608296394
1761478235136179500,0.497179443359375,0.023714905604720116,-0.021611765027046204,0.008945459499955177
1761478235146215400,0.50721533203125,0.026983749121427536,-0.021575316786766052,0.012103852815926075
1761478235156251400,0.51725146484375,0.023838024586439133,-0.009853680618107319,0.022739719599485397
1761478235166287400,0.527287353515625,0.029179656878113747,-0.0021823691204190254,0.02943245880305767
1761478235176324400,0.537324462890625,0.03563063219189644,-0.0037413835525512695,0.028056669980287552
1761478235186360300,0.5473603515625,0.03058553859591484,-0.006083633750677109,0.016533439978957176
1761478235196396300,0.557396240234375,0.025973742827773094,-0.012396390549838543,-0.0013840420870110393
1761478235206432300,0.567432373046875,0.019847769290208817,-0.027500154450535774,-0.013893894851207733
1761478235216468200,0.57746826171875,0.009954391047358513,-0.009908643551170826,-0.015651579946279526
1761478235226505200,0.587505126953125,0.005597942974418402,-0.0008819729555398226,0.006625166162848473
1761478235236541200,0.597541259765625,-0.003097012173384428,0.011476160027086735,0.03574363887310028
1761478235246577200,0.6075771484375,-0.022151034325361252,0.027142025530338287,0.05312830209732056
1761478235256613400,0.61761328125,-0.030186856165528297,0.020713157951831818,0.05316958203911781
1761478235266649300,0.6276494140625,-0.03960476815700531,0.006321382708847523,0.03185394033789635
1761478235276685300,0.637685302734375,-0.03407924249768257,-0.012513023801147938,0.0015871147625148296
1761478235286722300,0.647722412109375,-0.023037051782011986,-0.019196849316358566,-0.018304403871297836
1761478235296758500,0.657758544921875,-0.013987895101308823,-0.01747777871787548,-0.027015870437026024
1761478235306794500,0.66779443359375,-0.005320502445101738,-0.008128028362989426,-0.02510686405003071
1761478235316830500,0.67783056640625,-0.00533062219619751,-0.002071467461064458,-0.015419082716107368
1761478235326866400,0.687866455078125,-0.011898521333932877,0.0016646934673190117,0.0052090780809521675
1761478235336903400,0.6979033203125,-0.016396867111325264,0.015491560101509094,0.029038244858384132
1761478235346939400,0.707939453125,-0.015005087479948997,0.01350403018295765,0.050177767872810364
1761478235356975400,0.717975341796875,-0.009274231269955635,-0.0009715820197016001,0.05736856907606125
1761478235367011300,0.72801123046875,-0.0008077132515609264,-0.00811620894819498,0.0559525191783905
1761478235377047300,0.73804736328125,0.0019473268184810877,-0.007229376584291458,0.05384382605552673
1761478235387084300,0.748084228515625,0.004258264787495136,-0.010028409771621227,0.04515980929136276
1761478235397120300,0.758120361328125,0.006032729055732489,-0.0038456148467957973,0.030784597620368004
1761478235407156200,0.76815625,0.015875505283474922,-0.00920043233782053,0.006871008314192295
1761478235417192200,0.778192138671875,0.0243962612003088,-0.015868037939071655,0.0011459229281172156
1761478235427228400,0.788228515625,0.025626469403505325,-0.005094130989164114,0.014409873634576797
1761478235437265400,0.798265380859375,0.016882512718439102,0.0010785439517349005,0.02453361451625824
1761478235447301400,0.80830126953125,-0.004610077943652868,0.010649844072759151,0.029262134805321693
1761478235457337300,0.81833740234375,-0.02665546163916588,0.013135639019310474,0.02803335152566433
1761478235467373300,0.828373291015625,-0.03360031917691231,0.0017704081255942583,0.019749799743294716
1761478235477409300,0.8384091796875,-0.02560657635331154,-0.010924614034593105,0.013991246931254864
1761478235487445200,0.8484453125,-0.0157820675522089,-0.006832591257989407,0.011164271272718906
1761478235497482200,0.858482177734375,-0.008104441687464714,0.000026380177587270737,0.0017574537778273225
1761478235507518200,0.868518310546875,-0.012731388211250305,0.006807168945670128,-0.0056617604568600655
1761478235517554200,0.87855419921875,-0.017843859270215034,0.023947540670633316,-0.009832536801695824
1761478235527590400,0.88859033203125,-0.024996263906359673,0.023153092712163925,-0.01214840542525053
1761478235537626400,0.89862646484375,-0.024946462363004684,0.011946512386202812,-0.016824116930365562
1761478235547663400,0.908663330078125,-0.022353949025273323,0.009604716673493385,-0.019579201936721802
1761478235557699300,0.91869921875,-0.014583377167582512,0.004489848855882883,-0.01354953832924366
1761478235567735600,0.928735595703125,-0.012900887057185173,0.0019569559954106808,0.005760410334914923
1761478235577771500,0.938771484375,-0.013335248455405235,0.008515522815287113,0.018168343231081963
1761478235587807500,0.948807373046875,-0.008811963722109795,0.01655072346329689,0.022312944754958153
1761478235597844500,0.958844482421875,0.004255102481693029,0.0074243368580937386,0.02342987433075905
1761478235607880400,0.96888037109375,0.012232817709445953,-0.003828164655715227,0.019323216751217842
1761478235617916400,0.97891650390625,0.011682076379656792,-0.006756310351192951,0.011930282227694988
1761478235627952400,0.988952392578125,-0.001984825823456049,0.014463008381426334,0.01591460034251213
1761478235637988400,0.99898828125,-0.005907395854592323,0.02247273176908493,0.020639847964048386
1761478235648025300,1.009025390625,-0.0026965453289449215,0.019705111160874367,0.01476664375513792
1761478235658061300,1.019061279296875,0.009680495597422123,-0.0006824524607509375,-0.006157279945909977
1761478235668097300,1.02909716796875,0.02679084986448288,-0.02656216360628605,-0.0215678121894598
1761478235678133200,1.03913330078125,0.03270519897341728,-0.045194968581199646,-0.0177733413875103
1761478235688169200,1.049169189453125,0.027331598103046417,-0.03899572789669037,0.0027289059944450855
1761478235698206500,1.05920654296875,0.015608096495270729,-0.010566215962171555,0.03198239952325821
1761478235708242400,1.069242431640625,0.007269096560776234,0.01772180385887623,0.05708831176161766
1761478235718278400,1.0792783203125,0.0046498775482177734,0.0387200303375721,0.06119304150342941
1761478235728314400,1.089314453125,0.007683139760047197,0.038557350635528564,0.039548587054014206
1761478235738350300,1.099350341796875,0.0046476684510707855,0.02072402462363243,0.0007263563456945121
1761478235748387300,1.10938720703125,0.0017776591703295708,0.004061790648847818,-0.03169718757271767
1761478235758423300,1.11942333984375,-0.006175338756293058,-0.0007763740140944719,-0.049863941967487335
1761478235768459300,1.129459228515625,-0.008309314027428627,-0.002128472551703453,-0.05163397639989853
1761478235778496000,1.13949609375,-0.0038213557563722134,0.001179173355922103,-0.04088625684380531
1761478235788532000,1.149531982421875,-0.002150879707187414,0.011202841997146606,-0.021028831601142883
1761478235798569000,1.15956884765625,0.003358668414875865,0.019273284822702408,0.0037500173784792423
1761478235808605000,1.16960498046875,0.006038121413439512,0.01980523206293583,0.010822356678545475
1761478235818641000,1.179640869140625,0.0018164785578846931,0.011472200974822044,0.014436532743275166
1761478235828676900,1.1896767578125,-0.010621502995491028,0.011987635865807533,0.021381301805377007
1761478235838712800,1.199712890625,-0.009070477448403835,0.011054198257625103,0.02628071792423725
1761478235848749800,1.209749755859375,-0.006903118919581175,-0.0012219578493386507,0.029194314032793045
1761478235858785800,1.219785888671875,0.00016251392662525177,-0.007640441879630089,0.029606571421027184
1761478235868821800,1.22982177734375,0.005978576838970184,-0.006159712560474873,0.025185560807585716
1761478235878857700,1.239857666015625,0.011240450665354729,0.002766937017440796,0.017779842019081116
1761478235888894000,1.24989404296875,0.013242959044873714,0.003781829262152314,-0.003960728645324707
1761478235898931000,1.259930908203125,0.013450685888528824,0.00020280713215470314,-0.03099687397480011
1761478235908967000,1.269966796875,0.009332493878901005,-0.002085988176986575,-0.04876405745744705
1761478235919003100,1.280003173828125,0.0035853921435773373,-0.0013834463898092508,-0.05561317503452301
1761478235929039000,1.2900390625,0.004585194867104292,0.0047687082551419735,-0.05111207067966461
1761478235939075000,1.300074951171875,0.0005036345683038235,0.010758956894278526,-0.03269471228122711
1761478235949112000,1.310112060546875,-0.0040389359928667545,0.017044689506292343,-0.005692318081855774
1761478235959148000,1.32014794921875,-0.006886920426040888,0.03057114966213703,0.016123764216899872
1761478235969184000,1.33018408203125,-0.009214775636792183,0.030612949281930923,0.024361081421375275
1761478235979220000,1.340219970703125,0.0055969273671507835,0.023251973092556,0.0223541259765625
1761478235989256000,1.350255859375,0.019614242017269135,0.01768968068063259,0.011128229089081287
1761478235999293000,1.36029296875,0.038279272615909576,0.006860203575342894,0.002799725392833352
1761478236009329000,1.370328857421875,0.049184978008270264,-0.0070974500849843025,-0.009767219424247742
1761478236019365000,1.380365234375,0.05061536282300949,-0.017779123038053513,-0.015269042924046516
1761478236029401000,1.390401123046875,0.039266522973775864,-0.0101652592420578,-0.0020741960033774376
1761478236039438000,1.40043798828125,0.021958105266094208,0.011098218150436878,0.014667232520878315
1761478236049474000,1.41047412109375,0.003876605536788702,0.026653867214918137,0.032980870455503464
1761478236059510000,1.420510009765625,-0.008315877988934517,0.03514162823557854,0.04205958545207977
1761478236069546000,1.4305458984375,-0.0057924240827560425,0.03203205764293671,0.03825042024254799
1761478236079582000,1.44058203125,-0.002954026684165001,0.02135251834988594,0.022599291056394577
1761478236089619000,1.450618896484375,0.006387841887772083,0.009325934574007988,0.001093854196369648
1761478236099655000,1.460655029296875,0.016162175685167313,-0.005773656070232391,-0.021653268486261368
1761478236109691000,1.47069091796875,0.02867080830037594,-0.01892755553126335,-0.04015785828232765
1761478236119726800,1.480726806640625,0.02849903330206871,-0.013461415655910969,-0.04375072568655014
1761478236129762800,1.4907626953125,0.015516452491283417,-0.006275712046772242,-0.03788332641124725
1761478236139800000,1.500800048828125,-0.005940902046859264,0.008282991126179695,-0.020454002544283867
1761478236149836000,1.5108359375,-0.028120191767811775,0.02183379977941513,-0.0007926321122795343
1761478236159872000,1.5208720703125,-0.041486069560050964,0.02622056007385254,0.01250559650361538
1761478236169908000,1.530907958984375,-0.038159824907779694,0.02212424762547016,0.023284198716282845
1761478236179944000,1.54094384765625,-0.03243669494986534,0.006036357954144478,0.02638678066432476
1761478236189981000,1.55098095703125,-0.02764408476650715,-0.003727054689079523,0.02160326950252056
1761478236200017000,1.561016845703125,-0.027666987851262093,-0.01278712972998619,0.011235583573579788
1761478236210052900,1.571052978515625,-0.029738958925008774,-0.020790308713912964,0.000572187127545476
1761478236220088800,1.5810888671875,-0.029153063893318176,-0.021801510825753212,-0.005481444299221039
1761478236230125000,1.591125,-0.027680382132530212,-0.01672922819852829,-0.006979232653975487
1761478236240161800,1.601161865234375,-0.02537381649017334,-0.021763671189546585,-0.0031227092258632183
1761478236250197800,1.61119775390625,-0.019881218671798706,-0.0025376989506185055,0.009509222581982613
1761478236260234000,1.62123388671875,-0.017056137323379517,0.016538789495825768,0.02007691189646721
1761478236270270000,1.63127001953125,-0.012059168890118599,0.015800928696990013,0.020468566566705704
1761478236280307000,1.641306884765625,-0.0037961802445352077,0.010759830474853516,0.010353615507483482
1761478236290343200,1.65134326171875,0.005399149842560291,-0.003012821776792407,-0.002612085547298193
1761478236300379100,1.661379150390625,0.016633694991469383,-0.010853433981537819,-0.00986067671328783
1761478236310415000,1.6714150390625,0.018438566476106644,-0.007487628608942032,-0.0013598615769296885
1761478236320451000,1.681451171875,0.013765785843133926,-0.0025586497504264116,-0.00117397285066545
1761478236330488000,1.691488037109375,0.005052610766142607,-0.004341978579759598,0.0058000716380774975
1761478236340524000,1.70152392578125,-0.006210430059581995,0.0021880920976400375,0.015889989212155342
1761478236350560000,1.71156005859375,-0.009557036682963371,-0.00227865157648921,0.024077486246824265
1761478236360596000,1.721595947265625,-0.010045194998383522,-0.0010253679938614368,0.024795474484562874
1761478236370632000,1.7316318359375,-0.010967273265123367,-0.0008125412277877331,0.020587055012583733
1761478236380669000,1.7416689453125,-0.013599276542663574,-0.007547143381088972,0.01359492540359497
1761478236390705000,1.751704833984375,-0.017256174236536026,-0.007820322178304195,-0.002774149179458618
1761478236400740900,1.761740966796875,-0.014868649654090405,-0.001775745302438736,-0.015583154745399952
1761478236410776800,1.77177685546875,-0.013108784332871437,-0.0036237374879419804,-0.024535078555345535
1761478236420812800,1.781812744140625,-0.0034721363335847855,0.0014083052519708872,-0.026818206533789635
1761478236430850000,1.79185009765625,0.003426797455176711,-0.007762430235743523,-0.01697896607220173
1761478236440886000,1.801885986328125,0.008233004249632359,-0.0010715036187320948,-0.002759017050266266
1761478236450922000,1.811921875,0.0016215965151786804,0.012501219287514687,0.00517855491489172
1761478236460958000,1.8219580078125,0.000020770356059074402,0.0195066649466753,0.0018362875562161207
1761478236470995000,1.831994873046875,-0.0010057520121335983,0.010536137968301773,-0.011480163782835007
1761478236481031000,1.842031005859375,0.003267822787165642,-0.010236783884465694,-0.03062882274389267
1761478236491067000,1.85206689453125,0.009872367605566978,-0.03230981156229973,-0.0468941330909729
1761478236501102800,1.862102783203125,0.014525709673762321,-0.0392737090587616,-0.04648267477750778
1761478236511138800,1.872138916015625,0.0045068347826600075,-0.02853541448712349,-0.025850584730505943
1761478236521175800,1.88217578125,-0.00286372983828187,-0.010249086655676365,-0.003090144135057926
1761478236531211800,1.892211669921875,-0.006984125357121229,0.008793683722615242,0.02652154304087162
1761478236541247700,1.902247802734375,-0.0077029126696288586,0.02616548351943493,0.04125495254993439
1761478236551284000,1.912283935546875,-0.005975508131086826,0.03100614622235298,0.03861912339925766
1761478236561320200,1.9223203125,-0.009312981739640236,0.028557635843753815,0.018919721245765686
1761478236571357000,1.93235693359375,-0.016208235174417496,0.0131751149892807,-0.013875462114810944
1761478236581393000,1.942392822265625,-0.016936343163251877,0.007696193642914295,-0.04442138597369194
1761478236591429000,1.95242919921875,-0.015512067824602127,0.008777424693107605,-0.06067342311143875
1761478236601465000,1.962465087890625,-0.011762071400880814,-0.00043657957576215267,-0.06696194410324097
1761478236611501000,1.9725009765625,-0.003900309558957815,-0.0006811092607676983,-0.05830320715904236
1761478236621538000,1.9825380859375,-0.0010560541413724422,0.008450336754322052,-0.04398658499121666
1761478236631574000,1.992573974609375,-0.001961716916412115,0.01376223936676979,-0.02702317386865616
1761478236641610000,2.00260986328125,-0.00753065338358283,0.013041588477790356,-0.009865491650998592
1761478236651646000,2.01264599609375,-0.010689804330468178,0.00880348589271307,0.009414732456207275
1761478236661683000,2.022682861328125,-0.013462154194712639,0.0013865821529179811,0.01696745678782463
1761478236671719200,2.03271923828125,-0.010518044233322144,-0.003233595984056592,0.021340440958738327
1761478236681755100,2.042755126953125,-0.007121716160327196,-0.003780076978728175,0.01576484553515911
1761478236691791000,2.052791015625,-0.002846434712409973,-0.01410999707877636,0.003997933119535446
1761478236701827000,2.0628271484375,0.0016441880725324154,-0.014298548921942711,-0.007530358154326677
1761478236711864000,2.072864013671875,0.003805828280746937,-0.013783203437924385,-0.017485547810792923
1761478236721900000,2.082900146484375,0.0018617208115756512,-0.020952166989445686,-0.024787668138742447
1761478236731936000,2.09293603515625,-0.0056607541628181934,-0.020548507571220398,-0.023477373644709587
1761478236741972000,2.102971923828125,-0.015366379171609879,-0.011433039791882038,-0.011035083793103695
1761478236752008000,2.113008056640625,-0.02495392970740795,0.00038335612043738365,0.009232956916093826
1761478236762045000,2.123044921875,-0.02404232881963253,0.011979823932051659,0.024525094777345657
1761478236772081000,2.133080810546875,-0.0200351495295763,0.024505775421857834,0.02183489128947258
1761478236782117000,2.1431171875,-0.014172200113534927,0.02069292776286602,0.004549910314381123
1761478236792153000,2.153153076171875,-0.001663725357502699,0.009680414572358131,-0.016989929601550102
1761478236802190000,2.163190185546875,0.00854390487074852,-0.001932299230247736,-0.041141074150800705
1761478236812226000,2.17322607421875,0.018622402101755142,-0.009653476998209953,-0.05964111164212227
1761478236822262000,2.183261962890625,0.024726102128624916,-0.014617343433201313,-0.06024618446826935
1761478236832298000,2.193298095703125,0.01461445540189743,0.002382884034886956,-0.039692748337984085
1761478236842334000,2.203333984375,0.009057770483195782,0.028349237516522408,-0.008361724205315113
1761478236852371200,2.21337109375,0.005591399502009153,0.04152483120560646,0.0171966552734375
1761478236862407200,2.2234072265625,0.007522191386669874,0.0376049242913723,0.029426423832774162
1761478236872443100,2.233443115234375,0.01113245077431202,0.019274743273854256,0.027043551206588745
1761478236882479000,2.24347900390625,0.006447152234613895,-0.0006528918165713549,0.01676960662007332
1761478236892515000,2.25351513671875,-0.0024060881696641445,-0.01746883988380432,0.003874000161886215
1761478236902552000,2.263552001953125,-0.006583522539585829,-0.030924459919333458,-0.00963887944817543
1761478236912588000,2.273588134765625,-0.017203819006681442,-0.0336298905313015,-0.018632452934980392
1761478236922624000,2.2836240234375,-0.014737999066710472,-0.021756719797849655,-0.009095675311982632
1761478236932660200,2.29366015625,-0.016167473047971725,-0.015435097739100456,0.0057711354456841946
1761478236942697000,2.303697021484375,-0.010341540910303593,-0.003116913139820099,0.022713368758559227
1761478236952733000,2.31373291015625,-0.005047130398452282,0.004626202862709761,0.03611309081315994
1761478236962769200,2.32376904296875,0.0038329141680151224,-0.0003933231346309185,0.03361397981643677
1761478236972805000,2.33380517578125,0.006804312113672495,-0.005886154714971781,0.02893581986427307
1761478236982841000,2.343841064453125,0.01449658628553152,-0.018344422802329063,0.01574438437819481
1761478236992878000,2.353878173828125,0.02123281918466091,-0.028312914073467255,0.003665474709123373
1761478237002914300,2.363914306640625,0.02639375813305378,-0.024938154965639114,-0.002461393363773823
1761478237012950300,2.3739501953125,0.03576313331723213,-0.017017433419823647,-0.0017737655434757471
1761478237022986200,2.383986328125,0.04373956844210625,-0.006985838524997234,0.003260407829657197
1761478237033022200,2.394022216796875,0.04902731999754906,0.0036148489452898502,0.007946796715259552
1761478237043059200,2.40405908203125,0.053877733647823334,-0.005063061602413654,0.009468527510762215
1761478237053095200,2.41409521484375,0.05619132146239281,-0.006582039874047041,0.018017346039414406
1761478237063131100,2.424131103515625,0.0467165932059288,-0.0070867096073925495,0.02037770487368107
1761478237073167000,2.4341669921875,0.031028375029563904,-0.006331666372716427,0.021237168461084366
1761478237083203000,2.444203125,0.014898409135639668,0.0026703502517193556,0.024899547919631004
1761478237093240000,2.454239990234375,0.004704707767814398,0.004447834100574255,0.02863209880888462
1761478237103276000,2.464276123046875,0.00003512110561132431,0.009881481528282166,0.022868484258651733
1761478237113312000,2.47431201171875,-0.006535679567605257,0.00020886934362351894,0.00652164313942194
1761478237123348200,2.48434814453125,-0.009028665721416473,0.0034976068418473005,-0.008841068483889103
1761478237133385200,2.49438525390625,-0.014669256284832954,-0.003648175625130534,-0.023884106427431107
1761478237143421200,2.504421142578125,-0.01812390796840191,-0.0056018708273768425,-0.024474795907735825
1761478237153457200,2.51445703125,-0.02037240006029606,0.00017211749218404293,-0.01710592210292816
1761478237163493000,2.5244931640625,-0.024813488125801086,0.003651004983112216,-0.0045893313363194466
1761478237173529000,2.534529052734375,-0.017516206949949265,0.002921057166531682,0.009190105833113194
1761478237183566000,2.544566162109375,-0.01255500316619873,-0.006582698784768581,0.015046662651002407
1761478237193602000,2.55460205078125,0.002087900647893548,-0.0049745794385671616,0.014748916029930115
1761478237203638000,2.564637939453125,0.010833987966179848,-0.009826859459280968,0.012144077569246292
1761478237213674000,2.574674072265625,0.019823411479592323,0.003735465230420232,0.013418018817901611
1761478237223710000,2.5847099609375,0.0238351970911026,0.003220942569896579,-0.0013271046336740255
1761478237233747000,2.594746826171875,0.024997306987643242,-0.0006728151347488165,-0.015008877031505108
1761478237243783200,2.604783203125,0.02166729047894478,-0.0013130393344908953,-0.027244236320257187
1761478237253819100,2.614819091796875,0.01753006875514984,0.007427455857396126,-0.03785241022706032
1761478237263855000,2.624855224609375,0.015253866091370583,0.017702197656035423,-0.034032102674245834
1761478237273892000,2.63489208984375,0.00970197282731533,0.01384713314473629,-0.02950342372059822
1761478237283928000,2.644927978515625,-0.00013148272410035133,0.0059979986399412155,-0.021891843527555466
1761478237293964000,2.654964111328125,-0.007857860997319221,-0.0055571794509887695,-0.01781630702316761
1761478237304000300,2.665000244140625,-0.016194887459278107,-0.012855306267738342,-0.007168457377701998
1761478237314036200,2.6750361328125,-0.017055198550224304,-0.006407869514077902,0.005996902007609606
1761478237324073000,2.685072998046875,-0.01446474064141512,0.0014396673068404198,0.007778557017445564
1761478237334109200,2.695109130859375,-0.012954744510352612,0.004099634010344744,0.014139829203486443
1761478237344145200,2.705145263671875,-0.015520167537033558,0.012823617085814476,0.010444693267345428
1761478237354181000,2.71518115234375,-0.019460033625364304,0.018233155831694603,0.0008172954549081624
1761478237364217000,2.725217041015625,-0.0221524890512228,0.02677205018699169,-0.012622347101569176
1761478237374254300,2.73525439453125,-0.016241194680333138,0.006726766005158424,-0.029297100380063057
1761478237384290300,2.745290283203125,-0.00605460349470377,0.003912869840860367,-0.04308907687664032
1761478237394326300,2.755326171875,0.004893635865300894,0.0029743837658315897,-0.041735030710697174
1761478237404362200,2.7653623046875,0.010675891302525997,-0.0017753636930137873,-0.03780074417591095
1761478237414398200,2.775398193359375,0.005187664646655321,0.01271381787955761,-0.022255169227719307
1761478237424435200,2.785435302734375,0.003579647745937109,0.025396591052412987,-0.01012473739683628
1761478237434471200,2.79547119140625,0.0033492057118564844,0.027825165539979935,0.007754514925181866
1761478237444507100,2.805507080078125,0.007029960863292217,0.01876935176551342,0.014168205671012402
1761478237454543000,2.815543212890625,0.007391460705548525,0.003803262487053871,0.01598205789923668
1761478237464579000,2.8255791015625,0.011239461600780487,-0.002511092694476247,0.01499562244862318
1761478237474616000,2.835615966796875,0.018788021057844162,-0.01307523064315319,0.007497568614780903
1761478237484652000,2.845652099609375,0.021995531395077705,-0.015974881127476692,0.00038240128196775913
1761478237494688000,2.85568798828125,0.020683767274022102,-0.009015697985887527,-0.00026264344342052937
1761478237504724000,2.865723876953125,0.016376104205846786,-0.006329101510345936,-0.004272298887372017
1761478237514760000,2.875760009765625,0.01252177357673645,0.002285537077113986,0.005665285047143698
1761478237524797200,2.885797119140625,0.008011977188289165,0.015811199322342873,0.015515519306063652
1761478237534833200,2.895833251953125,0.002542989095672965,0.019949575886130333,0.01422294694930315
1761478237544869000,2.905869140625,-0.008905141614377499,0.024174414575099945,0.0070902034640312195
1761478237554905000,2.915905029296875,-0.022997885942459106,0.02287590689957142,-0.007909038104116917
1761478237564942000,2.925942138671875,-0.029653923586010933,0.010676498524844646,-0.03124312125146389
1761478237574978000,2.93597802734375,-0.02966824360191822,0.0004099758807569742,-0.05091090500354767
1761478237585014000,2.946013916015625,-0.023266535252332687,-0.006222893483936787,-0.06037897244095802
1761478237595050000,2.956050048828125,-0.01690792478621006,0.0013178226072341204,-0.052816640585660934
1761478237605086200,2.966086181640625,-0.011952580884099007,0.015551086515188217,-0.038067255169153214
1761478237615123000,2.976123046875,-0.011785538867115974,0.022449573501944542,-0.021060889586806297
1761478237625159000,2.986158935546875,-0.0050298976711928844,0.019341131672263145,-0.0052041602320969105
1761478237635195100,2.996195068359375,-0.0008640722371637821,0.013673736713826656,-0.0038688788190484047
1761478237645231000,3.006231201171875,0.010303627699613571,-0.0037015255074948072,-0.0029365061782300472
1761478237655267300,3.016267333984375,0.015024441294372082,-0.014773795381188393,0.004154236521571875
1761478237665304000,3.026303955078125,0.017557106912136078,-0.019060952588915825,0.01719440519809723
1761478237675340300,3.03634033203125,0.02022642455995083,-0.015086068771779537,0.02542286552488804
1761478237685376300,3.046376220703125,0.01721758395433426,-0.009704886004328728,0.03274522349238396
1761478237695412200,3.056412109375,0.00967360194772482,0.005086601246148348,0.03368556872010231
1761478237705448200,3.0664482421875,0.00913271401077509,0.001585876103490591,0.023172207176685333
1761478237715485200,3.076485107421875,0.005878096912056208,-0.00037422357127070427,0.006314787548035383
1761478237725521200,3.086521240234375,0.0019041281193494797,-0.011052967049181461,-0.005096857436001301
1761478237735557000,3.09655712890625,0.00724389124661684,-0.007816223427653313,-0.006095907185226679
1761478237745593000,3.106593017578125,0.006252396386116743,-0.0007543195970356464,0.0012371070915833116
1761478237755629000,3.116629150390625,0.004682321101427078,0.010491080582141876,0.007432055193930864
1761478237765666000,3.126666015625,0.0014907889999449253,0.01310497336089611,0.00871836207807064
1761478237775702300,3.136702392578125,-0.0031930524855852127,0.007286702282726765,-0.0053267148323357105
1761478237785737500,3.146737548828125,-0.003474815748631954,-0.008787872269749641,-0.01812400296330452
1761478237795773400,3.1567734375,-0.007275162730365992,-0.010896955616772175,-0.023092592135071754
1761478237805809400,3.166809326171875,-0.008228307589888573,-0.0001665470190346241,-0.012634891085326672
1761478237815846400,3.176846435546875,-0.008415212854743004,0.005998518317937851,0.00009294156916439533
1761478237825882400,3.18688232421875,-0.010995816439390182,0.0062957266345620155,0.010801511816680431
1761478237835918300,3.19691845703125,-0.0201475340873003,-0.0012800160329788923,0.010657603852450848
1761478237845954300,3.206954345703125,-0.022298568859696388,-0.004083791747689247,0.003475058590993285
1761478237855990500,3.216990478515625,-0.015391567721962929,-0.005429803393781185,-0.0019489526748657227
1761478237866027300,3.22702734375,-0.0029809712432324886,-0.0035762435290962458,-0.003471215721219778
1761478237876063200,3.237063232421875,0.006728161592036486,-0.002687038853764534,-0.002597409300506115
1761478237886099500,3.247099365234375,0.01284411083906889,-0.002177842892706394,-0.00005302554927766323
1761478237896135700,3.2571357421875,0.005077472422271967,-0.0028139068745076656,-0.00007081986404955387
1761478237906171600,3.267171630859375,-0.002444359939545393,-0.0006879055872559547,-0.003102029673755169
1761478237916208400,3.27720849609375,-0.006036871112883091,-0.003474421100690961,-0.0008140651043504477
1761478237926244600,3.28724462890625,-0.002240268513560295,-0.00011431099846959114,0.004694683477282524
1761478237936280600,3.297280517578125,0.003732543671503663,-0.007728757336735725,0.005240463651716709
1761478237946316500,3.307316650390625,-0.0003988179378211498,-0.012057725340127945,0.008137982338666916
1761478237956352500,3.3173525390625,-0.007440012414008379,-0.007388240657746792,0.00912499986588955
1761478237966389500,3.327389404296875,-0.00929197482764721,-0.0023593937512487173,0.014524025842547417
1761478237976425500,3.337425537109375,-0.007962698116898537,0.003726145252585411,0.018657024949789047
1761478237986461400,3.34746142578125,-0.007362155709415674,0.009121975861489773,0.010397498495876789
1761478237996497400,3.357497314453125,0.0001275329850614071,0.0021901344880461693,-0.0027197198942303658
1761478238006533400,3.367533447265625,0.008974820375442505,-0.005196409299969673,-0.016654711216688156
1761478238016570600,3.377570556640625,0.01598775014281273,-0.016039760783314705,-0.02214529737830162
1761478238026606600,3.387606689453125,0.020604873076081276,-0.016163064166903496,-0.01858251914381981
1761478238036642600,3.397642578125,0.024939656257629395,-0.0035933125764131546,-0.008980740793049335
1761478238046678500,3.407678466796875,0.02840016782283783,0.013903388753533363,0.0031267888844013214
1761478238056715500,3.417715576171875,0.02899981662631035,0.023872043937444687,0.009283940307796001
1761478238066751500,3.42775146484375,0.03282038867473602,0.021198762580752373,0.0006800665869377553
1761478238076787500,3.437787353515625,0.0449877604842186,-0.0006620215717703104,-0.014956298284232616
1761478238086823400,3.447823486328125,0.04862537235021591,-0.024666689336299896,-0.019073545932769775
1761478238096859400,3.457859375,0.045896273106336594,-0.03673765808343887,-0.008093628101050854
1761478238106895400,3.467895263671875,0.03485933318734169,-0.030141808092594147,0.020862922072410583
1761478238116932400,3.477932373046875,0.024435145780444145,-0.011231867596507072,0.051404863595962524
1761478238126968300,3.48796826171875,0.017974315211176872,0.006765508092939854,0.06548233330249786
1761478238137004300,3.49800439453125,0.013820942491292953,0.005334275308996439,0.05728117376565933
1761478238147040300,3.508040283203125,0.013091502711176872,-0.0019758353009819984,0.03223387897014618
1761478238157077500,3.518077392578125,0.010415198281407356,-0.009297752752900124,-0.0026320372708141804
1761478238167113500,3.528113525390625,0.009380027651786804,-0.005217523314058781,-0.020225144922733307
1761478238177149400,3.5381494140625,0.008229464292526245,0.013225043192505836,-0.026457322761416435
1761478238187185400,3.548185302734375,0.008117612451314926,0.018860293552279472,-0.02563680335879326
1761478238197221600,3.5582216796875,0.0071828728541731834,0.021492410451173782,-0.028502536937594414
1761478238207257600,3.568257568359375,0.004262450151145458,0.016111226752400398,-0.03508614003658295
1761478238217294300,3.57829443359375,0.004515200387686491,0.006790555082261562,-0.04043916240334511
1761478238227330600,3.58833056640625,-0.0009298985823988914,-0.003483653999865055,-0.04333268851041794
1761478238237366500,3.598366455078125,-0.000535640399903059,-0.009122150018811226,-0.03547236695885658
1761478238247402500,3.608402587890625,0.00037116557359695435,-0.008821745403110981,-0.011720429174602032
1761478238257438500,3.6184384765625,-0.0005995118990540504,0.0017777382163330913,0.023179754614830017
1761478238267475500,3.628475341796875,-0.012001036666333675,0.018938882276415825,0.05214216560125351
1761478238277511400,3.638511474609375,-0.016976743936538696,0.028110604733228683,0.05772984027862549
1761478238287547400,3.64854736328125,-0.017410308122634888,0.016223052516579628,0.04822048917412758
1761478238297583400,3.658583251953125,-0.005813527386635542,-0.005805840715765953,0.02156146802008152
1761478238307619600,3.66861962890625,0.0037565419916063547,-0.020612217485904694,-0.0030884831212460995
1761478238317656600,3.678656494140625,0.015491556376218796,-0.024706993252038956,-0.019488811492919922
1761478238327692500,3.688692626953125,0.021624285727739334,-0.015044244937598705,-0.020029965788125992
1761478238337728500,3.698728515625,0.01661367155611515,-0.006437504664063454,-0.02176697738468647
1761478238347764500,3.708764404296875,0.014576353132724762,0.00250432500615716,-0.021722503006458282
1761478238357800400,3.718800537109375,0.010007591918110847,0.005539985839277506,-0.01747606322169304
1761478238367837400,3.72883740234375,0.0032503537368029356,0.012240765616297722,-0.007483616471290588
1761478238377873400,3.738873291015625,0.009543461725115776,0.009097399190068245,0.011623403988778591
1761478238387909400,3.748909423828125,0.01872124709188938,0.006150078494101763,0.02193409763276577
1761478238397945300,3.7589453125,0.02766917645931244,0.005018259398639202,0.03206631541252136
1761478238407981300,3.768981201171875,0.03653936833143234,-0.005736916791647673,0.028534963726997375
1761478238418018300,3.779018310546875,0.03510773181915283,-0.02574048936367035,0.020701423287391663
1761478238428054500,3.789054443359375,0.031098607927560806,-0.03148839250206947,0.007096399087458849
1761478238438090500,3.799090576171875,0.019263625144958496,-0.027941657230257988,0.002507968805730343
1761478238448126500,3.80912646484375,0.002734716050326824,-0.01651349849998951,0.007765847723931074
1761478238458162400,3.819162353515625,-0.01568342186510563,-0.00004038866609334946,0.024577783420681953
1761478238468199400,3.829199462890625,-0.032559607177972794,0.015527118928730488,0.03298405185341835
1761478238478235400,3.8392353515625,-0.038608573377132416,0.009320419281721115,0.02902243286371231
1761478238488271400,3.849271240234375,-0.038244519382715225,0.0026438746135681868,0.022472122684121132
1761478238498307600,3.8593076171875,-0.03920754790306091,-0.006664253771305084,0.003393413731828332
1761478238508343600,3.869343505859375,-0.04577889293432236,-0.0018071809317916632,-0.01891801692545414
1761478238518380300,3.87938037109375,-0.05065710097551346,0.001761099905706942,-0.042791739106178284
1761478238528416500,3.88941650390625,-0.04941393807530403,0.010187874548137188,-0.06172122061252594
1761478238538452500,3.899452392578125,-0.03422842547297478,-0.0031940657645463943,-0.07480061799287796
1761478238548488400,3.909488525390625,-0.030765783041715622,-0.0027133654803037643,-0.06368537992238998
1761478238558524400,3.9195244140625,-0.032441768795251846,0.008284195326268673,-0.03762759268283844
1761478238568561700,3.929561767578125,-0.03308039531111717,0.01636955328285694,-0.013502015732228756
1761478238578597600,3.93959765625,-0.034078240394592285,0.018935076892375946,0.0025741320569068193
1761478238588633600,3.949633544921875,-0.022899353876709938,0.0111961979418993,0.009918064810335636
1761478238598669600,3.959669677734375,-0.0027642077766358852,-0.0101233571767807,0.00856471061706543
1761478238608705500,3.96970556640625,0.012244835495948792,-0.023677516728639603,0.00805311743170023
1761478238618741500,3.979741455078125,0.022128000855445862,-0.029168637469410896,0.009110884740948677
1761478238628778500,3.989778564453125,0.022739462554454803,-0.013888750225305557,0.02597455307841301
1761478238638814500,3.999814453125,0.014023510739207268,0.0013299852143973112,0.04137852042913437
1761478238648850400,4.009850341796875,0.009473233483731747,0.006345516536384821,0.04028289392590523
1761478238658886400,4.019886474609375,0.010546366684138775,0.005682858172804117,0.03143441677093506
1761478238668922400,4.02992236328125,0.014351490885019302,-0.004778038710355759,0.01676652580499649
1761478238678958300,4.039958251953125,0.017351821064949036,-0.017953241243958473,0.005537996534258127
1761478238688994300,4.049994384765625,0.018503639847040176,-0.021153029054403305,-0.0029731998220086098
1761478238699030300,4.0600302734375,0.014026926830410957,-0.010984179563820362,0.002009791089221835
1761478238709067300,4.0700673828125,-0.0010500270873308182,0.0091549102216959,0.006207465659826994
1761478238719103500,4.080103515625,-0.006648070644587278,0.01665147952735424,-0.004304446745663881
1761478238729139500,4.090139404296875,-0.010541878640651703,0.01671726070344448,-0.01925569772720337
1761478238739175700,4.10017578125,-0.008621186017990112,0.008422844111919403,-0.0348365493118763
1761478238749211600,4.110211669921875,-0.010377008467912674,0.004297342151403427,-0.0377388633787632
1761478238759248400,4.120248291015625,-0.006543267052620649,0.004161318764090538,-0.031201208010315895
1761478238769284600,4.13028466796875,-0.012622997164726257,0.005125915631651878,-0.022040734067559242
1761478238779321000,4.140321044921875,-0.014219731092453003,0.003274180693551898,-0.00694741727784276
1761478238789357300,4.150357421875,-0.025591427460312843,0.007232703268527985,0.0017523313872516155
1761478238799393300,4.160393310546875,-0.023102061823010445,0.014065119437873363,0.0023507163859903812
1761478238809430000,4.170429931640625,-0.010172681882977486,-0.00010662595741450787,0.000722992408555001
1761478238819466200,4.18046630859375,0.0067591434344649315,-0.008773882873356342,0.003656224347651005
1761478238829502200,4.190502197265625,0.017159853130578995,-0.008230597712099552,0.014152808114886284
1761478238839538200,4.2005380859375,0.0226011723279953,-0.01955180987715721,0.030415862798690796
1761478238849574100,4.21057421875,0.023958317935466766,-0.013847053050994873,0.04589442163705826
1761478238859611100,4.220611083984375,0.024381043389439583,-0.009363126009702682,0.055637747049331665
1761478238869647000,4.230647216796875,0.022576751187443733,-0.006800366565585136,0.05558714643120766
1761478238879683000,4.24068310546875,0.023299921303987503,-0.0059564742259681225,0.042747415602207184
1761478238889719000,4.250718994140625,0.0186013076454401,0.00009875488467514515,0.022583026438951492
1761478238899755000,4.260755126953125,0.014076534658670425,0.0032845933455973864,0.0016807232750579715
1761478238909791000,4.270791015625,0.013717541471123695,0.0016968166455626488,-0.02202407270669937
1761478238919828200,4.280828125,0.02438546158373356,-0.0003798278048634529,-0.03253814950585365
1761478238929864200,4.2908642578125,0.03120501898229122,-0.002895982237532735,-0.032663051038980484
1761478238939900200,4.300900146484375,0.03182866424322128,0.0037286560982465744,-0.015615097247064114
1761478238949936000,4.31093603515625,0.022264717146754265,0.009092262014746666,-0.002374127507209778
1761478238959972000,4.32097216796875,0.009001944214105606,0.013684071600437164,0.012051021680235863
1761478238970009000,4.331009033203125,-0.009800505824387074,0.009695721790194511,0.022683160379529
1761478238980045000,4.341045166015625,-0.006736062932759523,0.0020130733028054237,0.0260084830224514
1761478238990081000,4.3510810546875,-0.006630601827055216,0.0011099954135715961,0.031745463609695435
1761478239000117000,4.361116943359375,0.003171004122123122,0.0013225916773080826,0.037023287266492844
1761478239010153000,4.371153076171875,0.010453151538968086,-0.009637380950152874,0.03460433706641197
1761478239020190000,4.38118994140625,0.010998017154633999,-0.023722967132925987,0.028529731556773186
1761478239030226000,4.391225830078125,-0.000981413759291172,-0.02849455364048481,0.018973244354128838
1761478239040262000,4.401261962890625,-0.010863101109862328,-0.0291905514895916,0.017919614911079407
1761478239050297900,4.4112978515625,-0.026628747582435608,-0.008588869124650955,0.020816868171095848
1761478239060334000,4.421333984375,-0.029455585405230522,0.006324109621345997,0.02851736545562744
1761478239070371000,4.43137109375,-0.027439838275313377,0.019157882779836655,0.03080448880791664
1761478239080407000,4.441406982421875,-0.022932501509785652,0.019572168588638306,0.020309820771217346
1761478239090443000,4.451443115234375,-0.02352106012403965,0.015964917838573456,-0.002054342068731785
1761478239100479200,4.461479248046875,-0.017711685970425606,-0.001508855726569891,-0.0259407851845026
1761478239110515200,4.47151513671875,-0.011466840282082558,-0.0074777984991669655,-0.039986830204725266
1761478239120551200,4.48155126953125,-0.005776742473244667,-0.0022268316242843866,-0.041749466210603714
1761478239130588200,4.491588134765625,0.007794459816068411,-0.002175699220970273,-0.036164551973342896
1761478239140624100,4.5016240234375,0.017833899706602097,0.005476958118379116,-0.02034391649067402
1761478239150660000,4.51166015625,0.017168907448649406,0.012521019205451012,-0.00015662331134080887
1761478239160696000,4.521696044921875,0.015744535252451897,0.011824386194348335,0.011485366150736809
1761478239170732000,4.53173193359375,0.000952539499849081,0.0057137636467814445,0.02178860455751419
1761478239180769000,4.54176904296875,-0.008083689957857132,-0.007476276718080044,0.02792436257004738
1761478239190805200,4.55180517578125,-0.018630340695381165,-0.010997241362929344,0.031195789575576782
1761478239200841200,4.56184130859375,-0.01621658354997635,-0.010055333375930786,0.033106330782175064
1761478239210877200,4.571877197265625,-0.009678257629275322,-0.007034776266664267,0.03439130634069443
1761478239220913200,4.5819130859375,-0.0002298029139637947,-0.01212918758392334,0.0245075561106205
1761478239230950100,4.5919501953125,0.000031719449907541275,-0.01753487065434456,0.006259310524910688
1761478239240986000,4.601986083984375,-0.013603918254375458,-0.012589660473167896,-0.010162118822336197
1761478239251022000,4.61202197265625,-0.03089475817978382,-0.0037314537912607193,-0.017238138243556023
1761478239261058000,4.62205810546875,-0.04652460291981697,0.007232919335365295,-0.021298062056303024
1761478239271094000,4.632093994140625,-0.05338224396109581,0.014857550151646137,-0.018484165892004967
1761478239281130000,4.6421298828125,-0.04986918345093727,0.018746664747595787,-0.01139969564974308
1761478239291167000,4.6521669921875,-0.04444325715303421,0.020587440580129623,-0.00607577059417963
1761478239301203000,4.662202880859375,-0.03660513460636139,0.012196671217679977,-0.005630000028759241
1761478239311239000,4.672239013671875,-0.028998615220189095,0.008226163685321808,-0.009057754650712013
1761478239321275000,4.68227490234375,-0.02706097438931465,0.0020641798619180918,-0.012249433435499668
1761478239331311000,4.69231103515625,-0.021771937608718872,0.004156359005719423,-0.012443045154213905
1761478239341348000,4.70234814453125,-0.016845576465129852,0.010181342251598835,-0.008715633302927017
1761478239351384000,4.712384033203125,-0.015369385480880737,0.021204166114330292,-0.00912256445735693
1761478239361420000,4.722419921875,-0.013339605182409286,0.020982224494218826,-0.008699299767613411
1761478239371456300,4.732456298828125,-0.009309442713856697,0.01852812059223652,-0.007726181298494339
1761478239381492200,4.7424921875,-0.0025526615791022778,0.01307671982795,-0.007919155061244965
1761478239391529000,4.752529052734375,0.004900194704532623,0.006366618908941746,-0.008387339301407337
1761478239401565200,4.762565185546875,0.016249509528279305,0.0015950454398989677,-0.006226604338735342
1761478239411601200,4.77260107421875,0.027136776596307755,0.008420194499194622,0.0027620969340205193
1761478239421637000,4.78263720703125,0.03495180979371071,0.005267024040222168,0.010750086978077888
1761478239431673000,4.792673095703125,0.0426025390625,0.009104106575250626,0.01139057707041502
1761478239441710000,4.8027099609375,0.04276379570364952,-0.0018877729307860136,0.019867435097694397
1761478239451746000,4.81274609375,0.033162035048007965,0.0019487770041450858,0.02818741649389267
1761478239461782000,4.822781982421875,0.013693373650312424,0.006775173358619213,0.035350002348423004
1761478239471818000,4.83281787109375,-0.0077618504874408245,0.006407390348613262,0.030473755672574043
1761478239481854200,4.842854248046875,-0.015390163287520409,-0.0017144770827144384,0.0160658061504364
1761478239491891200,4.85289111328125,-0.012917684391140938,-0.009962020441889763,0.0018373351776972413
1761478239501927200,4.86292724609375,-0.003068640362471342,-0.021130988374352455,-0.010875697247684002
1761478239511963100,4.872963134765625,-0.00024249404668807983,-0.017879001796245575,-0.015259526669979095
1761478239521999000,4.8829990234375,-0.008427063003182411,-0.012463528662919998,-0.008228082209825516
1761478239532035000,4.89303515625,-0.019995568320155144,0.0003316293004900217,0.004810487851500511
1761478239542071000,4.903071044921875,-0.03209295868873596,0.020133690908551216,0.007429373450577259
1761478239552108000,4.91310791015625,-0.03460804745554924,0.0326143279671669,0.009121546521782875
1761478239562144000,4.92314404296875,-0.031419336795806885,0.030343931168317795,-0.007518937811255455
1761478239572180000,4.933179931640625,-0.01501665823161602,0.017771681770682335,-0.024307237938046455
1761478239582216000,4.9432158203125,0.0004749107174575329,0.00028364197351038456,-0.037627220153808594
1761478239592252000,4.953251953125,0.01798412948846817,-0.0017438225913792849,-0.04030076786875725
1761478239602289200,4.9632890625,0.01989833638072014,-0.008439897559583187,-0.029097478836774826
1761478239612325000,4.9733251953125,0.02130155637860298,-0.006348783150315285,-0.0090851541608572
1761478239622361000,4.983361083984375,0.017637798562645912,0.0014068994205445051,0.004724382888525724
1761478239632397000,4.99339697265625,0.016072925180196762,0.003061521565541625,0.01769903674721718
1761478239642433300,5.003433349609375,0.022328628227114677,0.005325905978679657,0.029638569802045822
1761478239652470000,5.013469970703125,0.023269522935152054,0.00931931659579277,0.04191148281097412
1761478239662506000,5.023506103515625,0.024127265438437462,0.006037401035428047,0.054388705641031265
1761478239672542200,5.033542236328125,0.02134266309440136,-0.0009888166096061468,0.05507580190896988
1761478239682578200,5.043578125,0.01926288940012455,-0.01621432416141033,0.04033226519823074
1761478239692614100,5.0536142578125,0.018689775839447975,-0.03450571373105049,0.024771947413682938
1761478239702651100,5.063651123046875,0.01465298980474472,-0.03319438546895981,0.015797490254044533
1761478239712687000,5.07368701171875,0.005635260604321957,-0.02375694178044796,0.017670225352048874
1761478239722723000,5.08372314453125,-0.003697706386446953,-0.0023737880401313305,0.024282505735754967
1761478239732759000,5.093759033203125,-0.01541508175432682,0.016731996089220047,0.020732777193188667
1761478239742795000,5.103794921875,-0.016557443886995316,0.023233355954289436,0.012586718425154686
1761478239752831000,5.1138310546875,-0.017681563273072243,0.013644378632307053,-0.0042212894186377525
1761478239762868200,5.1238681640625,-0.011945189908146858,0.006746702827513218,-0.0236374344676733
1761478239772904200,5.133904296875,-0.01646563969552517,-0.0003471595700830221,-0.04010269418358803
1761478239782941000,5.14394091796875,-0.01427402812987566,-0.0040675075724720955,-0.04498685523867607
1761478239792977000,5.153976806640625,-0.014022094197571278,-0.001085832016542554,-0.04474636912345886
1761478239803012900,5.164012939453125,-0.009514222852885723,0.0013902736827731133,-0.043807823210954666
1761478239813049900,5.1740498046875,-0.005891258828341961,0.002822521608322859,-0.038857538253068924
1761478239823085800,5.1840859375,-0.002895218785852194,0.007849377579987049,-0.024175461381673813
1761478239833121800,5.194121826171875,-0.0006315317004919052,0.006568663753569126,-0.002517570275813341
1761478239843157800,5.20415771484375,-0.002230952028185129,0.0037769607733935118,0.019199281930923462
1761478239853193700,5.21419384765625,-0.005420620087534189,0.005333312321454287,0.032870884984731674
1761478239863230700,5.224230712890625,-0.004091656766831875,-0.003895364934578538,0.03889710083603859
1761478239873266700,5.2342666015625,0.002977703930810094,-0.011515467427670956,0.038336239755153656
1761478239883302700,5.244302734375,0.004365414846688509,-0.020899483934044838,0.03313487023115158
1761478239893338600,5.254338623046875,0.007251748815178871,-0.023108042776584625,0.027557678520679474
1761478239903374600,5.26437451171875,0.009141652844846249,-0.004437482915818691,0.020619776099920273
1761478239913411800,5.274411865234375,0.005398047622293234,0.004245487041771412,0.019789136946201324
1761478239923447800,5.28444775390625,0.007311811670660973,0.00641369353979826,0.015459837391972542
1761478239933483800,5.29448388671875,0.0068369703367352486,0.009951969608664513,0.009772123768925667
1761478239943519700,5.304519775390625,0.0026431656442582607,0.0074292197823524475,-0.006606217473745346
1761478239953555700,5.3145556640625,0.0015781675465404987,0.0022826611530035734,-0.016303319483995438
1761478239963592000,5.324592041015625,0.00007812166586518288,0.0006879093125462532,-0.020599516108632088
1761478239973628700,5.334628662109375,0.003641963703557849,0.00296411314047873,-0.018946226686239243
1761478239983664600,5.34466455078125,0.0035204561427235603,0.0069849793799221516,-0.010707467794418335
1761478239993700900,5.354700927734375,0.005654447246342897,0.00834212638437748,-0.0008178198477253318
1761478240003736800,5.36473681640625,0.009161252528429031,0.007942144758999348,0.004588114097714424
1761478240013772800,5.374772705078125,0.004228012636303902,0.005328784696757793,0.0023417379707098007
1761478240023809800,5.384809814453125,0.005267461761832237,0.0008337618783116341,-0.005686162039637566
1761478240033845800,5.394845703125,0.01091203186661005,-0.007637753151357174,-0.011061486788094044
1761478240043881700,5.4048818359375,0.014529639855027199,-0.011654713191092014,-0.0029365350492298603
1761478240053917700,5.414917724609375,0.015212740749120712,-0.009771325625479221,0.016588162630796432
1761478240063953700,5.42495361328125,0.008112848736345768,-0.016287459060549736,0.03675715625286102
1761478240073991000,5.434990966796875,-0.006261563394218683,-0.005402587354183197,0.050862327218055725
1761478240084027000,5.44502685546875,-0.02487063780426979,0.004719402641057968,0.046797897666692734
1761478240094062800,5.455062744140625,-0.03866368159651756,0.00339234946295619,0.029957933351397514
1761478240104098800,5.465098876953125,-0.033936433494091034,-0.0027100935112684965,0.007107531186193228
1761478240114134800,5.475134765625,-0.018480246886610985,-0.011758183129131794,-0.013536760583519936
1761478240124171800,5.485171875,-0.008320162072777748,-0.013036297634243965,-0.02260119467973709
1761478240134207700,5.495207763671875,-0.00103348633274436,-0.004373833537101746,-0.014397061429917812
1761478240144243700,5.50524365234375,0.00047045061364769936,0.002710022497922182,0.004789481405168772
1761478240154279700,5.51527978515625,-0.006002095993608236,0.012116307392716408,0.016771575435996056
1761478240164315600,5.525315673828125,-0.013267919421195984,0.026734093204140663,0.03444232791662216
1761478240174351600,5.5353515625,-0.010362941771745682,0.02171776257455349,0.032064393162727356
1761478240184388600,5.545388671875,-0.007710326928645372,0.015935584902763367,0.018090756610035896
1761478240194424800,5.5554248046875,0.006444374565035105,0.0007664856966584921,0.002734170760959387
1761478240204460800,5.565460693359375,0.015537489205598831,-0.011804573237895966,-0.0066199833527207375
1761478240214496800,5.575496826171875,0.023665988817811012,-0.005989827215671539,-0.01202140748500824
1761478240224532700,5.58553271484375,0.030876005068421364,0.003243187442421913,-0.003118494525551796
1761478240234569700,5.59556982421875,0.026127588003873825,0.01621224917471409,0.013659686781466007
1761478240244605700,5.605605712890625,0.02199602872133255,0.01693687029182911,0.037566088140010834
1761478240254641700,5.6156416015625,0.011640060693025589,0.022487696260213852,0.05558903142809868
1761478240264678000,5.625677978515625,0.005241849459707737,0.01005311869084835,0.051075633615255356
1761478240274713900,5.6357138671875,-0.004543936345726252,0.007807540707290173,0.03738805279135704
1761478240284750600,5.64575048828125,-0.0006188610568642616,-0.006138824857771397,0.0157125536352396
1761478240294786800,5.655786865234375,0.005844364408403635,-0.014902754686772823,0.004517956171184778
1761478240304822800,5.66582275390625,0.009131158702075481,-0.019912390038371086,-0.006473591551184654
1761478240314858800,5.675858642578125,0.0053795636631548405,-0.013384714722633362,-0.0003861380973830819
1761478240324894700,5.685894775390625,-0.008456028997898102,0.00487002357840538,0.012934677302837372
1761478240334930700,5.6959306640625,-0.021660245954990387,0.024263162165880203,0.031541649252176285
1761478240344968000,5.705968017578125,-0.03407538682222366,0.03252456709742546,0.03144508972764015
1761478240355004000,5.71600390625,-0.02639882080256939,0.025732707232236862,0.013576079159975052
1761478240365039900,5.726039794921875,-0.010582642629742622,-0.007739473134279251,-0.010129246860742569
1761478240375075800,5.736075927734375,0.007303413935005665,-0.01483253575861454,-0.025438694283366203
1761478240385111800,5.74611181640625,0.006732183042913675,-0.012607337906956673,-0.02336868643760681
1761478240395148800,5.756148681640625,-0.005957246292382479,0.005439305678009987,-0.008753790520131588
1761478240405184800,5.766184814453125,-0.013234153389930725,0.014976516366004944,0.00922713428735733
1761478240415220700,5.776220703125,-0.014298353344202042,0.01429261639714241,0.014228018932044506
1761478240425256700,5.786256591796875,-0.007070952095091343,0.0005874070338904858,0.009124625474214554
1761478240435292700,5.796292724609375,0.007558590732514858,-0.01772981509566307,-0.0029717187862843275
1761478240445328600,5.80632861328125,0.013561610132455826,-0.019942888990044594,-0.0030688075348734856
1761478240455365600,5.81636572265625,0.016752609983086586,-0.017377199605107307,-0.00872056744992733
1761478240465401600,5.826401611328125,0.01070005539804697,-0.007333366200327873,-0.008211487904191017
1761478240475437600,5.8364375,0.004874923266470432,0.0037496446166187525,-0.0052351392805576324
1761478240485473500,5.8464736328125,0.007180314045399427,0.00671419920399785,-0.003204977372661233
1761478240495509800,5.856509765625,0.01684439368546009,0.00654828455299139,0.005954698659479618
1761478240505546800,5.866546630859375,0.02028627321124077,0.009290262125432491,0.014016233384609222
1761478240515582700,5.876582763671875,0.01728169620037079,-0.002366926521062851,0.018164638429880142
1761478240525618700,5.88661865234375,0.013944488018751144,-0.009796081110835075,0.020510884001851082
1761478240535654700,5.896654541015625,0.010830719955265522,-0.014658479019999504,0.02086694911122322
1761478240545691000,5.90669091796875,0.016399389132857323,-0.01931874454021454,0.02217722311615944
1761478240555727600,5.9167275390625,0.02597433142364025,-0.013413757085800171,0.022842898964881897
1761478240565763600,5.926763671875,0.03174871206283569,-0.00537718553096056,0.026004623621702194
1761478240575799800,5.9367998046875,0.0268519576638937,0.005833656992763281,0.017170650884509087
1761478240585835800,5.946835693359375,0.019083436578512192,0.007472870871424675,0.005735154263675213
1761478240595871700,5.956871826171875,0.011874793097376823,0.0046536484733223915,-0.011533847078680992
1761478240605907700,5.96690771484375,-0.0006110644899308681,-0.0029621173162013292,-0.02671869285404682
1761478240615945000,5.976945068359375,-0.006182397250086069,0.0012020012363791466,-0.030107034370303154
1761478240625981000,5.98698095703125,-0.001271811779588461,-0.0026463933754712343,-0.02222507819533348
1761478240636017000,5.997016845703125,0.007310757413506508,-0.004753219895064831,-0.024428311735391617
1761478240646052900,6.007052978515625,0.0022058063186705112,-0.0010947342962026596,-0.01969805546104908
1761478240656088800,6.0170888671875,-0.011844231747090816,0.005933081731200218,-0.014015134423971176
1761478240666125800,6.027125732421875,-0.030952556058764458,0.014071904122829437,-0.011385897174477577
1761478240676161800,6.037161865234375,-0.04131438210606575,0.020362025126814842,-0.01453401893377304
1761478240686197800,6.04719775390625,-0.03809094801545143,0.009229782968759537,-0.018615741282701492
1761478240696233700,6.057233642578125,-0.020655233412981033,0.0002144502941519022,-0.02028581127524376
1761478240706269700,6.067269775390625,-0.004805533215403557,-0.018610598519444466,-0.020683828741312027
1761478240716305700,6.0773056640625,0.006126210559159517,-0.01833149790763855,-0.011092454195022583
1761478240726342700,6.0873427734375,0.007238488644361496,-0.00023285928182303905,0.00223357230424881
1761478240736378600,6.097378662109375,0.0016719494014978409,0.010232564993202686,0.011146639473736286
1761478240746414600,6.10741455078125,0.0023364427033811808,0.008602431043982506,0.011714031919836998
1761478240756450600,6.117450439453125,0.013612000271677971,0.014623572118580341,0.016204122453927994
1761478240766486500,6.127486572265625,0.022770270705223083,0.006350373383611441,0.01864081621170044
1761478240776523800,6.137523681640625,0.027725614607334137,0.012578175403177738,0.017459437251091003
1761478240786559200,6.147559326171875,0.03252822905778885,0.007745261304080486,0.015843478962779045
1761478240796595200,6.15759521484375,0.0374675914645195,-0.0030093819368630648,0.005588443949818611
1761478240806631200,6.167631103515625,0.03604841232299805,-0.009678076952695847,-0.0021739359945058823
1761478240816667100,6.177667236328125,0.03143102303147316,-0.010200322605669498,-0.007302652113139629
1761478240826703000,6.187703125,0.022039443254470825,-0.0022835824638605118,-0.0019420874305069447
1761478240836740000,6.197739990234375,0.012303989380598068,0.008843637071549892,0.0057366047985851765
1761478240846776000,6.207776123046875,0.0034607560373842716,0.011634351685643196,0.010277957655489445
1761478240856812000,6.21781201171875,-0.009540529921650887,0.010325940325856209,0.012754697352647781
1761478240866848000,6.227847900390625,-0.009128710255026817,-0.0026888391003012657,0.010597619228065014
1761478240876884000,6.237884033203125,-0.012616384774446487,-0.0019532740116119385,0.009247662499547005
1761478240886920000,6.247919921875,-0.013993902131915092,-0.0032364611979573965,0.006158446427434683
1761478240896957200,6.257957275390625,-0.02269524708390236,-0.0028609551955014467,0.0036918269470334053
1761478240906993200,6.2679931640625,-0.03281204402446747,0.003665780182927847,-0.0029160743579268456
1761478240917029000,6.278029052734375,-0.04240795224905014,0.00968212727457285,-0.01175670325756073
1761478240927065000,6.288065185546875,-0.038839712738990784,0.018167948350310326,-0.01922070048749447
1761478240937101000,6.29810107421875,-0.03148192912340164,0.024356069043278694,-0.03060704469680786
1761478240947138000,6.308137939453125,-0.013271917589008808,0.020858602598309517,-0.03614392876625061
1761478240957174000,6.318174072265625,0.0035339603200554848,0.012067241594195366,-0.03837379440665245
1761478240967210000,6.3282099609375,0.022353267297148705,-0.001179093262180686,-0.03808362036943436
1761478240977246000,6.338245849609375,0.028025534003973007,-0.008781086653470993,-0.030318640172481537
1761478240987282000,6.348281982421875,0.023225054144859314,-0.020347384735941887,-0.013284565880894661
1761478240997318100,6.358318115234375,0.014457395300269127,-0.004393985494971275,0.018280018121004105
1761478241007355000,6.36835498046875,0.012795776128768921,0.005236715544015169,0.04739786311984062
1761478241017390800,6.378390869140625,0.01706508919596672,0.009286317974328995,0.0669446662068367
1761478241027427000,6.388427001953125,0.024612968787550926,0.004389716312289238,0.073349229991436
1761478241037463300,6.39846337890625,0.03329087793827057,-0.012078206986188889,0.062409497797489166
1761478241047499300,6.408499267578125,0.029304109513759613,-0.018158329650759697,0.04387236386537552
1761478241057535200,6.41853515625,0.02284860797226429,-0.02179354429244995,0.028696337714791298
1761478241067572200,6.428572265625,0.012948980554938316,-0.018427778035402298,0.008361341431736946
1761478241077608200,6.438608154296875,0.008359821513295174,-0.02332453243434429,-0.008455456234514713
1761478241087644200,6.44864404296875,-0.0017219209112226963,-0.013152550905942917,-0.017604364082217216
1761478241097680100,6.45868017578125,-0.011525548994541168,-0.0017592820804566145,-0.014785408973693848
1761478241107716000,6.468716064453125,-0.025003505870699883,0.013737906701862812,-0.00810206774622202
1761478241117753000,6.478753173828125,-0.03237327188253403,0.015785610303282738,-0.009228584356606007
1761478241127789000,6.4887890625,-0.029510684311389923,0.010404452681541443,-0.011317583732306957
1761478241137825000,6.498824951171875,-0.03366575017571449,0.003675710177049041,-0.017046574503183365
1761478241147861000,6.508861083984375,-0.03313230723142624,-0.0015371742192655802,-0.01906990259885788
1761478241157897000,6.51889697265625,-0.03269634768366814,0.003622167743742466,-0.021861162036657333
1761478241167933000,6.528932861328125,-0.03200612962245941,0.00265493243932724,-0.02332885004580021
1761478241177970200,6.53897021484375,-0.019270891323685646,0.003440032247453928,-0.023463072255253792
1761478241188006100,6.549006103515625,-0.007100016809999943,0.0008147002663463354,-0.01815180853009224
1761478241198042000,6.5590419921875,0.003893245942890644,-0.005685809534043074,-0.004712966270744801
1761478241208078000,6.569078125,0.008335445076227188,-0.009780025109648705,0.014888381585478783
1761478241218114000,6.579114013671875,0.0021337412763386965,0.003990647848695517,0.03251557797193527
1761478241228150000,6.58914990234375,-0.005879088304936886,0.004300855100154877,0.03550739586353302
1761478241238187000,6.59918701171875,-0.006194407120347023,0.005987701006233692,0.02147626504302025
1761478241248223000,6.609222900390625,0.00415444141253829,-0.0008931332267820835,-0.003686597105115652
1761478241258259000,6.619259033203125,0.017511259764432907,-0.01981142908334732,-0.03508580103516579
1761478241268295200,6.629295166015625,0.029857229441404343,-0.03520401939749718,-0.056844331324100494
1761478241278331100,6.6393310546875,0.02610883116722107,-0.027671802788972855,-0.04871023818850517
1761478241288367000,6.6493671875,0.01094809453934431,-0.007996290922164917,-0.025727199390530586
1761478241298404000,6.659404052734375,-0.0004291958175599575,0.018413212150335312,0.0042996760457754135
1761478241308440000,6.669440185546875,-0.014075660146772861,0.04033403471112251,0.02523181401193142
1761478241318476300,6.679476318359375,-0.01003324706107378,0.03401195630431175,0.021555054932832718
1761478241328512300,6.68951220703125,-0.004671426024287939,0.010022427886724472,0.004893407225608826
1761478241338548200,6.69954833984375,0.008114943280816078,-0.013029893860220909,-0.011078900657594204
1761478241348584200,6.709584228515625,0.020130885764956474,-0.018294695764780045,-0.02202422544360161
1761478241358621200,6.71962109375,0.03189406916499138,-0.01047432329505682,-0.017988737672567368
1761478241368657200,6.7296572265625,0.03962354734539986,0.001280374126508832,-0.003114068415015936
1761478241378693000,6.739693115234375,0.03313662111759186,0.014875546097755432,0.014519520103931427
1761478241388729000,6.74972900390625,0.017030149698257446,0.019229914993047714,0.020927036181092262
1761478241398765000,6.75976513671875,0.0020397494081407785,0.008890724740922451,0.009606736712157726
1761478241408801000,6.769801025390625,-0.001275565940886736,-0.00018776371143758297,0.006105360575020313
1761478241418838000,6.779838134765625,0.0013005095534026623,-0.007008385378867388,0.005210272502154112
1761478241428874000,6.7898740234375,0.015628937631845474,-0.008166225627064705,0.014582421630620956
1761478241438910000,6.799909912109375,0.026120994240045547,-0.0046050469391047955,0.021744193509221077
1761478241448946000,6.80994580078125,0.029900187626481056,0.0024687526747584343,0.017669735476374626
1761478241458982000,6.81998193359375,0.024699831381440163,0.0006218503694981337,0.0120970718562603
1761478241469019100,6.83001904296875,0.021704327315092087,-0.002513894811272621,-0.002534132683649659
1761478241479055000,6.84005517578125,0.01900707744061947,-0.005723802838474512,-0.011903665959835052
1761478241489091000,6.850091064453125,0.013704280368983746,0.006034801248461008,-0.013108721002936363
1761478241499127000,6.860126953125,0.010021394118666649,0.010615171864628792,-0.007940858602523804
1761478241509163300,6.870163330078125,0.0026304833590984344,0.007459516637027264,-0.006418023258447647
1761478241519199200,6.88019921875,0.0006669345311820507,0.005510082468390465,-0.0044741821475327015
1761478241529236000,6.890236083984375,0.0030514937825500965,-0.003172609256580472,-0.011625709012150764
1761478241539272200,6.900272216796875,-0.002913720440119505,-0.016042068600654602,-0.01006882544606924
1761478241549308200,6.91030810546875,0.0006994958966970444,-0.01860262081027031,-0.00762328552082181
1761478241559344000,6.92034423828125,-0.0032150843180716038,-0.00951884500682354,0.0008024231647141278
1761478241569380000,6.930380126953125,-0.003239833749830723,-0.0017966169398277998,0.012797771953046322
1761478241579416000,6.940416015625,0.0011756871826946735,0.008361744694411755,0.015513664111495018
1761478241589453000,6.950453125,-0.0021314346231520176,0.00923847034573555,0.008675061166286469
1761478241599489000,6.960489013671875,-0.004599919077008963,0.007774529978632927,-0.003650047816336155
1761478241609525000,6.97052490234375,-0.004854339640587568,0.001645429409109056,-0.016824394464492798
1761478241619561200,6.980561279296875,-0.00008089002221822739,-0.005166403949260712,-0.03063208796083927
1761478241629597200,6.99059716796875,-0.003617773298174143,-0.008424947038292885,-0.03194454312324524
1761478241639633200,7.000633056640625,-0.002198840957134962,-0.011214075610041618,-0.034640729427337646
1761478241649670100,7.010670166015625,0.0024932764936238527,-0.0067975642159581184,-0.03829800337553024
1761478241659706000,7.0207060546875,0.011632446199655533,0.00027632410638034344,-0.038192275911569595
1761478241669742000,7.0307421875,0.014669312164187431,-0.004517264198511839,-0.03313232213258743
1761478241679778000,7.040778076171875,0.00268721766769886,0.006451763212680817,-0.016292091459035873
1761478241689814000,7.05081396484375,-0.015672702342271805,0.015153426676988602,0.002034164732322097
1761478241699850000,7.06085009765625,-0.02394608035683632,0.015306292101740837,0.018626723438501358
1761478241709887000,7.070886962890625,-0.020539646968245506,0.009776377119123936,0.025550471618771553
1761478241719923000,7.0809228515625,-0.009766628965735435,-0.0025207686703652143,0.020072614774107933
1761478241729959000,7.090958984375,0.0018057548440992832,-0.01939823478460312,0.008946163579821587
1761478241739995000,7.100994873046875,0.01100457925349474,-0.032800860702991486,-0.004969918169081211
1761478241750031000,7.111031005859375,0.015395822003483772,-0.03909388557076454,-0.011351393535733223
1761478241760067000,7.121067138671875,0.013206170871853828,-0.02805774286389351,-0.0010971584124490619
1761478241770104000,7.13110400390625,0.0028767099138349295,0.000994476955384016,0.021615445613861084
1761478241780140300,7.141140380859375,-0.0016517294570803642,0.02654138207435608,0.034076642245054245
1761478241790176500,7.151176513671875,-0.006595826242119074,0.0327591635286808,0.028604330494999886
1761478241800212700,7.161212646484375,0.0005150805227458477,0.01609230414032936,0.006081176921725273
1761478241810248700,7.171248779296875,0.01310197077691555,-0.01468130573630333,-0.0160618107765913
1761478241820284700,7.18128466796875,0.023549551144242287,-0.030915670096874237,-0.02887667715549469
1761478241830321700,7.19132177734375,0.01739681512117386,-0.032607030123472214,-0.02777853049337864
1761478241840357600,7.201357666015625,0.005136686842888594,-0.02266039326786995,-0.011278914287686348
1761478241850393600,7.2113935546875,-0.01742444932460785,0.0024313009344041348,0.007466543465852737
1761478241860429600,7.2214296875,-0.02435186132788658,0.0202835351228714,0.015110880136489868
1761478241870465500,7.231465576171875,-0.01937093771994114,0.0235480647534132,0.007864978164434433
1761478241880501500,7.24150146484375,-0.0035432386212050915,0.02240956388413906,0.0007854974828660488
1761478241890538800,7.251538818359375,0.009182711131870747,0.01663460023701191,-0.00981074571609497
1761478241900574700,7.26157470703125,0.013447230681777,0.0077979653142392635,-0.0185251422226429
1761478241910610700,7.271610595703125,0.013125564903020859,-0.0013524151872843504,-0.03446441888809204
1761478241920646700,7.281646728515625,0.011965757235884666,-0.0021907782647758722,-0.036708131432533264
1761478241930682600,7.2916826171875,0.010803049430251122,-0.001793167321011424,-0.032704323530197144
1761478241940718600,7.301718505859375,0.010590795427560806,0.00019541499204933643,-0.015381259843707085
1761478241950755600,7.311755615234375,0.006987778469920158,0.009287865832448006,0.005151369143277407
1761478241960791600,7.32179150390625,-0.009362699463963509,0.010718515142798424,0.024017201736569405
1761478241970827500,7.33182763671875,-0.01841670088469982,0.014395960606634617,0.03473688289523125
1761478241980863500,7.341863525390625,-0.014886148273944855,0.007930871099233627,0.029626809060573578
1761478241990899500,7.3518994140625,-0.00448996527120471,-0.004020597320050001,0.023487688973546028
1761478242000935700,7.361935791015625,0.007117421831935644,-0.012568012811243534,0.01808520033955574
1761478242010972400,7.371972412109375,0.024422500282526016,-0.0113792410120368,0.010617861524224281
1761478242021008400,7.38200830078125,0.031274281442165375,-0.010455124080181122,0.005246265791356564
1761478242031044600,7.392044677734375,0.034826964139938354,-0.007245102897286415,-0.004265941679477692
1761478242041080600,7.40208056640625,0.024908820167183876,-0.004199777729809284,-0.005180737469345331
1761478242051116500,7.412116455078125,0.0113626504316926,-0.0009102413896471262,-0.007691565901041031
1761478242061152800,7.42215283203125,-0.0029292036779224873,0.005186533089727163,-0.013749457895755768
1761478242071189800,7.432189697265625,-0.010472802445292473,0.009672337211668491,-0.017400633543729782
1761478242081225700,7.442225830078125,-0.006964886095374823,0.010540527291595936,-0.01653510518372059
1761478242091261700,7.45226171875,-0.001634994987398386,0.0033170455135405064,-0.010884448885917664
1761478242101297700,7.462297607421875,0.007991533726453781,-0.0028795977123081684,-0.00894087553024292
1761478242111333600,7.472333740234375,0.009456776082515717,-0.0010217777453362942,-0.003798326011747122
1761478242121369600,7.48236962890625,0.00839683786034584,-0.0022100801579654217,0.009360352531075478
1761478242131406600,7.492406494140625,0.005854336079210043,-0.0041047921404242516,0.019906677305698395
1761478242141442600,7.502442626953125,-0.0020517907105386257,0.006341990083456039,0.024193834513425827
1761478242151478500,7.512478515625,-0.0023454464972019196,0.011316077783703804,0.02339617908000946
1761478242161514500,7.522514404296875,0.0023289339151233435,0.007152492180466652,0.012210902757942677
1761478242171550500,7.532550537109375,0.005257656332105398,-0.007861636579036713,-0.005565154366195202
1761478242181586400,7.54258642578125,0.0041617657989263535,-0.016238875687122345,-0.01538848876953125
1761478242191623700,7.552623779296875,-0.003990152385085821,-0.017556747421622276,-0.01709776744246483
1761478242201659600,7.56265966796875,-0.005935325752943754,-0.008019967935979366,-0.006482675671577454
1761478242211695600,7.572695556640625,-0.011318967677652836,0.000427743885666132,0.0032720020972192287
1761478242221731600,7.582731689453125,-0.009931993670761585,0.013185616582632065,0.01971728913486004
1761478242231767600,7.592767578125,-0.017275404185056686,0.018666263669729233,0.01900774985551834
1761478242241803500,7.602803466796875,-0.018000049516558647,0.01446432713419199,0.005607788451015949
1761478242251840500,7.612840576171875,-0.014288822188973427,0.007486107759177685,-0.014817778952419758
1761478242261876500,7.62287646484375,-0.0027829022146761417,-0.0026538779493421316,-0.030225498601794243
1761478242271912400,7.632912353515625,0.011329423636198044,-0.008908677846193314,-0.03314930945634842
1761478242281948700,7.64294873046875,0.02333122491836548,-0.013027789071202278,-0.0352470800280571
1761478242291984600,7.652984619140625,0.030403267592191696,-0.01658058539032936,-0.02301204577088356
1761478242302020600,7.6630205078125,0.02831641398370266,-0.014145923778414726,-0.004961671307682991
1761478242312057600,7.6730576171875,0.013766296207904816,-0.0019647893495857716,0.016732653602957726
1761478242322093600,7.683093505859375,-0.004039066378027201,0.01006364356726408,0.03097044676542282
1761478242332129500,7.693129638671875,-0.011557232588529587,0.0070586977526545525,0.033941786736249924
1761478242342165500,7.70316552734375,-0.007466617040336132,-0.0007009548135101795,0.02236422523856163
1761478242352201700,7.71320166015625,0.002904662396758795,-0.010946478694677353,0.015606213361024857
1761478242362237700,7.72323779296875,0.006671970244497061,-0.018766585737466812,0.009667896665632725
1761478242372274700,7.733274658203125,0.0012584314681589603,-0.015103064477443695,-0.0004811692051589489
1761478242382310700,7.743310546875,-0.004038861952722073,-0.007990559563040733,-0.001421531313098967
1761478242392346600,7.7533466796875,-0.0175712201744318,-0.0008570034988224506,-0.007706737145781517
1761478242402382600,7.763382568359375,-0.023952418938279152,0.015848206356167793,-0.011328369379043579
1761478242412418600,7.77341845703125,-0.020801261067390442,0.022652126848697662,-0.009690569713711739
1761478242422454500,7.78345458984375,-0.011733198538422585,0.02583407238125801,-0.007979488000273705
1761478242432491500,7.793491455078125,-0.011752584017813206,0.024268513545393944,-0.009862789884209633
1761478242442527500,7.803527587890625,-0.017201945185661316,0.026261622086167336,-0.020164960995316505
1761478242452563500,7.8135634765625,-0.022288061678409576,0.015340657904744148,-0.028294339776039124
1761478242462599400,7.823599365234375,-0.01676866039633751,0.006341836880892515,-0.03768784552812576
1761478242472635400,7.833635498046875,-0.01080575492233038,-0.0038080543745309114,-0.034544505178928375
1761478242482671600,7.843671630859375,-0.001483360305428505,-0.005828327499330044,-0.022687844932079315
1761478242492708600,7.85370849609375,0.012194213457405567,0.0011371332220733166,0.00003735744394361973
1761478242502744600,7.86374462890625,0.02079249545931816,0.011054744943976402,0.033126335591077805
1761478242512780500,7.873780517578125,0.022072890773415565,0.010030532255768776,0.058465100824832916
1761478242522816800,7.883816650390625,0.022300856187939644,0.007700799033045769,0.05865125730633736
1761478242532852700,7.893852783203125,0.024284247308969498,-0.007303527090698481,0.046576518565416336
1761478242542888700,7.903888671875,0.01743326336145401,-0.012792835012078285,0.02536843530833721
1761478242552925700,7.91392578125,0.011869927868247032,-0.02728923223912716,0.015239229425787926
1761478242562961700,7.923961669921875,0.012040370143949986,-0.01610475592315197,0.01645682565867901
1761478242572997600,7.93399755859375,0.011671299114823341,-0.00030744215473532677,0.021387675777077675
1761478242583033600,7.94403369140625,0.00850133877247572,0.015566063113510609,0.018934639170765877
1761478242593069600,7.954069580078125,0.00778468232601881,0.027480248361825943,0.009375753812491894
1761478242603105500,7.96410546875,0.0075284861959517,0.0254751518368721,-0.010861607268452644
1761478242613141500,7.9741416015625,0.004285944625735283,0.010485487058758736,-0.03392308950424194
1761478242623178500,7.984178466796875,-0.0002512829378247261,-0.0025525507517158985,-0.05608644708991051
1761478242633214500,7.99421435546875,-0.006691623944789171,0.005105508491396904,-0.06917555630207062
1761478242643250400,8.00425048828125,-0.006724913138896227,0.006336687598377466,-0.06395043432712555
1761478242653286700,8.01428662109375,-0.009396620094776154,0.011634400114417076,-0.039372723549604416
1761478242663322600,8.024322509765625,-0.009087428450584412,0.024217836558818817,-0.0037939543835818768
1761478242673358600,8.034358642578125,-0.013896552845835686,0.03432520478963852,0.021240636706352234
1761478242683395600,8.0443955078125,-0.008467698469758034,0.034839726984500885,0.032802220433950424
1761478242693431600,8.054431640625,0.0020642741583287716,0.019620826467871666,0.030215736478567123
1761478242703467500,8.064467529296875,0.016590485349297523,-0.0048946356400847435,0.018422460183501244
1761478242713503500,8.07450341796875,0.02289731614291668,-0.020610038191080093,0.003983260132372379
1761478242723539700,8.084539794921875,0.018779270350933075,-0.019776999950408936,-0.0072464910335838795
1761478242733575700,8.09457568359375,0.011139911599457264,-0.025044161826372147,-0.005293750204145908
1761478242743612400,8.1046123046875,0.006842368748039007,-0.009394362568855286,0.005503503605723381
1761478242753648600,8.114648681640626,-0.0030944356694817543,0.004382042679935694,0.02562800608575344
1761478242763684600,8.1246845703125,-0.008924894966185093,0.02343056909739971,0.05036158487200737
1761478242773720600,8.134720458984376,-0.011951150372624397,0.028155207633972168,0.05165965110063553
1761478242783755500,8.144755615234375,-0.008531119674444199,0.012230568565428257,0.030639054253697395
1761478242793791500,8.15479150390625,-0.005386334378272295,-0.007415100932121277,-0.008968645706772804
1761478242803828500,8.164828369140626,-0.00907161645591259,0.0009283157996833324,-0.03776460886001587
1761478242813864400,8.174864501953126,-0.01466473937034607,0.0007786070927977562,-0.05671260505914688
1761478242823900700,8.184900634765626,-0.016429349780082703,0.0044519053772091866,-0.0346379280090332
1761478242833936600,8.1949365234375,-0.03214191645383835,0.03812194615602493,0.016581473872065544
1761478242843972600,8.20497265625,-0.036945462226867676,0.04417158290743828,0.0661839097738266
1761478242854008600,8.215008544921876,-0.03211943060159683,0.020487509667873383,0.06529712677001953
1761478242864045600,8.225045654296874,-0.04439207538962364,0.08390483260154724,0.13810980319976807
1761478242874081500,8.23508154296875,0.00795038603246212,0.06711219251155853,-0.05045020580291748
1761478242884117500,8.245117431640624,-0.0023512537591159344,-0.0536738783121109,-0.1489378958940506
1761478242894153500,8.255153564453124,0.020559970289468765,-0.10845834016799927,-0.11913353204727173
1761478242904189700,8.265189697265624,0.011812019161880016,-0.0711304098367691,-0.05836419016122818
1761478242914225700,8.2752255859375,0.007304543629288673,-0.01466081291437149,0.0022632693871855736
1761478242924261600,8.28526171875,-0.008716767653822899,-0.03640392795205116,0.04133716970682144
1761478242934298600,8.295298583984374,-0.03459570184350014,0.013938162475824356,0.09319378435611725
1761478242944334600,8.30533447265625,-0.05999187007546425,0.06422290205955505,0.13998845219612122
1761478242954370600,8.31537060546875,-0.08357404172420502,0.11713719367980957,0.16940456628799438
1761478242964406500,8.325406494140625,-0.07855291664600372,0.11700776219367981,0.1096096783876419
