time,seconds_elapsed,z,y,x
1761505960718148400,0.1051484375,-0.1429980196148157,0.002088131385669112,0.009504873915575444
1761505960728184300,0.115184326171875,-0.14015958131849765,0.0029599640504457056,0.02088098506312817
1761505960738220300,0.12522021484375,-0.14120879811048506,0.003696443365141749,0.014791545614227651
1761505960748256300,0.13525634765625,-0.1368722302109003,0.00007260857848450541,0.014519633337669074
1761505960758292200,0.145292236328125,-0.14225976846814153,-0.0026059081820771096,0.013985124602168797
1761505960768328200,0.155328125,-0.15018705433607102,0.0008955606002360582,0.009596497721783816
1761505960778364200,0.1653642578125,-0.1341746616899967,-0.005409567425958812,0.005829290675371885
1761505960788400000,0.175400146484375,-0.13716390663385392,0.0011810995433479546,0.010296864543482661
1761505960798437000,0.18543701171875,-0.1322229431003332,0.0043036885432899,0.008802790060825646
1761505960808473000,0.19547314453125,-0.1431423965215683,0.0030914632093161343,0.013026837496645748
1761505960818509000,0.205509033203125,-0.13236673548519612,0.008510346452891827,0.01849102118667215
1761505960828545000,0.215544921875,-0.14044365895688532,-0.0004770794598385691,0.013539463193900883
1761505960838581000,0.2255810546875,-0.13730711449682712,0.004300875531695783,0.01078278489690274
1761505960848617000,0.235616943359375,-0.14059972630143164,-0.0020077596258372067,0.004747450255416333
1761505960858653200,0.245653076171875,-0.12773030785620212,-0.0030151283037848768,0.0045549233580008145
1761505960868689400,0.255689453125,-0.13117489535212515,0.004948635383322834,0.015334054993093012
1761505960878725400,0.265725341796875,-0.1337169810503721,-0.00011902326978743076,0.013771518384106457
1761505960888761300,0.27576123046875,-0.14134908336400984,0.002785027608647942,0.020124686803109942
1761505960898798300,0.28579833984375,-0.14374153145849705,0.0031964762200601396,0.012171389711089432
1761505960908834300,0.295834228515625,-0.1391021812200546,0.0017343860445544123,0.01003660617209971
1761505960918870300,0.305870361328125,-0.13880115244686603,0.0005469115593470633,0.013563026732578873
1761505960928906200,0.31590625,-0.1387976453155279,-0.001251735360454768,0.014524857502058147
1761505960938942200,0.325942138671875,-0.13670388790667057,-0.0033953780593350526,0.0180208098590374
1761505960948978200,0.335978271484375,-0.1395464178562164,-0.0019135237374342977,0.009042224839888513
1761505960959014100,0.34601416015625,-0.14673369901180267,0.003173369339108467,0.015605930737033485
1761505960969050000,0.356050048828125,-0.13864917675554753,0.008472790921479463,0.010609949080646037
1761505960979086000,0.366086181640625,-0.141333885794878,-0.00024834873788058754,0.011567140207625925
1761505960989122000,0.3761220703125,-0.13295827163755894,0.0016948942843824624,0.010252550477720796
1761505960999159000,0.386158935546875,-0.13655015864968298,-0.0008588087864220142,0.011764818204194307
1761505961009195000,0.396195068359375,-0.132363228353858,0.007501881796400994,0.0070733359197154635
1761505961019231000,0.40623095703125,-0.13146189559996127,0.00943895080620423,0.019709310935251415
1761505961029267200,0.41626708984375,-0.14447043025493622,0.009447609036695212,0.010822093993984162
1761505961039303200,0.42630322265625,-0.1465624340981245,0.003977269600518048,0.016755612228810786
1761505961049339400,0.43633935546875,-0.13758300882875918,0.00023081308118999002,0.010292736357636749
1761505961059375400,0.446375244140625,-0.13069909453392028,0.0015688750182278454,0.01208995850533247
1761505961069412000,0.456412109375,-0.13324468736350537,0.002853416669741273,0.0093803707530722
1761505961079448000,0.466447998046875,-0.13503916956484316,0.003465338023006916,0.008142572586424649
1761505961089484000,0.476484130859375,-0.13758300882875918,-0.007400649911630898,0.017101137730851767
1761505961099520000,0.48652001953125,-0.13070377070903777,0.002766121978778392,0.013091975154727696
1761505961109557200,0.49655712890625,-0.12337386621236801,-0.0017472820587456225,0.011523374131135642
1761505961119593200,0.50659326171875,-0.13893617700338362,-0.0036732268863357604,0.004337992671690881
1761505961129629200,0.516629150390625,-0.1396773507595062,-0.000897679492086172,0.0067026029111817475
1761505961139665200,0.5266650390625,-0.133987614685297,-0.004919591951929032,0.006529474833980202
1761505961149701000,0.536701171875,-0.13084522500634194,0.002325976995844394,0.006443440518341958
1761505961159737000,0.546737060546875,-0.13428279823958872,-0.004426566004287451,0.012919541197270155
1761505961169773000,0.55677294921875,-0.12320786199569701,0.006743446378223598,0.01190229044612497
1761505961179809000,0.56680908203125,-0.1381704533278942,-0.00008031696090474725,0.005999934534542262
1761505961189845000,0.576844970703125,-0.1315869832843542,-0.005134933469351381,0.010793671617098152
1761505961199881000,0.586880859375,-0.13951777628362177,-0.006083155838586389,0.01784158083461225
1761505961209917200,0.596917236328125,-0.13786708646714688,0.0018622502079233526,0.010217954088374972
1761505961219954000,0.606953857421875,-0.14324877950549125,-0.007702281473018229,0.018137093182466923
1761505961229990000,0.616989990234375,-0.1303758539289236,-0.002447886342462152,0.01576999872494489
1761505961240026000,0.627026123046875,-0.13396715641915796,0.0028227110042236742,0.005276515630818903
1761505961250062000,0.63706201171875,-0.12543255230784414,0.001586337609682232,0.006192534497193992
1761505961260098000,0.64709814453125,-0.13485855230093002,-0.00032508550221100447,0.005169255864061415
1761505961270134000,0.657134033203125,-0.12962006712555885,-0.0005236220153048635,0.011448774524964392
1761505961280170000,0.667169921875,-0.12723112616240978,0.004754464518092572,0.012780023128725587
1761505961290206000,0.6772060546875,-0.12618892363309858,-0.006646634940244257,0.009867240954563022
1761505961300242000,0.687241943359375,-0.13487141178250311,-0.01285822119778022,0.015086035048775374
1761505961310278000,0.69727783203125,-0.1288899992853403,0.0006402523986063898,0.009556932896375655
1761505961320315100,0.707315185546875,-0.13457272109687327,0.0012470043864101171,0.011846760866604744
1761505961330351000,0.71735107421875,-0.14294658168852328,0.002133815424609929,0.01302961397562176
1761505961340387000,0.727386962890625,-0.13217325873970984,-0.0013411489432677626,0.0075813585070893166
1761505961350423000,0.737423095703125,-0.13695698588490485,0.007242829001415521,0.01026175669748336
1761505961360459000,0.747458984375,-0.13291852414906025,0.008247877858113498,0.007341375738754868
1761505961370495000,0.757494873046875,-0.13590660004913807,0.000033390812948346136,0.007792261311411857
1761505961380531200,0.76753125,-0.13335925365388393,0.004065167079679668,0.010689736318588257
1761505961390567200,0.777567138671875,-0.13366203599274157,-0.0024027320264838636,-0.0006435951331630349
1761505961400603100,0.78760302734375,-0.13650924211740492,0.00043232700265944003,0.009796842599473892
1761505961410639000,0.79763916015625,-0.13112170386016367,0.0002705971023067832,0.007925714965350926
1761505961420676000,0.807676025390625,-0.12827858938872813,0.004487575476523489,0.009571509410999714
1761505961430712000,0.817712158203125,-0.1276841306269169,0.001375014680251479,0.01265413172673434
1761505961440748000,0.827748046875,-0.13531389485299586,0.0002836209806613624,0.009033785805106163
1761505961450784000,0.837783935546875,-0.13097089721262453,0.0027579386723227796,0.005988609422929584
1761505961460820000,0.847820068359375,-0.12542846065461635,0.004474642929714173,0.008261340127885342
1761505961470856000,0.85785595703125,-0.12841712107658385,0.004053969832230359,0.017401180123351512
1761505961480892000,0.867891845703125,-0.13484510829746724,0.0008737506272271275,0.007507672216370702
1761505961490928000,0.87792822265625,-0.133047703486681,0.0067002465573139484,0.00640226825773716
1761505961500964000,0.887964111328125,-0.13020458901524543,0.00027624139180406926,0.0047608577262610195
1761505961511000000,0.898,-0.13020751162469385,-0.00021702201785519718,0.010472549903951585
1761505961521037000,0.908037109375,-0.13200374739170073,-0.005206994058564305,0.007882423812896012
1761505961531073000,0.918072998046875,-0.13439561096429825,-0.002668780817836523,0.009319142085127533
1761505961541109000,0.92810888671875,-0.13244447689652442,0.0012556808832101523,0.007721826423704624
1761505961551145000,0.93814501953125,-0.12541150951981545,-0.001605590299423784,0.005483874771185219
1761505961561181200,0.94818115234375,-0.14770458987057208,-0.0050954782417975365,0.0038370939448475836
1761505961571217200,0.958217041015625,-0.13663140719234942,-0.004614873384311795,0.006358136855065822
1761505961581253000,0.968253173828125,-0.13363397894203663,-0.005570420543476939,0.011205540353618561
1761505961591289000,0.9782890625,-0.1367716924458742,-0.0024305333488620815,0.007315839438699186
1761505961601325000,0.988324951171875,-0.13527531640827656,-0.0011612075327895582,0.004586779800988734
1761505961611362000,0.998362060546875,-0.12794541191160677,0.00029509222274646163,0.012371442327834666
1761505961621398000,1.00839794921875,-0.1399170047342777,0.0004955832309089601,0.007564590035378933
1761505961631434000,1.01843408203125,-0.1303407826155424,-0.003387432214897126,0.008924261016026138
1761505961641470000,1.028469970703125,-0.12884382205605507,-0.00317716873139143,0.017423136226832867
1761505961651506000,1.038505859375,-0.12809154238402842,0.004988821263238788,0.01698799621257931
1761505961661542000,1.0485419921875,-0.12794132025837898,0.00742253294987604,0.009320311128906906
1761505961671578000,1.058578125,-0.14155775767862797,-0.000707344551756978,0.011431604194454848
1761505961681614000,1.068614013671875,-0.1276449676603079,-0.005966744650993496,0.011232209164835512
1761505961691650000,1.078650146484375,-0.13467793503701686,0.004018898518849164,0.004227116175740957
1761505961701686000,1.08868603515625,-0.1280962185591459,0.004371018158458173,-0.003368672715499997
1761505961711723000,1.098722900390625,-0.13497428763508795,-0.006411766738444566,0.00950944049283862
1761505961721759000,1.108759033203125,-0.14200374788045883,-0.00048376492895185947,0.0091312548302114
1761505961731795200,1.118795166015625,-0.12793839764893053,-0.0006850231220945715,0.0072403995823115104
1761505961741831200,1.1288310546875,-0.1256926645487547,-0.006387125487532466,0.005128339331783354
1761505961751867100,1.1388671875,-0.13272913905680178,0.0020430866675451398,0.0077392159499228
1761505961761903000,1.148903076171875,-0.13138181610107422,0.006163399734254926,0.01000569957718253
1761505961771939000,1.15893896484375,-0.13197744390666485,0.0025430538126267493,0.003267221635021269
1761505961781975000,1.16897509765625,-0.14110650677978992,0.0004924779583700001,0.016446217486076057
1761505961792011000,1.179010986328125,-0.13691723839640615,0.0019138342646881938,0.017006481717340646
1761505961802048000,1.189048095703125,-0.13945757052898405,0.009587729893438517,0.0032614860139787197
1761505961812084000,1.199083984375,-0.13196809155642986,0.004184939268138259,0.010772153905034065
1761505961822120000,1.209119873046875,-0.14108312590420247,-0.003164528445526957,0.018263897899910807
1761505961832156000,1.219156005859375,-0.13718904107511043,0.0046725949209183455,0.007891447369568049
1761505961842192100,1.229192138671875,-0.1294032095044851,0.009086721568740904,0.00017440671883523463
1761505961852228000,1.23922802734375,-0.12835691532194612,-0.0008645078748464583,0.011482822925038634
1761505961862264000,1.24926416015625,-0.14197276822030544,-0.0036747429899871347,0.006634834904596209
1761505961872300000,1.259300048828125,-0.1404746386170387,-0.0034212796855717896,0.01333948364239186
1761505961882336300,1.269336181640625,-0.1323942080140114,-0.0024558139205910264,0.006354885452054441
1761505961892372200,1.279372314453125,-0.1331383043795824,-0.007697166906483471,0.005635375538468361
1761505961902409000,1.289408935546875,-0.14435995561778545,-0.0012558452799916267,0.012128354286961256
1761505961912445200,1.299445068359375,-0.12775193516612052,0.0009682605102658271,0.01682980997618288
1761505961922481200,1.309481201171875,-0.12879998291432856,0.00296546220947057,0.014363894786685705
1761505961932517000,1.31951708984375,-0.13807576078176498,-0.003267112037166953,0.0010559022611007095
1761505961942553000,1.329552978515625,-0.13284019821584223,0.008437555211316793,0.005714797450229525
1761505961952589000,1.339589111328125,-0.1350806706190109,0.007043251308705657,0.009515212646499276
1761505961962625000,1.349625,-0.13627894049286843,0.006036357554793357,0.0038391032388433812
1761505961972661000,1.359660888671875,-0.13777648557424543,0.0027274156698957083,0.0028965251591056584
1761505961982697000,1.369697021484375,-0.13657704665660858,0.002360975243989378,0.0054752165406942365
1761505961992734000,1.37973388671875,-0.14883973138034343,-0.0026656572789885103,0.010144231265038252
1761505962002770000,1.38977001953125,-0.13596972841322422,0.0010850004914216697,0.012802052297443151
1761505962012806000,1.399805908203125,-0.13387304839491843,-0.012396613301709294,0.0037897842044010755
1761505962022842000,1.409842041015625,-0.13851006054580212,-0.004200556962378323,0.0008168693408370018
1761505962032878000,1.419878173828125,-0.13522387848198414,-0.0005463453037664294,0.007988733731582761
1761505962042914000,1.4299140625,-0.1409165371656418,0.0021898564607836304,0.0023830592116340994
1761505962052950000,1.439949951171875,-0.13613397906422614,0.00021713161570951342,0.00712225309535861
1761505962062986200,1.449986328125,-0.12896131095588206,-0.0015609109074808656,0.002971343960985541
1761505962073022500,1.4600224609375,-0.1382400114327669,-0.001319521633349359,0.0033410175235942005
1761505962083059200,1.47005908203125,-0.1415302851498127,0.007237148179300129,0.006804273187369108
1761505962093095400,1.480095458984375,-0.13928396752774713,0.0045125272546894845,0.007075454811565578
1761505962103131400,1.49013134765625,-0.13299275842905045,0.0016770846330560743,0.006730148505233228
1761505962113167400,1.50016748046875,-0.1436117675989866,0.0008816964716650545,0.010034377682395278
1761505962123203300,1.510203369140625,-0.1334340724557638,-0.004465199247933924,0.006587598229385912
1761505962133239300,1.5202392578125,-0.1444979027837515,-0.005164214362762868,0.009511924710869788
1761505962143275300,1.530275146484375,-0.12923311363458634,0.005795991193968802,0.006395107864588499
1761505962153311200,1.540311279296875,-0.14599310977756977,0.002750358154065907,0.007480601546354592
1761505962163347200,1.55034716796875,-0.13432196120619774,-0.0034319106774404642,0.0045957302924245595
1761505962173384200,1.56038427734375,-0.13596914389133452,-0.0037523017382249235,0.010481609993241726
1761505962183420200,1.570420166015625,-0.14210311660170555,0.005416125030908733,0.01799801350533962
1761505962193456000,1.5804560546875,-0.1370078392893076,-0.001638853248208761,0.0059608081005513664
1761505962203492000,1.5904921875,-0.14358838672339916,-0.0021402999643236396,0.006631254708021879
1761505962213528000,1.600528076171875,-0.14149229122698306,0.002487067575380206,0.008554002931527792
1761505962223564000,1.61056396484375,-0.14119301601946352,0.0030196948810480534,0.005220401529408991
1761505962233600300,1.620600341796875,-0.1332645611077547,0.0030712241388857362,0.01387395584527403
1761505962243636500,1.630636474609375,-0.14404314475357533,0.007913987994939089,0.013222323536127805
1761505962253672400,1.64067236328125,-0.1374649354070425,0.007181399404071271,0.004719027878530323
1761505962263708400,1.65070849609375,-0.14584522573947906,-0.010728369562234729,-0.0014987141251564026
1761505962273745400,1.660745361328125,-0.13626023579239843,-0.0034512729650363325,0.009662366032227874
1761505962283781400,1.670781494140625,-0.13655892647802828,0.0032381599373184143,0.0065413844674825665
1761505962293817300,1.6808173828125,-0.1377566118299961,0.004009874962177127,0.006382613709196448
1761505962303853300,1.690853271484375,-0.1371592304587364,-0.0033310806514695286,0.004786503624171018
1761505962313889300,1.70088916015625,-0.14164543596208096,-0.0077739219371229405,0.010501629867963493
1761505962323925200,1.71092529296875,-0.12967384313941002,-0.0010985175601206719,0.006388495460711419
1761505962333961200,1.720961181640625,-0.1331207687228918,-0.0029327655162662268,0.007534523690678179
1761505962343997200,1.7309970703125,-0.1367155783444643,-0.0010638481055386365,0.010138495643995701
1761505962354033200,1.741033203125,-0.14299685057103634,-0.005753631623275577,0.006852350112795829
1761505962364070100,1.751070068359375,-0.13356675892472267,-0.000017279928363859652,0.005777779683843255
1761505962374106000,1.761106201171875,-0.13760638970434666,-0.0012766140733845531,0.014042042421177028
1761505962384142000,1.77114208984375,-0.14179858069717882,0.007394329768698662,0.0105151834692806
1761505962394178000,1.781177978515625,-0.1434504395574331,0.0062256513155065476,0.005592668907903135
1761505962404214300,1.79121435546875,-0.12489362312555312,-0.003914817089866847,0.013451529182121157
1761505962414250500,1.80125048828125,-0.13776421061456204,-0.007636851553991436,0.009897234234027564
1761505962424286500,1.811286376953125,-0.14105740694105626,-0.010692713726963848,0.01012147144395858
1761505962434322400,1.821322509765625,-0.14046002556979656,0.0023127887207083403,0.005958214284665882
1761505962444358400,1.8313583984375,-0.13955752377212047,0.0033416933770291507,0.013027860409952699
1761505962454395400,1.8413955078125,-0.13746201279759407,-0.0009372808501124381,0.009673252752423285
1761505962464431400,1.851431396484375,-0.13057692945897578,-0.008407160073053092,0.00603036620542407
1761505962474467300,1.86146728515625,-0.13671382477879523,-0.008488755675591528,0.00947919148504734
1761505962484503300,1.87150341796875,-0.1325321551799774,-0.0032278942716307936,0.007226078796014189
1761505962494539300,1.881539306640625,-0.13971476016044615,-0.009007062194962053,0.0027062267513945698
1761505962504575200,1.8915751953125,-0.1440536661475897,-0.01051828874181956,0.01227203707396984
1761505962514611200,1.901611083984375,-0.1458387959986925,-0.0026554098796099422,0.005863119879737496
1761505962524647200,1.911647216796875,-0.1434428407728672,-0.0025892127756029365,0.0009183204213157295
1761505962534683100,1.92168310546875,-0.13984744662940501,0.009105371470283716,0.007371405550837516
1761505962544719000,1.931718994140625,-0.14478665659725665,-0.0028389680192805826,0.006855491917952895
1761505962554756000,1.941756103515625,-0.14044599704444408,0.007709697594493627,0.013503990021720529
1761505962564792000,1.9517919921875,-0.141343238145113,0.004944233202841133,0.01796170008294284
1761505962574828000,1.961828125,-0.14867431168556214,-0.008705302769411354,0.002837707643955946
1761505962584864300,1.9718642578125,-0.14552607678771018,-0.003982438965979963,0.011532872611843048
1761505962594900500,1.981900390625,-0.14103402606546878,0.005237827588245272,0.01048858772329986
1761505962604936400,1.9919365234375,-0.12996259695291518,0.005943363775406032,0.009579838847927749
1761505962614972400,2.001972412109375,-0.13639467582702636,-0.0032139753441326317,-0.00020571517255157232
1761505962625008400,2.01200830078125,-0.13504150765240192,0.0030039858552627263,0.005777560488134622
1761505962635044400,2.02204443359375,-0.14371815058290957,-0.0007836246583610773,0.00844002116303891
1761505962645081300,2.032081298828125,-0.14775018257796763,-0.0001432443955913186,0.005118000600859523
1761505962655117300,2.042117431640625,-0.13338847974836826,-0.001549896323122084,0.005162679992802441
1761505962665153300,2.0521533203125,-0.1411766494065523,0.004395878605078905,0.01008946887049824
1761505962675189200,2.062189208984375,-0.13114625377953051,0.0026670637847855685,0.007372355398908257
1761505962685225200,2.07222509765625,-0.13564064258933067,-0.007366893772501498,0.009690423082932829
1761505962695261200,2.08226123046875,-0.1378875447332859,-0.006984214597847312,0.010616634549759328
1761505962705297200,2.092297119140625,-0.13744155453145504,-0.0013177863339893518,0.005311769607290625
1761505962715333000,2.1023330078125,-0.13430033389627932,0.005784063294157386,0.009294811361469328
1761505962725369000,2.112369140625,-0.14283318444192408,0.004872556206118315,0.006106134855374694
1761505962735405300,2.1224052734375,-0.14372867197692393,-0.0029414602793753145,0.008070639861375094
1761505962745442000,2.132442138671875,-0.13579378732442854,-0.002674589504115283,-0.0017631006823852658
1761505962755478300,2.142478271484375,-0.14596622177064417,0.0024130890237167475,0.0044321372285485265
1761505962765514500,2.152514404296875,-0.13862988753318786,0.005469170392397791,0.008699768077768386
1761505962775550500,2.162550537109375,-0.14984627807438372,0.00018976868474856017,0.007650112894363701
1761505962785586400,2.17258642578125,-0.1399661045730114,-0.0005806859647855162,0.006489727345481515
1761505962795622400,2.182622314453125,-0.14655249722599983,0.006860095027834177,0.004996054721623659
1761505962805658400,2.192658447265625,-0.1480395209133625,-0.0014543269941583274,0.012759236069023608
1761505962815694300,2.2026943359375,-0.13816402358710764,-0.00030460896976292133,0.0068846449472010135
1761505962825730300,2.212730224609375,-0.13128303190171717,-0.0006558700928464532,0.011982260347157716
1761505962835767300,2.222767333984375,-0.12994155416488648,0.00497486580312252,0.001607325598783791
1761505962845803300,2.23280322265625,-0.14789339044094085,-0.0037198973059654234,0.004459463626891374
1761505962855839200,2.242839111328125,-0.14026011908352373,-0.0042826640215702354,0.005837437449209392
1761505962865875200,2.252875244140625,-0.13562310693264007,0.0008222031030803919,0.0016812310852110386
1761505962875911200,2.2629111328125,-0.13517360959947108,0.00506782304989174,0.0026220555992797017
1761505962885947100,2.272947021484375,-0.13771511077582835,0.004634692329633981,0.006728431472182273
1761505962895983000,2.282983154296875,-0.13965689249336719,-0.0005064882174134254,0.004406126004457473
1761505962906019300,2.293019287109375,-0.14309914190173148,-0.0015986125693656502,0.0028123174743726847
1761505962916055300,2.30305517578125,-0.14474281745553016,-0.00125370812183246,0.00803538588490337
1761505962926091300,2.31309130859375,-0.14384499183297156,0.0028671529341489075,0.006890453633479773
1761505962936128300,2.323128173828125,-0.1438432382673025,-0.008142097662389278,0.007928491444326937
1761505962946164500,2.33316455078125,-0.14324001167714595,-0.0008153349708765745,0.004509111454896629
1761505962956200400,2.343200439453125,-0.1403968972057104,0.0042560134766623375,0.003161898097023368
1761505962966236400,2.353236328125,-0.13785539602935312,0.013198577334359288,0.005947619825415313
1761505962976272400,2.3632724609375,-0.1471370191156864,0.001665047135390341,0.0026310426233336326
1761505962986308400,2.373308349609375,-0.13965455440580843,-0.000038340982701629396,0.003550459023192525
1761505962996344300,2.38334423828125,-0.14354220949411392,0.00500098662506789,0.0053880862465128295
1761505963006380300,2.39338037109375,-0.14398878421783445,-0.0038511772691272195,0.0006846943285316228
1761505963016416300,2.403416259765625,-0.14143676164746283,-0.0019978410200215875,0.009782704476267098
1761505963026452200,2.4134521484375,-0.14367898761630057,-0.0006941014776937663,0.014811419358476996
1761505963036489200,2.4234892578125,-0.1508586699873209,-0.005356101939361542,0.005920366492308676
1761505963046525200,2.433525146484375,-0.13484744638502597,0.0015507548396475612,0.0063444736558943985
1761505963056561200,2.44356103515625,-0.13589023343622683,0.005371500437892973,0.0010216346653178334
1761505963066597000,2.45359716796875,-0.13798106823563575,-0.0022640907407738267,0.0028380364375188943
1761505963076632600,2.463632568359375,-0.13723229569494724,-0.004430858586914837,-0.00066314008384943
1761505963086668500,2.47366845703125,-0.1417220083296299,-0.007158255990501493,0.0035723055288195606
1761505963096704500,2.48370458984375,-0.1363362236380577,-0.005491437023133039,-0.0001483224295079708
1761505963106740500,2.493740478515625,-0.14277473225295542,-0.0020356340134516358,0.0062425476513803
1761505963116776400,2.5037763671875,-0.1426274327367544,0.0026199549737386404,0.005111351664364338
1761505963126812400,2.5138125,-0.13799334319531917,0.0004078318822197616,0.006718859926238656
1761505963136848400,2.523848388671875,-0.14323416645824907,0.003592982990667224,0.007393398186936974
1761505963146885600,2.5338857421875,-0.1388929223835468,-0.005281246604863554,0.005885295178927481
1761505963156921600,2.543921630859375,-0.14248071774244309,-0.00014755524452775715,0.0077771002748981116
1761505963166957600,2.55395751953125,-0.13544424323439597,0.0072910703236237166,-0.0002259542429819703
1761505963176993500,2.56399365234375,-0.1370943485289812,-0.007237093380372971,0.010384835087880491
1761505963187029500,2.574029541015625,-0.1432294902831316,-0.003586936842370778,0.008852401356212795
1761505963197065500,2.5840654296875,-0.1436830792695284,-0.010390150583814829,0.00610138561502099
1761505963207101700,2.594101806640625,-0.14218962584137915,0.006259480519872159,0.004961933256313204
1761505963217137700,2.6041376953125,-0.13725801465809345,-0.0008585530580952763,-0.0007221402620896696
1761505963227173600,2.614173583984375,-0.13037410036325453,0.002289754904992878,0.000992591233924031
1761505963237209600,2.624209716796875,-0.14428513681590557,0.0031834158090874552,0.008015073749236762
1761505963247246600,2.63424658203125,-0.1463841549217701,0.0044478279880248005,0.009145940942689775
1761505963257282600,2.644282470703125,-0.14025018221139907,-0.0034089133943431076,0.008235109708085655
1761505963267318500,2.654318603515625,-0.1406985105007887,-0.0037131753042340277,0.007928162650763989
1761505963277354500,2.6643544921875,-0.14368775544464588,-0.0059475102275609966,0.006016666473634541
1761505963287390500,2.674390380859375,-0.1382961255341768,0.0015073723556473851,0.008090111746825277
1761505963297426400,2.684426513671875,-0.13994272369742392,0.003328450302965939,0.010717793369293212
1761505963307462400,2.69446240234375,-0.1462222423583269,-0.00568275834415108,0.007524184959754348
1761505963317498400,2.704498291015625,-0.1344020407050848,0.0013034472813829778,0.015073687023855744
1761505963327534300,2.714534423828125,-0.14173194520175456,0.000981485318019986,0.010371975606307387
1761505963337570600,2.724570556640625,-0.14741349796950817,-0.004916358815226704,0.006990589539706707
1761505963347607600,2.734607666015625,-0.14068097484409808,-0.011738112860359251,0.013868329822085797
1761505963357643500,2.7446435546875,-0.14756781174838543,-0.010954269006289541,0.006766790721192955
1761505963367679500,2.754679443359375,-0.1457698224157095,0.0025349618377164007,-0.00019694734420627353
1761505963377715700,2.7647158203125,-0.1441267313838005,-0.013556962317973374,0.0015896803442388772
1761505963387751700,2.774751708984375,-0.14801204838454723,-0.002004690885916352,0.011829225209914147
1761505963397787600,2.78478759765625,-0.1435211667060852,-0.0029266280364245176,0.005647577432915568
1761505963407823600,2.79482373046875,-0.1360311032116413,-0.00041729383030906315,0.002367934707738459
1761505963417859600,2.804859619140625,-0.14709493353962896,0.0019573446128517387,0.0055379795785993335
1761505963427895600,2.8148955078125,-0.13482172742187976,-0.002163680839911103,0.0067602879151701925
1761505963437931500,2.824931640625,-0.13781097236573694,-0.0005741466261446475,0.005253061689995229
1761505963447968500,2.834968505859375,-0.12958558033406734,-0.009085771720670164,0.0007469093771651387
1761505963458004500,2.84500439453125,-0.13796762423217296,0.0026251974044367667,0.008279569904319942
1761505963468040400,2.85504052734375,-0.13183189795613287,-0.004520546164363623,0.009342121101915835
1761505963478076400,2.865076416015625,-0.1412596515148878,-0.006844787860848009,0.004837028235010803
1761505963488112400,2.8751123046875,-0.13571955304443836,0.004105700019467621,0.0004686769576743245
1761505963498148400,2.8851484375,-0.1418517721891403,-0.0028398996010422705,-0.003934014980681241
1761505963508184600,2.8951845703125,-0.1361672968119383,-0.0020743768549524246,0.0026951939007267356
1761505963518220500,2.905220458984375,-0.13601941277384758,-0.004285129973292351,0.00003112579062581062
1761505963528256800,2.9152568359375,-0.13138123157918452,0.005250102547928691,0.009498955631442367
1761505963538292700,2.925292724609375,-0.1333306120812893,0.0014122414181008934,0.008250453407689928
1761505963548328700,2.93532861328125,-0.15053484486043453,0.005600888746976852,0.0025950579944998024
1761505963558364700,2.94536474609375,-0.14559738845825196,0.0005963219253346324,0.009523249822482467
1761505963568401700,2.955401611328125,-0.1379652861446142,0.002015687203966081,0.005516790660098195
1761505963578437600,2.965437744140625,-0.14125439081788063,-0.0026504962424747642,0.001401464295759797
1761505963588473600,2.9754736328125,-0.14529285255372523,-0.0039441345158964395,0.0083029142472893
1761505963598509600,2.985509521484375,-0.13436930747926235,0.0010466960413381458,0.007958886582590639
1761505963608545500,2.995545654296875,-0.1417003810197115,0.0035972573069855567,0.008220313997752964
1761505963618581500,3.00558154296875,-0.13376432732343674,-0.0015585180209949613,0.005573087424598634
1761505963628617500,3.015617431640625,-0.14423720602095128,-0.0073573039602488274,0.006988324517384171
1761505963638653400,3.0256533203125,-0.14035013545453548,-0.0016414835967123508,0.0009453910913318395
1761505963648689400,3.035689453125,-0.13840250851809976,0.0020880035215057433,0.010146898146159947
1761505963658725400,3.045725341796875,-0.1493283916801214,-0.001590995518490672,0.011025251883268356
1761505963668761600,3.05576171875,-0.13301380121707915,-0.012723141842335462,0.002854220387339592
1761505963678798300,3.06579833984375,-0.138105571398139,0.0021236045578494666,0.008953815904073417
1761505963688834600,3.07583447265625,-0.14259937568604944,0.004041457410529256,0.0005739274304360151
1761505963698870800,3.085870849609375,-0.13541969331502915,-0.009585684066824614,0.0026042642142623663
1761505963708906800,3.09590673828125,-0.1414075355529785,-0.0008837605645880103,-0.000022796353697776793
1761505963718942700,3.105942626953125,-0.14006021259725093,0.004556823054142296,0.0008830664448440074
1761505963728978700,3.115978759765625,-0.13047405360639094,-0.00028765783496201037,0.00122994365375489
1761505963739014700,3.1260146484375,-0.13526187240481377,-0.0021944413043558596,0.012865180661529302
1761505963749050600,3.136050537109375,-0.12568506576418875,-0.0013301891578361392,0.0021652882751077413
1761505963759086600,3.146086669921875,-0.14064356544315815,0.0002899593899026513,0.005478029552288353
1761505963769122600,3.15612255859375,-0.14857202035486697,0.00839789905436337,0.0047357598176226015
1761505963779158500,3.166158447265625,-0.1500689809143543,-0.0037096681728959083,0.006826375421322882
1761505963789195500,3.176195556640625,-0.14123451707363127,-0.0037809067782014604,0.01163731936700642
1761505963799231500,3.1862314453125,-0.14048282192349434,0.006093348439037799,0.00584262508098036
1761505963809267500,3.196267333984375,-0.14512626381516455,-0.0049597412992268795,0.0013932809893041848
1761505963819303400,3.206303466796875,-0.14377718729376793,0.001465652105771005,0.00583108077365905
1761505963829339400,3.21633935546875,-0.14855974539518355,0.005496222796104848,0.007746011016890406
1761505963839375600,3.226375732421875,-0.1487052913457155,-0.005135298795532435,0.0019515359265729784
1761505963849411600,3.23641162109375,-0.13568798886239528,0.004550247182883322,0.006044833122193813
1761505963859447600,3.246447509765625,-0.13643500783741475,0.010553323522582649,0.0070431234445422885
1761505963869483500,3.2564833984375,-0.15065174923837185,0.0039798268837854265,0.01036152727752924
1761505963879519500,3.26651953125,-0.13314531864225865,-0.0018306129606440662,0.004851129825599492
1761505963889555500,3.276555419921875,-0.1449678583830595,0.00037117139995098113,0.004014131012186408
1761505963899591400,3.28659130859375,-0.14002806389331818,0.004554393635038286,0.004315890437737107
1761505963909628700,3.296628662109375,-0.14436346274912357,-0.0011282916438765823,0.001197831482440233
1761505963919664600,3.30666455078125,-0.14422025488615034,-0.007299929483514279,0.0029748510923236606
1761505963929700600,3.31670068359375,-0.13822949003875254,-0.0030103607971221206,0.0056897726068273185
1761505963939736600,3.326736572265625,-0.1519908888876438,0.008031093302275985,0.012278978271409868
1761505963949772500,3.3367724609375,-0.13283259943127632,0.0021847236279398203,0.005263984942808747
1761505963959808500,3.34680859375,-0.12520692685842513,-0.003194539991300553,0.004545461409911513
1761505963969844500,3.356844482421875,-0.14031974031627178,-0.005774820541776716,0.0029565117180347443
1761505963979880400,3.36688037109375,-0.1307411801099777,-0.005020641173608601,0.00747870185021311
1761505963989916700,3.376916748046875,-0.12879589126110075,0.0020647505100816485,0.007600939990393817
1761505963999952600,3.38695263671875,-0.13673019139170645,0.0024750666103325785,0.00016746552139520644
1761505964009988600,3.396988525390625,-0.14226736725270747,0.002234828113671392,0.006817607592977583
1761505964020025600,3.407025634765625,-0.13912439305186272,0.009020999388769269,-0.0012280439576134086
1761505964030061600,3.4170615234375,-0.14166647875010965,-0.007918956431001425,0.0074189344869926566
1761505964040097500,3.42709765625,-0.14675591084361075,-0.0020446575701236723,0.0016083485120907425
1761505964050133500,3.437133544921875,-0.14585808522105217,0.002467486092075705,0.0011482567196711897
1761505964060169500,3.44716943359375,-0.1404711314857006,-0.005224602780491114,0.00319094152841717
1761505964070205400,3.457205322265625,-0.13374094644784926,0.007352737382985651,0.006431019428186118
1761505964080242200,3.4672421875,-0.14361118307709694,0.010022833375073969,0.0065719622688367955
1761505964090278100,3.477278076171875,-0.14525836576223372,0.005051748697925359,0.007073810843750834
1761505964100314000,3.487314208984375,-0.14061317030489445,-0.007110763586964458,-0.0025218466278165578
1761505964110350000,3.49735009765625,-0.13686930760145186,-0.008755261124670505,-0.0030581819942221045
1761505964120386000,3.507385986328125,-0.12908932124972342,0.0014782558590173721,-0.004551233563572168
1761505964130422000,3.517422119140625,-0.14480419225394725,-0.005013115454278886,0.009849011178128421
1761505964140458000,3.5274580078125,-0.14331366143524646,0.003649206689931452,0.004047850618697703
1761505964150495000,3.537494873046875,-0.1376297705799341,0.003060976739507168,0.004117335658334195
1761505964160531000,3.547531005859375,-0.14137597137093544,0.001202690320648253,0.0010784794190898538
1761505964170567000,3.55756689453125,-0.13389409118294715,-0.008661609758157282,0.0012805047972127795
1761505964180603100,3.56760302734375,-0.14212006773650646,0.0023817440373823046,0.0016842998251318931
1761505964190639000,3.57763916015625,-0.1434650526046753,-0.006452080482523888,0.0067234265035018325
1761505964200675000,3.587675048828125,-0.1376268479704857,-0.01115766435759142,0.009077332685887812
1761505964210711000,3.5977109375,-0.13986790489554404,-0.008395579233113676,0.006249013924784958
1761505964220747000,3.6077470703125,-0.14031564866304397,-0.005246705014444887,-0.0005278963316231966
1761505964230783000,3.617782958984375,-0.13612228862643241,0.007992642721720039,0.0024038462713360785
1761505964240819000,3.62781884765625,-0.1296872871428728,-0.0014257584867998956,0.003731332015432417
1761505964250855000,3.63785498046875,-0.14225450777113438,0.007475103387329727,0.005109707696549594
1761505964260891000,3.647890869140625,-0.13805588703751565,0.006186561414133757,0.011632533594034612
1761505964270926800,3.6579267578125,-0.13386428056657312,-0.002424304537475109,0.011841390571743248
1761505964280964000,3.667964111328125,-0.1432891115158796,-0.0003772723471745848,0.007016819959506392
1761505964291000000,3.678,-0.15002397272884846,-0.010695070080831646,0.0007628741312772035
1761505964301036000,3.6880361328125,-0.13955050950944423,-0.0033697321614250537,0.00025594752244651316
1761505964311072000,3.698072021484375,-0.14089900150895118,-0.0029406565617769954,-0.00012004618309438228
1761505964321108200,3.708108154296875,-0.13371464296281338,0.0014893800412304698,-0.004789316635765135
1761505964331144200,3.718144287109375,-0.14433423665463924,-0.00692567107733339,0.005341324495337903
1761505964341180200,3.72818017578125,-0.1429892517864704,-0.001151033198647201,0.008172346670180559
1761505964351216000,3.738216064453125,-0.13581132298111914,-0.0008529453012160956,0.003171688838675618
1761505964361252000,3.748252197265625,-0.132667179736495,0.0008657499838620424,0.011482128805294632
1761505964371288000,3.7582880859375,-0.1407411805987358,-0.0004770063946023583,0.008978292758204042
1761505964381324000,3.768323974609375,-0.1414823543548584,-0.0009359656758606434,0.009073715956695377
1761505964391360000,3.778360107421875,-0.13908464556336403,0.004212667525280267,0.001600676662288606
1761505964401397000,3.78839697265625,-0.14312076921164987,-0.0006302607275545597,0.002566343356668949
1761505964411433000,3.798432861328125,-0.1348860248297453,0.0054073572025634346,0.006377353012189268
1761505964421469000,3.808468994140625,-0.14042495425641535,0.0013982494253665207,0.007164192540943622
1761505964431505000,3.8185048828125,-0.13593407257795334,-0.0010194792408496141,0.0029505934339016673
1761505964441540900,3.828540771484375,-0.1324929922133684,0.000902830591239035,0.005365618686378002
1761505964451576800,3.838576904296875,-0.13728022648990154,0.0009263941299170255,0.0023324980681762096
1761505964461613000,3.848613037109375,-0.135787357583642,-0.002609378780797124,0.007787731266766786
1761505964471649300,3.858649169921875,-0.14371230536401272,-0.006234437410160899,-0.0017632833454757928
1761505964481685200,3.868685302734375,-0.14266542665958404,-0.006394760804716498,0.003886157250963151
1761505964491721200,3.87872119140625,-0.13667933798730372,-0.0022292203567922113,-0.004051467347890138
1761505964501757200,3.888757080078125,-0.13667290824651718,-0.004235628275759518,-0.0007602072501555084
1761505964511793200,3.898793212890625,-0.14370119944810866,-0.004452047505415976,-0.00012278612945228814
1761505964521829000,3.9088291015625,-0.14055705620348452,-0.0004639642499387264,-0.0029733897875994443
1761505964531866000,3.9188662109375,-0.14863281063139439,0.004591675171814858,0.006339943611249327
1761505964541902000,3.928902099609375,-0.13860066143870353,-0.00947493543503806,-0.0007975070532411336
1761505964551938000,3.93893798828125,-0.15042027857005597,-0.0030343627272173762,0.0007841361150145531
1761505964561974000,3.94897412109375,-0.146078449973464,0.0010565050492994488,0.004729805000871419
1761505964572010000,3.959010009765625,-0.13605565313100815,-0.005781213749945164,0.0068798957068473094
1761505964582046000,3.9690458984375,-0.14353577975332737,-0.004534081499371677,0.007400923906266689
1761505964592082000,3.97908203125,-0.14458032037019727,-0.0030108722537755964,-0.0032422333242371677
1761505964602118000,3.989117919921875,-0.14502747961580753,-0.0027164376181550323,0.003588379880785942
1761505964612154000,3.999154052734375,-0.1439741711705923,0.0016180479221977293,0.004172134585492313
1761505964622190000,4.009190185546875,-0.13978139565587042,0.0009541954522952437,0.007410276256501674
1761505964632226000,4.01922607421875,-0.13260171328485013,-0.00328086656788364,0.0016928484577685594
1761505964642262000,4.029261962890625,-0.1357476100951433,0.0016935791101306676,-0.0010710632976144551
1761505964652298000,4.039298095703125,-0.1417342832893133,-0.0002060074334964156,0.005826441131159663
1761505964662334000,4.049333984375,-0.13604922339022157,0.007172668108344078,0.006973090415634214
1761505964672371200,4.05937109375,-0.13261223467886446,-0.0019419826469384133,0.003212349642626941
1761505964682407200,4.0694072265625,-0.1368061792373657,-0.0023566643950529396,-0.000428418012522161
1761505964692443100,4.079443115234375,-0.13874737643301485,-0.004075414479058235,0.0009869652107357978
1761505964702479000,4.08947900390625,-0.14368600187897682,0.00025665990849956866,0.01072641506716609
1761505964712515000,4.09951513671875,-0.13052256892323494,0.0011289126983843743,0.009394910735078156
1761505964722551000,4.109551025390625,-0.12498422401845455,0.008034856161940843,-0.000539477171562612
1761505964732587000,4.1195869140625,-0.1451847160041332,-0.005069521816633641,0.0032816520191729067
1761505964742623000,4.129623046875,-0.14099486309885978,0.003539882830251008,0.013570954310707747
1761505964752659200,4.1396591796875,-0.1351601655960083,-0.002070011207088828,0.006303484058380127
1761505964762695200,4.149695068359375,-0.13545885628163815,0.006421630545333027,0.0034727176118642088
1761505964772731100,4.159731201171875,-0.138898183080554,-0.007864011373370885,0.0040414208779111505
1761505964782767000,4.16976708984375,-0.13291443249583243,-0.007680855092499404,0.001822868045605719
1761505964792803000,4.179802978515625,-0.1333645143508911,0.005142733183316886,-0.0021519904021173714
1761505964802839000,4.189839111328125,-0.13052023083567618,-0.0018915128350257872,0.0020973376054316756
1761505964812876000,4.1998759765625,-0.14024492151439188,-0.004902366822492331,0.0006571122018620371
1761505964822912000,4.209912109375,-0.13993746300041673,-0.010543057856895029,0.006459368739835917
1761505964832948000,4.219947998046875,-0.1387333479076624,-0.005677771641779691,0.0019400281518697738
1761505964842984000,4.22998388671875,-0.12511924857497214,-0.0009152699477039277,0.0010057795090600847
1761505964853020000,4.24002001953125,-0.13783727585077285,-0.0005642645529471337,0.0006400880018249154
1761505964863056000,4.250055908203125,-0.14172376189529895,0.0011654270501807332,0.003450067388638854
1761505964873092000,4.260092041015625,-0.1400783327758312,-0.0067596668606624,-0.0020612799113616347
1761505964883128000,4.270128173828125,-0.13214812429845332,-0.002197948435693979,0.005171703549474478
1761505964893164000,4.2801640625,-0.1388847390770912,-0.012168887226749211,0.006287044380232691
1761505964903200300,4.2902001953125,-0.13618717055618762,-0.011136091846600174,-0.001470620541833341
1761505964913236200,4.300236328125,-0.1345411569148302,0.0031866672120988366,0.006484649311564863
1761505964923272200,4.310272216796875,-0.14411971712112426,0.007660433358978479,0.0040029885636642575
1761505964933308200,4.32030810546875,-0.14336977553665636,0.0008350260520353913,0.0009313625659793615
1761505964943344000,4.33034423828125,-0.13544073610305785,-0.0023610117766074833,0.010195961452275514
1761505964953381000,4.340381103515625,-0.1402314775109291,-0.003033723406400531,-0.004040836356021464
1761505964963417000,4.3504169921875,-0.14082535175085067,-0.006674691990949213,0.001383088388852775
1761505964973453000,4.360453125,-0.1385802031725645,0.0022118308305740355,0.003951915963552892
1761505964983489000,4.370489013671875,-0.14022504777014255,0.0006983940603211521,0.001982552119344473
1761505964993525000,4.38052490234375,-0.13528349971473216,-0.002263159159012139,0.0018051862584426998
1761505965003561000,4.39056103515625,-0.13917173932492732,-0.0020539185888133944,0.0041861996434628965
1761505965013597000,4.400596923828125,-0.1382704065710306,0.00016885376088321207,0.00723634446170181
1761505965023633000,4.4106328125,-0.14859773931801318,-0.0019224194299429654,-0.0013865224549546838
1761505965033669000,4.420669189453125,-0.14291794011592865,0.005876600415818393,0.007030008234642446
1761505965043705000,4.430705078125,-0.13947919783890247,0.00032152357194572683,0.009372698903270065
1761505965053741000,4.440740966796875,-0.1346937171280384,-0.0019814378744922576,0.007467121010273694
1761505965063777000,4.450777099609375,-0.13903086954951285,-0.004645798245538026,0.008721833779104054
1761505965073813200,4.460813232421875,-0.13528466875851153,-0.005987038520351052,0.004522226664796471
1761505965083849200,4.47084912109375,-0.14814999555051325,-0.003861114141251892,-0.0012002791678532958
1761505965093885400,4.480885498046875,-0.1418698923677206,0.0032901093202643093,0.00420121454950422
1761505965103921400,4.49092138671875,-0.1284101068139076,-0.00740707965241745,0.00004763853400945663
1761505965113958400,4.50095849609375,-0.13768822276890277,-0.00889037701273337,0.00618975801821798
1761505965123994400,4.510994384765625,-0.13858195673823356,0.0033694946994073686,-0.0018572452392429113
1761505965134030300,4.5210302734375,-0.134388596701622,-0.012785393423587083,-0.006910692703910172
1761505965144066300,4.53106640625,-0.14066869988441466,-0.009942461615242064,0.0009665434772148728
1761505965154102300,4.541102294921875,-0.134231944835186,-0.009901289354637265,0.0018584142830222845
1761505965164138200,4.55113818359375,-0.12510697361528872,-0.006140128456521779,0.002472710256464779
1761505965174174200,4.56117431640625,-0.13872574912309646,-0.0020689882937818763,0.006699022714607417
1761505965184210200,4.571210205078125,-0.14067103797197342,0.0042928748883306975,-0.0005920110763981938
1761505965194246400,4.581246337890625,-0.14411387190222738,-0.0028246837656013667,0.009135492613911628
1761505965204284200,4.5912841796875,-0.13543956705927848,-0.005477061437908559,0.0011718567909672856
1761505965214320400,4.6013203125,-0.13693652761876582,0.007886497199814766,-0.002126892493478954
1761505965224356400,4.6113564453125,-0.13439794905185698,-0.005916804562043398,0.0024529461100697516
1761505965234392300,4.621392333984375,-0.14832184498608111,-0.0026945728462189436,0.004422784878313541
1761505965244428300,4.63142822265625,-0.1299175887674093,-0.0009894128961488605,-0.00021956103481352327
1761505965254464500,4.641464599609375,-0.14577917476594449,-0.002968804944027215,0.005710413536056876
1761505965264500500,4.65150048828125,-0.14801789360344408,0.002579184571933001,-0.0030634061586111783
1761505965274536400,4.661536376953125,-0.1357487791389227,-0.0004903590665198863,0.0035990108726546167
1761505965284572400,4.671572509765625,-0.133351654869318,0.0010029482311569155,0.005758125135302544
1761505965294608400,4.6816083984375,-0.1432248141080141,-0.0019399185540154575,0.003923383988812566
1761505965304644400,4.691644287109375,-0.13798515988886356,0.0023828582822345195,0.010009024045430123
1761505965314680300,4.701680419921875,-0.12960194694697857,-0.003174099991470575,0.009162965142726898
1761505965324717300,4.71171728515625,-0.13453940334916115,-0.004597776119038463,0.005895451246760785
1761505965334753300,4.721753173828125,-0.12929799556434154,-0.007767546995263546,0.0001096709195524454
1761505965344789200,4.731789306640625,-0.1436608674377203,-0.007863518183026462,0.0019544585360214113
1761505965354825200,4.7418251953125,-0.13887772481441496,-0.006606467326637357,0.0007911869103088974
1761505965364861200,4.751861083984375,-0.13423545196652412,-0.006203494282625615,0.0014525368958711623
1761505965374897200,4.761897216796875,-0.13528408423662186,-0.0022131094722077247,0.005410992198064923
1761505965384933000,4.77193310546875,-0.14216039974689482,0.001698529279883951,0.0038400165542960166
1761505965394969300,4.78196923828125,-0.14350538461506365,-0.0034004378269426525,0.005449424512311816
1761505965405005300,4.79200537109375,-0.1322796417236328,0.0001850742433220148,0.0031078298222273586
1761505965415041300,4.802041259765625,-0.12494798366129398,-0.012344791782926768,0.00431037401240319
1761505965425077200,4.8120771484375,-0.13527122475504874,0.001146320490911603,0.007613836004585027
1761505965435113200,4.82211328125,-0.14096037630736827,-0.008254618126153945,0.005441277738474309
1761505965445149400,4.8321494140625,-0.1298871936291456,-0.006159874336607754,-0.002938574202544987
1761505965455185400,4.842185302734375,-0.13601941277384758,0.005028057295084,0.009116020728461445
1761505965465221400,4.852221435546875,-0.13197393677532673,0.0017909202710725367,0.0012378346992656588
1761505965475258400,4.86225830078125,-0.13915712627768514,-0.007911649907380343,0.002135185397788882
1761505965485294300,4.87229443359375,-0.12629121496379375,-0.0019318083127960561,0.0028266747932881114
1761505965495330300,4.882330322265625,-0.1288373923152685,-0.00034844811148941515,-0.006286459858343005
1761505965505366300,4.8923662109375,-0.1381178463578224,-0.002159662251919508,-0.00498904045894742
1761505965515402200,4.90240234375,-0.13871698129475116,-0.001080397381540388,-0.0060416547844186425
1761505965525438200,4.912438232421875,-0.133469143769145,-0.010181184008251874,-0.00028886341135948894
1761505965535474200,4.92247412109375,-0.13376315827965735,0.005956661648396402,0.002112462109327316
1761505965545510400,4.932510498046875,-0.13944880270063875,0.002027523772232234,0.0006701178139075637
1761505965555546400,4.94254638671875,-0.13391396492719648,-0.010766929740644991,-0.004103891654871404
1761505965565582300,4.952582275390625,-0.13855623777508735,-0.008294657875597477,0.003531936985813081
1761505965575618300,4.962618408203125,-0.13377192610800265,-0.004883406393695622,-0.000816357884183526
1761505965585654300,4.972654296875,-0.13736615120768547,0.007111932630743831,0.008234561718814074
1761505965595690200,4.982690185546875,-0.13257599432170392,-0.0034663426700048145,-0.0003888897197321057
1761505965605726200,4.992726318359375,-0.14155249698162078,0.00107548374440521,-0.0031611674446612595
1761505965615762200,5.00276220703125,-0.1324275257617235,-0.007310962334182113,0.005768646529316902
1761505965625798100,5.012798095703125,-0.1405102944523096,0.005104392200615256,0.00986764281336218
1761505965635835400,5.02283544921875,-0.13182722178101539,0.0029581556858494875,0.010526435515657066
1761505965645871400,5.032871337890625,-0.13331716807782648,0.002679119548760354,0.005082344765588641
1761505965655907300,5.0429072265625,-0.13196867607831955,-0.001251096039637923,0.006404423682205378
1761505965665943300,5.052943359375,-0.14124386942386627,-0.0009222111451439559,0.0023715149043127895
1761505965675979300,5.062979248046875,-0.13914952749311923,-0.007045059673301875,0.0020708879899233577
1761505965686015500,5.073015380859375,-0.1379495040535927,0.00424806763222441,0.007481514861807227
1761505965696051500,5.083051513671875,-0.13569792573451994,0.005829217610135674,-0.003917246508970856
1761505965706087400,5.09308740234375,-0.143329443526268,-0.002180010920204222,0.0015151172706857324
1761505965716123400,5.103123291015625,-0.14092998116910457,-0.002122271117288619,0.0008211436571553349
1761505965726159400,5.113159423828125,-0.14196867656707762,0.003834828922525048,0.009254479351080954
1761505965736195300,5.1231953125,-0.14136661902070044,-0.002542761551681906,0.007620886799879371
1761505965746231300,5.133231201171875,-0.143603584292531,-0.0031005232986062764,-0.0033286694986745715
1761505965756267300,5.143267333984375,-0.1356745448589325,-0.013575283425953238,-0.0019298355514183638
1761505965766303200,5.15330322265625,-0.1400140353679657,-0.004951831987407058,0.005202865872718393
1761505965776339200,5.163339111328125,-0.136716162866354,0.007748239506594836,0.0006287263575941324
1761505965786376200,5.173376220703125,-0.13447042976617812,0.0023857443590648473,0.0057618879949674
1761505965796412200,5.183412109375,-0.1432949567347765,-0.007560407050605863,-0.0026026933116838334
1761505965806448000,5.1934482421875,-0.14479191729426383,-0.002217511652689427,-0.000029079964011907577
1761505965816484000,5.203484130859375,-0.13356909701228142,-0.002740421281941235,0.00008044482506811618
1761505965826520300,5.213520263671875,-0.13281857090592383,0.007364245157688856,-0.006238857856951653
1761505965836556300,5.223556396484375,-0.12653788320124149,-0.0011791450482793152,-0.00011621025819331407
1761505965846592300,5.23359228515625,-0.1426975753635168,-0.000311641498748213,-0.0013207272097468376
1761505965856628500,5.24362841796875,-0.12982523430883883,-0.005015490074455738,0.0029462825849652288
1761505965866664400,5.25366455078125,-0.13700959285497666,0.0033256372913718223,0.0006202507901936769
1761505965876700400,5.263700439453125,-0.152270290350914,-0.0029602197787724433,-0.007972220988199115
1761505965886736400,5.273736328125,-0.143594231942296,-0.008144253086857497,-0.0029855551494285463
1761505965896772400,5.2837724609375,-0.14075053294897077,0.007106617134809493,-0.002236709543503821
1761505965906808300,5.293808349609375,-0.14463994160294533,0.003882010798808187,0.003008497633598745
1761505965916844300,5.30384423828125,-0.1268330667555332,-0.004446932938881218,-0.0006092910047620535
1761505965926880300,5.31388037109375,-0.13460954597592353,-0.001629537430591881,0.0012650514997541904
1761505965936917200,5.323917236328125,-0.14164075978696344,-0.002239613886643201,0.006844532132521271
1761505965946953200,5.333953125,-0.13551438586115835,-0.0036045455642975863,-0.004405578015185893
1761505965956989200,5.3439892578125,-0.13775778087377546,-0.003305160758923739,0.0011092033509165049
1761505965967025200,5.354025146484375,-0.13954992498755453,-0.0037217970021069047,0.0027768443021923303
1761505965977061400,5.364061279296875,-0.13475567644834519,-0.0018055881172418593,0.0008196092871949076
1761505965987097300,5.374097412109375,-0.13819032707214354,0.0030286636387929318,0.005605930248275399
1761505965997133300,5.38413330078125,-0.1416349145680666,0.006492668221239,-0.004190510492399335
1761505966007169300,5.394169189453125,-0.14791910940408706,-0.0034746538406237957,0.0003255056273192167
1761505966017205200,5.404205322265625,-0.13924305099546908,0.001054313092213124,0.004429214619100094
1761505966027241200,5.4142412109375,-0.13460486980080605,0.0037523930697701867,0.0005659267870709299
1761505966037277200,5.424277099609375,-0.13579904802143572,-0.008472334263753146,0.002233348542638123
1761505966047313200,5.434313232421875,-0.13938859694600103,-0.009070135760121048,0.0028379268396645785
1761505966057349000,5.44434912109375,-0.13669570460021496,-0.0031247626907192167,0.0032395299104973673
1761505966067385000,5.454385009765625,-0.1308592535316944,-0.0034613925002515314,0.003848601719550788
1761505966077420800,5.4644208984375,-0.13684358863830565,-0.003486326012108475,-0.002597213418968022
1761505966087456800,5.474456787109375,-0.13744856879413128,0.0023868768702261147,0.0016080562511458993
1761505966097493800,5.48449365234375,-0.13131634964942931,-0.00013675985587760804,-0.003858794320002198
1761505966107530000,5.494530029296875,-0.13221359075009823,-0.004135108777042478,-0.0005178498616442084
1761505966117566000,5.50456591796875,-0.1379009887367487,0.00536567348530516,-0.008007949888706206
1761505966127602000,5.514601806640625,-0.1352121880441904,0.000315988880302757,-0.00144212509971112
1761505966137638000,5.524637939453125,-0.1367109021693468,-0.007047635222878307,-0.0013556158600375055
1761505966147673900,5.534673828125,-0.1347679514080286,-0.0068634560286998745,-0.006247698750533163
1761505966157709800,5.544709716796875,-0.1401572432309389,-0.004012505310680717,-0.0007900178665295243
1761505966167745800,5.554745849609375,-0.13926175569593904,-0.004115837820991873,0.004634381802380085
1761505966177781800,5.56478173828125,-0.1427104348450899,-0.00701289270306006,0.006740816029720008
1761505966187817700,5.574817626953125,-0.13987141202688216,-0.0059118361259810626,0.0065178574614226815
1761505966197853700,5.584853759765625,-0.12476210570037365,0.0021113478644751013,-0.003033632074855268
1761505966207890000,5.594889892578125,-0.1356774674683809,-0.00037069647591561074,0.005434519204124808
1761505966217926000,5.60492578125,-0.1415127494931221,-0.007545337345637381,-0.0004138049652799964
1761505966227961900,5.6149619140625,-0.13942133017182348,-0.016843820235226303,0.0016540508173406123
1761505966237997800,5.624997802734375,-0.13643383879363535,0.0015767112648114561,-0.006886690773814916
1761505966248033800,5.63503369140625,-0.13404314426481723,-0.0013744666909798978,0.0018717486886307595
1761505966258069800,5.64506982421875,-0.1349415544092655,-0.0035807810962200162,0.003370097487606108
1761505966268106800,5.655106689453125,-0.12700959236621856,-0.008206194140855223,0.00039911885280162094
1761505966278142700,5.665142822265625,-0.13567922103404997,0.007733261133171618,-0.0008341858018189668
1761505966288178700,5.6751787109375,-0.13837328242361543,0.005863576537463814,0.0015361965913325546
1761505966298214700,5.685214599609375,-0.14271744910776615,-0.005321743012033402,0.010479564166627823
1761505966308250600,5.695250732421875,-0.14316227026581763,-0.001559650532156229,0.004961896723695099
1761505966318286600,5.70528662109375,-0.13777531653046607,-0.008111446795798838,0.0029965880000963805
1761505966328322600,5.715322509765625,-0.14361410568654537,-0.014073734467383473,0.0032174276765435934
1761505966338358800,5.72535888671875,-0.14300971005260943,-0.008638904736004769,0.0021993366751819846
1761505966348394800,5.735394775390625,-0.13477847280204294,-0.00666913903299719,-0.004496873027831316
1761505966358431000,5.745430908203125,-0.13058277467787266,0.003635251229815185,-0.0016556947851553558
1761505966368467000,5.755467041015625,-0.14330138647556304,0.0016483699952252208,0.0014798998268321156
1761505966378503000,5.7655029296875,-0.14270283606052397,-0.0027102270730771125,0.000752352737262845
1761505966388539000,5.775538818359375,-0.14105214624404908,-0.003519223634712398,0.007224909752234816
1761505966398574800,5.785574951171875,-0.14284779748916626,-0.0005692512553185224,0.005218026909232139
1761505966408610800,5.79561083984375,-0.14494447750747202,-0.005460621759761124,-0.005220364996790886
1761505966418646800,5.805646728515625,-0.13597089745700358,0.006408003878779709,0.008346022736653686
1761505966428682800,5.815682861328125,-0.13372457983493805,-0.008734419266041368,0.006379143110476434
1761505966438718700,5.82571875,-0.12984101639986037,-0.0018531170533969998,-0.009276216258853673
1761505966448755700,5.835755615234375,-0.133282681286335,0.001135762564279139,0.0049416941858828065
1761505966458791700,5.845791748046875,-0.13507657896578312,0.0018544687602669,-0.0021362448437139392
1761505966468827600,5.85582763671875,-0.1400140353679657,0.008445592387299984,0.000691635525971651
1761505966478863600,5.865863525390625,-0.14315350243747232,-0.00016136457417160273,0.002741846054047346
1761505966488899600,5.875899658203125,-0.12759762138724326,-0.0007504530411213636,-0.007386274326406419
1761505966498935800,5.885935791015625,-0.14615443781912327,0.004442055834364146,0.0017333265986293554
1761505966508971800,5.8959716796875,-0.13433306712210177,-0.0011080525734461844,0.003989581092819571
1761505966519007700,5.9060078125,-0.13448562733530997,0.0005314765281975269,-0.0009457198848947882
1761505966529043700,5.916043701171875,-0.13538228391408919,-0.0034145211512222884,0.0052382659796625375
1761505966539079700,5.92607958984375,-0.1368769063860178,-0.0017763985553756355,-0.003043203620798886
1761505966549115600,5.93611572265625,-0.13568506625294685,-0.0021924685429781676,-0.0018510346941649912
1761505966559151600,5.946151611328125,-0.13718787203133107,-0.006124090637173504,-0.0008805456941947341
1761505966569187800,5.956187744140625,-0.13883447019457817,-0.000968516238592565,-0.0015095277801156044
1761505966579223800,5.966223876953125,-0.138683663547039,-0.010472239376697688,-0.000687909198924899
1761505966589259800,5.976259765625,-0.1385404556840658,-0.006919387467019259,0.005865311836823821
1761505966599295700,5.986295654296875,-0.14332242926359176,0.0010653824754990637,0.0014583090495318173
1761505966609332000,5.99633203125,-0.13973229581713675,-0.001555485813692212,-0.0010941153796389699
1761505966619368000,6.006367919921875,-0.136893272998929,0.0013923676738515495,0.0009033785805106163
1761505966629404000,6.01640380859375,-0.1424322024255991,0.0006502075370401144,-0.0006637976709753274
1761505966639441000,6.02644091796875,-0.14751754286587238,-0.005009864051267504,0.0050797874823212625
1761505966649476900,6.036476806640625,-0.14048106835782528,0.007093848984781652,-0.005186316596716642
1761505966659512800,6.046512939453125,-0.1323942080140114,0.0009453362924046814,-0.0029741204399615522
1761505966669548800,6.056548828125,-0.12775018160045146,-0.008007456698361783,0.0018713468298316
1761505966679584800,6.066584716796875,-0.13253800039887428,-0.007180613952782005,0.00001505143865942955
1761505966689620700,6.076620849609375,-0.14450959322154522,-0.0060130132118239995,-0.0014487375035881994
1761505966699656700,6.08665673828125,-0.13313888890147207,-0.007675923189055174,0.003858173265494406
1761505966709692700,6.096692626953125,-0.13314005794525147,0.0016915515498258172,0.0009905088746920228
1761505966719728600,6.106728759765625,-0.12939794880747793,-0.0003479731874540448,0.001363726101256907
1761505966729764600,6.1167646484375,-0.12924948024749755,-0.007120992720033973,-0.004703501515835523
1761505966739800600,6.126800537109375,-0.1413689571082592,-0.0004963504158891737,0.00010725976675748824
1761505966749836800,6.1368369140625,-0.14271744910776615,0.0015734050628729165,-0.004307195674628019
1761505966759872800,6.146872802734375,-0.14137012615203856,-0.0012487944846972822,0.002844064319506287
1761505966769908700,6.15690869140625,-0.13763327771127223,-0.002743727483879775,0.012155096163414418
1761505966779944700,6.16694482421875,-0.14990589930713175,-0.0056297129826620215,0.0070129475019872186
1761505966789980700,6.176980712890625,-0.1409247204720974,-0.002727835795003921,0.0033943551460281014
1761505966800017000,6.187016845703125,-0.14122574924528597,-0.0037524296023882923,0.0014820552513003348
1761505966810052900,6.197052978515625,-0.14810674093067644,-0.007117923980113118,0.01124711447302252
1761505966820088800,6.2070888671875,-0.14361936638355255,0.0007043488770723343,-0.0011544307321310042
1761505966830125800,6.217125732421875,-0.13988017985522747,0.002195920875389129,0.0034837869951501485
1761505966840161800,6.227161865234375,-0.13912965374886987,0.0006325257498770952,0.001953545220568776
1761505966850197800,6.23719775390625,-0.13883154758512972,-0.00174793964587152,0.007068075222708284
1761505966860233700,6.247233642578125,-0.13404606687426565,-0.008817366575449705,-0.004731010577268898
1761505966870269700,6.257269775390625,-0.13763795388638972,-0.004347600750252604,-0.0027588702540844675
1761505966880305700,6.2673056640625,-0.1294084702014923,0.0008113163828849792,0.004186053512990474
1761505966890341600,6.277341552734375,-0.13180091829597948,-0.003466434001550078,-0.0006827946323901415
1761505966900377900,6.2873779296875,-0.1418260532259941,-0.0037975656520575283,0.0008108049262315034
1761505966910413800,6.297413818359375,-0.1282102003276348,0.015711053345631807,0.00022325082924216984
1761505966920449800,6.30744970703125,-0.12387187886238098,-0.001977455819118768,0.0013793255291879177
1761505966930485800,6.31748583984375,-0.1367412973076105,0.005578092393279075,0.005330182046815753
1761505966940521700,6.327521728515625,-0.12896364904344082,0.009445216150209308,0.007989975840598344
1761505966950557700,6.3375576171875,-0.13764438362717626,-0.004247227382007986,0.000613601853698492
1761505966960593700,6.34759375,-0.1428764390617609,-0.009204356599040328,0.010033281703852117
1761505966970629600,6.357629638671875,-0.1406359666585922,-0.005826039272360503,0.001135762564279139
1761505966980665600,6.36766552734375,-0.131805594471097,0.0012001147710718214,0.0033342224566265937
1761505966990701600,6.37770166015625,-0.1422837338656187,0.0007650660883635282,0.002830729913897812
1761505967000737800,6.38773779296875,-0.13614742306768893,0.0026775851787999272,0.0013797639206051826
1761505967010773800,6.397773681640625,-0.12985036875009537,-0.007070047984085977,-0.003385258524119854
1761505967020809700,6.407809814453125,-0.1403220784038305,-0.0031848040485754608,-0.004065167079679668
1761505967030846000,6.417845947265625,-0.14197218369841574,-0.0037000235617160797,0.00349102045353502
1761505967040882000,6.4278818359375,-0.1394254218250513,-0.0027176249282434583,0.003505852696485817
1761505967050919000,6.4379189453125,-0.13582827411592005,-0.007989482650253921,-0.0017346417728811502
1761505967060955000,6.447954833984375,-0.1261018298715353,-0.0007340681619010866,0.0022592136362567542
1761505967070991400,6.457991455078125,-0.14570143335461616,-0.0033734584884718057,-0.0010090674446895718
1761505967081027300,6.46802734375,-0.13806874651908874,0.004290226273518056,0.004170198356732726
1761505967091063300,6.478063232421875,-0.1364192257463932,0.0025192893445491788,0.006891111220605671
1761505967101099300,6.488099365234375,-0.13103636366426943,0.002670698780287057,0.00228767254576087
1761505967111135200,6.49813525390625,-0.14495616794526575,-0.0014769772173836826,0.004014277142658829
1761505967121171200,6.508171142578125,-0.14196283134818077,-0.004681033955700695,0.0017011413620784878
1761505967131207200,6.518207275390625,-0.1419657539576292,0.0012508951102383433,-0.004095269956998527
1761505967141243100,6.5282431640625,-0.13313947342336177,-0.006223075765930116,-0.007336626498401165
1761505967151279000,6.538279052734375,-0.1334428402841091,-0.004753185876458883,-0.004193469634465873
1761505967161315300,6.5483154296875,-0.13822890551686287,-0.009459500403888522,-0.0021381810724735257
1761505967171351300,6.558351318359375,-0.13418752117156982,-0.003771189101785421,-0.0012748057087883353
1761505967181387300,6.56838720703125,-0.13494038536548614,-0.00461045293752104,0.0004789426233619451
1761505967191423200,6.57842333984375,-0.1406277833521366,-0.002392082768306136,0.004273768329061568
1761505967201459200,6.588459228515625,-0.1412245802015066,-0.0063283627713099115,-0.005035656079649925
1761505967211495200,6.5984951171875,-0.14032850814461706,-0.0017061828633770345,0.007148739243485033
1761505967221531100,6.60853125,-0.12926117068529128,-0.0021074206080287693,0.005356266336143016
1761505967231567400,6.6185673828125,-0.13165420330166816,-0.006731189684849232,-0.00006641629971563815
1761505967241603300,6.628603271484375,-0.13359949215054512,-0.0016691753212362526,0.0051700230490416286
1761505967251639300,6.638639404296875,-0.12761223443448544,0.0047914537939243015,0.008702946415543556
1761505967261675300,6.64867529296875,-0.13509060749113558,-0.008393405542336405,0.0018675839701667426
1761505967271711200,6.658711181640625,-0.13194587972462177,-0.005232530358619988,0.0023249358162283898
1761505967281747500,6.66874755859375,-0.14062252265512942,-0.008566515353228896,0.0007938903240486979
1761505967291784200,6.6787841796875,-0.13239479253590106,0.0014089352161623537,0.00155088270381093
1761505967301820200,6.688820068359375,-0.14421207157969473,-0.00704637484755367,-0.003322605084069073
1761505967311856400,6.6988564453125,-0.14031798675060272,-0.0032030886239372194,0.00467478687800467
1761505967321892400,6.708892333984375,-0.13838146573007107,-0.00023024682560935614,-0.004549954921938479
1761505967331928300,6.71892822265625,-0.13164543547332286,0.0014415405778214335,0.0002868541173636913
1761505967341964300,6.72896435546875,-0.14316343930959702,-0.004012231316044926,-0.001137625727802515
1761505967352000300,6.739000244140625,-0.1470586931824684,-0.00009719503046944737,0.00303472805339843
1761505967362036200,6.7490361328125,-0.13373743931651114,0.010959401839133352,0.00503656939510256
1761505967372072200,6.759072265625,-0.1292471421599388,0.003184621385484934,0.0042423137448728086
1761505967382108200,6.769108154296875,-0.13613456358611584,-0.0009569353986531496,0.002537226860038936
1761505967392144100,6.77914404296875,-0.12895429669320582,-0.0024633579062297937,-0.005860927922651172
1761505967402180000,6.78918017578125,-0.13523790700733662,-0.004498681392427533,-0.006376037837937474
1761505967412216000,6.799216064453125,-0.13658756805062294,-0.0034165487115271386,0.007010426751337945
1761505967422252300,6.809252197265625,-0.14271686458587646,0.00018454452035948632,0.00698697281051427
1761505967432288300,6.819288330078125,-0.1362806940585375,-0.005283292431477457,0.007333119367063045
1761505967442324200,6.82932421875,-0.13658172283172607,0.0019080621110275386,-0.0024967121865600347
1761505967452360200,6.839360107421875,-0.13778525340259073,0.004340878748521209,-0.0017179828990250825
1761505967462396400,6.849396484375,-0.14317337618172168,0.00396554263010621,-0.0007534487158060073
1761505967472432400,6.859432373046875,-0.13359773858487606,-0.011385189503151923,0.00015581161621958017
1761505967482468400,6.86946826171875,-0.13255319796800613,0.0010670812422409652,0.002762085124477744
1761505967492504300,6.87950439453125,-0.14901391890347004,0.004597191597148776,-0.0007168064998462796
1761505967502540300,6.889540283203125,-0.14063947378993033,-0.004017820806615054,-0.007176613631099462
1761505967512576300,6.899576171875,-0.13779752836227416,0.00042993411617353556,0.0012557356821373104
1761505967522612200,6.9096123046875,-0.13570552451908588,-0.0010334347009658812,-0.00046246641259640455
1761505967532648400,6.9196484375,-0.12523089225590228,0.0006081584936007857,0.00057747109439224
1761505967542684400,6.929684326171875,-0.13869652302861213,-0.00033345147175714373,0.008045615017972886
1761505967552721200,6.93972119140625,-0.1397474933862686,-0.00698845238154754,-0.001473543151281774
1761505967562757400,6.94975732421875,-0.13885317489504814,-0.00669060194613412,-0.0004683846967294812
1761505967572793300,6.95979345703125,-0.15187573807537555,-0.003136179133877158,-0.0025155630175024268
1761505967582829300,6.969829345703125,-0.13691373126506803,0.0091261950626038,0.004586925931461155
1761505967592865300,6.979865234375,-0.1421522164404392,0.00676675418857485,0.0047400341339409345
1761505967602901200,6.9899013671875,-0.14678396789431572,0.004483867415785789,-0.0027779402807354926
1761505967612937200,6.999937255859375,-0.13540741835534573,0.0004501001213677227,-0.005442008390836417
1761505967622973200,7.00997314453125,-0.1331593471676111,-0.004354541947692633,-0.003395122331008315
1761505967633009200,7.020009033203125,-0.15021686495244502,0.0031164515201002356,-0.0052229953452944755
1761505967643045000,7.030045166015625,-0.13854746994674205,0.0022682737255468963,0.0006597790829837322
1761505967653081000,7.0400810546875,-0.13225976797938346,0.0060083005040884015,-0.0010802695173770189
1761505967663117000,7.050116943359375,-0.13450783916711806,-0.0007361322548240423,0.00313855375405401
1761505967673153300,7.0601533203125,-0.12882277926802635,0.0012839936622418462,0.0031332930570468305
1761505967683189200,7.070189208984375,-0.1331686995178461,0.008987024053931236,-0.0024949586208909747
1761505967693225200,7.08022509765625,-0.13826105422079563,-0.007219959582481533,0.0029102979561313985
1761505967703261400,7.090261474609375,-0.13661620962321758,-0.004661251542996615,0.0030916093397885557
1761505967713297400,7.10029736328125,-0.14948796615600585,0.005770856752712279,0.003352159972116351
1761505967723333400,7.11033349609375,-0.1352735628426075,-0.00486124936081469,0.005334492895752191
1761505967733369300,7.120369384765625,-0.125251935043931,0.0027515089315362272,0.002629800514318049
1761505967743405300,7.1304052734375,-0.13168927461504937,-0.009667663261853157,0.009800897720083595
1761505967753441300,7.140441162109375,-0.13947218357622623,0.006751903679315,0.010040770890563726
1761505967763477200,7.150477294921875,-0.13168985913693904,0.00593112534834072,0.00046695992462337014
1761505967773513200,7.16051318359375,-0.13348726394772528,-0.001868990475963801,-0.0009692468909546732
1761505967783549200,7.170549072265625,-0.148152333638072,-0.0053387124131433665,0.002066723271459341
1761505967793585400,7.18058544921875,-0.14142156407833098,0.0006403071975335478,0.002892250842787325
1761505967803621400,7.190621337890625,-0.13887363316118717,-0.0011980141455307603,-0.0030331571508198977
1761505967813657300,7.2006572265625,-0.1372241123884916,-0.006752488201204687,0.0010580211529508231
1761505967823693300,7.210693359375,-0.14022212516069413,-0.0011347761835902928,-0.006168313371390104
1761505967833730300,7.220730224609375,-0.14007248755693436,-0.0012785868347622454,-0.0008321765078231692
1761505967843766300,7.230766357421875,-0.14051613967120646,-0.0057517136608250434,-0.004797646072693169
1761505967853802200,7.24080224609375,-0.12973814054727553,0.0075487348791211835,0.005851539039798081
1761505967863838200,7.250838134765625,-0.1424579213887453,-0.002575513043813407,0.0036960415063425896
1761505967873874200,7.260874267578125,-0.1441091957271099,-0.00014180135717615486,0.0009268325213342905
1761505967883910100,7.27091015625,-0.13048866665363312,0.0014527012926526368,0.0047432124717161055
1761505967893946000,7.280946044921875,-0.14215923070311545,-0.0039931795557029545,-0.0007382511466741561
1761505967903982000,7.290982177734375,-0.14395897360146045,0.008632949919253587,0.0038300796821713447
1761505967914018000,7.30101806640625,-0.13512743237018585,-0.007206131986528635,0.002381670972146094
1761505967924054300,7.31105419921875,-0.13587152873575686,0.007841196753364055,0.008742913099750876
1761505967934090500,7.321090576171875,-0.13826806848347187,-0.002751600263081491,0.001154759525693953
1761505967944126500,7.33112646484375,-0.13946166218221187,-0.012494721647631376,-0.004468852509744465
1761505967954162400,7.341162353515625,-0.13527531640827656,-0.0009010587592609226,-0.004921674311161041
1761505967964198400,7.351198486328125,-0.13886661889851093,-0.0033134353969246147,0.000621237170882523
1761505967974234400,7.361234375,-0.13228314885497092,-0.003458378559257835,0.002134710473753512
1761505967984270300,7.371270263671875,-0.13333178112506866,0.009184775115735828,-0.006611161768063902
1761505967994306300,7.381306396484375,-0.14515432086586952,-0.005155026409309357,-0.001501344473659992
1761505968004342300,7.39134228515625,-0.14185995549559594,-0.005409841420594603,0.0021485928686335682
1761505968014378200,7.401378173828125,-0.12988953171670437,-0.008477412297669797,-0.002728000191785395
1761505968024414200,7.411414306640625,-0.13213409577310084,-0.00016558409156277774,0.0018668898504227399
1761505968034450200,7.4214501953125,-0.13169102818071843,-0.002699267287645489,0.0032328079087659716
1761505968044486400,7.431486328125,-0.12795125713050365,0.00043207127433270213,-0.0033192806158214806
1761505968054522400,7.4415224609375,-0.14276537990272045,-0.0023448643594048916,0.002716565482318401
1761505968064558300,7.451558349609375,-0.13722645047605037,0.0011172405268996953,-0.002069207489490509
1761505968074593500,7.461593505859375,-0.13318448160886764,-0.0035389147158712145,0.0027701953656971453
1761505968084629500,7.47162939453125,-0.1378296770662069,-0.0013161606324836612,0.00297390124425292
1761505968094665500,7.48166552734375,-0.13349486273229122,-0.0034109957535751164,0.002589066645130515
1761505968104701700,7.49170166015625,-0.1378390294164419,-0.007732567013427615,0.003605952070094645
1761505968114737700,7.501737548828125,-0.1363403152912855,-0.0021901121891103686,0.0011459186321124434
1761505968124773600,7.511773681640625,-0.1390244398087263,0.004102156355511397,0.0025105215162038804
1761505968134809900,7.521809814453125,-0.14067162249386309,-0.004877689038962125,-0.0013581731433048843
1761505968144845800,7.531845703125,-0.14082593627274034,-0.0023447364952415227,0.002082797623425722
1761505968154881800,7.5418818359375,-0.13154431318640708,0.007588591965474188,0.0005292115058749913
1761505968164917800,7.551917724609375,-0.13527882353961468,0.003620090193301439,0.0029257147209718823
1761505968174953700,7.56195361328125,-0.1328857909232378,0.0003219619633629918,0.002502338209748268
1761505968184990700,7.57199072265625,-0.13617957177162168,0.006266567847784608,-0.00019340368025004862
1761505968195026700,7.582026611328125,-0.13048808213174343,0.004779854687675833,0.005769596377387643
1761505968205062700,7.592062744140625,-0.14245967495441436,0.0058203584502451115,0.005951090424135327
1761505968215098600,7.6020986328125,-0.14246025947630406,0.0011639109465293586,0.004037292692065239
1761505968225134600,7.612134521484375,-0.1274994217097759,0.0006258402807638049,-0.005696311945468187
1761505968235170600,7.622170654296875,-0.12839607828855515,-0.009252378725539892,0.0005481354020535946
1761505968245206500,7.63220654296875,-0.1310895551562309,-0.0010125745760276913,0.0023338863076642156
1761505968255242500,7.642242431640625,-0.13347966516315937,-0.0007800261954776942,0.0036079613640904425
1761505968265278500,7.652278564453125,-0.1361748955965042,-0.008951149022951722,0.008191380164213478
1761505968275314700,7.662314697265625,-0.14470891518592835,-0.002840666786022484,0.008647197640314698
1761505968285350700,7.6723505859375,-0.14635492882728576,0.0024715229463763535,-0.004917326929606497
1761505968295386600,7.68238671875,-0.1346767659932375,-0.0013855908731929957,0.0012478811692446469
1761505968305422600,7.692422607421875,-0.14216039974689482,-0.012681311994604766,-0.000902903656475246
1761505968315458600,7.70245849609375,-0.13916998575925826,-0.00006517419070005416,0.0002674918297678232
1761505968325494500,7.71249462890625,-0.13213409577310084,0.0010738945755176246,0.0005195668946951627
1761505968335530800,7.72253076171875,-0.13512626332640648,-0.0035968371818773446,-0.005910429620184004
1761505968345566700,7.732566650390625,-0.1376736097216606,-0.0037155316581018267,-0.0008860255869105458
1761505968355602700,7.742602783203125,-0.14305880989134312,-0.005823591586947441,0.0010076426725834607
1761505968365638700,7.752638671875,-0.14022095611691474,-0.004319799427874386,0.005061923032067716
1761505968375674600,7.762674560546875,-0.1373784261673689,-0.0075044208133593195,0.000010156067833304404
1761505968385710600,7.772710693359375,-0.1409732357889414,-0.001733892854209989,0.005100939868204295
1761505968395746800,7.782746826171875,-0.12989888406693934,0.0026279556171037257,0.008277414479851723
1761505968405782800,7.79278271484375,-0.1394827049702406,-0.0014553316411562262,0.00835610573925078
1761505968415818800,7.80281884765625,-0.14293138411939144,-0.0033110790430568157,0.0010318272657692431
1761505968425854700,7.812854736328125,-0.12826456086337565,-0.0016118373771198092,0.010817819677665829
1761505968435890700,7.822890625,-0.14682254633903502,-0.0016567907636985183,0.003813530406169593
1761505968445926700,7.8329267578125,-0.13694704901278018,0.007238445087242871,0.005514306442067027
1761505968455962600,7.842962646484375,-0.1338005676805973,0.0010198993659578262,0.006110409171693027
1761505968465998600,7.85299853515625,-0.13484919995069503,0.0025828926326707004,-0.002579750827513635
1761505968476034600,7.86303466796875,-0.13170739479362964,0.0020655724939890206,0.005863631336390972
1761505968486070500,7.873070556640625,-0.12512509379386902,0.005320500903017818,0.005189714130200446
1761505968496106800,7.883106689453125,-0.1361918467313051,-0.001822246991097927,0.00041720249876379966
1761505968506142700,7.893142822265625,-0.1332002636998892,-0.0036273236516863104,0.003147906104288995
1761505968516178700,7.9031787109375,-0.136344991466403,-0.0035273156096227464,0.0036204920521005985
1761505968526214700,7.913214599609375,-0.13963994135856628,0.0023060667189769447,0.0060106751242652535
1761505968536250600,7.923250732421875,-0.1332084470063448,0.0008098733444698154,-0.002226516943052411
1761505968546286600,7.93328662109375,-0.1403922210305929,-0.006159527276735752,-0.004916450146771967
1761505968556322600,7.943322509765625,-0.1357563779234886,-0.0037574345710687336,0.0014474223293364048
1761505968566358500,7.953358642578125,-0.13291443249583243,0.0023904205341823397,0.003323299203813076
1761505968576394500,7.96339453125,-0.14069441884756087,0.00934241336286068,0.006990443409234285
1761505968586430500,7.973430419921875,-0.12363865462839603,-0.004857833561021835,0.0025789105772972107
1761505968596466400,7.983466552734375,-0.13815467123687267,-0.0023059571211226284,0.004859641925618052
1761505968606502700,7.993502685546875,-0.13964695562124252,-0.006083192371204495,0.004912395026162267
1761505968616538600,8.00353857421875,-0.13904840520620346,-0.007561831822711974,0.00010400836374610662
1761505968626573600,8.013573486328125,-0.13680150306224823,0.0003484663777984679,0.000054031742177903646
1761505968636609500,8.023609619140625,-0.13769640607535838,-0.0021489947274327278,-0.0019212869187816976
1761505968646645500,8.0336455078125,-0.13440671688020228,0.0016899806472472846,0.0010316811352968215
1761505968656681500,8.043681396484375,-0.13964578657746315,-0.0004278517569415271,0.0007064312363043427
1761505968666717400,8.053717529296875,-0.14204583345651625,0.003121200760453939,-0.00353584597595036
1761505968676753400,8.06375341796875,-0.14609306302070618,0.008384601181373,0.008990238924324512
1761505968686789600,8.07378955078125,-0.13427403041124344,0.0002129851635545492,0.004243007864616811
1761505968696825900,8.083825927734376,-0.1354734693288803,-0.0014947868687100708,-0.0006266805309802293
1761505968706861800,8.09386181640625,-0.13711656036078929,-0.0008152071067132055,-0.0014196210069581864
1761505968716897800,8.103897705078126,-0.14564648829698562,0.003958747563138604,0.0001087210714817047
1761505968726933800,8.113933837890626,-0.1369727679759264,0.0022697532965801656,0.007077756366506219
1761505968736969700,8.1239697265625,-0.13801672407090662,0.004392225343268365,0.008393624738045037
1761505968747005700,8.134005615234376,-0.13696458466947078,-0.008363795855361967,0.00678849109634757
1761505968757041700,8.144041748046876,-0.13172434592843055,0.002648596546333283,0.007640395217947661
1761505968767077600,8.15407763671875,-0.1279839903563261,0.004297477998211979,-0.0010932020641863346
1761505968777113600,8.164113525390626,-0.13067337557077408,0.00484504714468494,0.002562872757948935
1761505968787149600,8.174149658203126,-0.14353636427521704,-0.00970028688982129,0.009285020619817078
1761505968797185500,8.184185546875,-0.1270072542786598,-0.0010543861574493349,0.0019012305114418267
1761505968807221800,8.1942216796875,0.06131868431568145,0.017646587985474617,-0.08926536998134106
1761505968817257700,8.2042578125,0.15615502282977103,0.09555290755191817,-0.4361477665239945
1761505968827293700,8.214293701171876,-0.38015082522034643,-0.0627984928109683,0.15760171450674532
1761505968837329700,8.22432958984375,-0.5279968693882227,-0.07280190909951925,0.5141044645708054
1761505968847365600,8.23436572265625,-0.16009236227869986,-0.010135098110511899,0.01363267616899684
1761505968857401600,8.244401611328126,0.06172960320413112,0.06489204929042607,-0.35425394822396333
1761505968867437600,8.2544375,-0.3164788557767868,-0.06692514428691938,0.31812399263530966
1761505968877473500,8.2644736328125,-0.30394144576489923,-0.031808183399401606,0.11546769619770347
1761505968887509500,8.274509521484376,0.07652443675398826,0.07868879344733432,-0.25251933809611943
