time,seconds_elapsed,z,y,x
1761505960689296100,0.076296142578125,-1.0134735107421875,-0.019775390625,-0.0333404541015625
1761505960699332400,0.086332275390625,-1.013397216796875,-0.0200958251953125,-0.0325775146484375
1761505960709368300,0.096368408203125,-1.014556884765625,-0.0200958251953125,-0.0337066650390625
1761505960719404300,0.106404296875,-1.013031005859375,-0.019561767578125,-0.03228759765625
1761505960729440300,0.116440185546875,-1.0135040283203125,-0.0199127197265625,-0.0322265625
1761505960739476200,0.126476318359375,-1.013519287109375,-0.01983642578125,-0.0328369140625
1761505960749512200,0.13651220703125,-1.01361083984375,-0.0204620361328125,-0.032623291015625
1761505960759548200,0.146548095703125,-1.013885498046875,-0.0199432373046875,-0.032928466796875
1761505960769584000,0.156584228515625,-1.013336181640625,-0.020782470703125,-0.0337982177734375
1761505960779620000,0.1666201171875,-1.013336181640625,-0.019989013671875,-0.033416748046875
1761505960789656000,0.176656005859375,-1.0128631591796875,-0.0200653076171875,-0.033050537109375
1761505960799693000,0.186693115234375,-1.013458251953125,-0.019927978515625,-0.033203125
1761505960809729000,0.19672900390625,-1.013275146484375,-0.0197601318359375,-0.03216552734375
1761505960819765000,0.206764892578125,-1.0130615234375,-0.0196380615234375,-0.032958984375
1761505960829801000,0.216801025390625,-1.013397216796875,-0.02044677734375,-0.0328521728515625
1761505960839837200,0.226837158203125,-1.0135345458984375,-0.0195770263671875,-0.033416748046875
1761505960849873200,0.236873046875,-1.0129241943359375,-0.0208740234375,-0.03387451171875
1761505960859909400,0.246909423828125,-1.0126495361328125,-0.0197601318359375,-0.032745361328125
1761505960869945300,0.2569453125,-1.0126495361328125,-0.02001953125,-0.032806396484375
1761505960879981300,0.266981201171875,-1.0133209228515625,-0.019927978515625,-0.0323638916015625
1761505960890017300,0.277017333984375,-1.014007568359375,-0.0200653076171875,-0.032501220703125
1761505960900054300,0.28705419921875,-1.013519287109375,-0.0194091796875,-0.033203125
1761505960910090200,0.29709033203125,-1.01348876953125,-0.020416259765625,-0.0330657958984375
1761505960920126200,0.307126220703125,-1.0134124755859375,-0.019927978515625,-0.032745361328125
1761505960930162200,0.317162109375,-1.0129852294921875,-0.020721435546875,-0.0324249267578125
1761505960940198100,0.3271982421875,-1.013214111328125,-0.0204315185546875,-0.03277587890625
1761505960950234000,0.337234130859375,-1.01416015625,-0.0202789306640625,-0.0328521728515625
1761505960960270000,0.34727001953125,-1.0136260986328125,-0.019012451171875,-0.0327911376953125
1761505960970306000,0.35730615234375,-1.013702392578125,-0.020050048828125,-0.032958984375
1761505960980342300,0.36734228515625,-1.0128936767578125,-0.020294189453125,-0.0333251953125
1761505960990378200,0.377378173828125,-1.012939453125,-0.01995849609375,-0.0327911376953125
1761505961000415000,0.3874150390625,-1.01318359375,-0.0200347900390625,-0.0333404541015625
1761505961010451200,0.397451171875,-1.01239013671875,-0.0192718505859375,-0.032562255859375
1761505961020487200,0.407487060546875,-1.0134735107421875,-0.01904296875,-0.0326385498046875
1761505961030523400,0.4175234375,-1.0142669677734375,-0.0195465087890625,-0.032562255859375
1761505961040559400,0.427559326171875,-1.0135650634765625,-0.020111083984375,-0.0327606201171875
1761505961050595300,0.43759521484375,-1.012908935546875,-0.02020263671875,-0.032989501953125
1761505961060631300,0.44763134765625,-1.0120849609375,-0.019927978515625,-0.032745361328125
1761505961070668000,0.45766796875,-1.0133819580078125,-0.0196990966796875,-0.033447265625
1761505961080704000,0.4677041015625,-1.0125579833984375,-0.02032470703125,-0.032379150390625
1761505961090740000,0.477739990234375,-1.0135345458984375,-0.02044677734375,-0.032684326171875
1761505961100776000,0.48777587890625,-1.0114288330078125,-0.0198211669921875,-0.0329132080078125
1761505961110813200,0.497813232421875,-1.0128021240234375,-0.0206756591796875,-0.0334014892578125
1761505961120849200,0.50784912109375,-1.0133514404296875,-0.0204620361328125,-0.0338134765625
1761505961130885000,0.517885009765625,-1.0133819580078125,-0.020538330078125,-0.033050537109375
1761505961140921000,0.527921142578125,-1.01226806640625,-0.01995849609375,-0.0337066650390625
1761505961150957000,0.53795703125,-1.01287841796875,-0.020599365234375,-0.0325469970703125
1761505961160993000,0.547992919921875,-1.0121612548828125,-0.0197296142578125,-0.0330810546875
1761505961171029000,0.558029052734375,-1.0126190185546875,-0.0197601318359375,-0.0330810546875
1761505961181065000,0.56806494140625,-1.0131988525390625,-0.0204925537109375,-0.0334014892578125
1761505961191101200,0.57810107421875,-1.013031005859375,-0.020660400390625,-0.032440185546875
1761505961201137200,0.58813720703125,-1.0133514404296875,-0.0205078125,-0.0329132080078125
1761505961211174000,0.598173828125,-1.0134735107421875,-0.020538330078125,-0.032562255859375
1761505961221210000,0.608210205078125,-1.012939453125,-0.0206451416015625,-0.032440185546875
1761505961231246000,0.61824609375,-1.01275634765625,-0.019805908203125,-0.0331878662109375
1761505961241282000,0.628281982421875,-1.012298583984375,-0.019866943359375,-0.0337982177734375
1761505961251318000,0.638318115234375,-1.012359619140625,-0.0203094482421875,-0.0335540771484375
1761505961261354000,0.64835400390625,-1.0128326416015625,-0.019866943359375,-0.0331268310546875
1761505961271390000,0.658389892578125,-1.0118865966796875,-0.020050048828125,-0.0329132080078125
1761505961281426000,0.668426025390625,-1.012359619140625,-0.0201873779296875,-0.03302001953125
1761505961291462000,0.6784619140625,-1.0123291015625,-0.021453857421875,-0.032806396484375
1761505961301498000,0.688498046875,-1.0128936767578125,-0.0205841064453125,-0.032928466796875
1761505961311535000,0.69853515625,-1.0125732421875,-0.0198516845703125,-0.032928466796875
1761505961321571000,0.708571044921875,-1.0137481689453125,-0.01995849609375,-0.0324859619140625
1761505961331607000,0.71860693359375,-1.0128631591796875,-0.020355224609375,-0.03338623046875
1761505961341643000,0.72864306640625,-1.01318359375,-0.0198211669921875,-0.0330047607421875
1761505961351679000,0.738678955078125,-1.01275634765625,-0.0189056396484375,-0.0331268310546875
1761505961361715200,0.748715087890625,-1.012939453125,-0.020172119140625,-0.032989501953125
1761505961371751200,0.758751220703125,-1.0130767822265625,-0.01983642578125,-0.033172607421875
1761505961381787100,0.768787109375,-1.01287841796875,-0.0201873779296875,-0.0338897705078125
1761505961391823000,0.778822998046875,-1.0129241943359375,-0.020111083984375,-0.033447265625
1761505961401859000,0.788859130859375,-1.0132598876953125,-0.0203094482421875,-0.0328369140625
1761505961411896000,0.79889599609375,-1.012054443359375,-0.019744873046875,-0.0328826904296875
1761505961421932000,0.80893212890625,-1.0123443603515625,-0.0200653076171875,-0.032867431640625
1761505961431968000,0.818968017578125,-1.01275634765625,-0.0201263427734375,-0.0327606201171875
1761505961442004000,0.82900390625,-1.012847900390625,-0.020294189453125,-0.0335235595703125
1761505961452040000,0.8390400390625,-1.0122528076171875,-0.019500732421875,-0.0334014892578125
1761505961462076000,0.849075927734375,-1.0120086669921875,-0.019866943359375,-0.032257080078125
1761505961472111900,0.85911181640625,-1.013092041015625,-0.020050048828125,-0.0328216552734375
1761505961482148000,0.869148193359375,-1.0126800537109375,-0.019622802734375,-0.0334014892578125
1761505961492184000,0.87918408203125,-1.012725830078125,-0.01995849609375,-0.033294677734375
1761505961502220000,0.889219970703125,-1.012542724609375,-0.020233154296875,-0.0332794189453125
1761505961512257000,0.899257080078125,-1.0128631591796875,-0.0206298828125,-0.0328826904296875
1761505961522293000,0.90929296875,-1.0123443603515625,-0.0205230712890625,-0.0331268310546875
1761505961532329000,0.919328857421875,-1.01318359375,-0.019866943359375,-0.032958984375
1761505961542365200,0.929365234375,-1.0116119384765625,-0.0202484130859375,-0.0334625244140625
1761505961552401200,0.939401123046875,-1.0138397216796875,-0.0205841064453125,-0.0334320068359375
1761505961562437000,0.94943701171875,-1.013427734375,-0.0206756591796875,-0.03338623046875
1761505961572473000,0.95947314453125,-1.01300048828125,-0.0207061767578125,-0.0328521728515625
1761505961582509000,0.969509033203125,-1.0129547119140625,-0.0207672119140625,-0.0328826904296875
1761505961592545000,0.979544921875,-1.01318359375,-0.0202789306640625,-0.0338134765625
1761505961602581000,0.9895810546875,-1.01226806640625,-0.020263671875,-0.032867431640625
1761505961612618000,0.999617919921875,-1.0128173828125,-0.0201568603515625,-0.03277587890625
1761505961622654000,1.009654052734375,-1.0131072998046875,-0.0203094482421875,-0.033233642578125
1761505961632690000,1.01968994140625,-1.012420654296875,-0.02069091796875,-0.03265380859375
1761505961642726000,1.029725830078125,-1.0125579833984375,-0.019927978515625,-0.03192138671875
1761505961652762000,1.03976220703125,-1.011962890625,-0.01953125,-0.0329742431640625
1761505961662798000,1.049798095703125,-1.0132293701171875,-0.0196990966796875,-0.0327301025390625
1761505961672834000,1.059833984375,-1.0130767822265625,-0.020751953125,-0.032928466796875
1761505961682870300,1.069870361328125,-1.0123291015625,-0.0204010009765625,-0.0330657958984375
1761505961692906200,1.07990625,-1.012786865234375,-0.01934814453125,-0.0341644287109375
1761505961702943000,1.08994287109375,-1.0126800537109375,-0.020477294921875,-0.0330810546875
1761505961712979200,1.099979248046875,-1.013702392578125,-0.02081298828125,-0.032958984375
1761505961723015200,1.11001513671875,-1.013031005859375,-0.0201416015625,-0.032989501953125
1761505961733051100,1.120051025390625,-1.011688232421875,-0.0205841064453125,-0.033355712890625
1761505961743087000,1.130087158203125,-1.01263427734375,-0.0203857421875,-0.0333099365234375
1761505961753123000,1.140123046875,-1.0126800537109375,-0.0196075439453125,-0.032989501953125
1761505961763159000,1.150158935546875,-1.0120697021484375,-0.0197296142578125,-0.0333709716796875
1761505961773195000,1.160195068359375,-1.013580322265625,-0.0201416015625,-0.0330352783203125
1761505961783231000,1.17023095703125,-1.0136566162109375,-0.019989013671875,-0.0317230224609375
1761505961793267000,1.180266845703125,-1.013427734375,-0.019622802734375,-0.0331268310546875
1761505961803304000,1.190303955078125,-1.012969970703125,-0.01947021484375,-0.0333404541015625
1761505961813340000,1.20033984375,-1.0130615234375,-0.020416259765625,-0.032135009765625
1761505961823376000,1.2103759765625,-1.0135498046875,-0.0201263427734375,-0.0325164794921875
1761505961833412000,1.220412109375,-1.0126495361328125,-0.0191802978515625,-0.0336151123046875
1761505961843448000,1.230447998046875,-1.0120391845703125,-0.0198516845703125,-0.0332489013671875
1761505961853484000,1.240484130859375,-1.0133514404296875,-0.0204620361328125,-0.03302001953125
1761505961863520300,1.250520263671875,-1.0137176513671875,-0.02069091796875,-0.0325927734375
1761505961873556200,1.26055615234375,-1.0128631591796875,-0.02044677734375,-0.033050537109375
1761505961883592200,1.27059228515625,-1.012664794921875,-0.02044677734375,-0.03338623046875
1761505961893629200,1.280629150390625,-1.013671875,-0.0207977294921875,-0.0325164794921875
1761505961903665200,1.2906650390625,-1.012939453125,-0.01983642578125,-0.0325469970703125
1761505961913701000,1.300701171875,-1.01177978515625,-0.02001953125,-0.0319366455078125
1761505961923737000,1.310737060546875,-1.0133514404296875,-0.0203094482421875,-0.033355712890625
1761505961933773000,1.32077294921875,-1.0128631591796875,-0.019500732421875,-0.0335540771484375
1761505961943809000,1.33080908203125,-1.0129852294921875,-0.01904296875,-0.0330047607421875
1761505961953845000,1.340844970703125,-1.0130157470703125,-0.0196075439453125,-0.0330810546875
1761505961963881000,1.350880859375,-1.013397216796875,-0.01959228515625,-0.0334320068359375
1761505961973917000,1.3609169921875,-1.0129547119140625,-0.0198822021484375,-0.0335235595703125
1761505961983954000,1.370953857421875,-1.0140380859375,-0.0201416015625,-0.032501220703125
1761505961993990000,1.380989990234375,-1.0140533447265625,-0.0198516845703125,-0.0328216552734375
1761505962004026000,1.391026123046875,-1.01251220703125,-0.021087646484375,-0.0327911376953125
1761505962014062000,1.40106201171875,-1.013397216796875,-0.0209808349609375,-0.033966064453125
1761505962024098000,1.41109814453125,-1.0130615234375,-0.0202789306640625,-0.0328216552734375
1761505962034134300,1.42113427734375,-1.01348876953125,-0.0199737548828125,-0.033477783203125
1761505962044170200,1.431170166015625,-1.0132598876953125,-0.0201873779296875,-0.0333709716796875
1761505962054206200,1.441206298828125,-1.012542724609375,-0.0200347900390625,-0.0330810546875
1761505962064242200,1.4512421875,-1.0129547119140625,-0.020660400390625,-0.0338134765625
1761505962074278400,1.4612783203125,-1.013824462890625,-0.0198211669921875,-0.0333099365234375
1761505962084315400,1.4713154296875,-1.012939453125,-0.0193328857421875,-0.0330047607421875
1761505962094351400,1.481351318359375,-1.01324462890625,-0.02020263671875,-0.033477783203125
1761505962104387300,1.49138720703125,-1.013519287109375,-0.019622802734375,-0.032745361328125
1761505962114423300,1.50142333984375,-1.0128173828125,-0.0207061767578125,-0.0330810546875
1761505962124459300,1.511459228515625,-1.0136871337890625,-0.0205230712890625,-0.032806396484375
1761505962134495200,1.5214951171875,-1.01287841796875,-0.0200958251953125,-0.033172607421875
1761505962144531200,1.53153125,-1.0133514404296875,-0.019073486328125,-0.0326080322265625
1761505962154567200,1.541567138671875,-1.0135040283203125,-0.020416259765625,-0.03338623046875
1761505962164603100,1.55160302734375,-1.0128936767578125,-0.0207672119140625,-0.0327911376953125
1761505962174640000,1.56164013671875,-1.013641357421875,-0.019866943359375,-0.0320892333984375
1761505962184676000,1.571676025390625,-1.013519287109375,-0.019775390625,-0.03253173828125
1761505962194712000,1.581712158203125,-1.013427734375,-0.0204315185546875,-0.033203125
1761505962204748000,1.591748046875,-1.0135650634765625,-0.020050048828125,-0.0328521728515625
1761505962214784300,1.6017841796875,-1.0140380859375,-0.01959228515625,-0.033447265625
1761505962224820500,1.611820556640625,-1.01287841796875,-0.0198516845703125,-0.0324554443359375
1761505962234856400,1.6218564453125,-1.013427734375,-0.0194244384765625,-0.032440185546875
1761505962244892400,1.631892333984375,-1.0136566162109375,-0.019134521484375,-0.0326995849609375
1761505962254928400,1.641928466796875,-1.0139617919921875,-0.0207061767578125,-0.0338897705078125
1761505962264965400,1.65196533203125,-1.013336181640625,-0.020599365234375,-0.03326416015625
1761505962275001300,1.66200146484375,-1.0133514404296875,-0.020050048828125,-0.032989501953125
1761505962285037300,1.672037353515625,-1.0130767822265625,-0.01983642578125,-0.032958984375
1761505962295073300,1.6820732421875,-1.013397216796875,-0.0198822021484375,-0.03338623046875
1761505962305109200,1.692109130859375,-1.0135955810546875,-0.0210113525390625,-0.0328521728515625
1761505962315145200,1.702145263671875,-1.013031005859375,-0.020538330078125,-0.0330352783203125
1761505962325181200,1.71218115234375,-1.012420654296875,-0.020294189453125,-0.0328216552734375
1761505962335217200,1.722217041015625,-1.0130462646484375,-0.020263671875,-0.03302001953125
1761505962345253000,1.732253173828125,-1.0137481689453125,-0.020660400390625,-0.032806396484375
1761505962355290000,1.7422900390625,-1.012939453125,-0.0202789306640625,-0.0333099365234375
1761505962365326000,1.752326171875,-1.0135040283203125,-0.0202484130859375,-0.0325164794921875
1761505962375362000,1.762362060546875,-1.0131072998046875,-0.0197296142578125,-0.0323638916015625
1761505962385398300,1.772398193359375,-1.0140228271484375,-0.019317626953125,-0.033355712890625
1761505962395434500,1.7824345703125,-1.0126190185546875,-0.0201568603515625,-0.0325469970703125
1761505962405470500,1.792470458984375,-1.0125732421875,-0.020721435546875,-0.03253173828125
1761505962415506400,1.80250634765625,-1.013916015625,-0.0212554931640625,-0.0330352783203125
1761505962425542400,1.81254248046875,-1.0133056640625,-0.0202178955078125,-0.03289794921875
1761505962435578400,1.822578369140625,-1.013580322265625,-0.019927978515625,-0.032745361328125
1761505962445615400,1.832615478515625,-1.013458251953125,-0.019622802734375,-0.03253173828125
1761505962455651300,1.8426513671875,-1.0125885009765625,-0.0208892822265625,-0.0330047607421875
1761505962465687300,1.852687255859375,-1.013031005859375,-0.0207977294921875,-0.032867431640625
1761505962475723300,1.86272314453125,-1.0128326416015625,-0.02069091796875,-0.032806396484375
1761505962485759200,1.87275927734375,-1.013031005859375,-0.0205535888671875,-0.0336151123046875
1761505962495795200,1.882795166015625,-1.0142974853515625,-0.0217437744140625,-0.0328521728515625
1761505962505831200,1.8928310546875,-1.0135650634765625,-0.0203704833984375,-0.03289794921875
1761505962515867100,1.9028671875,-1.01434326171875,-0.020721435546875,-0.033660888671875
1761505962525903000,1.912903076171875,-1.0137786865234375,-0.0192718505859375,-0.033111572265625
1761505962535939300,1.922939208984375,-1.013702392578125,-0.02032470703125,-0.033203125
1761505962545976000,1.93297607421875,-1.0137176513671875,-0.01983642578125,-0.0326385498046875
1761505962556012000,1.943011962890625,-1.0131988525390625,-0.018951416015625,-0.03192138671875
1761505962566048300,1.95304833984375,-1.01434326171875,-0.0208740234375,-0.0331268310546875
1761505962576084500,1.96308447265625,-1.0142364501953125,-0.0207977294921875,-0.0328216552734375
1761505962586120400,1.973120361328125,-1.0140380859375,-0.019775390625,-0.032562255859375
1761505962596156400,1.983156494140625,-1.0126190185546875,-0.0194549560546875,-0.0325775146484375
1761505962606192400,1.9931923828125,-1.012786865234375,-0.0201263427734375,-0.033538818359375
1761505962616228400,2.003228271484375,-1.0133056640625,-0.02032470703125,-0.033477783203125
1761505962626264300,2.013264404296875,-1.013458251953125,-0.01971435546875,-0.032684326171875
1761505962636300300,2.02330029296875,-1.0145263671875,-0.020477294921875,-0.0328826904296875
1761505962646337300,2.033337158203125,-1.01300048828125,-0.020233154296875,-0.033355712890625
1761505962656373200,2.043373291015625,-1.01361083984375,-0.0197906494140625,-0.03277587890625
1761505962666409200,2.0534091796875,-1.0130615234375,-0.019622802734375,-0.032562255859375
1761505962676445200,2.063445068359375,-1.01263427734375,-0.020416259765625,-0.032989501953125
1761505962686481200,2.073481201171875,-1.0137939453125,-0.0209808349609375,-0.0323028564453125
1761505962696517000,2.08351708984375,-1.0132598876953125,-0.02044677734375,-0.033172607421875
1761505962706553300,2.09355322265625,-1.01287841796875,-0.019866943359375,-0.0326080322265625
1761505962716589300,2.10358935546875,-1.01336669921875,-0.019561767578125,-0.0330047607421875
1761505962726625300,2.113625244140625,-1.01397705078125,-0.0200347900390625,-0.03289794921875
1761505962736662300,2.123662353515625,-1.013214111328125,-0.0209808349609375,-0.03363037109375
1761505962746698500,2.133698486328125,-1.0139617919921875,-0.019805908203125,-0.03326416015625
1761505962756734500,2.143734375,-1.013519287109375,-0.0197906494140625,-0.032867431640625
1761505962766770400,2.1537705078125,-1.0140838623046875,-0.0196990966796875,-0.032989501953125
1761505962776806400,2.163806396484375,-1.01416015625,-0.0206451416015625,-0.03277587890625
1761505962786842400,2.17384228515625,-1.013671875,-0.0193939208984375,-0.0333251953125
1761505962796878300,2.18387841796875,-1.0143890380859375,-0.020233154296875,-0.0325775146484375
1761505962806914300,2.193914306640625,-1.01336669921875,-0.0201263427734375,-0.0327606201171875
1761505962816950300,2.2039501953125,-1.013580322265625,-0.0201263427734375,-0.0322723388671875
1761505962826986200,2.213986328125,-1.01165771484375,-0.020233154296875,-0.0332489013671875
1761505962837023200,2.224023193359375,-1.0139617919921875,-0.0197601318359375,-0.033447265625
1761505962847059200,2.23405908203125,-1.0139007568359375,-0.0210418701171875,-0.0328369140625
1761505962857095200,2.24409521484375,-1.01318359375,-0.02001953125,-0.03338623046875
1761505962867131100,2.254131103515625,-1.01287841796875,-0.0202484130859375,-0.033447265625
1761505962877167000,2.2641669921875,-1.013214111328125,-0.0192718505859375,-0.0327301025390625
1761505962887203300,2.274203369140625,-1.0133514404296875,-0.0201263427734375,-0.033172607421875
1761505962897239300,2.2842392578125,-1.0138397216796875,-0.020233154296875,-0.033203125
1761505962907275300,2.294275146484375,-1.014007568359375,-0.0205535888671875,-0.03314208984375
1761505962917311200,2.304311279296875,-1.0136566162109375,-0.0199432373046875,-0.03277587890625
1761505962927348500,2.314348388671875,-1.0139617919921875,-0.0207061767578125,-0.03302001953125
1761505962937384400,2.324384521484375,-1.013763427734375,-0.0204925537109375,-0.0328369140625
1761505962947420400,2.33442041015625,-1.013763427734375,-0.0200653076171875,-0.0334625244140625
1761505962957456400,2.344456298828125,-1.0134124755859375,-0.018798828125,-0.032928466796875
1761505962967492400,2.354492431640625,-1.01373291015625,-0.019622802734375,-0.0333251953125
1761505962977528300,2.3645283203125,-1.0140228271484375,-0.020111083984375,-0.0336151123046875
1761505962987564300,2.374564208984375,-1.0132293701171875,-0.019775390625,-0.0328826904296875
1761505962997600300,2.384600341796875,-1.0138702392578125,-0.0201873779296875,-0.033477783203125
1761505963007636200,2.39463623046875,-1.0140228271484375,-0.0204620361328125,-0.03314208984375
1761505963017672200,2.404672119140625,-1.01324462890625,-0.0203094482421875,-0.032135009765625
1761505963027708400,2.41470849609375,-1.01470947265625,-0.0204620361328125,-0.0324249267578125
1761505963037745200,2.4247451171875,-1.013580322265625,-0.020294189453125,-0.03314208984375
1761505963047781000,2.434781005859375,-1.012939453125,-0.0192718505859375,-0.033172607421875
1761505963057817300,2.4448173828125,-1.0131683349609375,-0.020111083984375,-0.0334320068359375
1761505963067852500,2.4548525390625,-1.01318359375,-0.020233154296875,-0.033660888671875
1761505963077888500,2.464888427734375,-1.013031005859375,-0.020904541015625,-0.03302001953125
1761505963087924500,2.474924560546875,-1.013580322265625,-0.020538330078125,-0.0338897705078125
1761505963097960400,2.48496044921875,-1.013092041015625,-0.0206451416015625,-0.0333099365234375
1761505963107996400,2.494996337890625,-1.0141448974609375,-0.0198516845703125,-0.03314208984375
1761505963118032400,2.505032470703125,-1.0130615234375,-0.0201568603515625,-0.0326080322265625
1761505963128068400,2.515068359375,-1.0137786865234375,-0.0196990966796875,-0.033050537109375
1761505963138105600,2.525105712890625,-1.0132598876953125,-0.020294189453125,-0.0328521728515625
1761505963148141600,2.5351416015625,-1.0137481689453125,-0.0203399658203125,-0.0329742431640625
1761505963158177500,2.545177490234375,-1.0130615234375,-0.019134521484375,-0.0332183837890625
1761505963168213500,2.555213623046875,-1.013031005859375,-0.0203857421875,-0.0330047607421875
1761505963178249500,2.56524951171875,-1.0136871337890625,-0.0200653076171875,-0.0325469970703125
1761505963188285700,2.57528564453125,-1.0141754150390625,-0.02117919921875,-0.0330810546875
1761505963198321700,2.58532177734375,-1.0135040283203125,-0.0198211669921875,-0.0329132080078125
1761505963208357600,2.595357666015625,-1.0132598876953125,-0.02032470703125,-0.0335235595703125
1761505963218393600,2.6053935546875,-1.012420654296875,-0.0199127197265625,-0.0336151123046875
1761505963228429600,2.6154296875,-1.013336181640625,-0.0196990966796875,-0.0330810546875
1761505963238466600,2.625466552734375,-1.0141754150390625,-0.0197906494140625,-0.0327301025390625
1761505963248502500,2.63550244140625,-1.0139923095703125,-0.02020263671875,-0.0326995849609375
1761505963258538500,2.64553857421875,-1.0130462646484375,-0.0204925537109375,-0.03253173828125
1761505963268574500,2.655574462890625,-1.013916015625,-0.0205841064453125,-0.0330657958984375
1761505963278610400,2.6656103515625,-1.013824462890625,-0.0203857421875,-0.0329742431640625
1761505963288646400,2.675646484375,-1.0131683349609375,-0.01947021484375,-0.03253173828125
1761505963298682400,2.685682373046875,-1.014251708984375,-0.020660400390625,-0.032806396484375
1761505963308718300,2.69571826171875,-1.0134429931640625,-0.020294189453125,-0.03240966796875
1761505963318754600,2.705754638671875,-1.0135955810546875,-0.01983642578125,-0.0320587158203125
1761505963328790800,2.715790771484375,-1.0141448974609375,-0.0202484130859375,-0.0330352783203125
1761505963338826800,2.72582666015625,-1.0136566162109375,-0.02069091796875,-0.032470703125
1761505963348863500,2.735863525390625,-1.0138397216796875,-0.02142333984375,-0.0322265625
1761505963358899700,2.745899658203125,-1.014129638671875,-0.019989013671875,-0.0336456298828125
1761505963368935700,2.755935791015625,-1.013824462890625,-0.0207672119140625,-0.0333251953125
1761505963378971600,2.7659716796875,-1.0143280029296875,-0.0205230712890625,-0.0330657958984375
1761505963389007600,2.776007568359375,-1.014190673828125,-0.0202789306640625,-0.0323486328125
1761505963399043600,2.786043701171875,-1.01287841796875,-0.0202178955078125,-0.033599853515625
1761505963409079600,2.79607958984375,-1.014007568359375,-0.0194549560546875,-0.0330047607421875
1761505963419115500,2.806115478515625,-1.0135345458984375,-0.02008056640625,-0.032867431640625
1761505963429151500,2.8161513671875,-1.0130615234375,-0.0197906494140625,-0.0327606201171875
1761505963439187500,2.8261875,-1.0128326416015625,-0.0209808349609375,-0.0334014892578125
1761505963449224400,2.836224365234375,-1.0131072998046875,-0.0197296142578125,-0.033111572265625
1761505963459260400,2.846260498046875,-1.0126190185546875,-0.0204620361328125,-0.0323944091796875
1761505963469296400,2.85629638671875,-1.014007568359375,-0.020782470703125,-0.032806396484375
1761505963479332400,2.866332275390625,-1.012786865234375,-0.0196990966796875,-0.0330810546875
1761505963489368300,2.876368408203125,-1.0139923095703125,-0.0201873779296875,-0.03411865234375
1761505963499404500,2.886404541015625,-1.012725830078125,-0.0197906494140625,-0.0334320068359375
1761505963509440800,2.896440673828125,-1.013427734375,-0.020843505859375,-0.033416748046875
1761505963519476700,2.906476806640625,-1.0128631591796875,-0.0197601318359375,-0.0331573486328125
1761505963529512700,2.9165126953125,-1.0124969482421875,-0.019805908203125,-0.0323944091796875
1761505963539548700,2.926548583984375,-1.014129638671875,-0.0196380615234375,-0.0332489013671875
1761505963549584600,2.936584716796875,-1.0143890380859375,-0.01971435546875,-0.0326690673828125
1761505963559621600,2.94662158203125,-1.0136871337890625,-0.019805908203125,-0.032958984375
1761505963569657600,2.95665771484375,-1.0133056640625,-0.0199737548828125,-0.0331878662109375
1761505963579693600,2.966693603515625,-1.0140533447265625,-0.0204315185546875,-0.0330657958984375
1761505963589729500,2.9767294921875,-1.0131683349609375,-0.02020263671875,-0.0325927734375
1761505963599765500,2.986765625,-1.013671875,-0.019561767578125,-0.0329437255859375
1761505963609801500,2.996801513671875,-1.0128936767578125,-0.019866943359375,-0.0328369140625
1761505963619837400,3.00683740234375,-1.014007568359375,-0.020599365234375,-0.032501220703125
1761505963629873400,3.016873291015625,-1.013763427734375,-0.02032470703125,-0.033477783203125
1761505963639909600,3.02690966796875,-1.013214111328125,-0.0200653076171875,-0.032989501953125
1761505963649945600,3.036945556640625,-1.0142059326171875,-0.019775390625,-0.032073974609375
1761505963659981600,3.046981689453125,-1.0134124755859375,-0.02130126953125,-0.0330963134765625
1761505963670018600,3.0570185546875,-1.0126495361328125,-0.0203094482421875,-0.03271484375
1761505963680054800,3.0670546875,-1.0140838623046875,-0.019378662109375,-0.032867431640625
1761505963690090800,3.0770908203125,-1.012908935546875,-0.0206146240234375,-0.0334014892578125
1761505963700126700,3.087126708984375,-1.0134429931640625,-0.020751953125,-0.033416748046875
1761505963710162700,3.09716259765625,-1.013641357421875,-0.01934814453125,-0.0334625244140625
1761505963720198700,3.10719873046875,-1.0130157470703125,-0.019866943359375,-0.03338623046875
1761505963730234600,3.117234619140625,-1.012725830078125,-0.02020263671875,-0.0327606201171875
1761505963740270600,3.1272705078125,-1.01220703125,-0.02008056640625,-0.032958984375
1761505963750306600,3.137306640625,-1.0131378173828125,-0.0204010009765625,-0.0332489013671875
1761505963760342500,3.147342529296875,-1.0142974853515625,-0.01910400390625,-0.032958984375
1761505963770378500,3.15737841796875,-1.0146484375,-0.01995849609375,-0.0328216552734375
1761505963780415500,3.16741552734375,-1.0134735107421875,-0.0208892822265625,-0.0324554443359375
1761505963790451500,3.177451416015625,-1.0135955810546875,-0.0194854736328125,-0.0326385498046875
1761505963800487400,3.1874873046875,-1.013946533203125,-0.0200347900390625,-0.033111572265625
1761505963810523400,3.1975234375,-1.01385498046875,-0.020294189453125,-0.0331878662109375
1761505963820559600,3.2075595703125,-1.0146026611328125,-0.019439697265625,-0.0325927734375
1761505963830595600,3.217595703125,-1.0143280029296875,-0.019927978515625,-0.0332183837890625
1761505963840631600,3.227631591796875,-1.0138702392578125,-0.0202484130859375,-0.0331573486328125
1761505963850667500,3.23766748046875,-1.0126190185546875,-0.0189361572265625,-0.032470703125
1761505963860703500,3.247703369140625,-1.01446533203125,-0.0192108154296875,-0.0326995849609375
1761505963870739500,3.257739501953125,-1.013336181640625,-0.020172119140625,-0.032562255859375
1761505963880775400,3.267775390625,-1.013580322265625,-0.02032470703125,-0.03326416015625
1761505963890811400,3.277811279296875,-1.0136260986328125,-0.01947021484375,-0.032745361328125
1761505963900848600,3.2878486328125,-1.0139312744140625,-0.019866943359375,-0.0333099365234375
1761505963910884600,3.297884521484375,-1.014129638671875,-0.0207672119140625,-0.0330963134765625
1761505963920920600,3.307920654296875,-1.0133514404296875,-0.020599365234375,-0.0330657958984375
1761505963930956500,3.31795654296875,-1.0146636962890625,-0.019439697265625,-0.032379150390625
1761505963940992500,3.327992431640625,-1.0134429931640625,-0.019378662109375,-0.032440185546875
1761505963951028500,3.338028564453125,-1.01214599609375,-0.0200653076171875,-0.03289794921875
1761505963961064700,3.348064697265625,-1.01287841796875,-0.0206298828125,-0.0330810546875
1761505963971100700,3.3581005859375,-1.013214111328125,-0.020843505859375,-0.0327911376953125
1761505963981136600,3.36813671875,-1.0123138427734375,-0.0201416015625,-0.03240966796875
1761505963991172600,3.378172607421875,-1.01263427734375,-0.0198516845703125,-0.0332794189453125
1761505964001208600,3.38820849609375,-1.013885498046875,-0.0200958251953125,-0.03289794921875
1761505964011244500,3.39824462890625,-1.013458251953125,-0.0189208984375,-0.0332794189453125
1761505964021281500,3.408281494140625,-1.0137786865234375,-0.0203704833984375,-0.0330810546875
1761505964031317500,3.4183173828125,-1.013885498046875,-0.0206451416015625,-0.0326080322265625
1761505964041353500,3.428353515625,-1.01446533203125,-0.019775390625,-0.0332489013671875
1761505964051389400,3.438389404296875,-1.0137481689453125,-0.0203399658203125,-0.0332489013671875
1761505964061425400,3.44842529296875,-1.013092041015625,-0.019683837890625,-0.0327606201171875
1761505964071462100,3.458462158203125,-1.0135040283203125,-0.019073486328125,-0.0328369140625
1761505964081498000,3.468498046875,-1.0144195556640625,-0.0194549560546875,-0.0324249267578125
1761505964091534000,3.4785341796875,-1.0136566162109375,-0.0200958251953125,-0.0333251953125
1761505964101570000,3.488570068359375,-1.013092041015625,-0.0211181640625,-0.0335540771484375
1761505964111606000,3.49860595703125,-1.012786865234375,-0.0202484130859375,-0.0341033935546875
1761505964121642200,3.508642333984375,-1.0132598876953125,-0.02044677734375,-0.032623291015625
1761505964131678200,3.51867822265625,-1.0144195556640625,-0.0200653076171875,-0.0325775146484375
1761505964141715000,3.52871484375,-1.0131683349609375,-0.01959228515625,-0.033050537109375
1761505964151751200,3.538751220703125,-1.013702392578125,-0.0196685791015625,-0.032989501953125
1761505964161787100,3.548787109375,-1.012786865234375,-0.02069091796875,-0.03338623046875
1761505964171823000,3.558822998046875,-1.0133056640625,-0.020172119140625,-0.0331878662109375
1761505964181859000,3.568859130859375,-1.0143585205078125,-0.020355224609375,-0.0328826904296875
1761505964191895000,3.57889501953125,-1.0133819580078125,-0.02142333984375,-0.032501220703125
1761505964201931000,3.588930908203125,-1.0135498046875,-0.0207672119140625,-0.032440185546875
1761505964211967000,3.598967041015625,-1.013397216796875,-0.021026611328125,-0.033294677734375
1761505964222003000,3.6090029296875,-1.013580322265625,-0.01971435546875,-0.0333251953125
1761505964232039000,3.619038818359375,-1.012359619140625,-0.01959228515625,-0.032958984375
1761505964242075000,3.629074951171875,-1.01361083984375,-0.020233154296875,-0.033111572265625
1761505964252110800,3.63911083984375,-1.01361083984375,-0.0190887451171875,-0.0323944091796875
1761505964262147000,3.64914697265625,-1.0130462646484375,-0.020477294921875,-0.0319061279296875
1761505964272184000,3.65918408203125,-1.0134735107421875,-0.019866943359375,-0.03253173828125
1761505964282220000,3.669219970703125,-1.0146484375,-0.0208282470703125,-0.0330352783203125
1761505964292256000,3.679256103515625,-1.0132598876953125,-0.02069091796875,-0.033203125
1761505964302292200,3.689292236328125,-1.014007568359375,-0.0202484130859375,-0.0332489013671875
1761505964312328200,3.699328125,-1.0127716064453125,-0.0202484130859375,-0.033599853515625
1761505964322364200,3.7093642578125,-1.01361083984375,-0.020263671875,-0.0333251953125
1761505964332400000,3.719400146484375,-1.0138397216796875,-0.0203704833984375,-0.0323944091796875
1761505964342436000,3.72943603515625,-1.01336669921875,-0.02044677734375,-0.0329132080078125
1761505964352472000,3.73947216796875,-1.0127716064453125,-0.0196075439453125,-0.0323333740234375
1761505964362508000,3.749508056640625,-1.0131072998046875,-0.020233154296875,-0.0322418212890625
1761505964372544000,3.7595439453125,-1.0138092041015625,-0.0201568603515625,-0.0325927734375
1761505964382580000,3.769580078125,-1.013519287109375,-0.019500732421875,-0.0326385498046875
1761505964392617000,3.779616943359375,-1.013580322265625,-0.02001953125,-0.03338623046875
1761505964402653000,3.78965283203125,-1.01348876953125,-0.01983642578125,-0.0323638916015625
1761505964412689000,3.79968896484375,-1.01324462890625,-0.0193328857421875,-0.0326385498046875
1761505964422724900,3.809724853515625,-1.0132598876953125,-0.0203857421875,-0.032745361328125
1761505964432760800,3.8197607421875,-1.0128021240234375,-0.0195770263671875,-0.0329132080078125
1761505964442797000,3.829797119140625,-1.01318359375,-0.02001953125,-0.032958984375
1761505964452833000,3.8398330078125,-1.013214111328125,-0.0200958251953125,-0.0326690673828125
1761505964462869200,3.849869140625,-1.0137786865234375,-0.02069091796875,-0.033111572265625
1761505964472905200,3.8599052734375,-1.0138092041015625,-0.0204315185546875,-0.0330657958984375
1761505964482941200,3.869941162109375,-1.013397216796875,-0.0204315185546875,-0.0330810546875
1761505964492977200,3.87997705078125,-1.01275634765625,-0.020233154296875,-0.0336151123046875
1761505964503013000,3.89001318359375,-1.0140228271484375,-0.0206756591796875,-0.0332183837890625
1761505964513049000,3.900049072265625,-1.01336669921875,-0.020263671875,-0.03363037109375
1761505964523085000,3.9100849609375,-1.014190673828125,-0.0195770263671875,-0.0326995849609375
1761505964533122000,3.9201220703125,-1.0139007568359375,-0.0204315185546875,-0.0331573486328125
1761505964543158000,3.930157958984375,-1.0137939453125,-0.0207672119140625,-0.0329437255859375
1761505964553194000,3.940194091796875,-1.0146331787109375,-0.0196990966796875,-0.0328216552734375
1761505964563230000,3.95022998046875,-1.01348876953125,-0.0202178955078125,-0.032562255859375
1761505964573266000,3.960265869140625,-1.0135498046875,-0.020416259765625,-0.032501220703125
1761505964583302100,3.97030224609375,-1.013671875,-0.020355224609375,-0.0329132080078125
1761505964593338000,3.980338134765625,-1.0143890380859375,-0.020416259765625,-0.0331268310546875
1761505964603374000,3.9903740234375,-1.0138092041015625,-0.0199127197265625,-0.0326995849609375
1761505964613410000,4.00041015625,-1.0135650634765625,-0.0195770263671875,-0.03253173828125
1761505964623445000,4.010445068359375,-1.013153076171875,-0.0203094482421875,-0.032623291015625
1761505964633481000,4.02048095703125,-1.0126190185546875,-0.01995849609375,-0.033355712890625
1761505964643517000,4.030516845703125,-1.0133209228515625,-0.02001953125,-0.032989501953125
1761505964653553000,4.040552978515625,-1.013580322265625,-0.019256591796875,-0.0323028564453125
1761505964663589000,4.050589111328125,-1.0128326416015625,-0.0199127197265625,-0.0325164794921875
1761505964673625000,4.060625,-1.0130462646484375,-0.01983642578125,-0.033233642578125
1761505964683661000,4.0706611328125,-1.0138397216796875,-0.0205078125,-0.0331268310546875
1761505964693697000,4.080697021484375,-1.01348876953125,-0.0200042724609375,-0.032318115234375
1761505964703733000,4.09073291015625,-1.013427734375,-0.019744873046875,-0.0321044921875
1761505964713769000,4.10076904296875,-1.0116424560546875,-0.0192718505859375,-0.0328216552734375
1761505964723805000,4.110804931640625,-1.01300048828125,-0.019989013671875,-0.03326416015625
1761505964733842200,4.12084228515625,-1.0140838623046875,-0.0199127197265625,-0.031890869140625
1761505964743878100,4.130878173828125,-1.0131072998046875,-0.0197601318359375,-0.0325164794921875
1761505964753914000,4.1409140625,-1.013092041015625,-0.019775390625,-0.0325164794921875
1761505964763950000,4.1509501953125,-1.01348876953125,-0.0201416015625,-0.0328826904296875
1761505964773986000,4.160986083984375,-1.012847900390625,-0.02099609375,-0.032623291015625
1761505964784022000,4.17102197265625,-1.013031005859375,-0.019744873046875,-0.03326416015625
1761505964794058000,4.18105810546875,-1.0126495361328125,-0.019927978515625,-0.0332183837890625
1761505964804094000,4.191093994140625,-1.0133056640625,-0.019989013671875,-0.033111572265625
1761505964814130200,4.201130126953125,-1.01318359375,-0.021148681640625,-0.0328521728515625
1761505964824166100,4.211166259765625,-1.0137176513671875,-0.0205841064453125,-0.0330810546875
1761505964834202000,4.2212021484375,-1.012237548828125,-0.0198211669921875,-0.0327911376953125
1761505964844238000,4.231238037109375,-1.0126495361328125,-0.020111083984375,-0.0334320068359375
1761505964854274000,4.241274169921875,-1.013702392578125,-0.0198211669921875,-0.0328826904296875
1761505964864310000,4.25131005859375,-1.0136871337890625,-0.020355224609375,-0.033172607421875
1761505964874346000,4.261345947265625,-1.0126953125,-0.020111083984375,-0.0329437255859375
1761505964884383000,4.271383056640625,-1.013214111328125,-0.0208587646484375,-0.032562255859375
1761505964894419000,4.2814189453125,-1.0130767822265625,-0.0212554931640625,-0.0331573486328125
1761505964904455000,4.291454833984375,-1.012847900390625,-0.0198516845703125,-0.03302001953125
1761505964914491000,4.301490966796875,-1.0136871337890625,-0.0194091796875,-0.0325775146484375
1761505964924527000,4.311527099609375,-1.0139923095703125,-0.0194244384765625,-0.0334014892578125
1761505964934563000,4.32156298828125,-1.01336669921875,-0.0204010009765625,-0.0322418212890625
1761505964944599000,4.33159912109375,-1.0133514404296875,-0.0197296142578125,-0.0333099365234375
1761505964954635300,4.34163525390625,-1.0137176513671875,-0.020721435546875,-0.0333404541015625
1761505964964671200,4.351671142578125,-1.0135040283203125,-0.0200042724609375,-0.032928466796875
1761505964974707200,4.361707275390625,-1.0135345458984375,-0.0194854736328125,-0.032745361328125
1761505964984743200,4.3717431640625,-1.01300048828125,-0.02008056640625,-0.0332183837890625
1761505964994779100,4.381779052734375,-1.0135498046875,-0.0199127197265625,-0.0328216552734375
1761505965004815000,4.391815185546875,-1.0132904052734375,-0.0199127197265625,-0.0323028564453125
1761505965014851000,4.40185107421875,-1.013885498046875,-0.0202484130859375,-0.0331573486328125
1761505965024887000,4.411886962890625,-1.014007568359375,-0.0194091796875,-0.032867431640625
1761505965034924000,4.421924072265625,-1.0135498046875,-0.0194854736328125,-0.0322418212890625
1761505965044960000,4.4319599609375,-1.013092041015625,-0.020172119140625,-0.032684326171875
1761505965054996000,4.441995849609375,-1.01336669921875,-0.0200347900390625,-0.0322113037109375
1761505965065032000,4.452031982421875,-1.012908935546875,-0.020111083984375,-0.03277587890625
1761505965075068200,4.462068115234375,-1.0138092041015625,-0.02081298828125,-0.0331573486328125
1761505965085104000,4.472104248046875,-1.01446533203125,-0.0194549560546875,-0.0330810546875
1761505965095140000,4.48214013671875,-1.012237548828125,-0.0200653076171875,-0.0330963134765625
1761505965105176300,4.49217626953125,-1.012969970703125,-0.0211029052734375,-0.0330047607421875
1761505965115212300,4.50221240234375,-1.013519287109375,-0.019683837890625,-0.0332183837890625
1761505965125248300,4.512248291015625,-1.012725830078125,-0.020843505859375,-0.0338287353515625
1761505965135284500,4.522284423828125,-1.013458251953125,-0.0208587646484375,-0.033416748046875
1761505965145320400,4.532320556640625,-1.013397216796875,-0.0207366943359375,-0.032928466796875
1761505965155356400,4.5423564453125,-1.012176513671875,-0.020782470703125,-0.0331268310546875
1761505965165392400,4.552392333984375,-1.0128326416015625,-0.0200347900390625,-0.032928466796875
1761505965175428400,4.562428466796875,-1.0134429931640625,-0.01983642578125,-0.032745361328125
1761505965185465300,4.57246533203125,-1.013885498046875,-0.0194244384765625,-0.032958984375
1761505965195501300,4.582501220703125,-1.01348876953125,-0.0208740234375,-0.03228759765625
1761505965205538300,4.592538330078125,-1.0127410888671875,-0.01934814453125,-0.033599853515625
1761505965215574300,4.60257421875,-1.0132904052734375,-0.01983642578125,-0.032928466796875
1761505965225610200,4.6126103515625,-1.0139312744140625,-0.020599365234375,-0.03289794921875
1761505965235646200,4.622646240234375,-1.0130767822265625,-0.0198974609375,-0.032958984375
1761505965245682200,4.63268212890625,-1.012969970703125,-0.020172119140625,-0.0327911376953125
1761505965255718100,4.64271826171875,-1.0146484375,-0.01953125,-0.0334014892578125
1761505965265754000,4.652754150390625,-1.0135040283203125,-0.01983642578125,-0.03289794921875
1761505965275790300,4.662790283203125,-1.0127105712890625,-0.02008056640625,-0.032928466796875
1761505965285826300,4.672826416015625,-1.01361083984375,-0.01971435546875,-0.0326690673828125
1761505965295862300,4.6828623046875,-1.013916015625,-0.0201416015625,-0.0323944091796875
1761505965305898200,4.692898193359375,-1.0123748779296875,-0.019439697265625,-0.0320587158203125
1761505965315934500,4.7029345703125,-1.0129852294921875,-0.020538330078125,-0.0326690673828125
1761505965325971500,4.712971435546875,-1.0122222900390625,-0.0204620361328125,-0.03277587890625
1761505965336007400,4.72300732421875,-1.0136566162109375,-0.0206146240234375,-0.0332794189453125
1761505965346043400,4.73304345703125,-1.0131378173828125,-0.02056884765625,-0.033172607421875
1761505965356079400,4.743079345703125,-1.01361083984375,-0.0205230712890625,-0.0329437255859375
1761505965366115300,4.753115234375,-1.01275634765625,-0.0203857421875,-0.0328216552734375
1761505965376151300,4.7631513671875,-1.0135040283203125,-0.0196990966796875,-0.0328216552734375
1761505965386187300,4.773187255859375,-1.014251708984375,-0.0203704833984375,-0.0325469970703125
1761505965396223200,4.78322314453125,-1.0128326416015625,-0.0194549560546875,-0.0330657958984375
1761505965406259200,4.79325927734375,-1.0124969482421875,-0.021087646484375,-0.0326385498046875
1761505965416295200,4.803295166015625,-1.011993408203125,-0.02008056640625,-0.0329437255859375
1761505965426331400,4.813331298828125,-1.0140533447265625,-0.020172119140625,-0.032379150390625
1761505965436367400,4.823367431640625,-1.01263427734375,-0.020599365234375,-0.033355712890625
1761505965446403300,4.8334033203125,-1.0128936767578125,-0.0198822021484375,-0.03265380859375
1761505965456439300,4.843439208984375,-1.012725830078125,-0.0193328857421875,-0.0326690673828125
1761505965466475300,4.853475341796875,-1.013336181640625,-0.0200347900390625,-0.033111572265625
1761505965476512300,4.86351220703125,-1.01239013671875,-0.0204925537109375,-0.0328826904296875
1761505965486548500,4.873548583984375,-1.0120697021484375,-0.0195465087890625,-0.0335845947265625
1761505965496584400,4.88358447265625,-1.013275146484375,-0.020233154296875,-0.03399658203125
1761505965506620400,4.893620361328125,-1.013702392578125,-0.0197296142578125,-0.0339202880859375
1761505965516656400,4.903656494140625,-1.0131988525390625,-0.0205535888671875,-0.0335540771484375
1761505965526692400,4.9136923828125,-1.012603759765625,-0.0200347900390625,-0.0329742431640625
1761505965536728300,4.923728271484375,-1.0132598876953125,-0.01885986328125,-0.0328369140625
1761505965546764300,4.933764404296875,-1.01312255859375,-0.0210113525390625,-0.0336151123046875
1761505965556800300,4.94380029296875,-1.0132904052734375,-0.0204010009765625,-0.032958984375
1761505965566836500,4.95383642578125,-1.0131988525390625,-0.02081298828125,-0.0332183837890625
1761505965576872400,4.96387255859375,-1.012939453125,-0.0195465087890625,-0.032745361328125
1761505965586908400,4.973908447265625,-1.0128173828125,-0.01983642578125,-0.03277587890625
1761505965596944400,4.9839443359375,-1.013519287109375,-0.0199127197265625,-0.0336761474609375
1761505965606980400,4.99398046875,-1.0132598876953125,-0.0202789306640625,-0.0328369140625
1761505965617016300,5.004016357421875,-1.0132293701171875,-0.01971435546875,-0.0324859619140625
1761505965627052300,5.01405224609375,-1.0132293701171875,-0.0194244384765625,-0.031951904296875
1761505965637089300,5.02408935546875,-1.0127410888671875,-0.0195159912109375,-0.0326995849609375
1761505965647125200,5.034125244140625,-1.0128021240234375,-0.0197906494140625,-0.0323028564453125
1761505965657161200,5.0441611328125,-1.01312255859375,-0.019775390625,-0.0327606201171875
1761505965667197200,5.054197265625,-1.013671875,-0.020477294921875,-0.032958984375
1761505965677233200,5.064233154296875,-1.0135650634765625,-0.0199737548828125,-0.03240966796875
1761505965687269000,5.07426904296875,-1.013031005859375,-0.0190887451171875,-0.03326416015625
1761505965697305000,5.08430517578125,-1.013885498046875,-0.0198822021484375,-0.0329742431640625
1761505965707341300,5.09434130859375,-1.0135955810546875,-0.0200653076171875,-0.0332794189453125
1761505965717377500,5.10437744140625,-1.0136260986328125,-0.0194091796875,-0.032562255859375
1761505965727413500,5.11441357421875,-1.01361083984375,-0.01959228515625,-0.032135009765625
1761505965737449500,5.124449462890625,-1.0136566162109375,-0.0202484130859375,-0.0331878662109375
1761505965747485400,5.1344853515625,-1.0132598876953125,-0.0207061767578125,-0.0335235595703125
1761505965757521400,5.144521484375,-1.013580322265625,-0.0208587646484375,-0.0327606201171875
1761505965767557400,5.154557373046875,-1.01361083984375,-0.0191802978515625,-0.0327301025390625
1761505965777593300,5.16459326171875,-1.0128631591796875,-0.0193634033203125,-0.0326385498046875
1761505965787630300,5.17463037109375,-1.01324462890625,-0.02001953125,-0.0329132080078125
1761505965797666300,5.184666259765625,-1.014404296875,-0.020263671875,-0.0330963134765625
1761505965807702300,5.194702392578125,-1.0130462646484375,-0.0200958251953125,-0.0329437255859375
1761505965817738200,5.20473828125,-1.0132904052734375,-0.019287109375,-0.03369140625
1761505965827774200,5.214774169921875,-1.0120697021484375,-0.019775390625,-0.0334014892578125
1761505965837810200,5.22481005859375,-1.0134124755859375,-0.019744873046875,-0.0330963134765625
1761505965847846100,5.23484619140625,-1.01324462890625,-0.0198211669921875,-0.0328216552734375
1761505965857882400,5.24488232421875,-1.0127410888671875,-0.0198822021484375,-0.0327301025390625
1761505965867918300,5.25491845703125,-1.0144195556640625,-0.019683837890625,-0.03387451171875
1761505965877954300,5.264954345703125,-1.01434326171875,-0.0206451416015625,-0.0337371826171875
1761505965887990300,5.274990234375,-1.013397216796875,-0.0196380615234375,-0.032958984375
1761505965898026200,5.285026123046875,-1.0140533447265625,-0.0192718505859375,-0.03302001953125
1761505965908062200,5.295062255859375,-1.013092041015625,-0.0198211669921875,-0.03302001953125
1761505965918098200,5.30509814453125,-1.0121307373046875,-0.020263671875,-0.0330657958984375
1761505965928134100,5.315134033203125,-1.0136566162109375,-0.019683837890625,-0.032318115234375
1761505965938171400,5.32517138671875,-1.013427734375,-0.0201263427734375,-0.03326416015625
1761505965948207400,5.335207275390625,-1.0131378173828125,-0.019927978515625,-0.0330047607421875
1761505965958243300,5.345243408203125,-1.013427734375,-0.019927978515625,-0.03271484375
1761505965968279300,5.355279296875,-1.0134124755859375,-0.02008056640625,-0.03277587890625
1761505965978315300,5.365315185546875,-1.01312255859375,-0.019439697265625,-0.0325164794921875
1761505965988351200,5.375351318359375,-1.01373291015625,-0.0192718505859375,-0.0330352783203125
1761505965998387500,5.385387451171875,-1.0142974853515625,-0.0196380615234375,-0.03326416015625
1761505966008423400,5.39542333984375,-1.0139007568359375,-0.0201263427734375,-0.032440185546875
1761505966018459400,5.40545947265625,-1.0130462646484375,-0.0192413330078125,-0.0330352783203125
1761505966028495400,5.415495361328125,-1.013153076171875,-0.020233154296875,-0.0328216552734375
1761505966038531300,5.42553125,-1.0133056640625,-0.0209197998046875,-0.032623291015625
1761505966048567300,5.4355673828125,-1.013336181640625,-0.0200653076171875,-0.03302001953125
1761505966058603300,5.445603271484375,-1.012847900390625,-0.02001953125,-0.032470703125
1761505966068639200,5.45563916015625,-1.013031005859375,-0.02008056640625,-0.0331268310546875
1761505966078674700,5.4656748046875,-1.0133819580078125,-0.019622802734375,-0.03314208984375
1761505966088711000,5.4757109375,-1.0128326416015625,-0.0195770263671875,-0.0332794189453125
1761505966098747600,5.48574755859375,-1.01275634765625,-0.0200653076171875,-0.0333099365234375
1761505966108783600,5.49578369140625,-1.0132293701171875,-0.0195159912109375,-0.0334014892578125
1761505966118819800,5.50581982421875,-1.0129241943359375,-0.019439697265625,-0.033538818359375
1761505966128855800,5.515855712890625,-1.013427734375,-0.0204315185546875,-0.0327301025390625
1761505966138891800,5.525891845703125,-1.0127410888671875,-0.02020263671875,-0.0335845947265625
1761505966148927700,5.535927734375,-1.0135955810546875,-0.0205535888671875,-0.033233642578125
1761505966158963700,5.545963623046875,-1.01348876953125,-0.020111083984375,-0.03265380859375
1761505966168999700,5.555999755859375,-1.0135040283203125,-0.0204925537109375,-0.03289794921875
1761505966179035600,5.56603564453125,-1.0136260986328125,-0.02020263671875,-0.0321197509765625
1761505966189071600,5.576071533203125,-1.01239013671875,-0.019866943359375,-0.033355712890625
1761505966199107600,5.586107666015625,-1.012420654296875,-0.019561767578125,-0.0328521728515625
1761505966209143800,5.596143798828125,-1.013580322265625,-0.02008056640625,-0.0328521728515625
1761505966219179800,5.6061796875,-1.013702392578125,-0.021484375,-0.032958984375
1761505966229215700,5.6162158203125,-1.01318359375,-0.0203857421875,-0.033416748046875
1761505966239252000,5.626251953125,-1.0129852294921875,-0.019500732421875,-0.0333099365234375
1761505966249288000,5.636287841796875,-1.01318359375,-0.0200958251953125,-0.0328521728515625
1761505966259324000,5.646323974609375,-1.0122528076171875,-0.020751953125,-0.0330963134765625
1761505966269361000,5.65636083984375,-1.0130615234375,-0.019317626953125,-0.0330963134765625
1761505966279396900,5.66639697265625,-1.01324462890625,-0.0190277099609375,-0.0330657958984375
1761505966289432800,5.676432861328125,-1.013702392578125,-0.0200042724609375,-0.03240966796875
1761505966299468800,5.68646875,-1.0139312744140625,-0.0200653076171875,-0.0321197509765625
1761505966309504800,5.6965048828125,-1.013580322265625,-0.0205230712890625,-0.03289794921875
1761505966319540700,5.706540771484375,-1.0135498046875,-0.0209503173828125,-0.0325164794921875
1761505966329576700,5.71657666015625,-1.0138702392578125,-0.0205841064453125,-0.03302001953125
1761505966339612700,5.72661279296875,-1.013397216796875,-0.0207977294921875,-0.0331268310546875
1761505966349648600,5.736648681640625,-1.0123748779296875,-0.0196685791015625,-0.033477783203125
1761505966359684600,5.7466845703125,-1.013336181640625,-0.019256591796875,-0.0328369140625
1761505966369720600,5.756720458984375,-1.0140380859375,-0.0202484130859375,-0.033172607421875
1761505966379756800,5.7667568359375,-1.0137176513671875,-0.020111083984375,-0.032562255859375
1761505966389792800,5.776792724609375,-1.01397705078125,-0.020050048828125,-0.032196044921875
1761505966399828700,5.786828857421875,-1.01361083984375,-0.0203094482421875,-0.0332489013671875
1761505966409864700,5.79686474609375,-1.0134124755859375,-0.01922607421875,-0.0331878662109375
1761505966419900700,5.806900634765625,-1.0127105712890625,-0.0200042724609375,-0.0317230224609375
1761505966429936600,5.8169365234375,-1.01275634765625,-0.0204010009765625,-0.0339202880859375
1761505966439972900,5.826972900390625,-1.0124053955078125,-0.019775390625,-0.03302001953125
1761505966450009900,5.837009765625,-1.01336669921875,-0.019683837890625,-0.0328216552734375
1761505966460045800,5.8470458984375,-1.0126495361328125,-0.01922607421875,-0.033447265625
1761505966470081800,5.857081787109375,-1.0140380859375,-0.019317626953125,-0.032318115234375
1761505966480117800,5.86711767578125,-1.0126190185546875,-0.020263671875,-0.0335693359375
1761505966490153700,5.87715380859375,-1.0130615234375,-0.019073486328125,-0.0333404541015625
1761505966500189700,5.887189697265625,-1.0139617919921875,-0.0195159912109375,-0.0328369140625
1761505966510225700,5.8972255859375,-1.01251220703125,-0.020111083984375,-0.0330047607421875
1761505966520262000,5.907261962890625,-1.0131988525390625,-0.0196685791015625,-0.0328216552734375
1761505966530297900,5.9172978515625,-1.0128631591796875,-0.02044677734375,-0.0329132080078125
1761505966540333800,5.927333740234375,-1.01324462890625,-0.0196380615234375,-0.033203125
1761505966550369800,5.937369873046875,-1.0133514404296875,-0.02056884765625,-0.033294677734375
1761505966560405800,5.94740576171875,-1.0130767822265625,-0.0201568603515625,-0.0330352783203125
1761505966570441700,5.957441650390625,-1.013214111328125,-0.020263671875,-0.033355712890625
1761505966580477700,5.967477783203125,-1.01348876953125,-0.021209716796875,-0.0328369140625
1761505966590513700,5.977513671875,-1.013580322265625,-0.0196990966796875,-0.032745361328125
1761505966600549600,5.987549560546875,-1.0139923095703125,-0.019775390625,-0.033294677734375
1761505966610585600,5.997585693359375,-1.0128326416015625,-0.0198822021484375,-0.0329742431640625
1761505966620621600,6.00762158203125,-1.0138702392578125,-0.019775390625,-0.0331573486328125
1761505966630657800,6.01765771484375,-1.0139007568359375,-0.020294189453125,-0.0328826904296875
1761505966640694800,6.02769482421875,-1.014312744140625,-0.0196075439453125,-0.033111572265625
1761505966650730800,6.037730712890625,-1.012603759765625,-0.0194549560546875,-0.033538818359375
1761505966660766700,6.0477666015625,-1.0125732421875,-0.020355224609375,-0.0329742431640625
1761505966670803000,6.057802978515625,-1.012298583984375,-0.020843505859375,-0.0330963134765625
1761505966680839000,6.0678388671875,-1.0137786865234375,-0.020538330078125,-0.033355712890625
1761505966690875000,6.077875,-1.013153076171875,-0.0206756591796875,-0.032928466796875
1761505966700910800,6.087910888671875,-1.01300048828125,-0.0199737548828125,-0.0330963134765625
1761505966710946800,6.09794677734375,-1.0124969482421875,-0.0198516845703125,-0.032440185546875
1761505966720982800,6.107982666015625,-1.0122833251953125,-0.020538330078125,-0.0334625244140625
1761505966731018800,6.118018798828125,-1.01336669921875,-0.02020263671875,-0.0330047607421875
1761505966741054700,6.1280546875,-1.013580322265625,-0.019439697265625,-0.0332794189453125
1761505966751090700,6.138090576171875,-1.013885498046875,-0.0197906494140625,-0.033111572265625
1761505966761126700,6.148126708984375,-1.0132598876953125,-0.0201416015625,-0.03228759765625
1761505966771162600,6.15816259765625,-1.0142364501953125,-0.020263671875,-0.0321044921875
1761505966781198800,6.16819873046875,-1.0138397216796875,-0.0203704833984375,-0.0321044921875
1761505966791234800,6.17823486328125,-1.01336669921875,-0.0199737548828125,-0.033233642578125
1761505966801270800,6.188270751953125,-1.0144195556640625,-0.0206756591796875,-0.03204345703125
1761505966811306800,6.198306640625,-1.01422119140625,-0.0202178955078125,-0.03265380859375
1761505966821342700,6.2083427734375,-1.0137939453125,-0.0195159912109375,-0.0326385498046875
1761505966831379700,6.218379638671875,-1.01348876953125,-0.019927978515625,-0.0330963134765625
1761505966841416000,6.228416015625,-1.013275146484375,-0.019775390625,-0.0323028564453125
1761505966851452000,6.238451904296875,-1.01318359375,-0.0203399658203125,-0.0328826904296875
1761505966861487900,6.24848779296875,-1.0130615234375,-0.02056884765625,-0.033782958984375
1761505966871523800,6.25852392578125,-1.0129241943359375,-0.019866943359375,-0.0326385498046875
1761505966881559800,6.268559814453125,-1.012115478515625,-0.02001953125,-0.03314208984375
1761505966891595800,6.278595703125,-1.0135345458984375,-0.0204315185546875,-0.0330657958984375
1761505966901631700,6.2886318359375,-1.0131378173828125,-0.018585205078125,-0.032958984375
1761505966911667700,6.298667724609375,-1.01141357421875,-0.019256591796875,-0.033111572265625
1761505966921704000,6.308703857421875,-1.01324462890625,-0.01959228515625,-0.032623291015625
1761505966931740000,6.318739990234375,-1.0125274658203125,-0.018646240234375,-0.0321044921875
1761505966941776000,6.32877587890625,-1.0128936767578125,-0.01983642578125,-0.0330963134765625
1761505966951811800,6.338811767578125,-1.0135650634765625,-0.020721435546875,-0.03240966796875
1761505966961847800,6.348847900390625,-1.0138397216796875,-0.020599365234375,-0.032562255859375
1761505966971883800,6.3588837890625,-1.0126953125,-0.0196533203125,-0.03289794921875
1761505966981919700,6.368919677734375,-1.0134124755859375,-0.0197906494140625,-0.0328216552734375
1761505966991955700,6.378955810546875,-1.0135498046875,-0.0196380615234375,-0.0328521728515625
1761505967001991700,6.38899169921875,-1.0124664306640625,-0.020355224609375,-0.0330963134765625
1761505967012027600,6.399027587890625,-1.013397216796875,-0.01995849609375,-0.0335693359375
1761505967022063600,6.409063720703125,-1.013671875,-0.020721435546875,-0.0328826904296875
1761505967032099800,6.419099853515625,-1.0137176513671875,-0.019775390625,-0.0326080322265625
1761505967042135800,6.4291357421875,-1.01318359375,-0.0207977294921875,-0.0331573486328125
1761505967052172500,6.439172607421875,-1.0124664306640625,-0.019744873046875,-0.0328826904296875
1761505967062208800,6.449208740234375,-1.0132293701171875,-0.020263671875,-0.03302001953125
1761505967072245200,6.459245361328125,-1.0139007568359375,-0.01959228515625,-0.03314208984375
1761505967082281500,6.469281494140625,-1.0128326416015625,-0.019439697265625,-0.0321197509765625
1761505967092317400,6.4793173828125,-1.0127105712890625,-0.0196990966796875,-0.0326690673828125
1761505967102353400,6.489353515625,-1.0137176513671875,-0.01959228515625,-0.032470703125
1761505967112389400,6.499389404296875,-1.013763427734375,-0.0204010009765625,-0.0328826904296875
1761505967122425300,6.50942529296875,-1.0140533447265625,-0.0199432373046875,-0.0329742431640625
1761505967132461300,6.51946142578125,-1.0133209228515625,-0.02032470703125,-0.033782958984375
1761505967142497300,6.529497314453125,-1.0128173828125,-0.0204315185546875,-0.0334320068359375
1761505967152533200,6.539533203125,-1.01324462890625,-0.02099609375,-0.0330963134765625
1761505967162569200,6.5495693359375,-1.013458251953125,-0.0202484130859375,-0.0331268310546875
1761505967172605200,6.559605224609375,-1.01275634765625,-0.020538330078125,-0.033233642578125
1761505967182641200,6.56964111328125,-1.0134124755859375,-0.01983642578125,-0.0325927734375
1761505967192677400,6.579677490234375,-1.0136871337890625,-0.02044677734375,-0.03338623046875
1761505967202713300,6.58971337890625,-1.0137481689453125,-0.0204925537109375,-0.0327911376953125
1761505967212749300,6.599749267578125,-1.0129241943359375,-0.0197906494140625,-0.0321044921875
1761505967222785300,6.609785400390625,-1.0123138427734375,-0.0205535888671875,-0.032867431640625
1761505967232821200,6.6198212890625,-1.0129547119140625,-0.0204620361328125,-0.0329132080078125
1761505967242857200,6.629857177734375,-1.012298583984375,-0.0195159912109375,-0.0317840576171875
1761505967252893200,6.63989306640625,-1.012908935546875,-0.020263671875,-0.0328521728515625
1761505967262929200,6.64992919921875,-1.012847900390625,-0.0204010009765625,-0.0328216552734375
1761505967272965000,6.659965087890625,-1.01336669921875,-0.02093505859375,-0.03302001953125
1761505967283001000,6.6700009765625,-1.0128021240234375,-0.01995849609375,-0.0327911376953125
1761505967293038300,6.680038330078125,-1.01373291015625,-0.0206756591796875,-0.03350830078125
1761505967303074300,6.69007421875,-1.0136260986328125,-0.0202484130859375,-0.0324249267578125
1761505967313110300,6.7001103515625,-1.013397216796875,-0.0201263427734375,-0.0334320068359375
1761505967323146200,6.710146240234375,-1.0128021240234375,-0.01971435546875,-0.033172607421875
1761505967333182200,6.72018212890625,-1.0131378173828125,-0.020172119140625,-0.03277587890625
1761505967343218400,6.730218505859375,-1.014556884765625,-0.0201416015625,-0.032745361328125
1761505967353254400,6.74025439453125,-1.01336669921875,-0.019134521484375,-0.0324249267578125
1761505967363290400,6.750290283203125,-1.01220703125,-0.0191192626953125,-0.0325164794921875
1761505967373326300,6.760326416015625,-1.0135345458984375,-0.019866943359375,-0.03265380859375
1761505967383362300,6.7703623046875,-1.012176513671875,-0.0200653076171875,-0.0332794189453125
1761505967393398300,6.780398193359375,-1.01312255859375,-0.0204620361328125,-0.033782958984375
1761505967403434200,6.790434326171875,-1.013092041015625,-0.020477294921875,-0.032958984375
1761505967413470200,6.80047021484375,-1.0135498046875,-0.019744873046875,-0.03216552734375
1761505967423506200,6.810506103515625,-1.0135345458984375,-0.0206451416015625,-0.0322265625
1761505967433542100,6.820542236328125,-1.013031005859375,-0.0196380615234375,-0.0329132080078125
1761505967443578400,6.830578369140625,-1.0132293701171875,-0.0198516845703125,-0.0333709716796875
1761505967453614300,6.8406142578125,-1.01361083984375,-0.0191802978515625,-0.0330963134765625
1761505967463650300,6.850650390625,-1.013214111328125,-0.0207061767578125,-0.0331268310546875
1761505967473686300,6.860686279296875,-1.0126953125,-0.020782470703125,-0.0325469970703125
1761505967483722200,6.87072216796875,-1.013824462890625,-0.0190277099609375,-0.03302001953125
1761505967493758200,6.88075830078125,-1.01409912109375,-0.0203399658203125,-0.0335845947265625
1761505967503794200,6.890794189453125,-1.013275146484375,-0.019989013671875,-0.0335235595703125
1761505967513830100,6.900830078125,-1.0133209228515625,-0.0202789306640625,-0.0328826904296875
1761505967523866000,6.9108662109375,-1.0122528076171875,-0.0199737548828125,-0.0330352783203125
1761505967533902000,6.920902099609375,-1.0128326416015625,-0.01971435546875,-0.0325469970703125
1761505967543938000,6.93093798828125,-1.013702392578125,-0.02032470703125,-0.03253173828125
1761505967553975300,6.940975341796875,-1.0128173828125,-0.02093505859375,-0.0333099365234375
1761505967564011300,6.95101123046875,-1.01495361328125,-0.0202789306640625,-0.0334625244140625
1761505967574047200,6.961047119140625,-1.013458251953125,-0.019561767578125,-0.032958984375
1761505967584083200,6.971083251953125,-1.0135345458984375,-0.018951416015625,-0.03265380859375
1761505967594119400,6.981119384765625,-1.0144500732421875,-0.0197601318359375,-0.0331268310546875
1761505967604155400,6.9911552734375,-1.0138092041015625,-0.0194854736328125,-0.033782958984375
1761505967614191400,7.00119140625,-1.0126190185546875,-0.0201873779296875,-0.0333404541015625
1761505967624227300,7.011227294921875,-1.0142822265625,-0.0198974609375,-0.0336151123046875
1761505967634263300,7.02126318359375,-1.0141143798828125,-0.0199127197265625,-0.0331573486328125
1761505967644299300,7.03129931640625,-1.0127105712890625,-0.019439697265625,-0.033172607421875
1761505967654335200,7.041335205078125,-1.013214111328125,-0.0194854736328125,-0.0325927734375
1761505967664371200,7.05137109375,-1.01263427734375,-0.020355224609375,-0.0331573486328125
1761505967674407200,7.0614072265625,-1.01220703125,-0.0191497802734375,-0.0328216552734375
1761505967684443100,7.071443115234375,-1.0134124755859375,-0.0199737548828125,-0.03302001953125
1761505967694479000,7.08147900390625,-1.0129852294921875,-0.0212860107421875,-0.0325469970703125
1761505967704515300,7.091515380859375,-1.01385498046875,-0.0197296142578125,-0.0327911376953125
1761505967714551300,7.10155126953125,-1.0142974853515625,-0.0200042724609375,-0.032501220703125
1761505967724587300,7.111587158203125,-1.0119171142578125,-0.0201873779296875,-0.032958984375
1761505967734623200,7.121623291015625,-1.012542724609375,-0.02056884765625,-0.032379150390625
1761505967744659200,7.1316591796875,-1.0130157470703125,-0.0200347900390625,-0.0319976806640625
1761505967754695200,7.141695068359375,-1.013031005859375,-0.0193328857421875,-0.03265380859375
1761505967764731100,7.151731201171875,-1.0123443603515625,-0.019622802734375,-0.0332183837890625
1761505967774767000,7.16176708984375,-1.0142974853515625,-0.020599365234375,-0.0330047607421875
1761505967784803000,7.171802978515625,-1.013916015625,-0.0197601318359375,-0.0325775146484375
1761505967794839300,7.18183935546875,-1.01348876953125,-0.0204315185546875,-0.0334014892578125
1761505967804875300,7.191875244140625,-1.0132904052734375,-0.02069091796875,-0.0327911376953125
1761505967814911500,7.201911376953125,-1.01361083984375,-0.020416259765625,-0.033660888671875
1761505967824947500,7.211947509765625,-1.013702392578125,-0.0198211669921875,-0.0332489013671875
1761505967834984200,7.221984130859375,-1.0136566162109375,-0.0208587646484375,-0.0333709716796875
1761505967845020400,7.2320205078125,-1.0128021240234375,-0.0193328857421875,-0.0332489013671875
1761505967855056400,7.242056396484375,-1.01312255859375,-0.01995849609375,-0.0323028564453125
1761505967865092400,7.25209228515625,-1.0140838623046875,-0.020172119140625,-0.03326416015625
1761505967875128300,7.26212841796875,-1.0128936767578125,-0.0196990966796875,-0.0324249267578125
1761505967885164300,7.272164306640625,-1.0134429931640625,-0.02044677734375,-0.0330657958984375
1761505967895200300,7.2822001953125,-1.01397705078125,-0.0192108154296875,-0.032958984375
1761505967905236200,7.292236328125,-1.013458251953125,-0.0204925537109375,-0.0328216552734375
1761505967915272200,7.302272216796875,-1.013031005859375,-0.019683837890625,-0.032257080078125
1761505967925308200,7.31230810546875,-1.013092041015625,-0.0195159912109375,-0.0324859619140625
1761505967935344000,7.32234423828125,-1.0134429931640625,-0.0211639404296875,-0.033233642578125
1761505967945380000,7.332380126953125,-1.0130767822265625,-0.02056884765625,-0.0337066650390625
1761505967955416300,7.342416259765625,-1.0131683349609375,-0.019561767578125,-0.03326416015625
1761505967965452300,7.352452392578125,-1.013153076171875,-0.0210418701171875,-0.0328216552734375
1761505967975488300,7.36248828125,-1.0128326416015625,-0.0190582275390625,-0.033538818359375
1761505967985524200,7.372524169921875,-1.0136871337890625,-0.0201568603515625,-0.033294677734375
1761505967995560200,7.382560302734375,-1.0140838623046875,-0.0201873779296875,-0.0333099365234375
1761505968005596200,7.39259619140625,-1.0131072998046875,-0.0210113525390625,-0.0331878662109375
1761505968015632100,7.402632080078125,-1.0120849609375,-0.020172119140625,-0.03314208984375
1761505968025668400,7.41266845703125,-1.01312255859375,-0.020263671875,-0.0326080322265625
1761505968035704300,7.422704345703125,-1.0120697021484375,-0.0200042724609375,-0.033416748046875
1761505968045740300,7.432740234375,-1.0133514404296875,-0.020263671875,-0.0330047607421875
1761505968055776300,7.4427763671875,-1.0134735107421875,-0.0200042724609375,-0.03314208984375
1761505968065812200,7.452812255859375,-1.012847900390625,-0.019989013671875,-0.0329742431640625
1761505968075847700,7.46284765625,-1.013153076171875,-0.020172119140625,-0.0326995849609375
1761505968085883600,7.472883544921875,-1.0130615234375,-0.0201568603515625,-0.033111572265625
1761505968095919600,7.482919677734375,-1.0129852294921875,-0.0202484130859375,-0.0328369140625
1761505968105955600,7.49295556640625,-1.013580322265625,-0.0207061767578125,-0.03277587890625
1761505968115991600,7.502991455078125,-1.013092041015625,-0.0194091796875,-0.0329437255859375
1761505968126027500,7.513027587890625,-1.0137176513671875,-0.0201568603515625,-0.033355712890625
1761505968136063500,7.5230634765625,-1.0138702392578125,-0.0202178955078125,-0.03277587890625
1761505968146099500,7.533099365234375,-1.012420654296875,-0.0194244384765625,-0.0331573486328125
1761505968156135700,7.5431357421875,-1.0132598876953125,-0.0191192626953125,-0.033233642578125
1761505968166171600,7.553171630859375,-1.0125885009765625,-0.01995849609375,-0.032562255859375
1761505968176207600,7.56320751953125,-1.013153076171875,-0.01953125,-0.0333251953125
1761505968186244600,7.57324462890625,-1.0126495361328125,-0.01953125,-0.03265380859375
1761505968196280800,7.58328076171875,-1.013153076171875,-0.0189971923828125,-0.032440185546875
1761505968206316800,7.59331689453125,-1.01409912109375,-0.0197601318359375,-0.0327606201171875
1761505968216352800,7.603352783203125,-1.0128021240234375,-0.019683837890625,-0.033355712890625
1761505968226388700,7.613388671875,-1.01251220703125,-0.02056884765625,-0.033294677734375
1761505968236424700,7.6234248046875,-1.01239013671875,-0.0202789306640625,-0.0330047607421875
1761505968246460700,7.633460693359375,-1.01275634765625,-0.0200042724609375,-0.0328521728515625
1761505968256496600,7.64349658203125,-1.012847900390625,-0.0202484130859375,-0.0323486328125
1761505968266532600,7.65353271484375,-1.0137176513671875,-0.0207977294921875,-0.0320892333984375
1761505968276568600,7.663568603515625,-1.0140380859375,-0.019775390625,-0.0331268310546875
1761505968286604500,7.6736044921875,-1.0135040283203125,-0.019775390625,-0.0333251953125
1761505968296640500,7.683640625,-1.01348876953125,-0.02105712890625,-0.0333404541015625
1761505968306676700,7.6936767578125,-1.01397705078125,-0.0205535888671875,-0.0334625244140625
1761505968316712700,7.703712646484375,-1.012664794921875,-0.01947021484375,-0.032958984375
1761505968326748700,7.713748779296875,-1.01287841796875,-0.0202789306640625,-0.03363037109375
1761505968336784600,7.72378466796875,-1.013092041015625,-0.0200958251953125,-0.03363037109375
1761505968346820600,7.733820556640625,-1.01348876953125,-0.02056884765625,-0.03302001953125
1761505968356856600,7.743856689453125,-1.0141754150390625,-0.0202789306640625,-0.032745361328125
1761505968366892500,7.753892578125,-1.0126190185546875,-0.0205078125,-0.032958984375
1761505968376928500,7.763928466796875,-1.0137176513671875,-0.0203094482421875,-0.03302001953125
1761505968386964500,7.773964599609375,-1.0130615234375,-0.0195159912109375,-0.0324554443359375
1761505968397000400,7.78400048828125,-1.0128021240234375,-0.0197906494140625,-0.0322113037109375
1761505968407036400,7.794036376953125,-1.0142059326171875,-0.0203094482421875,-0.0330352783203125
1761505968417072600,7.80407275390625,-1.0125274658203125,-0.0201873779296875,-0.0323944091796875
1761505968427108600,7.814108642578125,-1.01361083984375,-0.0200347900390625,-0.0323944091796875
1761505968437144800,7.824144775390625,-1.013671875,-0.0195770263671875,-0.0333404541015625
1761505968447180800,7.834180908203125,-1.01336669921875,-0.0194549560546875,-0.0323638916015625
1761505968457216800,7.844216796875,-1.01263427734375,-0.0196685791015625,-0.0332794189453125
1761505968467252700,7.854252685546875,-1.0131072998046875,-0.0197601318359375,-0.033203125
1761505968477288700,7.864288818359375,-1.012237548828125,-0.019439697265625,-0.032470703125
1761505968487324700,7.87432470703125,-1.0124359130859375,-0.0196075439453125,-0.0330352783203125
1761505968497360600,7.884360595703125,-1.01318359375,-0.02020263671875,-0.0330810546875
1761505968507396600,7.894396728515625,-1.01251220703125,-0.02044677734375,-0.0326080322265625
1761505968517432600,7.9044326171875,-1.0137481689453125,-0.0198211669921875,-0.0327606201171875
1761505968527468800,7.91446875,-1.0127716064453125,-0.0196380615234375,-0.0332489013671875
1761505968537504800,7.9245048828125,-1.0133819580078125,-0.02056884765625,-0.0335693359375
1761505968547540700,7.934540771484375,-1.013336181640625,-0.020355224609375,-0.0332183837890625
1761505968557576700,7.94457666015625,-1.012847900390625,-0.02008056640625,-0.0330657958984375
1761505968567612700,7.95461279296875,-1.0133514404296875,-0.0189361572265625,-0.0325927734375
1761505968577648600,7.964648681640625,-1.0124664306640625,-0.0200653076171875,-0.0328521728515625
1761505968587684600,7.9746845703125,-1.012542724609375,-0.0199737548828125,-0.03277587890625
1761505968597720600,7.984720458984375,-1.013519287109375,-0.0206451416015625,-0.0323486328125
1761505968607756500,7.994756591796875,-1.0135650634765625,-0.0206298828125,-0.0332183837890625
1761505968617792500,8.00479248046875,-1.012969970703125,-0.020111083984375,-0.0334930419921875
1761505968627827700,8.01482763671875,-1.0135498046875,-0.0200958251953125,-0.033416748046875
1761505968637863700,8.02486376953125,-1.0130462646484375,-0.019989013671875,-0.033111572265625
1761505968647900700,8.034900634765625,-1.012939453125,-0.019989013671875,-0.03314208984375
1761505968657936600,8.0449365234375,-1.013916015625,-0.01971435546875,-0.03363037109375
1761505968667972600,8.05497265625,-1.0142364501953125,-0.01922607421875,-0.0328216552734375
1761505968678008600,8.065008544921875,-1.01336669921875,-0.019317626953125,-0.0326995849609375
1761505968688044500,8.07504443359375,-1.0131072998046875,-0.020233154296875,-0.033050537109375
1761505968698080500,8.08508056640625,-1.0132904052734375,-0.020416259765625,-0.0334014892578125
1761505968708116500,8.095116455078125,-1.0134124755859375,-0.01953125,-0.033294677734375
1761505968718152400,8.10515234375,-1.0139923095703125,-0.0198211669921875,-0.0329132080078125
1761505968728188700,8.115188720703125,-1.01300048828125,-0.019561767578125,-0.032012939453125
1761505968738224600,8.125224609375,-1.0133514404296875,-0.020263671875,-0.0326690673828125
1761505968748260900,8.1352607421875,-1.0130615234375,-0.0202178955078125,-0.0321044921875
1761505968758296800,8.145296875,-1.012237548828125,-0.019256591796875,-0.032989501953125
1761505968768332800,8.155332763671876,-1.0124969482421875,-0.0193634033203125,-0.0332794189453125
1761505968778368800,8.16536865234375,-1.013763427734375,-0.02044677734375,-0.0323333740234375
1761505968788404700,8.17540478515625,-1.0128173828125,-0.0203094482421875,-0.0326080322265625
1761505968798440700,8.185440673828126,-1.006072998046875,-0.01971435546875,-0.034423828125
1761505968808476700,8.1954765625,-0.9878997802734375,-0.0143890380859375,-0.0574188232421875
1761505968818512600,8.2055126953125,-1.01593017578125,-0.0202484130859375,-0.0427703857421875
1761505968828548600,8.215548583984376,-1.0583038330078125,-0.0304718017578125,0.02606201171875
1761505968838584600,8.22558447265625,-1.035888671875,-0.0257110595703125,-0.0017242431640625
1761505968848620500,8.23562060546875,-0.9884185791015625,-0.014434814453125,-0.06622314453125
1761505968858656800,8.24565673828125,-1.0174407958984375,-0.023284912109375,-0.0204010009765625
1761505968868692700,8.255692626953126,-1.033538818359375,-0.026519775390625,-0.0076141357421875
1761505968878728700,8.265728759765626,-1.014312744140625,-0.01812744140625,-0.039764404296875
