time,seconds_elapsed,z,y,x
1761505960718148400,0.1051484375,-0.0031913360580801964,-0.0022115064784884453,-0.000589545932598412
1761505960728184300,0.115184326171875,0.000193900428712368,-0.003144246991723776,0.0016832280671223998
1761505960738220300,0.12522021484375,-0.000904920045286417,-0.0007170417811721563,0.00047894660383462906
1761505960748256300,0.13525634765625,0.0007071183063089848,0.0017214956460520625,0.002759345341473818
1761505960758292200,0.145292236328125,0.002923667198047042,-0.0002979794517159462,-0.0020218275021761656
1761505960768328200,0.155328125,-0.0024491180665791035,0.0016397536965087056,-0.0008994755335152149
1761505960778364200,0.1653642578125,-0.0000392240472137928,-0.0007006323430687189,-0.0022100170608609915
1761505960788400000,0.175400146484375,-0.0006340695545077324,-0.0013981654774397612,0.0005807235138490796
1761505960798437000,0.18543701171875,0.0010522441007196903,0.0012921597808599472,-0.0002507154131308198
1761505960808473000,0.19547314453125,0.0011437484063208103,-0.0012498896103352308,0.0005295308656059206
1761505960818509000,0.205509033203125,-0.0007811845280230045,0.0018961024470627308,-0.0002624932676553726
1761505960828545000,0.215544921875,0.001371187623590231,-0.0019354382529854774,0.00000889867078512907
1761505960838581000,0.2255810546875,-0.0006797127425670624,-0.0006520606111735106,0.0006917331484146416
1761505960848617000,0.235616943359375,0.0018584462814033031,0.0008096517994999886,0.0008920531254261732
1761505960858653200,0.245653076171875,-0.0030007576569914818,-0.0013501716312021017,0.0007730098441243172
1761505960868689400,0.255689453125,0.003128616837784648,-0.00044429488480091095,-0.00009422260336577892
1761505960878725400,0.265725341796875,-0.0008243131451308727,-0.0007170024327933788,0.00008767133112996817
1761505960888761300,0.27576123046875,0.0017587235197424889,0.00024031358771026134,0.0007657843525521457
1761505960898798300,0.28579833984375,0.00018958887085318565,-0.00060231052339077,0.00005285616498440504
1761505960908834300,0.295834228515625,-0.00016621127724647522,-0.0006809476763010025,-0.00003699306398630142
1761505960918870300,0.305870361328125,0.001983226276934147,-0.0007118403445929289,0.0003979011671617627
1761505960928906200,0.31590625,-0.0005911560729146004,0.0012081514578312635,0.0005641473107971251
1761505960938942200,0.325942138671875,-0.0002563968300819397,-0.0002432714682072401,-0.00028833060059696436
1761505960948978200,0.335978271484375,-0.0016988595016300678,-0.0012021735310554504,0.0005316270398907363
1761505960959014100,0.34601416015625,0.000782940536737442,-0.002426162362098694,-0.0008508197497576475
1761505960969050000,0.356050048828125,-0.0018213544972240925,0.0023319092579185963,0.0003617975162342191
1761505960979086000,0.366086181640625,-0.0010311948135495186,0.0023204577155411243,0.000035826582461595535
1761505960989122000,0.3761220703125,-0.000004361383616924286,-0.0014619689900428057,0.00046434957766905427
1761505960999159000,0.386158935546875,-0.0007561719976365566,-0.00008271820843219757,-0.0014350168639793992
1761505961009195000,0.396195068359375,-0.0009018504060804844,-0.0009994336869567633,-0.0020179827697575092
1761505961019231000,0.40623095703125,0.0031655956991016865,0.000016029924154281616,-0.0029205279424786568
1761505961029267200,0.41626708984375,0.00036395853385329247,0.0003925727214664221,-0.0008772204164415598
1761505961039303200,0.42630322265625,-0.0015444625169038773,-0.0003541777841746807,0.0019414692651480436
1761505961049339400,0.43633935546875,0.002573792589828372,0.0007228273898363113,0.0007042800425551832
1761505961059375400,0.446375244140625,-0.0002768551930785179,-0.0010732084047049284,0.00011891720350831747
1761505961069412000,0.456412109375,0.0008759987540543079,0.00042123254388570786,0.0019265840528532863
1761505961079448000,0.466447998046875,0.0013977116905152798,-0.0003841074649244547,0.0009454754763282835
1761505961089484000,0.476484130859375,-0.0011452487669885159,0.0014274034183472395,0.0007730398210696876
1761505961099520000,0.48652001953125,0.000536537729203701,-0.002498096087947488,0.00151526287663728
1761505961109557200,0.49655712890625,-0.0006476440466940403,-0.0011668216902762651,0.0016687149181962013
1761505961119593200,0.50659326171875,0.0012165685184299946,-0.001274680020287633,0.0007669685874134302
1761505961129629200,0.516629150390625,-0.0008567236363887787,0.0022194883786141872,-0.00026397511828690767
1761505961139665200,0.5266650390625,0.0011132163926959038,0.001302029355429113,-0.0011143224546685815
1761505961149701000,0.536701171875,0.00030222488567233086,0.00006880611181259155,-0.0010137398494407535
1761505961159737000,0.546737060546875,-0.00008047139272093773,0.001539936289191246,0.0017463602125644684
1761505961169773000,0.55677294921875,0.0031636811327189207,-0.0013031810522079468,0.0018202302744612098
1761505961179809000,0.56680908203125,-0.0030707791447639465,0.0011972610373049974,0.0005781319923698902
1761505961189845000,0.576844970703125,0.0017119208350777626,-0.000703941797837615,-0.00005370134022086859
1761505961199881000,0.586880859375,0.0009555830620229244,0.0011365689570084214,0.0000019586877897381783
1761505961209917200,0.596917236328125,0.0009845546446740627,0.0006502731703221798,-0.0007443437352776527
1761505961219954000,0.606953857421875,-0.0003587440587580204,0.0017046185676008463,-0.00006071035750210285
1761505961229990000,0.616989990234375,0.0017078863456845284,-0.0016224368009716272,-0.00027010601479560137
1761505961240026000,0.627026123046875,-0.00019121356308460236,-0.00228476501069963,0.00041059800423681736
1761505961250062000,0.63706201171875,-0.0011748699471354485,-0.0011338437907397747,0.0004682369763031602
1761505961260098000,0.64709814453125,0.0009292936883866787,-0.0017892476171255112,-0.0008196677081286907
1761505961270134000,0.657134033203125,-0.0015177535824477673,0.00023305253125727177,-0.00006858794949948788
1761505961280170000,0.667169921875,0.00023647071793675423,-0.001346734818071127,0.0016398298321291804
1761505961290206000,0.6772060546875,0.0009643863886594772,-0.0026768194511532784,0.0003145647933706641
1761505961300242000,0.687241943359375,-0.00031552882865071297,-0.0005156639963388443,0.0024216577876359224
1761505961310278000,0.69727783203125,0.00018511665984988213,-0.0006607573013752699,0.000034830416552722454
1761505961320315100,0.707315185546875,0.00047327112406492233,0.0025299759581685066,0.0003269792068749666
1761505961330351000,0.71735107421875,0.0008299709297716618,-0.0002878687810152769,0.0012083988403901458
1761505961340387000,0.727386962890625,-0.0031370734795928,-0.000035401200875639915,0.0006909466465003788
1761505961350423000,0.737423095703125,-0.0016681244596838951,0.00006562727503478527,0.002947155386209488
1761505961360459000,0.747458984375,-0.0017341705970466137,-0.001162355998530984,-0.00048619171138852835
1761505961370495000,0.757494873046875,0.0019480986520648003,0.00017198012210428715,-0.00041255063842982054
1761505961380531200,0.76753125,-0.001443969551473856,0.002429808024317026,0.0002420543460175395
1761505961390567200,0.777567138671875,-0.0003864951431751251,-0.001915967557579279,0.00021963834296911955
1761505961400603100,0.78760302734375,0.0005717100575566292,-0.0010685496963560581,0.0005836925120092928
1761505961410639000,0.79763916015625,0.0007926258258521557,-0.00032696384005248547,-0.00043626176193356514
1761505961420676000,0.807676025390625,-0.0012420290149748325,-0.0001634459476917982,0.0018268924904987216
1761505961430712000,0.817712158203125,-0.0020136861130595207,0.00042062648572027683,0.0025931254494935274
1761505961440748000,0.827748046875,0.0012857038527727127,-0.00046593998558819294,-0.0004466065438464284
1761505961450784000,0.837783935546875,-0.00043247779831290245,0.0026406659744679928,-0.0000035692937672138214
1761505961460820000,0.847820068359375,0.00016646739095449448,0.0009226608090102673,0.0006465083570219576
1761505961470856000,0.85785595703125,-0.0006826203316450119,0.0005664112977683544,0.00010667985770851374
1761505961480892000,0.867891845703125,0.00016799336299300194,0.0027358222287148237,0.00048538140254095197
1761505961490928000,0.87792822265625,0.0011009168811142445,0.000739122973755002,-0.001015333691611886
1761505961500964000,0.887964111328125,0.0016356795094907284,0.0019015927100554109,0.0010414256248623133
1761505961511000000,0.898,0.0010842685587704182,-0.0010184603743255138,0.0016828036168590188
1761505961521037000,0.908037109375,-0.00003772089257836342,-0.0007332360837608576,0.0016521771904081106
1761505961531073000,0.918072998046875,0.002153910929337144,-0.0015028873458504677,-0.0009430645732209086
1761505961541109000,0.92810888671875,-0.0009561283513903618,0.0020119529217481613,-0.0013553219614550471
1761505961551145000,0.93814501953125,0.0027410213369876146,-0.0015243503730744123,0.0008108622278086841
1761505961561181200,0.94818115234375,0.0007492434233427048,0.0012831538915634155,0.0018470982322469354
1761505961571217200,0.958217041015625,0.0009788158349692822,0.00018398696556687355,-0.00027408439200371504
1761505961581253000,0.968253173828125,0.0020699130836874247,0.0016892057610675693,-0.0007457302417606115
1761505961591289000,0.9782890625,-0.0006271866150200367,0.0006793895736336708,0.00041338754817843437
1761505961601325000,0.988324951171875,0.0011368915438652039,-0.0008657763246446848,0.0005241750041022897
1761505961611362000,0.998362060546875,-0.0008933753706514835,-0.0003083792980760336,0.00015940028242766857
1761505961621398000,1.00839794921875,-0.00038870610296726227,0.0013166817370802164,0.0015325261047109962
1761505961631434000,1.01843408203125,-0.0015856255777180195,-0.0024609374813735485,-0.0005415865452960134
1761505961641470000,1.028469970703125,-0.00025138165801763535,-0.002259868662804365,-0.00292431702837348
1761505961651506000,1.038505859375,-0.0020132060162723064,0.0018665390089154243,-0.0013807655777782202
1761505961661542000,1.0485419921875,0.001294972375035286,-0.002671753754839301,-0.0008052564226090908
1761505961671578000,1.058578125,-0.0007192934863269329,-0.00009793555364012718,0.0018120789900422096
1761505961681614000,1.068614013671875,-0.0009001223370432854,-0.0024436479434370995,0.0015617418102920055
1761505961691650000,1.078650146484375,-0.0006867479532957077,0.0017627753550186753,-0.0016566520789638162
1761505961701686000,1.08868603515625,-0.0007599848322570324,0.0004972412716597319,0.001503454870544374
1761505961711723000,1.098722900390625,0.0019113249145448208,-0.0007483810186386108,0.0001544053666293621
1761505961721759000,1.108759033203125,-0.0009827320463955402,-0.0018503970932215452,-0.001333502703346312
1761505961731795200,1.118795166015625,0.0012759524397552013,-0.0003742177505046129,0.0008436237694695592
1761505961741831200,1.1288310546875,0.0004325290210545063,-0.001816852018237114,0.00034774316009134054
1761505961751867100,1.1388671875,-0.0005227690562605858,0.0005441370885819197,-0.0009440024150535464
1761505961761903000,1.148903076171875,0.00016778847202658653,0.003481337334960699,0.00041527493158355355
1761505961771939000,1.15893896484375,-0.000004653818905353546,-0.0018089816439896822,0.0017165164463222027
1761505961781975000,1.16897509765625,0.0015298593789339066,0.001194265205413103,-0.0004161429824307561
1761505961792011000,1.179010986328125,-0.0005074241198599339,-0.000728905200958252,0.0022970144636929035
1761505961802048000,1.189048095703125,-0.0005143485032021999,-0.0006908220238983631,-0.0009696190245449543
1761505961812084000,1.199083984375,0.0025481090415269136,0.004084739834070206,-0.0022087718825787306
1761505961822120000,1.209119873046875,0.0006348942406475544,0.00032435660250484943,-0.003117176005616784
1761505961832156000,1.219156005859375,0.0014132466167211533,-0.0016525189857929945,0.0006731051835231483
1761505961842192100,1.229192138671875,-0.001771361567080021,0.002050073817372322,-0.0014433088945224881
1761505961852228000,1.23922802734375,-0.00008251192048192024,-0.0005341395735740662,-0.0011392300948500633
1761505961862264000,1.24926416015625,0.00011269794777035713,0.001590796746313572,-0.0012132658157497644
1761505961872300000,1.259300048828125,0.0012802663259208202,-0.0015320433303713799,-0.0009684233227744699
1761505961882336300,1.269336181640625,-0.0008989982306957245,0.0024128970690071583,0.000013484153896570206
1761505961892372200,1.279372314453125,0.000391179695725441,0.0013454819563776255,-0.00023278710432350636
1761505961902409000,1.289408935546875,-0.00024957675486803055,-0.000533378217369318,-0.0003427756018936634
1761505961912445200,1.299445068359375,-0.00038502225652337074,-0.002090450143441558,-0.000404567108489573
1761505961922481200,1.309481201171875,0.0006653284654021263,-0.00003555533476173878,-0.0007294726092368364
1761505961932517000,1.31951708984375,-0.0007700934074819088,0.0011389104183763266,-0.00021429476328194141
1761505961942553000,1.329552978515625,-0.00017407815903425217,-0.00003341306000947952,-0.001078756875358522
1761505961952589000,1.339589111328125,0.0005400944501161575,0.0001050722785294056,0.0011284977663308382
1761505961962625000,1.349625,-0.0011166580952703953,-0.001069115474820137,0.001645683660171926
1761505961972661000,1.359660888671875,0.00025230878964066505,0.0017919111996889114,0.002235112711787224
1761505961982697000,1.369697021484375,-0.0005690101534128189,0.0025328025221824646,-0.0010184713173657656
1761505961992734000,1.37973388671875,0.00013515399768948555,0.001244513550773263,0.0017173165688291192
1761505962002770000,1.38977001953125,-0.0018832557834684849,-0.0013187790755182505,0.0005724236834794283
1761505962012806000,1.399805908203125,0.002559931483119726,0.0010315899271517992,0.00036847207229584455
1761505962022842000,1.409842041015625,-0.0001482372172176838,-0.0007591196335852146,-0.0003053076798096299
1761505962032878000,1.419878173828125,-0.00010804692283272743,-0.00163755239918828,0.0019321194849908352
1761505962042914000,1.4299140625,0.0002059396356344223,-0.0008340766653418541,0.0007688506739214063
1761505962052950000,1.439949951171875,0.0006668469868600368,-0.0009962960612028837,0.0012900965521112084
1761505962062986200,1.449986328125,-0.0018471772782504559,0.0000460650771856308,0.0013865029904991388
1761505962073022500,1.4600224609375,-0.0017473595216870308,0.000502235721796751,-0.004497100133448839
1761505962083059200,1.47005908203125,0.0013722674921154976,-0.000824817456305027,-0.00008583988528698683
1761505962093095400,1.480095458984375,-0.0008548246696591377,0.0003578157629817724,-0.0008470147149637341
1761505962103131400,1.49013134765625,-0.0052530355751514435,0.0012236095499247313,-0.0021138805896043777
1761505962113167400,1.50016748046875,-0.0021274802275002003,-0.0017310904804617167,-0.0006274880142882466
1761505962123203300,1.510203369140625,-0.0008206674829125404,0.001907053985632956,-0.0012040623696520925
1761505962133239300,1.5202392578125,-0.000856020487844944,-0.0005244764033704996,-0.0008147663902491331
1761505962143275300,1.530275146484375,-0.0020850696600973606,-0.0018225009553134441,-0.0007926621474325657
1761505962153311200,1.540311279296875,0.001793926116079092,-0.0007709499914199114,0.0008696398581378162
1761505962163347200,1.55034716796875,-0.00160293560475111,-0.0007235456723719835,0.00033168133813887835
1761505962173384200,1.56038427734375,0.001529958564788103,-0.00023986469022929668,-0.0006791024934500456
1761505962183420200,1.570420166015625,-0.00005169259384274483,0.0023370098788291216,-0.000023698550648987293
1761505962193456000,1.5804560546875,0.002054196549579501,0.0003906066995114088,-0.00014856911730021238
1761505962203492000,1.5904921875,-0.0005415864288806915,0.002566142939031124,-0.002096138894557953
1761505962213528000,1.600528076171875,-0.0005310960114002228,0.000862892484292388,-0.0008193027460947633
1761505962223564000,1.61056396484375,0.00023695966228842735,-0.0003435194958001375,0.0015181537019088864
1761505962233600300,1.620600341796875,-0.0005387538112699986,-0.0004484949167817831,0.0004180545802228153
1761505962243636500,1.630636474609375,0.0018562269397079945,-0.00009003328159451485,0.0007032791618257761
1761505962253672400,1.64067236328125,-0.0010228068567812443,-0.0028959058690816164,0.0004778394941240549
1761505962263708400,1.65070849609375,0.0005521867424249649,0.0015513066900894046,-0.0017711999826133251
1761505962273745400,1.660745361328125,0.0001350194215774536,0.00034450110979378223,5.409820005297661e-7
1761505962283781400,1.670781494140625,0.003188333474099636,-0.0006011873483657837,-0.0007139850640669465
1761505962293817300,1.6808173828125,-0.0009063007310032845,-0.0008962838910520077,0.0003588066902011633
1761505962303853300,1.690853271484375,0.0004106326960027218,0.0005692534614354372,-0.0010454781586304307
1761505962313889300,1.70088916015625,-0.00014748983085155487,0.0009906087070703506,0.0017337498720735312
1761505962323925200,1.71092529296875,-0.0014785374514758587,0.00037728273309767246,0.0019396122079342604
1761505962333961200,1.720961181640625,-0.0016863527707755566,-0.0014394288882613182,0.0006383388536050916
1761505962343997200,1.7309970703125,-0.0005587702617049217,-0.0018700622022151947,-0.00178247457370162
1761505962354033200,1.741033203125,0.002056084107607603,0.001242572907358408,-0.0016497584292665124
1761505962364070100,1.751070068359375,-0.0010464987717568874,0.0002337675541639328,-0.0008524080039933324
1761505962374106000,1.761106201171875,-0.0006634378805756569,-0.0012485466431826353,0.000008415780030190945
1761505962384142000,1.77114208984375,0.0024974681437015533,-0.0025969052221626043,-0.00014791171997785568
1761505962394178000,1.781177978515625,0.0017002574168145657,-0.0016088658012449741,0.002719370648264885
1761505962404214300,1.79121435546875,0.0019228975288569927,0.0010801281314343214,-0.0007448694668710232
1761505962414250500,1.80125048828125,-0.00003719562664628029,-0.0034387109335511923,0.0001391296973451972
1761505962424286500,1.811286376953125,0.0014112978242337704,0.0012492514215409756,-0.002252921462059021
1761505962434322400,1.821322509765625,-0.0005414211191236973,-0.001397226471453905,0.0004063521046191454
1761505962444358400,1.8313583984375,0.00021678069606423378,0.0014172019436955452,-0.0009529254166409373
1761505962454395400,1.8413955078125,-0.001144086942076683,-0.00003940495662391186,-0.00036293361335992813
1761505962464431400,1.851431396484375,0.0014349180273711681,0.0011012267787009478,0.000726565602235496
1761505962474467300,1.86146728515625,-0.0005333931185305119,-0.0014762235805392265,0.0016220679972320795
1761505962484503300,1.87150341796875,-0.0012391307391226292,-0.0012692958116531372,0.001415673061273992
1761505962494539300,1.881539306640625,-0.00016030995175242424,0.0011089311446994543,-0.0007576011121273041
1761505962504575200,1.8915751953125,-0.0008676457218825817,0.00091718346811831,0.0001204430591315031
1761505962514611200,1.901611083984375,0.0018959613516926765,0.001688011223450303,-0.0007887395331636071
1761505962524647200,1.911647216796875,-0.0001389598473906517,0.0006579004693776369,0.0002355123870074749
1761505962534683100,1.92168310546875,-0.0008307951502501965,0.0007074945606291294,0.001560879172757268
1761505962544719000,1.931718994140625,0.0006326115690171719,0.002765851793810725,0.002949717454612255
1761505962554756000,1.941756103515625,0.00040894094854593277,-0.001078481087461114,0.00040211097802966833
1761505962564792000,1.9517919921875,-0.00044167228043079376,-0.001355449901893735,-0.002178758382797241
1761505962574828000,1.961828125,-0.001169721595942974,0.0017834444297477603,-0.0010890320409089327
1761505962584864300,1.9718642578125,0.0003277738578617573,0.0037184972316026688,-0.0010139308869838715
1761505962594900500,1.981900390625,-0.0012838933616876602,0.0006038730498403311,0.001332838088274002
1761505962604936400,1.9919365234375,-0.0017118630930781364,0.0014265235513448715,-0.0005588053027167916
1761505962614972400,2.001972412109375,0.0019573974423110485,0.0023912512697279453,-0.0008544850861653686
1761505962625008400,2.01200830078125,0.0040176184847950935,0.0015837809769436717,0.00025099318008869886
1761505962635044400,2.02204443359375,-0.0009327433072030544,0.002131689339876175,-0.0009701324161142111
1761505962645081300,2.032081298828125,-0.0006168927066028118,-0.0006244161631911993,-0.001371470745652914
1761505962655117300,2.042117431640625,0.0012330957688391209,-0.00047104014083743095,0.000531932688318193
1761505962665153300,2.0521533203125,0.0010203090496361256,0.001274661859497428,0.0006544381030835211
1761505962675189200,2.062189208984375,-0.0020406320691108704,0.00006361911073327065,0.0006919705774635077
1761505962685225200,2.07222509765625,-0.0028712721541523933,-0.001107106450945139,0.0015415189554914832
1761505962695261200,2.08226123046875,-0.00016931211575865746,-0.0006489171646535397,0.0005767076509073377
1761505962705297200,2.092297119140625,-0.0005722483620047569,0.0005923821590840816,-0.0002882870612666011
1761505962715333000,2.1023330078125,-0.0004109339788556099,-0.0016064674127846956,-0.0029228744097054005
1761505962725369000,2.112369140625,-0.00005167350172996521,0.0003735930658876896,0.0029592495411634445
1761505962735405300,2.1224052734375,-0.0007497849874198437,0.003158402629196644,-0.00037759088445454836
1761505962745442000,2.132442138671875,-0.0004264772869646549,-0.001272830879315734,-0.00030408764723688364
1761505962755478300,2.142478271484375,-0.0007928847335278988,0.0023274626582860947,0.0018424398731440306
1761505962765514500,2.152514404296875,0.0017176768742501736,0.0008438157383352518,-0.0017400444485247135
1761505962775550500,2.162550537109375,-0.0003157248720526695,0.00225496431812644,-0.001163208275102079
1761505962785586400,2.17258642578125,-0.0017311950214207172,-0.00010646064765751362,-0.000060393125750124454
1761505962795622400,2.182622314453125,0.0006626024842262268,0.0020142635330557823,0.0013548576971516013
1761505962805658400,2.192658447265625,-0.0009635239839553833,0.0033868567552417517,0.0015386157901957631
1761505962815694300,2.2026943359375,-0.0017796587198972702,-0.0008545888122171164,0.00027425773441791534
1761505962825730300,2.212730224609375,-0.001047289464622736,-0.0010495323222130537,0.001581869786605239
1761505962835767300,2.222767333984375,0.0014408649876713753,0.0018327435245737433,0.0008395352051593363
1761505962845803300,2.23280322265625,-0.0003863298334181309,0.001072677318006754,-0.002181821037083864
1761505962855839200,2.242839111328125,-0.0007379357703030109,-0.0013224396388977766,-0.0013603599509224296
1761505962865875200,2.252875244140625,-0.0011983965523540974,0.0004722648300230503,-0.0007177392253652215
1761505962875911200,2.2629111328125,0.0019185780547559261,-0.0015746429562568665,-0.00031097629107534885
1761505962885947100,2.272947021484375,-0.0013099722564220428,-0.0005482605192810297,0.000055740936659276485
1761505962895983000,2.282983154296875,0.0005347691476345062,-0.000006177695468068123,-0.000688679632730782
1761505962906019300,2.293019287109375,0.00035979924723505974,0.0007474967278540134,-0.0006202365038916469
1761505962916055300,2.30305517578125,0.0007578013464808464,-0.00036185397766530514,-0.0016107672126963735
1761505962926091300,2.31309130859375,0.0004094596952199936,-0.0028958518523722887,-0.0006086198845878243
1761505962936128300,2.323128173828125,-0.0015583173371851444,0.0015496817650273442,0.001277442555874586
1761505962946164500,2.33316455078125,-0.000881874468177557,0.000742743955925107,0.0003775603836402297
1761505962956200400,2.343200439453125,0.0020258394069969654,0.0010481355711817741,-0.0022621594835072756
1761505962966236400,2.353236328125,0.0014292914420366287,-0.0018911950755864382,-0.001493304967880249
1761505962976272400,2.3632724609375,0.0011606058105826378,-0.003987744450569153,0.00047162221744656563
1761505962986308400,2.373308349609375,0.0009728530421853065,-0.0006942129693925381,-0.0017278825398534536
1761505962996344300,2.38334423828125,-0.0008123419247567654,-0.00043059024028480053,-0.0018853431101888418
1761505963006380300,2.39338037109375,0.0009224414825439453,0.0009696998167783022,0.0003636963665485382
1761505963016416300,2.403416259765625,0.0011963630095124245,0.0019028658280149102,-0.0016192770563066006
1761505963026452200,2.4134521484375,-0.0003032628446817398,0.00046928622759878635,0.00020552100613713264
1761505963036489200,2.4234892578125,-0.0023308508098125458,0.000514923594892025,-0.00021081080194562674
1761505963046525200,2.433525146484375,0.000132040586322546,0.0005783068481832743,0.0017037356738001108
1761505963056561200,2.44356103515625,0.0017096358351409435,-0.0001516819465905428,-0.00013295223470777273
1761505963066597000,2.45359716796875,-0.00009039510041475296,0.00019106687977910042,0.0008172636153176427
1761505963076632600,2.463632568359375,0.0010563540272414684,0.00028939289040863514,-0.00004345434717833996
1761505963086668500,2.47366845703125,-0.0015519461594522,0.0016649155877530575,-0.0004205580335110426
1761505963096704500,2.48370458984375,-0.002377697266638279,-0.0017822312656790018,-0.00034682510886341333
1761505963106740500,2.493740478515625,0.000832743477076292,-0.001692482503131032,0.0003408030606806278
1761505963116776400,2.5037763671875,0.0009518759325146675,-0.0006754924543201923,0.0008589597418904305
1761505963126812400,2.5138125,-0.000702213030308485,-0.00018200883641839027,-0.00006861926522105932
1761505963136848400,2.523848388671875,0.0008390196599066257,0.00004500849172472954,0.0016989132855087519
1761505963146885600,2.5338857421875,-0.001050492748618126,-0.0013174647465348244,-0.0002707606181502342
1761505963156921600,2.543921630859375,0.00040141306817531586,0.0012656750623136759,-0.001031368738040328
1761505963166957600,2.55395751953125,0.0006477553397417068,-0.00007123174145817757,-0.0015461579896509647
1761505963176993500,2.56399365234375,0.0012563136406242847,-0.0006362337153404951,0.0018075143452733755
1761505963187029500,2.574029541015625,0.00004643946886062622,0.00019467249512672424,0.00006234482862055302
1761505963197065500,2.5840654296875,-0.0008263434283435345,0.0017623630119487643,0.0018594389548525214
1761505963207101700,2.594101806640625,-0.0007272739894688129,-0.0030563606414943933,0.00007751781959086657
1761505963217137700,2.6041376953125,-0.0002079969272017479,-0.003337765811011195,-0.001485171727836132
1761505963227173600,2.614173583984375,0.0001328880898654461,0.0009565812069922686,-0.000687821302562952
1761505963237209600,2.624209716796875,0.0005303085781633854,0.0013151055900380015,0.0007099611684679985
1761505963247246600,2.63424658203125,0.001186511479318142,-0.002720382297411561,0.0017720297910273075
1761505963257282600,2.644282470703125,-0.0011174813844263554,0.00019835238344967365,-0.00021247775293886662
1761505963267318500,2.654318603515625,-0.0005134767852723598,-0.000007243594154715538,-0.0003448368515819311
1761505963277354500,2.6643544921875,0.0007484219968318939,-0.000992627814412117,-0.000056285993196070194
1761505963287390500,2.674390380859375,-0.00008621253073215485,0.0005096613895148039,-0.002114376984536648
1761505963297426400,2.684426513671875,-0.0009008697234094143,-0.003008308820426464,-0.0008184628095477819
1761505963307462400,2.69446240234375,0.0015950449742376804,0.00001437915489077568,-0.0002123272279277444
1761505963317498400,2.704498291015625,0.0006033745594322681,-0.0010518657509237528,-0.003008853178471327
1761505963327534300,2.714534423828125,-0.0018392768688499928,-0.0006694355979561806,0.0017283778870478272
1761505963337570600,2.724570556640625,0.00051107257604599,0.0010249221231788397,-0.001325138844549656
1761505963347607600,2.734607666015625,-0.001333699095994234,-0.0002033277414739132,0.001991561846807599
1761505963357643500,2.7446435546875,-0.0009617391042411327,0.0013603487750515342,0.00011472380720078945
1761505963367679500,2.754679443359375,-0.001405688002705574,-0.002359554637223482,-0.0008104584412649274
1761505963377715700,2.7647158203125,-0.003283366095274687,-0.002795846201479435,-0.0018812506459653378
1761505963387751700,2.774751708984375,-0.0006111501716077328,0.0011632089735940099,-0.0014681941829621792
1761505963397787600,2.78478759765625,-0.0026261983439326286,0.0012888654600828886,-0.00015388743486255407
1761505963407823600,2.79482373046875,0.0009131426922976971,0.0028625275008380413,-0.0027323600370436907
1761505963417859600,2.804859619140625,-0.0021215640008449554,0.0010832161642611027,-0.0004254013765603304
1761505963427895600,2.8148955078125,0.0009123091585934162,0.0018800338730216026,0.0015772957121953368
1761505963437931500,2.824931640625,0.00032740645110607147,-0.0015213878359645605,0.0012143774656578898
1761505963447968500,2.834968505859375,0.0038579588290303946,-0.000865184934809804,0.0015283641405403614
1761505963458004500,2.84500439453125,-0.00033540790900588036,0.0006543274503201246,0.000606794492341578
1761505963468040400,2.85504052734375,0.0007482320070266724,0.0011480775428935885,0.002817484550178051
1761505963478076400,2.865076416015625,-0.00009102700278162956,0.00007679755799472332,0.00025421101599931717
1761505963488112400,2.8751123046875,0.0016586696729063988,-0.0002955123782157898,-0.0026787281967699528
1761505963498148400,2.8851484375,0.002066010609269142,-0.0003280807286500931,0.0019391262903809547
1761505963508184600,2.8951845703125,0.0003434782847762108,-0.0017965477891266346,-0.00033441430423408747
1761505963518220500,2.905220458984375,-0.0013519502244889736,-0.0021550285164266825,-0.0018223533406853676
1761505963528256800,2.9152568359375,-0.0017860452644526958,0.000055927783250808716,0.0006623759982176125
1761505963538292700,2.925292724609375,0.002029931405559182,-0.0004153558984398842,-0.0011775350430980325
1761505963548328700,2.93532861328125,-0.00043588923290371895,-0.00181857543066144,0.00040970894042402506
1761505963558364700,2.94536474609375,-0.0009531662799417973,-0.0005294058937579393,-0.0006827667821198702
1761505963568401700,2.955401611328125,-0.0003579501062631607,-0.0010668318718671799,-0.000509394914843142
1761505963578437600,2.965437744140625,-0.0006151972338557243,-0.00030268868431448936,-0.0002633347176015377
1761505963588473600,2.9754736328125,0.00045379530638456345,0.00020277942530810833,0.0004048523842357099
1761505963598509600,2.985509521484375,-0.0019462630152702332,0.0003781740088015795,0.001754493685439229
1761505963608545500,2.995545654296875,-0.00016753748059272766,0.0017278640298172832,0.0007960219518281519
1761505963618581500,3.00558154296875,-0.0019081630744040012,0.002910061040893197,-0.0016493148868903518
1761505963628617500,3.015617431640625,0.0025411800015717745,-0.0006026483606547117,0.0016657880041748285
1761505963638653400,3.0256533203125,0.0017709378153085709,-0.002395280869677663,-0.00021039973944425583
1761505963648689400,3.035689453125,0.00013575656339526176,-0.00033266283571720123,-0.0008050835458561778
1761505963658725400,3.045725341796875,0.0009072753600776196,-0.0005801217630505562,-0.00044932926539331675
1761505963668761600,3.05576171875,-0.0005875569768249989,0.0013235056539997458,0.0005754551384598017
1761505963678798300,3.06579833984375,-0.0005501545965671539,-0.003958887420594692,-0.0003653841558843851
1761505963688834600,3.07583447265625,-0.00022178655490279198,-0.001564972335472703,-0.00011717749293893576
1761505963698870800,3.085870849609375,0.000298262108117342,0.0005254261195659637,0.0031753666698932648
1761505963708906800,3.09590673828125,-0.0016993749886751175,-0.0017635608091950417,0.0001825063955038786
1761505963718942700,3.105942626953125,-0.0014697369188070297,0.00283041107468307,0.0005590386572293937
1761505963728978700,3.115978759765625,-0.0007402966730296612,-0.00023488723672926426,0.001241340534761548
1761505963739014700,3.1260146484375,-0.0017119874246418476,0.0011305869556963444,-0.0003843257436528802
1761505963749050600,3.136050537109375,-0.00045470893383026123,-0.00016956846229732037,0.002552874619141221
1761505963759086600,3.146086669921875,0.000457818154245615,0.00006858399137854576,-0.0018015778623521328
1761505963769122600,3.15612255859375,0.00041866954416036606,-0.001852354034781456,-0.0009914443362504244
1761505963779158500,3.166158447265625,0.0005873264744877815,0.0027883434668183327,0.0002729574916884303
1761505963789195500,3.176195556640625,0.00008132588118314743,-0.0012468781787902117,-0.0013369233347475529
1761505963799231500,3.1862314453125,0.000676159281283617,0.0004566200077533722,0.00028170086443424225
1761505963809267500,3.196267333984375,-0.00004928559064865112,-0.00037135672755539417,0.0019115554168820381
1761505963819303400,3.206303466796875,-0.0006140577606856823,0.0009843127336353064,-0.00012022943701595068
1761505963829339400,3.21633935546875,0.0007268441841006279,0.0023648953065276146,-0.0012017390690743923
1761505963839375600,3.226375732421875,0.002073169220238924,0.00003906013444066048,-0.0019407756626605988
1761505963849411600,3.23641162109375,-0.0019149146974086761,-0.0001431000418961048,0.002659302204847336
1761505963859447600,3.246447509765625,0.0008763023652136326,-0.0005827019922435284,0.00019957625772804022
1761505963869483500,3.2564833984375,-0.0004925625398755074,-0.00031771743670105934,-0.0008092292118817568
1761505963879519500,3.26651953125,-0.004030663054436445,-0.0008007700089365244,0.0016147204441949725
1761505963889555500,3.276555419921875,0.0009694220498204231,-0.0002652083057910204,0.0024027498438954353
1761505963899591400,3.28659130859375,-0.002326240763068199,0.0009310320019721985,0.002792509738355875
1761505963909628700,3.296628662109375,0.001534543465822935,0.000890285475179553,-0.00005281169433146715
1761505963919664600,3.30666455078125,0.0003983406350016594,0.0005179757717996836,-0.00022422743495553732
1761505963929700600,3.31670068359375,0.0006345631554722786,0.0014844370307400823,-0.0007246354361996055
1761505963939736600,3.326736572265625,0.000748450867831707,0.003156968392431736,-0.0009340859251096845
1761505963949772500,3.3367724609375,-0.0013341410085558891,0.00024799769744277,-0.0020187911577522755
1761505963959808500,3.34680859375,0.0012687337584793568,-0.00045951385982334614,0.00037943210918456316
1761505963969844500,3.356844482421875,0.00012224307283759117,-0.0006493970286101103,-0.0012139371829107404
1761505963979880400,3.36688037109375,0.0011469474993646145,0.00224919687025249,-0.00028113333974033594
1761505963989916700,3.376916748046875,-0.0012261951342225075,-0.0017910846509039402,-0.0005098988767713308
1761505963999952600,3.38695263671875,-0.00021107355132699013,-0.0012291320599615574,0.0018857789691537619
1761505964009988600,3.396988525390625,-0.0007239985279738903,-0.002107442356646061,-0.00225543649867177
1761505964020025600,3.407025634765625,-0.0010029599070549011,0.00030522001907229424,-0.0017426090780645609
1761505964030061600,3.4170615234375,0.0013187839649617672,-0.00012647849507629871,0.001229478744789958
1761505964040097500,3.42709765625,-0.0009530875831842422,-0.00023704790510237217,-0.00020233273971825838
1761505964050133500,3.437133544921875,0.0006682449020445347,-0.00000641820952296257,0.0024592303670942783
1761505964060169500,3.44716943359375,-0.001461428590118885,-0.001343708485364914,0.000754957611206919
1761505964070205400,3.457205322265625,0.0020502156112343073,0.0011058668605983257,0.00045561831211671233
1761505964080242200,3.4672421875,0.0011382652446627617,0.00009383843280375004,-0.0007326123304665089
1761505964090278100,3.477278076171875,0.0015286845155060291,0.0011170250363647938,0.0015925936168059707
1761505964100314000,3.487314208984375,-0.0012947125360369682,0.0014520748518407345,-0.002093133982270956
1761505964110350000,3.49735009765625,-0.00022545317187905312,0.0011492734774947166,-0.00026860227808356285
1761505964120386000,3.507385986328125,-0.0013437909074127674,-0.001243374077603221,0.0008699318277649581
1761505964130422000,3.517422119140625,0.001961990725249052,-0.002586140064522624,0.0015727400314062834
1761505964140458000,3.5274580078125,0.0009931623935699463,-0.0012404441367834806,0.0003368615871295333
1761505964150495000,3.537494873046875,0.0018408466130495071,-0.0025515181478112936,0.00017920252867043018
1761505964160531000,3.547531005859375,-0.0017001302912831306,-0.00026190001517534256,-0.00005279015749692917
1761505964170567000,3.55756689453125,-0.0011600409634411335,0.0008044296409934759,0.003937690518796444
1761505964180603100,3.56760302734375,0.0006766654551029205,0.003301147138699889,0.0006321034743450582
1761505964190639000,3.57763916015625,-0.0010951356962323189,-0.0010163697879761457,-0.0028664914425462484
1761505964200675000,3.587675048828125,-0.0004142369143664837,0.0016181871760636568,0.0007469847914762795
1761505964210711000,3.5977109375,0.0008443729020655155,0.00021150545217096806,0.00042900332482531667
1761505964220747000,3.6077470703125,0.0002913624048233032,0.0020800279453396797,-0.001662373193539679
1761505964230783000,3.617782958984375,0.0008423700928688049,0.000266148941591382,0.000039653037674725056
1761505964240819000,3.62781884765625,0.0008009788580238819,0.001573971938341856,-0.0007665761513635516
1761505964250855000,3.63785498046875,0.0012446613982319832,0.0008144383318722248,-0.001622249954380095
1761505964260891000,3.647890869140625,-0.00011213123798370361,0.000740118557587266,0.0007394668064080179
1761505964270926800,3.6579267578125,0.00102157611399889,0.00019363779574632645,-0.0012227502884343266
1761505964280964000,3.667964111328125,0.0005387617275118828,-0.00020049256272614002,0.0008680896717123687
1761505964291000000,3.678,0.00008096452802419662,-0.00023404834792017937,0.0004164175479672849
1761505964301036000,3.6880361328125,0.00014125928282737732,-0.000413588248193264,0.0016490512061864138
1761505964311072000,3.698072021484375,0.0006765546277165413,-0.001496163196861744,-0.00021303107496351004
1761505964321108200,3.708108154296875,0.00028964225202798843,-0.0011556593235582113,0.0002909015165641904
1761505964331144200,3.718144287109375,0.0015975204296410084,0.0035221832804381847,0.001360693364404142
1761505964341180200,3.72818017578125,0.000785688403993845,-0.0012362734414637089,-0.0014156169490888715
1761505964351216000,3.738216064453125,-0.0005520172417163849,-0.0024288371205329895,-0.002192993648350239
1761505964361252000,3.748252197265625,-0.00004737870767712593,0.0019542621448636055,-0.0028015365824103355
1761505964371288000,3.7582880859375,-0.0015033292584121227,0.001739345258101821,-0.0008291994454339147
1761505964381324000,3.768323974609375,0.000051213428378105164,-0.000172504223883152,0.0015493135433644056
1761505964391360000,3.778360107421875,0.0027958673890680075,0.0010315109975636005,0.00030108995269984007
1761505964401397000,3.78839697265625,-0.0014750557020306587,-0.00008885795250535011,-0.0011886846041306853
1761505964411433000,3.798432861328125,0.0016549578867852688,0.0029615266248583794,-0.0007159736705943942
1761505964421469000,3.808468994140625,-0.000989400316029787,-0.0006153145805001259,-0.0012703480897471309
1761505964431505000,3.8185048828125,0.00019357586279511452,0.0012281255330890417,-0.00022372591774910688
1761505964441540900,3.828540771484375,-0.0006605829112231731,-0.0020751236006617546,-0.0008124142186716199
1761505964451576800,3.838576904296875,0.0006148051470518112,0.0006703292019665241,0.001944756368175149
1761505964461613000,3.848613037109375,-0.0007743742316961288,-0.002069479087367654,-0.00199713883921504
1761505964471649300,3.858649169921875,-0.0013967547565698624,-0.0006577374879270792,-0.002184625482186675
1761505964481685200,3.868685302734375,-0.00018350966274738312,0.001337515190243721,-0.0006710025481879711
1761505964491721200,3.87872119140625,-0.0005656732246279716,0.0013630815083160996,-0.002534150145947933
1761505964501757200,3.888757080078125,0.0001301332376897335,0.0001109002623707056,-0.002620426705107093
1761505964511793200,3.898793212890625,-0.00037666643038392067,0.0019362308084964752,-0.0008696648292243481
1761505964521829000,3.9088291015625,-0.0021345755085349083,0.0009433198720216751,-0.0008173497626557946
1761505964531866000,3.9188662109375,0.0015632235445082188,0.0021188389509916306,-0.0018439985578879714
1761505964541902000,3.928902099609375,0.0004106219857931137,-0.0006062546744942665,-0.0009833906078711152
1761505964551938000,3.93893798828125,-0.0019263015128672123,0.0011450400343164802,-0.0007455701706930995
1761505964561974000,3.94897412109375,-0.0004690741188824177,0.00420391047373414,0.00064280437072739
1761505964572010000,3.959010009765625,0.00020364020019769669,-0.000854497542604804,0.0015333654591813684
1761505964582046000,3.9690458984375,0.000651543028652668,-0.0005594363901764154,-0.0007325647165998816
1761505964592082000,3.97908203125,0.0010214564390480518,0.001476550241932273,-0.0019917073659598827
1761505964602118000,3.989117919921875,-0.001610813196748495,-0.000597313279286027,0.0015127963852137327
1761505964612154000,3.999154052734375,-0.0009929598309099674,0.0024006071034818888,0.0005804236861877143
1761505964622190000,4.009190185546875,0.0005742907524108887,-0.002852509031072259,-0.002703433856368065
1761505964632226000,4.01922607421875,-0.0009362539276480675,-0.0034661011304706335,0.0012564201606437564
1761505964642262000,4.029261962890625,0.0006626923568546772,-0.0008559220004826784,0.0005226208595559001
1761505964652298000,4.039298095703125,-0.001420165877789259,0.0003363753203302622,-0.00004596402868628502
1761505964662334000,4.049333984375,0.000995467882603407,-0.001600935822352767,0.00011703174095600843
1761505964672371200,4.05937109375,0.00016935542225837708,-0.0007460610941052437,-0.00001985474955290556
1761505964682407200,4.0694072265625,0.0007474268786609173,-0.0009506393689662218,0.0014127785107120872
1761505964692443100,4.079443115234375,0.0004036123864352703,0.00033646635711193085,0.000466291094198823
1761505964702479000,4.08947900390625,0.0006601689383387566,-0.002888605697080493,-0.0013205718714743853
1761505964712515000,4.09951513671875,0.001896941103041172,-0.0007503537926822901,0.000729529419913888
1761505964722551000,4.109551025390625,-0.0006972518749535084,0.001038962509483099,0.0014475618954747915
1761505964732587000,4.1195869140625,0.0007405891083180904,-0.0027531124651432037,0.0008406275301240385
1761505964742623000,4.129623046875,-0.0001664683222770691,0.0016160125378519297,0.0013677163515239954
1761505964752659200,4.1396591796875,-0.000743575394153595,-0.00422536488622427,-0.0003460278967395425
1761505964762695200,4.149695068359375,0.0014927862212061882,0.0011011267779394984,0.001637595589272678
1761505964772731100,4.159731201171875,-0.0012492043897509575,0.0011631783563643694,-0.00034539413172751665
1761505964782767000,4.16976708984375,0.0001818481832742691,-0.0032783360220491886,0.0003067504148930311
1761505964792803000,4.179802978515625,-0.0005563800223171711,-0.002424526959657669,-0.0021462873555719852
1761505964802839000,4.189839111328125,0.0008709984831511974,-0.0006209986750036478,0.00038345676148310304
1761505964812876000,4.1998759765625,-0.00413627689704299,0.0031918492168188095,-0.0015334865311160684
1761505964822912000,4.209912109375,0.0018902071751654148,0.003465421963483095,-0.0013698824914172292
1761505964832948000,4.219947998046875,0.0009863302111625671,0.00012049172073602676,-0.0014156888937577605
1761505964842984000,4.22998388671875,0.0002980520948767662,-0.0007252863142639399,0.0004932571901008487
1761505964853020000,4.24002001953125,0.0007454631850123405,0.0009815336670726538,0.0010778210125863552
1761505964863056000,4.250055908203125,-0.000017129816114902496,-0.00021158321760594845,-0.0009129636455327272
1761505964873092000,4.260092041015625,-0.0000762520357966423,0.00010799616575241089,-0.0008692878764122725
1761505964883128000,4.270128173828125,-0.0014981552958488464,-0.0029388153925538063,-0.001496057608164847
1761505964893164000,4.2801640625,0.00013862363994121552,-0.000037301331758499146,-0.0014302775962278247
1761505964903200300,4.2902001953125,-0.0019055278971791267,0.000633008312433958,-0.0007070309948176146
1761505964913236200,4.300236328125,0.0016122418455779552,-0.0017212259117513895,-0.00033871596679091454
1761505964923272200,4.310272216796875,0.00006795674562454224,0.00091309635899961,0.0007705261232331395
1761505964933308200,4.32030810546875,0.0021159276366233826,0.0011762167559936643,0.000700751319527626
1761505964943344000,4.33034423828125,0.000754660926759243,-0.0026154506485909224,0.0016960687935352325
1761505964953381000,4.340381103515625,-0.0014661489985883236,0.0003068358637392521,-0.0005854612682014704
1761505964963417000,4.3504169921875,0.00100244814530015,0.0023373281583189964,-0.0019006587099283934
1761505964973453000,4.360453125,-0.0010705566965043545,0.00012157810851931572,-0.000596508732996881
1761505964983489000,4.370489013671875,-0.0009944532066583633,-0.0014019317459315062,-0.0011342763900756836
1761505964993525000,4.38052490234375,-0.0005582273006439209,0.0003381776623427868,-0.0017856855411082506
1761505965003561000,4.39056103515625,0.0019261287525296211,0.0008366943802684546,0.0016110819997265935
1761505965013597000,4.400596923828125,-0.002219879999756813,0.0015626719687134027,-0.0012334404746070504
1761505965023633000,4.4106328125,0.0018854332156479359,-0.0009688704740256071,0.0016298519913107157
1761505965033669000,4.420669189453125,0.0019179238006472588,-0.0015936482232064009,-0.0006932233227416873
1761505965043705000,4.430705078125,0.00029126135632395744,-0.0016727186739444733,-0.0003271247260272503
1761505965053741000,4.440740966796875,-0.0002701329067349434,0.0004857731983065605,0.0009879441931843758
1761505965063777000,4.450777099609375,-0.0024297265335917473,0.0006195595487952232,-0.0001090050209313631
1761505965073813200,4.460813232421875,0.0018798005767166615,0.0004160942044109106,-0.0002666640793904662
1761505965083849200,4.47084912109375,0.0019529014825820923,-0.00013325084000825882,-0.001630048151127994
1761505965093885400,4.480885498046875,0.00006392132490873337,-0.0038166691083461046,0.00024215399753302336
1761505965103921400,4.49092138671875,-0.0005380227230489254,-0.001509054098278284,0.00041964411502704024
1761505965113958400,4.50095849609375,-0.00019340962171554565,0.0009453149978071451,-0.0021646872628480196
1761505965123994400,4.510994384765625,0.0012504146434366703,0.00005185534246265888,0.00023852603044360876
1761505965134030300,4.5210302734375,0.0014530811458826065,0.0032857318874448538,0.0002577007981017232
1761505965144066300,4.53106640625,0.0003337860107421875,0.0009265863336622715,-0.0013642329722642899
1761505965154102300,4.541102294921875,-0.0020819674246013165,-0.0007653196807950735,-0.00116263167001307
1761505965164138200,4.55113818359375,0.002636360004544258,-0.002577943028882146,0.00001856382004916668
1761505965174174200,4.56117431640625,0.0002749352715909481,0.0015576797304674983,-0.0005414990009739995
1761505965184210200,4.571210205078125,-0.00042627518996596336,-0.0016817895229905844,0.0007874183938838542
1761505965194246400,4.581246337890625,0.0006739743985235691,-0.0002822019159793854,0.002580630825832486
1761505965204284200,4.5912841796875,0.000033414922654628754,0.0003990058321505785,0.0014439631486311555
1761505965214320400,4.6013203125,-0.0002970835193991661,0.00013082544319331646,0.000006388756446540356
1761505965224356400,4.6113564453125,0.0003323419950902462,-0.0037837198469787836,-0.00012012652587145567
1761505965234392300,4.621392333984375,0.0001563071273267269,-0.0010912639554589987,0.0016564682591706514
1761505965244428300,4.63142822265625,-0.0009936261922121048,-0.001867030281573534,0.001473581069149077
1761505965254464500,4.641464599609375,-0.00047191325575113297,-0.0011434494517743587,0.0005382788949646056
1761505965264500500,4.65150048828125,0.00046025123447179794,0.000040622660890221596,-0.0030282186344265938
1761505965274536400,4.661536376953125,0.001246150117367506,-0.0017125364392995834,-0.001997575396671891
1761505965284572400,4.671572509765625,0.0014501819387078285,0.0007516294717788696,-0.000914399279281497
1761505965294608400,4.6816083984375,-0.0009527881629765034,-0.0005402700044214725,-0.000013718265108764172
1761505965304644400,4.691644287109375,0.0016466286033391953,0.00023579993285238743,-0.0004181100521236658
1761505965314680300,4.701680419921875,-0.0026642302982509136,0.002260068664327264,-0.0007195798680186272
1761505965324717300,4.71171728515625,0.0010197083465754986,0.0005818286444991827,-0.003332110121846199
1761505965334753300,4.721753173828125,-0.0027723670937120914,0.0004433442372828722,0.0011004554107785225
1761505965344789200,4.731789306640625,-0.00033568916842341423,0.0005324103403836489,0.000878741149790585
1761505965354825200,4.7418251953125,0.00030986126512289047,-0.0005842531099915504,0.000795384228695184
1761505965364861200,4.751861083984375,0.0009324103593826294,-0.0009501331951469183,-0.0003786954330280423
1761505965374897200,4.761897216796875,-0.0006987755186855793,0.00022165733389556408,0.0016495680902153254
1761505965384933000,4.77193310546875,-0.0015841950662434101,0.0016484868247061968,0.0021399834658950567
1761505965394969300,4.78196923828125,-0.00015913741663098335,0.0006063918117433786,-0.0008757802424952388
1761505965405005300,4.79200537109375,0.001261912751942873,-0.0015843966975808144,0.0010842798510566354
1761505965415041300,4.802041259765625,-0.00032479874789714813,0.001153865596279502,-0.0018372078193351626
1761505965425077200,4.8120771484375,0.0008588512428104877,-0.0005345414392650127,-0.0007972059538587928
1761505965435113200,4.82211328125,0.0005347444675862789,0.0008526991587132215,0.0006182641955092549
1761505965445149400,4.8321494140625,-0.0006502028554677963,-0.0024735406041145325,-0.0016374671831727028
1761505965455185400,4.842185302734375,-0.0009615262970328331,0.0008104033768177032,-0.001454241806641221
1761505965465221400,4.852221435546875,-0.00048351241275668144,0.0020249229855835438,0.00019363686442375183
1761505965475258400,4.86225830078125,0.000997471623122692,-0.0013506338000297546,-0.0010149055160582066
1761505965485294300,4.87229443359375,0.0008496316149830818,0.000012491364032030106,0.001811087829992175
1761505965495330300,4.882330322265625,-0.0014388225972652435,-0.0004128154832869768,0.0015743328258395195
1761505965505366300,4.8923662109375,0.0012322794646024704,0.00006261887028813362,0.0003649273421615362
1761505965515402200,4.90240234375,-0.0005778712220489979,0.0009513157419860363,0.00005040806718170643
1761505965525438200,4.912438232421875,-0.0012364322319626808,0.0014043730916455388,-0.0032226815819740295
1761505965535474200,4.92247412109375,-0.0009876932017505169,0.002313310047611594,0.00125036365352571
1761505965545510400,4.932510498046875,-0.0008426392450928688,0.0013520524371415377,0.00010687555186450481
1761505965555546400,4.94254638671875,0.0007358165457844734,-0.000044242944568395615,0.0005897066439501941
1761505965565582300,4.952582275390625,-0.0009826645255088806,-0.0014123802538961172,-0.0020832433365285397
1761505965575618300,4.962618408203125,-0.00003005191683769226,-0.0012786893639713526,0.0013719418784603477
1761505965585654300,4.972654296875,0.00005721068009734154,-0.0006343952845782042,0.0017536531668156385
1761505965595690200,4.982690185546875,0.0005195355042815208,0.0022154534235596657,0.0003578905016183853
1761505965605726200,4.992726318359375,-0.0006008348427712917,-0.00028848787769675255,-0.0009416132234036922
1761505965615762200,5.00276220703125,-0.0009377249516546726,-0.00258972542360425,0.0005921012489125133
1761505965625798100,5.012798095703125,0.0006615472957491875,-0.0005576021503657103,-0.0006437288830056787
1761505965635835400,5.02283544921875,-0.0009227669797837734,0.0011846378911286592,-0.0005475886864587665
1761505965645871400,5.032871337890625,0.001969547476619482,0.0014303559437394142,0.00035371072590351105
1761505965655907300,5.0429072265625,0.0009242566302418709,-0.00045063463039696217,-0.000443906057626009
1761505965665943300,5.052943359375,0.0018389411270618439,0.0006267095450311899,-0.0014710657997056842
1761505965675979300,5.062979248046875,0.0019281571730971336,0.000858937157317996,0.0015154029242694378
1761505965686015500,5.073015380859375,-0.0006688223220407963,0.0024340045638382435,-0.0017760610207915306
1761505965696051500,5.083051513671875,0.0007439847104251385,-0.00032476382330060005,0.0008066726732067764
1761505965706087400,5.09308740234375,-0.0002988772466778755,0.00020240596495568752,-0.0014476514188572764
1761505965716123400,5.103123291015625,0.0002899477258324623,0.001510018017143011,-0.0021131751127541065
1761505965726159400,5.113159423828125,-0.001980750821530819,0.0029630023054778576,0.0002771923318505287
1761505965736195300,5.1231953125,0.0003013117238879204,-0.0001582226250320673,0.00025934912264347076
1761505965746231300,5.133231201171875,-0.0006228554993867874,-0.0006711597088724375,-0.0017730006948113441
1761505965756267300,5.143267333984375,0.0011385595425963402,-0.0002788761630654335,-0.00009947025682777166
1761505965766303200,5.15330322265625,-0.0009058453142642975,0.0006330187898129225,-0.0018060584552586079
1761505965776339200,5.163339111328125,-0.0014983988367021084,0.0003171679563820362,-0.0040577612817287445
1761505965786376200,5.173376220703125,-0.0005101258866488934,-0.0022558756172657013,-0.0004878464387729764
1761505965796412200,5.183412109375,-0.0010629980824887753,0.00030288961715996265,-0.002048725262284279
1761505965806448000,5.1934482421875,0.00040702102705836296,0.00037122867070138454,0.0007339324220083654
1761505965816484000,5.203484130859375,-0.000627616886049509,0.0011928138555958867,0.0007222145213745534
1761505965826520300,5.213520263671875,0.0002882033586502075,-0.0018008965998888016,-0.0001624703872948885
1761505965836556300,5.223556396484375,-0.0013429825194180012,0.0010071404976770282,-0.00033610849641263485
1761505965846592300,5.23359228515625,-0.0003491244278848171,0.001960345543920994,-0.00087424844969064
1761505965856628500,5.24362841796875,0.000030376017093658447,0.0005667135119438171,0.0003707793075591326
1761505965866664400,5.25366455078125,-0.00025266222655773163,0.00035227066837251186,-0.0009558163583278656
1761505965876700400,5.263700439453125,-0.00041564740240573883,-0.0018855836242437363,0.002094834577292204
1761505965886736400,5.273736328125,-0.0007461425848305225,0.001945982570759952,-0.0010720245772972703
1761505965896772400,5.2837724609375,0.0002916911616921425,-0.0027534314431250095,-0.0010102392407134175
1761505965906808300,5.293808349609375,-0.002525821328163147,-0.0015622610226273537,0.0014613590901717544
1761505965916844300,5.30384423828125,0.002275858074426651,0.0023057139478623867,0.0008011615136638284
1761505965926880300,5.31388037109375,-0.0003651385195553303,0.0005979044362902641,0.000724561105016619
1761505965936917200,5.323917236328125,-0.0021065794862806797,-0.0009437995031476021,-0.0009713398758322
1761505965946953200,5.333953125,-0.0006203623488545418,-0.002576516941189766,0.0005399207584559917
1761505965956989200,5.3439892578125,0.0032079319935292006,0.002105053747072816,0.0008251452818512917
1761505965967025200,5.354025146484375,-0.0015056431293487549,0.0011717278975993395,0.00041112187318503857
1761505965977061400,5.364061279296875,-0.0019511901773512363,0.0029805470257997513,-0.0011303157079964876
1761505965987097300,5.374097412109375,0.0004617753438651562,0.0007154885679483414,0.0014486588770523667
1761505965997133300,5.38413330078125,-0.0025124424137175083,-0.00343078700825572,-0.0016917407047003508
1761505966007169300,5.394169189453125,-0.00009613577276468277,0.00010398216545581818,-0.0003423134330660105
1761505966017205200,5.404205322265625,-0.00022822851315140724,-0.0016947167459875345,-0.0011343376245349646
1761505966027241200,5.4142412109375,0.0018839538097381592,0.0009916172130033374,0.0012132723350077868
1761505966037277200,5.424277099609375,-0.0007626954466104507,0.0006387482862919569,0.0016281928401440382
1761505966047313200,5.434313232421875,0.00019392045214772224,-0.0018050195649266243,-0.00001555122435092926
1761505966057349000,5.44434912109375,0.0008898046799004078,-0.0000015266705304384232,-0.00040011166129261255
1761505966067385000,5.454385009765625,0.0010141879320144653,0.0004901429638266563,-0.0002982713049277663
1761505966077420800,5.4644208984375,0.0019468269310891628,-0.0006334446370601654,0.000759003683924675
1761505966087456800,5.474456787109375,0.0014762459322810173,-0.0031220857053995132,0.0008014198974706233
1761505966097493800,5.48449365234375,0.0010826308280229568,0.00010486668907105923,-0.0007424146169796586
1761505966107530000,5.494530029296875,0.0017522727139294147,-0.0005602196324616671,-0.00022663897834718227
1761505966117566000,5.50456591796875,0.0021480186842381954,-0.0003112142439931631,0.00014407304115593433
1761505966127602000,5.514601806640625,0.0009206091053783894,-0.0022551114670932293,-0.0006790769984945655
1761505966137638000,5.524637939453125,0.001273211557418108,-0.00039436062797904015,-0.00012061209417879581
1761505966147673900,5.534673828125,0.00006121257320046425,-0.002562371315434575,0.00015328801237046719
1761505966157709800,5.544709716796875,-0.00009165285155177116,-0.0007072133012115955,0.0006518317968584597
1761505966167745800,5.554745849609375,0.000312107615172863,0.00024535227566957474,0.0015934290131554008
1761505966177781800,5.56478173828125,0.0012519373558461666,-0.0012356315273791552,0.00255403108894825
1761505966187817700,5.574817626953125,0.0017857509665191174,-0.002619786886498332,-0.0011040468234568834
1761505966197853700,5.584853759765625,0.00038759130984544754,0.000569082098081708,0.0006656237528659403
1761505966207890000,5.594889892578125,0.0016167433932423592,0.0017966072773560882,0.000003895373083651066
1761505966217926000,5.60492578125,0.0007645315490663052,-0.003228244837373495,0.00038499373476952314
1761505966227961900,5.6149619140625,-0.0012332182377576828,0.001523948973044753,0.0027001830749213696
1761505966237997800,5.624997802734375,-0.0004747500643134117,-0.0017173842061311007,-0.0010229159379377961
1761505966248033800,5.63503369140625,-0.0019624140113592148,0.0010188225423917174,0.0009596711024641991
1761505966258069800,5.64506982421875,-0.0006084633059799671,-0.0004033055156469345,0.0010265164310112596
1761505966268106800,5.655106689453125,-0.0006228387355804443,0.002134887268766761,0.0007424720097333193
1761505966278142700,5.665142822265625,-0.00030831946060061455,0.0033498213160783052,0.0005142390727996826
1761505966288178700,5.6751787109375,-0.0013849255628883839,-0.0017212829552590847,0.0011240666499361396
1761505966298214700,5.685214599609375,-0.0010208715684711933,-0.0005944995209574699,0.0009032905800268054
1761505966308250600,5.695250732421875,0.0018497654236853123,0.0015057498821988702,0.0006901769083924592
1761505966318286600,5.70528662109375,0.00030087120831012726,-0.0007518117781728506,0.0008571571088396013
1761505966328322600,5.715322509765625,-0.0003670705482363701,-0.0007910230197012424,0.0006185960955917835
1761505966338358800,5.72535888671875,0.0002947249449789524,0.0009482875466346741,-0.0009976762812584639
1761505966348394800,5.735394775390625,0.00032351911067962646,0.0006705555133521557,-0.0008679335005581379
1761505966358431000,5.745430908203125,0.0009011588990688324,0.001108911819756031,-0.00021918746642768383
1761505966368467000,5.755467041015625,-0.000025289133191108704,-0.0005256477743387222,-0.001032870844937861
1761505966378503000,5.7655029296875,0.0010397089645266533,-0.000565594993531704,0.00024944113101810217
1761505966388539000,5.775538818359375,0.0005354788154363632,0.000583800720050931,0.000042690662667155266
1761505966398574800,5.785574951171875,0.002752294298261404,-0.0017517916858196259,0.0024635042063891888
1761505966408610800,5.79561083984375,-0.001590261235833168,-0.000791971106082201,-0.0020633088424801826
1761505966418646800,5.805646728515625,0.0009914068505167961,-0.0025696309749037027,-0.00010055920574814081
1761505966428682800,5.815682861328125,-0.0020207082852721214,-0.0010043636430054903,0.0007939533097669482
1761505966438718700,5.82571875,0.001272290013730526,-0.0013676187954843044,-0.0003650543512776494
1761505966448755700,5.835755615234375,0.0007039536722004414,-0.0005007945001125336,-0.000995116657577455
1761505966458791700,5.845791748046875,-0.0024731974117457867,0.00331231951713562,0.0008706938824616373
1761505966468827600,5.85582763671875,0.0008430215530097485,0.0014926660805940628,-0.001813726034015417
1761505966478863600,5.865863525390625,-0.0012366408482193947,-0.002553208265453577,0.000037703546695411205
1761505966488899600,5.875899658203125,-0.000040333252400159836,0.0004256283864378929,-0.0004983707331120968
1761505966498935800,5.885935791015625,-0.0010081259533762932,-0.0003733199555426836,0.0009370730840601027
1761505966508971800,5.8959716796875,-0.002197815105319023,-0.00037525175139307976,-0.00043451215606182814
1761505966519007700,5.9060078125,-0.0019458793103694916,-0.0014226732309907675,0.00037189293652772903
1761505966529043700,5.916043701171875,-0.0018461132422089577,0.0008092315401881933,0.000719575909897685
1761505966539079700,5.92607958984375,0.0020863101817667484,0.0007362610194832087,0.0005254314164631069
1761505966549115600,5.93611572265625,-0.0012791985645890236,-0.0031071859411895275,0.0002635254058986902
1761505966559151600,5.946151611328125,0.00020178500562906265,-0.001908763311803341,-0.00043528794776648283
1761505966569187800,5.956187744140625,-0.0017739101313054562,0.0020571602508425713,0.001231790753081441
1761505966579223800,5.966223876953125,-0.00102929025888443,0.0005623279139399529,0.0021961212623864412
1761505966589259800,5.976259765625,-0.0028064632788300514,0.0020246696658432484,0.00022804015316069126
1761505966599295700,5.986295654296875,-0.00003730878233909607,0.002167148981243372,0.00008955574594438076
1761505966609332000,5.99633203125,-0.0021622711792588234,-0.0028074809815734625,0.0011048205196857452
1761505966619368000,6.006367919921875,0.0005293856374919415,-0.00038427067920565605,0.0026172297075390816
1761505966629404000,6.01640380859375,-0.0008549429476261139,0.0005814984906464815,0.0006834727828390896
1761505966639441000,6.02644091796875,-0.001357747707515955,-0.0012142711784690619,0.00018572795670479536
1761505966649476900,6.036476806640625,0.000920378603041172,0.002021951135247946,-0.0003231277223676443
1761505966659512800,6.046512939453125,-0.0004455568268895149,0.0016696149250492454,-0.0003617436159402132
1761505966669548800,6.056548828125,-0.0004845326766371727,-0.0019060068298131227,0.00027135631535202265
1761505966679584800,6.066584716796875,-0.0020352909341454506,-0.0014633892569690943,0.0011099856346845627
1761505966689620700,6.076620849609375,-0.00026585720479488373,-0.0013864252250641584,-0.0013461766066029668
1761505966699656700,6.08665673828125,-0.00008982233703136444,-0.0001973239704966545,0.0003409360069781542
1761505966709692700,6.096692626953125,0.00018036877736449242,-0.00022252812050282955,0.0019360457081347704
1761505966719728600,6.106728759765625,-0.0013727867044508457,0.000433674780651927,-0.0014576205285266042
1761505966729764600,6.1167646484375,0.0008677151054143906,0.00019552861340343952,0.0005981087451800704
1761505966739800600,6.126800537109375,0.00030365772545337677,-0.0014170154463499784,-0.0016887476667761803
1761505966749836800,6.1368369140625,-0.0012806961312890053,-0.0027421051636338234,0.00014726771041750908
1761505966759872800,6.146872802734375,0.00027432385832071304,0.00046407454647123814,0.0013097375631332397
1761505966769908700,6.15690869140625,0.001903328113257885,-0.0013780887238681316,-0.0011580465361475945
1761505966779944700,6.16694482421875,-0.003052281681448221,-0.0012710299342870712,-0.001004914753139019
1761505966789980700,6.176980712890625,-0.001822291873395443,-0.002291035372763872,0.0010363543406128883
1761505966800017000,6.187016845703125,0.0002565714530646801,0.0009676085319370031,0.0006448696367442608
1761505966810052900,6.197052978515625,0.000351103488355875,0.00030696182511746883,0.00015847990289330482
1761505966820088800,6.2070888671875,-0.0014137732796370983,-0.001874167239293456,0.0006940416060388088
1761505966830125800,6.217125732421875,0.0005461997352540493,-0.00043672393076121807,-0.00291655957698822
1761505966840161800,6.227161865234375,0.0007115821354091167,-0.0006993117276579142,-0.0008906930452212691
1761505966850197800,6.23719775390625,0.0014888099394738674,0.0008135335519909859,0.0014012132305651903
1761505966860233700,6.247233642578125,0.0000935802236199379,-0.0006999408360570669,0.0012414235388860106
1761505966870269700,6.257269775390625,-0.0004781978204846382,-0.0004372235853224993,-0.001974552869796753
1761505966880305700,6.2673056640625,-0.00032266927883028984,-0.00022363802418112755,0.00024359370581805706
1761505966890341600,6.277341552734375,-0.0008201878517866135,0.0021441702265292406,-0.00111901736818254
1761505966900377900,6.2873779296875,0.0022712096106261015,-0.002275345381349325,-0.00022898882161825895
1761505966910413800,6.297413818359375,-0.001960381865501404,0.0002488628961145878,0.001247358275577426
1761505966920449800,6.30744970703125,-0.0008759424090385437,-0.00005633546970784664,-0.00007756438571959734
1761505966930485800,6.31748583984375,-0.00018593482673168182,-0.0015405411832034588,0.000612013740465045
1761505966940521700,6.327521728515625,-0.0010234988294541836,-0.0006952537223696709,-0.0007038542535156012
1761505966950557700,6.3375576171875,0.00018389523029327393,-0.0005259418394416571,-0.0011899697128683329
1761505966960593700,6.34759375,-0.000600938219577074,0.000795252388343215,0.0010007465025410056
1761505966970629600,6.357629638671875,0.00008501531556248665,-0.0007212029304355383,-0.000427718972787261
1761505966980665600,6.36766552734375,0.00005598645657300949,-0.0005702017806470394,0.00006869423668831587
1761505966990701600,6.37770166015625,-0.0019517792388796806,-0.0026699278969317675,0.0018482512095943093
1761505967000737800,6.38773779296875,-0.002664441242814064,0.003764269407838583,-0.0006905401824042201
1761505967010773800,6.397773681640625,0.00016971444711089134,0.0006475816480815411,-0.00028300611302256584
1761505967020809700,6.407809814453125,0.0007822411134839058,-0.0010081056971102953,0.000564145389944315
1761505967030846000,6.417845947265625,-0.0005048844031989574,-0.0014790077693760395,0.0019420061726123095
1761505967040882000,6.4278818359375,0.001535097137093544,0.0026646042242646217,-0.0008796131005510688
1761505967050919000,6.4379189453125,0.0018318011425435543,0.0009416567627340555,0.0005193831748329103
1761505967060955000,6.447954833984375,0.0020733498968183994,-0.0008743528742343187,0.0016688035102561116
1761505967070991400,6.457991455078125,0.00020636478438973427,0.0016690465854480863,0.0008581656729802489
1761505967081027300,6.46802734375,0.0015869475901126862,0.0005012503825128078,0.0014991885982453823
1761505967091063300,6.478063232421875,-0.00105179101228714,0.0010986787965521216,0.0008067413000389934
1761505967101099300,6.488099365234375,-0.0003005131147801876,-0.0025871358811855316,0.00005386571865528822
1761505967111135200,6.49813525390625,-0.0006553633138537407,0.00048127956688404083,0.000833665719255805
1761505967121171200,6.508171142578125,-0.0016575106419622898,-0.00021966430358588696,0.001773761585354805
1761505967131207200,6.518207275390625,-0.0013501071371138096,-0.000654466450214386,0.0012529697269201279
1761505967141243100,6.5282431640625,0.0014986763708293438,-0.0010672563221305609,0.0002646706998348236
1761505967151279000,6.538279052734375,0.0009935512207448483,0.0005691589321941137,-0.0008167922496795654
1761505967161315300,6.5483154296875,-0.0013351170346140862,0.00003546150401234627,-0.0003976105945184827
1761505967171351300,6.558351318359375,0.0012258836068212986,-0.0026555198710411787,-0.0013404248747974634
1761505967181387300,6.56838720703125,-0.00023778947070240974,0.001012718421407044,0.001513951108790934
1761505967191423200,6.57842333984375,0.0032744950149208307,-0.0010601473040878773,-0.0028261616826057434
1761505967201459200,6.588459228515625,0.0017445092089474201,0.00020458758808672428,0.00019652582705020905
1761505967211495200,6.5984951171875,0.00136472936719656,-0.0015519445296376944,-0.0009848900372162461
1761505967221531100,6.60853125,0.0008075963705778122,0.000011597294360399246,-0.0005268264794722199
1761505967231567400,6.6185673828125,-0.0001416429877281189,-0.0015751542523503304,0.0003661270020529628
1761505967241603300,6.628603271484375,0.002833374310284853,0.0008163645397871733,-0.0007132521132007241
1761505967251639300,6.638639404296875,-0.00012073013931512833,-0.0002765241079032421,0.0006265208357945085
1761505967261675300,6.64867529296875,0.0005437284708023071,0.002650556154549122,-0.00029120442923158407
1761505967271711200,6.658711181640625,-0.0006763334386050701,-0.0013127978891134262,-0.0012451255461201072
1761505967281747500,6.66874755859375,-0.0010814000852406025,-0.0009956154972314835,-0.00007413362618535757
1761505967291784200,6.6787841796875,-0.0003317659720778465,-0.0017859290819615126,-0.0004968247376382351
1761505967301820200,6.688820068359375,0.0008821031078696251,-0.0007723299786448479,-0.0019114959286525846
1761505967311856400,6.6988564453125,-0.00039581069722771645,0.00012579862959682941,0.0018612014828249812
1761505967321892400,6.708892333984375,0.000573313795030117,-0.000581004424020648,0.0006055210251361132
1761505967331928300,6.71892822265625,0.0008463063277304173,0.0017653879476711154,0.0006175620947033167
1761505967341964300,6.72896435546875,-0.0021710549481213093,-0.0007915131282061338,-0.00020775152370333672
1761505967352000300,6.739000244140625,0.0006738430820405483,-0.00033207167871296406,0.00001908338163048029
1761505967362036200,6.7490361328125,-0.0005805054679512978,0.0006074914708733559,-0.0017122374847531319
1761505967372072200,6.759072265625,-0.0007249652408063412,0.0006257328204810619,-0.00015956326387822628
1761505967382108200,6.769108154296875,-0.00035718269646167755,0.000340508297085762,-0.0009262873791158199
1761505967392144100,6.77914404296875,-0.0017569460906088352,0.00047058542259037495,0.0006481937598437071
1761505967402180000,6.78918017578125,-0.0015369690954685211,-0.0005262356717139482,-0.0003648727433755994
1761505967412216000,6.799216064453125,-0.0014319205656647682,0.0010369418887421489,-0.000163152813911438
1761505967422252300,6.809252197265625,-0.0002332320436835289,0.005466843955218792,-0.0004529047291725874
1761505967432288300,6.819288330078125,-0.00160575145855546,0.000738212838768959,0.0018978718435391784
1761505967442324200,6.82932421875,0.0001564621925354004,-0.0027145755011588335,0.0003766742302104831
1761505967452360200,6.839360107421875,0.00020005181431770325,-0.0005073533393442631,-0.001827301923185587
1761505967462396400,6.849396484375,-0.00026520248502492905,0.0022671278566122055,-0.0013015938457101583
1761505967472432400,6.859432373046875,-0.0011201854795217514,-0.001315105240792036,0.0003779378021135926
1761505967482468400,6.86946826171875,-0.001979321241378784,-0.002912735566496849,0.0010735554387792945
1761505967492504300,6.87950439453125,-0.0004465412348508835,-0.0007938893977552652,-0.00021749211009591818
1761505967502540300,6.889540283203125,0.0007156622596085072,-0.0018647464457899332,0.00031061272602528334
1761505967512576300,6.899576171875,0.003154088743031025,-0.0005311013665050268,-0.0008515960071235895
1761505967522612200,6.9096123046875,0.0009159683249890804,-0.00006797770038247108,0.0022845424246042967
1761505967532648400,6.9196484375,-0.0007704501040279865,0.0016176645876839757,0.0016659453976899385
1761505967542684400,6.929684326171875,-0.000638091005384922,-0.0031685687135905027,0.0002158541465178132
1761505967552721200,6.93972119140625,0.0030192018020898104,-0.0003617038019001484,0.0006426629843190312
1761505967562757400,6.94975732421875,-0.00017286278307437897,-0.0013854226563125849,-0.0005232689436525106
1761505967572793300,6.95979345703125,-0.002161244861781597,-0.0004496995825320482,0.001099906861782074
1761505967582829300,6.969829345703125,-0.0006299270316958427,-0.0013865998480468988,-0.00045271601993590593
1761505967592865300,6.979865234375,-0.0003844420425593853,0.0013797390274703503,0.00045777158811688423
1761505967602901200,6.9899013671875,0.0010400828905403614,0.0033731150906533003,-0.001051441882736981
1761505967612937200,6.999937255859375,-0.001469422597438097,0.002310932846739888,-0.00011079944670200348
1761505967622973200,7.00997314453125,-0.0010198811069130898,0.0016012003179639578,0.00024446623865514994
1761505967633009200,7.020009033203125,0.0016966876573860645,-0.0012745466083288193,0.0012132111005485058
1761505967643045000,7.030045166015625,0.00004153326153755188,0.0022317711263895035,-0.000043268315494060516
1761505967653081000,7.0400810546875,-0.0018857046961784363,0.0017911667237058282,0.0006337499944493175
1761505967663117000,7.050116943359375,-0.00028700893744826317,0.0013791756937280297,0.0015876942779868841
1761505967673153300,7.0601533203125,0.004178185947239399,-0.0028388130012899637,0.002931932220235467
1761505967683189200,7.070189208984375,-0.0013587921857833862,-0.0015892579685896635,0.002795312087982893
1761505967693225200,7.08022509765625,0.00012203305959701538,-0.0013914313167333603,-0.0009062279714271426
1761505967703261400,7.090261474609375,-0.0005586710758507252,-0.0022087558172643185,0.0006634392775595188
1761505967713297400,7.10029736328125,-0.0003409995697438717,-0.0005782353691756725,0.0008167201885953546
1761505967723333400,7.11033349609375,-0.0003625708632171154,0.00021911505609750748,-0.001612082589417696
1761505967733369300,7.120369384765625,0.0005235481075942516,-0.00007099262438714504,0.0007453830912709236
1761505967743405300,7.1304052734375,0.0023291714023798704,-0.001165285473689437,-0.00040164042729884386
1761505967753441300,7.140441162109375,0.0007144967094063759,-0.0029344235081225634,-0.0003185498062521219
1761505967763477200,7.150477294921875,0.0004527405835688114,-0.001869773492217064,-0.001530355541035533
1761505967773513200,7.16051318359375,-0.0025545014068484306,-0.001847478561103344,0.00008595152758061886
1761505967783549200,7.170549072265625,0.0003507412038743496,-0.0017886226996779442,-0.00025333522353321314
1761505967793585400,7.18058544921875,0.0010700789280235767,-0.001590860541909933,0.00012324051931500435
1761505967803621400,7.190621337890625,0.0008184104226529598,0.0025476920418441296,0.00010912586003541946
1761505967813657300,7.2006572265625,0.0009463070891797543,0.0010999258374795318,-0.0003865533508360386
1761505967823693300,7.210693359375,-0.003033521119505167,-0.0028029365930706263,-0.0006763051496818662
1761505967833730300,7.220730224609375,0.0007949485443532467,-0.0002885835710912943,-0.0021007324103266
1761505967843766300,7.230766357421875,-0.001913752406835556,0.0011471265461295843,-0.000030124676413834095
1761505967853802200,7.24080224609375,-0.0004414087161421776,0.0011347455438226461,-0.0011503186542540789
1761505967863838200,7.250838134765625,-0.00045126210898160934,-0.0012746162246912718,0.00023878621868789196
1761505967873874200,7.260874267578125,-0.0014897841028869152,-0.00462747598066926,-0.0007505355169996619
1761505967883910100,7.27091015625,-0.0003949585370719433,0.0035444339737296104,0.0002734498120844364
1761505967893946000,7.280946044921875,0.0005742460489273071,-0.00025513372384011745,0.0021804198622703552
1761505967903982000,7.290982177734375,-0.0009615989401936531,0.0022232038900256157,-0.0002787429839372635
1761505967914018000,7.30101806640625,-0.0015944736078381538,-0.000021054409444332123,0.0011678909650072455
1761505967924054300,7.31105419921875,0.0028383578173816204,0.0008761645294725895,-0.0008646335918456316
1761505967934090500,7.321090576171875,-0.0006755921058356762,0.0013932535657659173,-0.001306182355619967
1761505967944126500,7.33112646484375,-0.0006976961158216,0.0021908702328801155,-0.0003687497228384018
1761505967954162400,7.341162353515625,0.0007241046987473965,-0.002533957129344344,-0.00201742397621274
1761505967964198400,7.351198486328125,-0.0005568759515881538,-0.00033658300526440144,0.00012615439482033253
1761505967974234400,7.361234375,0.0007806578651070595,0.0001284817699342966,0.000373228220269084
1761505967984270300,7.371270263671875,0.00041260896250605583,-0.0002624702174216509,0.0013636578805744648
1761505967994306300,7.381306396484375,0.0010385806672275066,-0.0003341180272400379,-0.0006571755511686206
1761505968004342300,7.39134228515625,-0.0021492233499884605,0.0007095746695995331,0.0002988992491737008
1761505968014378200,7.401378173828125,0.0030533317476511,-0.0013031226117163897,0.00034177431371062994
1761505968024414200,7.411414306640625,-0.000386939849704504,-0.001436546677723527,0.0007183452835306525
1761505968034450200,7.4214501953125,-0.0020202412270009518,-0.0024740835651755333,-0.00006606418173760176
1761505968044486400,7.431486328125,-0.0013110414147377014,-0.00009827781468629837,-0.001863697892986238
1761505968054522400,7.4415224609375,-0.00022141309455037117,-0.0015171640552580357,-0.0002289799740538001
1761505968064558300,7.451558349609375,0.0014031152240931988,-0.0006633545272052288,-0.001805837731808424
1761505968074593500,7.461593505859375,-0.0009244750253856182,-0.0019077407196164131,-0.0007880484918132424
1761505968084629500,7.47162939453125,0.0018603922799229622,-0.0009372846689075232,0.0010806916980072856
1761505968094665500,7.48166552734375,0.0009214202873408794,-0.0005122642032802105,0.0003849170170724392
1761505968104701700,7.49170166015625,-0.0009236177429556847,-0.0013415724970400333,-0.00004491722211241722
1761505968114737700,7.501737548828125,-0.0008302233181893826,0.0019790083169937134,-0.0014376076869666576
1761505968124773600,7.511773681640625,0.0016257436946034431,0.002120954915881157,0.000552040000911802
1761505968134809900,7.521809814453125,0.002807758981361985,-0.0018120254389941692,0.0000061962055042386055
1761505968144845800,7.531845703125,-0.0008591474033892155,-0.0009385086596012115,-0.00014587026089429855
1761505968154881800,7.5418818359375,0.0011845515109598637,0.001131800003349781,0.00005216454155743122
1761505968164917800,7.551917724609375,0.002316128695383668,-0.0013862189371138811,-0.0007723501184955239
1761505968174953700,7.56195361328125,0.0011680405586957932,-0.0002631247043609619,0.00012787466403096914
1761505968184990700,7.57199072265625,-0.0001488928683102131,0.0011036094510927796,0.00046556349843740463
1761505968195026700,7.582026611328125,0.0010082018561661243,0.0015453388914465904,0.0004041235661134124
1761505968205062700,7.592062744140625,0.0009307037107646465,-0.000038709258660674095,0.0003268918953835964
1761505968215098600,7.6020986328125,0.0021375338546931744,-0.0018973017577081919,0.000405346043407917
1761505968225134600,7.612134521484375,-0.0009930119849741459,-0.0018640125636011362,-0.0006375478114932775
1761505968235170600,7.622170654296875,-0.0004901387728750706,0.0008148080669343472,0.000034038443118333817
1761505968245206500,7.63220654296875,0.0003253212198615074,0.0008752618450671434,-0.0011033976916223764
1761505968255242500,7.642242431640625,-0.0009597325697541237,0.0006327626761049032,-0.001618139329366386
1761505968265278500,7.652278564453125,-0.002468679565936327,-0.0024426558520644903,0.00037630193401128054
1761505968275314700,7.662314697265625,-0.0000533033162355423,-0.0006021864246577024,-0.0010438492754474282
1761505968285350700,7.6723505859375,-0.00030443957075476646,0.0002910376060754061,-0.00015701667871326208
1761505968295386600,7.68238671875,0.0007539489306509495,0.0009616089519113302,-0.0020694066770374775
1761505968305422600,7.692422607421875,-0.0008215773850679398,-0.0035479215439409018,-0.00023475498892366886
1761505968315458600,7.70245849609375,0.0023920126259326935,-0.0006035466212779284,0.00018947117496281862
1761505968325494500,7.71249462890625,0.0021845523733645678,-0.00040247803553938866,-0.00045341590885072947
1761505968335530800,7.72253076171875,-0.0008790637366473675,0.0006116901058703661,0.00008615455590188503
1761505968345566700,7.732566650390625,-0.0013160882517695427,0.0015611069975420833,0.00030799582600593567
1761505968355602700,7.742602783203125,0.001767849549651146,-0.00003407592885196209,0.0008213945548050106
1761505968365638700,7.752638671875,0.0034059600438922644,-0.0012394224759191275,0.0009337799274362624
1761505968375674600,7.762674560546875,0.00041036587208509445,-0.0007502622902393341,0.0005454227793961763
1761505968385710600,7.772710693359375,-0.0007939157076179981,-0.0016064683441072702,-0.000886026187799871
1761505968395746800,7.782746826171875,0.00068269157782197,-0.0018419916741549969,-0.0009763912530615926
1761505968405782800,7.79278271484375,0.002086976543068886,-0.002894739154726267,-0.0032310234382748604
1761505968415818800,7.80281884765625,-0.0009834165684878826,0.0009487180504947901,0.002696343930438161
1761505968425854700,7.812854736328125,0.0013678884133696556,0.002415054477751255,-0.00039212394040077925
1761505968435890700,7.822890625,0.0011909105814993382,-0.0009416036773473024,-0.00033499719575047493
1761505968445926700,7.8329267578125,0.0019563031382858753,-0.0007165665738284588,0.00010788650251924992
1761505968455962600,7.842962646484375,0.000999718438833952,0.0023723680060356855,0.0008937668753787875
1761505968465998600,7.85299853515625,0.0018319562077522278,0.00021121278405189514,0.00031852407846599817
1761505968476034600,7.86303466796875,0.0021818941459059715,0.00005335756577551365,-0.0024377848021686077
1761505968486070500,7.873070556640625,-0.0010232203640043736,-0.0012028554920107126,0.00010872981511056423
1761505968496106800,7.883106689453125,0.000025995541363954544,0.0011762018548324704,-0.0014834190951660275
1761505968506142700,7.893142822265625,-0.0003186170943081379,-0.0011247692164033651,0.0002505650045350194
1761505968516178700,7.9031787109375,-0.0007553622126579285,0.0008482988923788071,0.00048381939996033907
1761505968526214700,7.913214599609375,0.0007266872562468052,-0.0015586663503199816,0.002983462531119585
1761505968536250600,7.923250732421875,0.001122474204748869,0.002208646619692445,0.0021319054067134857
1761505968546286600,7.93328662109375,-0.0014477423392236233,-0.00005290983244776726,-0.0005317882169038057
1761505968556322600,7.943322509765625,-0.0025198860093951225,-0.00032918783836066723,0.0005592397646978498
1761505968566358500,7.953358642578125,-0.0006711198948323727,-0.0004860479384660721,0.0005291460547596216
1761505968576394500,7.96339453125,0.002258855849504471,-0.0006381392013281584,-0.00036399124655872583
1761505968586430500,7.973430419921875,-0.0002698157913982868,0.00013124803081154823,0.0011042093392461538
1761505968596466400,7.983466552734375,-0.001427442766726017,-0.0007455958984792233,0.0005641274037770927
1761505968606502700,7.993502685546875,0.0007523545064032078,-0.0021618648897856474,-0.0006540025351569057
1761505968616538600,8.00353857421875,0.0007396433502435684,0.000439557246863842,-0.0006220870418474078
1761505968626573600,8.013573486328125,0.0008171414956450462,-0.0009255793411284685,-0.0014410089934244752
1761505968636609500,8.023609619140625,-0.0019604195840656757,0.0007872611749917269,-0.0018984429771080613
1761505968646645500,8.0336455078125,-0.001799031626433134,0.00016434770077466965,0.0007905507809482515
1761505968656681500,8.043681396484375,0.0018376503139734268,-0.0002838016953319311,0.0018926996272057295
1761505968666717400,8.053717529296875,0.00045333942398428917,-0.0011181700974702835,0.0007858899189159274
1761505968676753400,8.06375341796875,-0.0018176375888288021,-0.0008876139763742685,0.002508186735212803
1761505968686789600,8.07378955078125,-0.00019204383715987206,-0.00030171871185302734,0.0008919141255319118
1761505968696825900,8.083825927734376,-0.0005536819808185101,0.0012815060326829553,0.0006447360501624644
1761505968706861800,8.09386181640625,0.0017763176001608372,0.0020652743987739086,-0.0005861769896000624
1761505968716897800,8.103897705078126,-0.0006435415707528591,-0.0023436332121491432,0.0009296924690715969
1761505968726933800,8.113933837890626,0.0006275852210819721,-0.001340420451015234,0.0006252931780181825
1761505968736969700,8.1239697265625,0.000020759180188179016,-0.002186043653637171,-0.0013341896701604128
1761505968747005700,8.134005615234376,-0.0006199972704052925,0.0003849719651043415,-0.0012305928394198418
1761505968757041700,8.144041748046876,-0.000059650279581546783,-0.0013159466907382011,-0.0018701350782066584
1761505968767077600,8.15407763671875,-0.00027829594910144806,-0.00030634202994406223,-0.0011319068726152182
1761505968777113600,8.164113525390626,0.00013841036707162857,0.00482471426948905,0.00046917900908738375
1761505968787149600,8.174149658203126,0.00021377764642238617,-0.0002121224533766508,0.000672378228046
1761505968797185500,8.184185546875,-0.0016359244473278522,0.08134342730045319,0.024320604279637337
1761505968807221800,8.1942216796875,-0.010066959075629711,0.608093798160553,0.12578704953193665
1761505968817257700,8.2042578125,-0.007812700234353542,0.3181123435497284,0.034384265542030334
1761505968827293700,8.214293701171876,0.002121423603966832,-0.2532467544078827,-0.03429945558309555
1761505968837329700,8.22432958984375,-0.00047345366328954697,-0.25855085253715515,-0.04778634011745453
1761505968847365600,8.23436572265625,-0.0021360646933317184,0.12835317850112915,0.022046536207199097
1761505968857401600,8.244401611328126,0.004335043020546436,-0.22218665480613708,-0.04119570925831795
1761505968867437600,8.2544375,0.0048117488622665405,-0.3093639016151428,-0.07190807908773422
1761505968877473500,8.2644736328125,-0.002282912377268076,0.04716416820883751,0.043530624359846115
1761505968887509500,8.274509521484376,0.003023169469088316,-0.037885744124650955,-0.0009553511627018452
